"trial_type","trial_index","time_elapsed","internal_node_id","condition","subject","screen_width","screen_height","attention","distraction","conscientious","prolificID","success","rt","url","view_history","test_part","final_height_px","final_width_px","scale_factor","stimulus","key_press","learningType","presentedImage","presentedLabel","button_pressed","response","responses"
"pavlovia","0","6","0.0-0.0","FL","ker7u0dhxt","1920","1080","0","1","0","5c87d68fe5bc060001ee8498","","","","","","","","","","","","","","","",""
"fullscreen","1","41641","0.0-1.0","FL","ker7u0dhxt","1920","1080","0","1","0","5c87d68fe5bc060001ee8498","true","","","","","","","","","","","","","","",""
"external-html","2","194676","0.0-2.0-0.0","FL","ker7u0dhxt","1920","1080","0","1","0","5c87d68fe5bc060001ee8498","","152948","text/information_english.html","","","","","","","","","","","","",""
"external-html","3","235292","0.0-2.0-1.0","FL","ker7u0dhxt","1920","1080","0","1","0","5c87d68fe5bc060001ee8498","","40444","text/consent_english.html","","","","","","","","","","","","",""
"instructions","4","296743","0.0-3.0","FL","ker7u0dhxt","1920","1080","0","1","0","5c87d68fe5bc060001ee8498","","NA","","[{""page_index"":0,""viewing_time"":2207},{""page_index"":1,""viewing_time"":59242}]","instructions","","","","","","","","","","",""
"resize","5","555856","0.0-4.0","FL","ker7u0dhxt","1920","1080","0","1","0","5c87d68fe5bc060001ee8498","","","","","","","318","2.019047619047619","","","","","","","",""
"image-keyboard-response","6","556042","0.0-5.0-0.0","FL","ker7u0dhxt","1920","1080","0","1","0","5c87d68fe5bc060001ee8498","","null","","","","","","","learning/Slide1.JPG","null","","","","","",""
"html-keyboard-response","7","557209","0.0-5.0-1.0","FL","ker7u0dhxt","1920","1080","0","1","0","5c87d68fe5bc060001ee8498","","null","","","learningBlock1","","","","That was a tob.","null","","","","","",""
"html-keyboard-response","8","558222","0.0-5.0-2.0","FL","ker7u0dhxt","1920","1080","0","1","0","5c87d68fe5bc060001ee8498","","null","","","learningBlock1","","","","<div style=""font-size:60px;""> </div>","null","FL","learning/Slide1.JPG","That was a tob.","","",""
"image-keyboard-response","9","558412","0.0-5.0-0.1","FL","ker7u0dhxt","1920","1080","0","1","0","5c87d68fe5bc060001ee8498","","null","","","","","","","learning/Slide2.JPG","null","","","","","",""
"html-keyboard-response","10","559585","0.0-5.0-1.1","FL","ker7u0dhxt","1920","1080","0","1","0","5c87d68fe5bc060001ee8498","","null","","","learningBlock1","","","","That was a wug.","null","","","","","",""
"html-keyboard-response","11","560595","0.0-5.0-2.1","FL","ker7u0dhxt","1920","1080","0","1","0","5c87d68fe5bc060001ee8498","","null","","","learningBlock1","","","","<div style=""font-size:60px;""> </div>","null","FL","learning/Slide2.JPG","That was a wug.","","",""
"image-keyboard-response","12","560781","0.0-5.0-0.2","FL","ker7u0dhxt","1920","1080","0","1","0","5c87d68fe5bc060001ee8498","","null","","","","","","","learning/Slide3.JPG","null","","","","","",""
"html-keyboard-response","13","561950","0.0-5.0-1.2","FL","ker7u0dhxt","1920","1080","0","1","0","5c87d68fe5bc060001ee8498","","null","","","learningBlock1","","","","That was a bim.","null","","","","","",""
"html-keyboard-response","14","562958","0.0-5.0-2.2","FL","ker7u0dhxt","1920","1080","0","1","0","5c87d68fe5bc060001ee8498","","null","","","learningBlock1","","","","<div style=""font-size:60px;""> </div>","null","FL","learning/Slide3.JPG","That was a bim.","","",""
"image-keyboard-response","15","563149","0.0-5.0-0.3","FL","ker7u0dhxt","1920","1080","0","1","0","5c87d68fe5bc060001ee8498","","null","","","","","","","learning/Slide4.JPG","null","","","","","",""
"html-keyboard-response","16","564322","0.0-5.0-1.3","FL","ker7u0dhxt","1920","1080","0","1","0","5c87d68fe5bc060001ee8498","","null","","","learningBlock1","","","","That was a dep.","null","","","","","",""
"html-keyboard-response","17","565331","0.0-5.0-2.3","FL","ker7u0dhxt","1920","1080","0","1","0","5c87d68fe5bc060001ee8498","","null","","","learningBlock1","","","","<div style=""font-size:60px;""> </div>","null","FL","learning/Slide4.JPG","That was a dep.","","",""
"image-keyboard-response","18","565506","0.0-5.0-0.4","FL","ker7u0dhxt","1920","1080","0","1","0","5c87d68fe5bc060001ee8498","","null","","","","","","","learning/Slide5.JPG","null","","","","","",""
"html-keyboard-response","19","566670","0.0-5.0-1.4","FL","ker7u0dhxt","1920","1080","0","1","0","5c87d68fe5bc060001ee8498","","null","","","learningBlock1","","","","That was a wug.","null","","","","","",""
"html-keyboard-response","20","567681","0.0-5.0-2.4","FL","ker7u0dhxt","1920","1080","0","1","0","5c87d68fe5bc060001ee8498","","null","","","learningBlock1","","","","<div style=""font-size:60px;""> </div>","null","FL","learning/Slide5.JPG","That was a wug.","","",""
"image-keyboard-response","21","567871","0.0-5.0-0.5","FL","ker7u0dhxt","1920","1080","0","1","0","5c87d68fe5bc060001ee8498","","null","","","","","","","learning/Slide6.JPG","null","","","","","",""
"html-keyboard-response","22","569043","0.0-5.0-1.5","FL","ker7u0dhxt","1920","1080","0","1","0","5c87d68fe5bc060001ee8498","","null","","","learningBlock1","","","","That was a dep.","null","","","","","",""
"html-keyboard-response","23","570054","0.0-5.0-2.5","FL","ker7u0dhxt","1920","1080","0","1","0","5c87d68fe5bc060001ee8498","","null","","","learningBlock1","","","","<div style=""font-size:60px;""> </div>","null","FL","learning/Slide6.JPG","That was a dep.","","",""
"image-keyboard-response","24","570235","0.0-5.0-0.6","FL","ker7u0dhxt","1920","1080","0","1","0","5c87d68fe5bc060001ee8498","","null","","","","","","","learning/Slide7.JPG","null","","","","","",""
"html-keyboard-response","25","571394","0.0-5.0-1.6","FL","ker7u0dhxt","1920","1080","0","1","0","5c87d68fe5bc060001ee8498","","null","","","learningBlock1","","","","That was a wug.","null","","","","","",""
"html-keyboard-response","26","572400","0.0-5.0-2.6","FL","ker7u0dhxt","1920","1080","0","1","0","5c87d68fe5bc060001ee8498","","null","","","learningBlock1","","","","<div style=""font-size:60px;""> </div>","null","FL","learning/Slide7.JPG","That was a wug.","","",""
"image-keyboard-response","27","572588","0.0-5.0-0.7","FL","ker7u0dhxt","1920","1080","0","1","0","5c87d68fe5bc060001ee8498","","null","","","","","","","learning/Slide8.JPG","null","","","","","",""
"html-keyboard-response","28","573742","0.0-5.0-1.7","FL","ker7u0dhxt","1920","1080","0","1","0","5c87d68fe5bc060001ee8498","","null","","","learningBlock1","","","","That was a bim.","null","","","","","",""
"html-keyboard-response","29","574749","0.0-5.0-2.7","FL","ker7u0dhxt","1920","1080","0","1","0","5c87d68fe5bc060001ee8498","","null","","","learningBlock1","","","","<div style=""font-size:60px;""> </div>","null","FL","learning/Slide8.JPG","That was a bim.","","",""
"image-keyboard-response","30","574937","0.0-5.0-0.8","FL","ker7u0dhxt","1920","1080","0","1","0","5c87d68fe5bc060001ee8498","","null","","","","","","","learning/Slide9.JPG","null","","","","","",""
"html-keyboard-response","31","576108","0.0-5.0-1.8","FL","ker7u0dhxt","1920","1080","0","1","0","5c87d68fe5bc060001ee8498","","null","","","learningBlock1","","","","That was a wug.","null","","","","","",""
"html-keyboard-response","32","577122","0.0-5.0-2.8","FL","ker7u0dhxt","1920","1080","0","1","0","5c87d68fe5bc060001ee8498","","null","","","learningBlock1","","","","<div style=""font-size:60px;""> </div>","null","FL","learning/Slide9.JPG","That was a wug.","","",""
"image-keyboard-response","33","577312","0.0-5.0-0.9","FL","ker7u0dhxt","1920","1080","0","1","0","5c87d68fe5bc060001ee8498","","null","","","","","","","learning/Slide10.JPG","null","","","","","",""
"html-keyboard-response","34","578477","0.0-5.0-1.9","FL","ker7u0dhxt","1920","1080","0","1","0","5c87d68fe5bc060001ee8498","","null","","","learningBlock1","","","","That was a dep.","null","","","","","",""
"html-keyboard-response","35","579479","0.0-5.0-2.9","FL","ker7u0dhxt","1920","1080","0","1","0","5c87d68fe5bc060001ee8498","","null","","","learningBlock1","","","","<div style=""font-size:60px;""> </div>","null","FL","learning/Slide10.JPG","That was a dep.","","",""
"image-keyboard-response","36","579668","0.0-5.0-0.10","FL","ker7u0dhxt","1920","1080","0","1","0","5c87d68fe5bc060001ee8498","","null","","","","","","","learning/Slide11.JPG","null","","","","","",""
"html-keyboard-response","37","580832","0.0-5.0-1.10","FL","ker7u0dhxt","1920","1080","0","1","0","5c87d68fe5bc060001ee8498","","null","","","learningBlock1","","","","That was a tob.","null","","","","","",""
"html-keyboard-response","38","581839","0.0-5.0-2.10","FL","ker7u0dhxt","1920","1080","0","1","0","5c87d68fe5bc060001ee8498","","null","","","learningBlock1","","","","<div style=""font-size:60px;""> </div>","null","FL","learning/Slide11.JPG","That was a tob.","","",""
"image-keyboard-response","39","582017","0.0-5.0-0.11","FL","ker7u0dhxt","1920","1080","0","1","0","5c87d68fe5bc060001ee8498","","null","","","","","","","learning/Slide12.JPG","null","","","","","",""
"html-keyboard-response","40","583177","0.0-5.0-1.11","FL","ker7u0dhxt","1920","1080","0","1","0","5c87d68fe5bc060001ee8498","","null","","","learningBlock1","","","","That was a dep.","null","","","","","",""
"html-keyboard-response","41","584187","0.0-5.0-2.11","FL","ker7u0dhxt","1920","1080","0","1","0","5c87d68fe5bc060001ee8498","","null","","","learningBlock1","","","","<div style=""font-size:60px;""> </div>","null","FL","learning/Slide12.JPG","That was a dep.","","",""
"image-keyboard-response","42","584376","0.0-5.0-0.12","FL","ker7u0dhxt","1920","1080","0","1","0","5c87d68fe5bc060001ee8498","","null","","","","","","","learning/Slide13.JPG","null","","","","","",""
"html-keyboard-response","43","585534","0.0-5.0-1.12","FL","ker7u0dhxt","1920","1080","0","1","0","5c87d68fe5bc060001ee8498","","null","","","learningBlock1","","","","That was a bim.","null","","","","","",""
"html-keyboard-response","44","586539","0.0-5.0-2.12","FL","ker7u0dhxt","1920","1080","0","1","0","5c87d68fe5bc060001ee8498","","null","","","learningBlock1","","","","<div style=""font-size:60px;""> </div>","null","FL","learning/Slide13.JPG","That was a bim.","","",""
"image-keyboard-response","45","586721","0.0-5.0-0.13","FL","ker7u0dhxt","1920","1080","0","1","0","5c87d68fe5bc060001ee8498","","null","","","","","","","learning/Slide14.JPG","null","","","","","",""
"html-keyboard-response","46","587876","0.0-5.0-1.13","FL","ker7u0dhxt","1920","1080","0","1","0","5c87d68fe5bc060001ee8498","","null","","","learningBlock1","","","","That was a wug.","null","","","","","",""
"html-keyboard-response","47","588889","0.0-5.0-2.13","FL","ker7u0dhxt","1920","1080","0","1","0","5c87d68fe5bc060001ee8498","","null","","","learningBlock1","","","","<div style=""font-size:60px;""> </div>","null","FL","learning/Slide14.JPG","That was a wug.","","",""
"image-keyboard-response","48","589079","0.0-5.0-0.14","FL","ker7u0dhxt","1920","1080","0","1","0","5c87d68fe5bc060001ee8498","","null","","","","","","","learning/Slide15.JPG","null","","","","","",""
"html-keyboard-response","49","590237","0.0-5.0-1.14","FL","ker7u0dhxt","1920","1080","0","1","0","5c87d68fe5bc060001ee8498","","null","","","learningBlock1","","","","That was a tob.","null","","","","","",""
"html-keyboard-response","50","591237","0.0-5.0-2.14","FL","ker7u0dhxt","1920","1080","0","1","0","5c87d68fe5bc060001ee8498","","null","","","learningBlock1","","","","<div style=""font-size:60px;""> </div>","null","FL","learning/Slide15.JPG","That was a tob.","","",""
"image-keyboard-response","51","591421","0.0-5.0-0.15","FL","ker7u0dhxt","1920","1080","0","1","0","5c87d68fe5bc060001ee8498","","null","","","","","","","learning/Slide16.JPG","null","","","","","",""
"html-keyboard-response","52","592591","0.0-5.0-1.15","FL","ker7u0dhxt","1920","1080","0","1","0","5c87d68fe5bc060001ee8498","","null","","","learningBlock1","","","","That was a dep.","null","","","","","",""
"html-keyboard-response","53","593599","0.0-5.0-2.15","FL","ker7u0dhxt","1920","1080","0","1","0","5c87d68fe5bc060001ee8498","","null","","","learningBlock1","","","","<div style=""font-size:60px;""> </div>","null","FL","learning/Slide16.JPG","That was a dep.","","",""
"image-keyboard-response","54","593784","0.0-5.0-0.16","FL","ker7u0dhxt","1920","1080","0","1","0","5c87d68fe5bc060001ee8498","","null","","","","","","","learning/Slide17.JPG","null","","","","","",""
"html-keyboard-response","55","594942","0.0-5.0-1.16","FL","ker7u0dhxt","1920","1080","0","1","0","5c87d68fe5bc060001ee8498","","null","","","learningBlock1","","","","That was a bim.","null","","","","","",""
"html-keyboard-response","56","595942","0.0-5.0-2.16","FL","ker7u0dhxt","1920","1080","0","1","0","5c87d68fe5bc060001ee8498","","null","","","learningBlock1","","","","<div style=""font-size:60px;""> </div>","null","FL","learning/Slide17.JPG","That was a bim.","","",""
"image-keyboard-response","57","596129","0.0-5.0-0.17","FL","ker7u0dhxt","1920","1080","0","1","0","5c87d68fe5bc060001ee8498","","null","","","","","","","learning/Slide18.JPG","null","","","","","",""
"html-keyboard-response","58","597299","0.0-5.0-1.17","FL","ker7u0dhxt","1920","1080","0","1","0","5c87d68fe5bc060001ee8498","","null","","","learningBlock1","","","","That was a tob.","null","","","","","",""
"html-keyboard-response","59","598311","0.0-5.0-2.17","FL","ker7u0dhxt","1920","1080","0","1","0","5c87d68fe5bc060001ee8498","","null","","","learningBlock1","","","","<div style=""font-size:60px;""> </div>","null","FL","learning/Slide18.JPG","That was a tob.","","",""
"image-keyboard-response","60","598496","0.0-5.0-0.18","FL","ker7u0dhxt","1920","1080","0","1","0","5c87d68fe5bc060001ee8498","","null","","","","","","","learning/Slide19.JPG","null","","","","","",""
"html-keyboard-response","61","599665","0.0-5.0-1.18","FL","ker7u0dhxt","1920","1080","0","1","0","5c87d68fe5bc060001ee8498","","null","","","learningBlock1","","","","That was a wug.","null","","","","","",""
"html-keyboard-response","62","600664","0.0-5.0-2.18","FL","ker7u0dhxt","1920","1080","0","1","0","5c87d68fe5bc060001ee8498","","null","","","learningBlock1","","","","<div style=""font-size:60px;""> </div>","null","FL","learning/Slide19.JPG","That was a wug.","","",""
"image-keyboard-response","63","600846","0.0-5.0-0.19","FL","ker7u0dhxt","1920","1080","0","1","0","5c87d68fe5bc060001ee8498","","null","","","","","","","learning/Slide20.JPG","null","","","","","",""
"html-keyboard-response","64","602009","0.0-5.0-1.19","FL","ker7u0dhxt","1920","1080","0","1","0","5c87d68fe5bc060001ee8498","","null","","","learningBlock1","","","","That was a bim.","null","","","","","",""
"html-keyboard-response","65","603014","0.0-5.0-2.19","FL","ker7u0dhxt","1920","1080","0","1","0","5c87d68fe5bc060001ee8498","","null","","","learningBlock1","","","","<div style=""font-size:60px;""> </div>","null","FL","learning/Slide20.JPG","That was a bim.","","",""
"image-keyboard-response","66","603201","0.0-5.0-0.20","FL","ker7u0dhxt","1920","1080","0","1","0","5c87d68fe5bc060001ee8498","","null","","","","","","","learning/Slide21.JPG","null","","","","","",""
"html-keyboard-response","67","604360","0.0-5.0-1.20","FL","ker7u0dhxt","1920","1080","0","1","0","5c87d68fe5bc060001ee8498","","null","","","learningBlock1","","","","That was a dep.","null","","","","","",""
"html-keyboard-response","68","605373","0.0-5.0-2.20","FL","ker7u0dhxt","1920","1080","0","1","0","5c87d68fe5bc060001ee8498","","null","","","learningBlock1","","","","<div style=""font-size:60px;""> </div>","null","FL","learning/Slide21.JPG","That was a dep.","","",""
"image-keyboard-response","69","605559","0.0-5.0-0.21","FL","ker7u0dhxt","1920","1080","0","1","0","5c87d68fe5bc060001ee8498","","null","","","","","","","learning/Slide22.JPG","null","","","","","",""
"html-keyboard-response","70","606717","0.0-5.0-1.21","FL","ker7u0dhxt","1920","1080","0","1","0","5c87d68fe5bc060001ee8498","","null","","","learningBlock1","","","","That was a bim.","null","","","","","",""
"html-keyboard-response","71","607733","0.0-5.0-2.21","FL","ker7u0dhxt","1920","1080","0","1","0","5c87d68fe5bc060001ee8498","","null","","","learningBlock1","","","","<div style=""font-size:60px;""> </div>","null","FL","learning/Slide22.JPG","That was a bim.","","",""
"image-keyboard-response","72","607918","0.0-5.0-0.22","FL","ker7u0dhxt","1920","1080","0","1","0","5c87d68fe5bc060001ee8498","","null","","","","","","","learning/Slide23.JPG","null","","","","","",""
"html-keyboard-response","73","609090","0.0-5.0-1.22","FL","ker7u0dhxt","1920","1080","0","1","0","5c87d68fe5bc060001ee8498","","null","","","learningBlock1","","","","That was a tob.","null","","","","","",""
"html-keyboard-response","74","610103","0.0-5.0-2.22","FL","ker7u0dhxt","1920","1080","0","1","0","5c87d68fe5bc060001ee8498","","null","","","learningBlock1","","","","<div style=""font-size:60px;""> </div>","null","FL","learning/Slide23.JPG","That was a tob.","","",""
"image-keyboard-response","75","610293","0.0-5.0-0.23","FL","ker7u0dhxt","1920","1080","0","1","0","5c87d68fe5bc060001ee8498","","null","","","","","","","learning/Slide24.JPG","null","","","","","",""
"html-keyboard-response","76","611459","0.0-5.0-1.23","FL","ker7u0dhxt","1920","1080","0","1","0","5c87d68fe5bc060001ee8498","","null","","","learningBlock1","","","","That was a wug.","null","","","","","",""
"html-keyboard-response","77","612468","0.0-5.0-2.23","FL","ker7u0dhxt","1920","1080","0","1","0","5c87d68fe5bc060001ee8498","","null","","","learningBlock1","","","","<div style=""font-size:60px;""> </div>","null","FL","learning/Slide24.JPG","That was a wug.","","",""
"image-keyboard-response","78","612657","0.0-5.0-0.24","FL","ker7u0dhxt","1920","1080","0","1","0","5c87d68fe5bc060001ee8498","","null","","","","","","","learning/Slide25.JPG","null","","","","","",""
"html-keyboard-response","79","613819","0.0-5.0-1.24","FL","ker7u0dhxt","1920","1080","0","1","0","5c87d68fe5bc060001ee8498","","null","","","learningBlock1","","","","That was a dep.","null","","","","","",""
"html-keyboard-response","80","614830","0.0-5.0-2.24","FL","ker7u0dhxt","1920","1080","0","1","0","5c87d68fe5bc060001ee8498","","null","","","learningBlock1","","","","<div style=""font-size:60px;""> </div>","null","FL","learning/Slide25.JPG","That was a dep.","","",""
"image-keyboard-response","81","615020","0.0-5.0-0.25","FL","ker7u0dhxt","1920","1080","0","1","0","5c87d68fe5bc060001ee8498","","null","","","","","","","learning/Slide26.JPG","null","","","","","",""
"html-keyboard-response","82","616183","0.0-5.0-1.25","FL","ker7u0dhxt","1920","1080","0","1","0","5c87d68fe5bc060001ee8498","","null","","","learningBlock1","","","","That was a wug.","null","","","","","",""
"html-keyboard-response","83","617188","0.0-5.0-2.25","FL","ker7u0dhxt","1920","1080","0","1","0","5c87d68fe5bc060001ee8498","","null","","","learningBlock1","","","","<div style=""font-size:60px;""> </div>","null","FL","learning/Slide26.JPG","That was a wug.","","",""
"image-keyboard-response","84","617378","0.0-5.0-0.26","FL","ker7u0dhxt","1920","1080","0","1","0","5c87d68fe5bc060001ee8498","","null","","","","","","","learning/Slide27.JPG","null","","","","","",""
"html-keyboard-response","85","618541","0.0-5.0-1.26","FL","ker7u0dhxt","1920","1080","0","1","0","5c87d68fe5bc060001ee8498","","null","","","learningBlock1","","","","That was a bim.","null","","","","","",""
"html-keyboard-response","86","619549","0.0-5.0-2.26","FL","ker7u0dhxt","1920","1080","0","1","0","5c87d68fe5bc060001ee8498","","null","","","learningBlock1","","","","<div style=""font-size:60px;""> </div>","null","FL","learning/Slide27.JPG","That was a bim.","","",""
"image-keyboard-response","87","619739","0.0-5.0-0.27","FL","ker7u0dhxt","1920","1080","0","1","0","5c87d68fe5bc060001ee8498","","null","","","","","","","learning/Slide28.JPG","null","","","","","",""
"html-keyboard-response","88","620902","0.0-5.0-1.27","FL","ker7u0dhxt","1920","1080","0","1","0","5c87d68fe5bc060001ee8498","","null","","","learningBlock1","","","","That was a dep.","null","","","","","",""
"html-keyboard-response","89","621907","0.0-5.0-2.27","FL","ker7u0dhxt","1920","1080","0","1","0","5c87d68fe5bc060001ee8498","","null","","","learningBlock1","","","","<div style=""font-size:60px;""> </div>","null","FL","learning/Slide28.JPG","That was a dep.","","",""
"image-keyboard-response","90","622093","0.0-5.0-0.28","FL","ker7u0dhxt","1920","1080","0","1","0","5c87d68fe5bc060001ee8498","","null","","","","","","","learning/Slide29.JPG","null","","","","","",""
"html-keyboard-response","91","623252","0.0-5.0-1.28","FL","ker7u0dhxt","1920","1080","0","1","0","5c87d68fe5bc060001ee8498","","null","","","learningBlock1","","","","That was a tob.","null","","","","","",""
"html-keyboard-response","92","624260","0.0-5.0-2.28","FL","ker7u0dhxt","1920","1080","0","1","0","5c87d68fe5bc060001ee8498","","null","","","learningBlock1","","","","<div style=""font-size:60px;""> </div>","null","FL","learning/Slide29.JPG","That was a tob.","","",""
"image-keyboard-response","93","624448","0.0-5.0-0.29","FL","ker7u0dhxt","1920","1080","0","1","0","5c87d68fe5bc060001ee8498","","null","","","","","","","learning/Slide30.JPG","null","","","","","",""
"html-keyboard-response","94","625609","0.0-5.0-1.29","FL","ker7u0dhxt","1920","1080","0","1","0","5c87d68fe5bc060001ee8498","","null","","","learningBlock1","","","","That was a dep.","null","","","","","",""
"html-keyboard-response","95","626616","0.0-5.0-2.29","FL","ker7u0dhxt","1920","1080","0","1","0","5c87d68fe5bc060001ee8498","","null","","","learningBlock1","","","","<div style=""font-size:60px;""> </div>","null","FL","learning/Slide30.JPG","That was a dep.","","",""
"image-keyboard-response","96","626802","0.0-5.0-0.30","FL","ker7u0dhxt","1920","1080","0","1","0","5c87d68fe5bc060001ee8498","","null","","","","","","","learning/Slide31.JPG","null","","","","","",""
"html-keyboard-response","97","627973","0.0-5.0-1.30","FL","ker7u0dhxt","1920","1080","0","1","0","5c87d68fe5bc060001ee8498","","null","","","learningBlock1","","","","That was a wug.","null","","","","","",""
"html-keyboard-response","98","628984","0.0-5.0-2.30","FL","ker7u0dhxt","1920","1080","0","1","0","5c87d68fe5bc060001ee8498","","null","","","learningBlock1","","","","<div style=""font-size:60px;""> </div>","null","FL","learning/Slide31.JPG","That was a wug.","","",""
"image-keyboard-response","99","629172","0.0-5.0-0.31","FL","ker7u0dhxt","1920","1080","0","1","0","5c87d68fe5bc060001ee8498","","null","","","","","","","learning/Slide32.JPG","null","","","","","",""
"html-keyboard-response","100","630343","0.0-5.0-1.31","FL","ker7u0dhxt","1920","1080","0","1","0","5c87d68fe5bc060001ee8498","","null","","","learningBlock1","","","","That was a tob.","null","","","","","",""
"html-keyboard-response","101","631346","0.0-5.0-2.31","FL","ker7u0dhxt","1920","1080","0","1","0","5c87d68fe5bc060001ee8498","","null","","","learningBlock1","","","","<div style=""font-size:60px;""> </div>","null","FL","learning/Slide32.JPG","That was a tob.","","",""
"image-keyboard-response","102","631536","0.0-5.0-0.32","FL","ker7u0dhxt","1920","1080","0","1","0","5c87d68fe5bc060001ee8498","","null","","","","","","","learning/Slide33.JPG","null","","","","","",""
"html-keyboard-response","103","632695","0.0-5.0-1.32","FL","ker7u0dhxt","1920","1080","0","1","0","5c87d68fe5bc060001ee8498","","null","","","learningBlock1","","","","That was a bim.","null","","","","","",""
"html-keyboard-response","104","633706","0.0-5.0-2.32","FL","ker7u0dhxt","1920","1080","0","1","0","5c87d68fe5bc060001ee8498","","null","","","learningBlock1","","","","<div style=""font-size:60px;""> </div>","null","FL","learning/Slide33.JPG","That was a bim.","","",""
"image-keyboard-response","105","633893","0.0-5.0-0.33","FL","ker7u0dhxt","1920","1080","0","1","0","5c87d68fe5bc060001ee8498","","null","","","","","","","learning/Slide34.JPG","null","","","","","",""
"html-keyboard-response","106","635053","0.0-5.0-1.33","FL","ker7u0dhxt","1920","1080","0","1","0","5c87d68fe5bc060001ee8498","","null","","","learningBlock1","","","","That was a tob.","null","","","","","",""
"html-keyboard-response","107","636067","0.0-5.0-2.33","FL","ker7u0dhxt","1920","1080","0","1","0","5c87d68fe5bc060001ee8498","","null","","","learningBlock1","","","","<div style=""font-size:60px;""> </div>","null","FL","learning/Slide34.JPG","That was a tob.","","",""
"image-keyboard-response","108","636253","0.0-5.0-0.34","FL","ker7u0dhxt","1920","1080","0","1","0","5c87d68fe5bc060001ee8498","","null","","","","","","","learning/Slide35.JPG","null","","","","","",""
"html-keyboard-response","109","637415","0.0-5.0-1.34","FL","ker7u0dhxt","1920","1080","0","1","0","5c87d68fe5bc060001ee8498","","null","","","learningBlock1","","","","That was a bim.","null","","","","","",""
"html-keyboard-response","110","638435","0.0-5.0-2.34","FL","ker7u0dhxt","1920","1080","0","1","0","5c87d68fe5bc060001ee8498","","null","","","learningBlock1","","","","<div style=""font-size:60px;""> </div>","null","FL","learning/Slide35.JPG","That was a bim.","","",""
"image-keyboard-response","111","638614","0.0-5.0-0.35","FL","ker7u0dhxt","1920","1080","0","1","0","5c87d68fe5bc060001ee8498","","null","","","","","","","learning/Slide36.JPG","null","","","","","",""
"html-keyboard-response","112","639778","0.0-5.0-1.35","FL","ker7u0dhxt","1920","1080","0","1","0","5c87d68fe5bc060001ee8498","","null","","","learningBlock1","","","","That was a dep.","null","","","","","",""
"html-keyboard-response","113","640793","0.0-5.0-2.35","FL","ker7u0dhxt","1920","1080","0","1","0","5c87d68fe5bc060001ee8498","","null","","","learningBlock1","","","","<div style=""font-size:60px;""> </div>","null","FL","learning/Slide36.JPG","That was a dep.","","",""
"image-keyboard-response","114","640981","0.0-5.0-0.36","FL","ker7u0dhxt","1920","1080","0","1","0","5c87d68fe5bc060001ee8498","","null","","","","","","","learning/Slide37.JPG","null","","","","","",""
"html-keyboard-response","115","642149","0.0-5.0-1.36","FL","ker7u0dhxt","1920","1080","0","1","0","5c87d68fe5bc060001ee8498","","null","","","learningBlock1","","","","That was a tob.","null","","","","","",""
"html-keyboard-response","116","643161","0.0-5.0-2.36","FL","ker7u0dhxt","1920","1080","0","1","0","5c87d68fe5bc060001ee8498","","null","","","learningBlock1","","","","<div style=""font-size:60px;""> </div>","null","FL","learning/Slide37.JPG","That was a tob.","","",""
"image-keyboard-response","117","643349","0.0-5.0-0.37","FL","ker7u0dhxt","1920","1080","0","1","0","5c87d68fe5bc060001ee8498","","null","","","","","","","learning/Slide38.JPG","null","","","","","",""
"html-keyboard-response","118","644516","0.0-5.0-1.37","FL","ker7u0dhxt","1920","1080","0","1","0","5c87d68fe5bc060001ee8498","","null","","","learningBlock1","","","","That was a wug.","null","","","","","",""
"html-keyboard-response","119","645530","0.0-5.0-2.37","FL","ker7u0dhxt","1920","1080","0","1","0","5c87d68fe5bc060001ee8498","","null","","","learningBlock1","","","","<div style=""font-size:60px;""> </div>","null","FL","learning/Slide38.JPG","That was a wug.","","",""
"image-keyboard-response","120","645716","0.0-5.0-0.38","FL","ker7u0dhxt","1920","1080","0","1","0","5c87d68fe5bc060001ee8498","","null","","","","","","","learning/Slide39.JPG","null","","","","","",""
"html-keyboard-response","121","646883","0.0-5.0-1.38","FL","ker7u0dhxt","1920","1080","0","1","0","5c87d68fe5bc060001ee8498","","null","","","learningBlock1","","","","That was a bim.","null","","","","","",""
"html-keyboard-response","122","647890","0.0-5.0-2.38","FL","ker7u0dhxt","1920","1080","0","1","0","5c87d68fe5bc060001ee8498","","null","","","learningBlock1","","","","<div style=""font-size:60px;""> </div>","null","FL","learning/Slide39.JPG","That was a bim.","","",""
"image-keyboard-response","123","648077","0.0-5.0-0.39","FL","ker7u0dhxt","1920","1080","0","1","0","5c87d68fe5bc060001ee8498","","null","","","","","","","learning/Slide40.JPG","null","","","","","",""
"html-keyboard-response","124","649247","0.0-5.0-1.39","FL","ker7u0dhxt","1920","1080","0","1","0","5c87d68fe5bc060001ee8498","","null","","","learningBlock1","","","","That was a tob.","null","","","","","",""
"html-keyboard-response","125","650254","0.0-5.0-2.39","FL","ker7u0dhxt","1920","1080","0","1","0","5c87d68fe5bc060001ee8498","","null","","","learningBlock1","","","","<div style=""font-size:60px;""> </div>","null","FL","learning/Slide40.JPG","That was a tob.","","",""
"image-keyboard-response","126","650441","0.0-5.0-0.40","FL","ker7u0dhxt","1920","1080","0","1","0","5c87d68fe5bc060001ee8498","","null","","","","","","","learning/Slide41.JPG","null","","","","","",""
"html-keyboard-response","127","651598","0.0-5.0-1.40","FL","ker7u0dhxt","1920","1080","0","1","0","5c87d68fe5bc060001ee8498","","null","","","learningBlock1","","","","That was a bim.","null","","","","","",""
"html-keyboard-response","128","652664","0.0-5.0-2.40","FL","ker7u0dhxt","1920","1080","0","1","0","5c87d68fe5bc060001ee8498","","null","","","learningBlock1","","","","<div style=""font-size:60px;""> </div>","null","FL","learning/Slide41.JPG","That was a bim.","","",""
"image-keyboard-response","129","652859","0.0-5.0-0.41","FL","ker7u0dhxt","1920","1080","0","1","0","5c87d68fe5bc060001ee8498","","null","","","","","","","learning/Slide42.JPG","null","","","","","",""
"html-keyboard-response","130","654029","0.0-5.0-1.41","FL","ker7u0dhxt","1920","1080","0","1","0","5c87d68fe5bc060001ee8498","","null","","","learningBlock1","","","","That was a dep.","null","","","","","",""
"html-keyboard-response","131","655065","0.0-5.0-2.41","FL","ker7u0dhxt","1920","1080","0","1","0","5c87d68fe5bc060001ee8498","","null","","","learningBlock1","","","","<div style=""font-size:60px;""> </div>","null","FL","learning/Slide42.JPG","That was a dep.","","",""
"image-keyboard-response","132","655239","0.0-5.0-0.42","FL","ker7u0dhxt","1920","1080","0","1","0","5c87d68fe5bc060001ee8498","","null","","","","","","","learning/Slide43.JPG","null","","","","","",""
"html-keyboard-response","133","656396","0.0-5.0-1.42","FL","ker7u0dhxt","1920","1080","0","1","0","5c87d68fe5bc060001ee8498","","null","","","learningBlock1","","","","That was a wug.","null","","","","","",""
"html-keyboard-response","134","657401","0.0-5.0-2.42","FL","ker7u0dhxt","1920","1080","0","1","0","5c87d68fe5bc060001ee8498","","null","","","learningBlock1","","","","<div style=""font-size:60px;""> </div>","null","FL","learning/Slide43.JPG","That was a wug.","","",""
"image-keyboard-response","135","657590","0.0-5.0-0.43","FL","ker7u0dhxt","1920","1080","0","1","0","5c87d68fe5bc060001ee8498","","null","","","","","","","learning/Slide44.JPG","null","","","","","",""
"html-keyboard-response","136","658759","0.0-5.0-1.43","FL","ker7u0dhxt","1920","1080","0","1","0","5c87d68fe5bc060001ee8498","","null","","","learningBlock1","","","","That was a bim.","null","","","","","",""
"html-keyboard-response","137","659764","0.0-5.0-2.43","FL","ker7u0dhxt","1920","1080","0","1","0","5c87d68fe5bc060001ee8498","","null","","","learningBlock1","","","","<div style=""font-size:60px;""> </div>","null","FL","learning/Slide44.JPG","That was a bim.","","",""
"image-keyboard-response","138","659951","0.0-5.0-0.44","FL","ker7u0dhxt","1920","1080","0","1","0","5c87d68fe5bc060001ee8498","","null","","","","","","","learning/Slide45.JPG","null","","","","","",""
"html-keyboard-response","139","661103","0.0-5.0-1.44","FL","ker7u0dhxt","1920","1080","0","1","0","5c87d68fe5bc060001ee8498","","null","","","learningBlock1","","","","That was a wug.","null","","","","","",""
"html-keyboard-response","140","662110","0.0-5.0-2.44","FL","ker7u0dhxt","1920","1080","0","1","0","5c87d68fe5bc060001ee8498","","null","","","learningBlock1","","","","<div style=""font-size:60px;""> </div>","null","FL","learning/Slide45.JPG","That was a wug.","","",""
"image-keyboard-response","141","662316","0.0-5.0-0.45","FL","ker7u0dhxt","1920","1080","0","1","0","5c87d68fe5bc060001ee8498","","null","","","","","","","learning/Slide46.JPG","null","","","","","",""
"html-keyboard-response","142","663483","0.0-5.0-1.45","FL","ker7u0dhxt","1920","1080","0","1","0","5c87d68fe5bc060001ee8498","","null","","","learningBlock1","","","","That was a dep.","null","","","","","",""
"html-keyboard-response","143","664484","0.0-5.0-2.45","FL","ker7u0dhxt","1920","1080","0","1","0","5c87d68fe5bc060001ee8498","","null","","","learningBlock1","","","","<div style=""font-size:60px;""> </div>","null","FL","learning/Slide46.JPG","That was a dep.","","",""
"image-keyboard-response","144","664674","0.0-5.0-0.46","FL","ker7u0dhxt","1920","1080","0","1","0","5c87d68fe5bc060001ee8498","","null","","","","","","","learning/Slide47.JPG","null","","","","","",""
"html-keyboard-response","145","665836","0.0-5.0-1.46","FL","ker7u0dhxt","1920","1080","0","1","0","5c87d68fe5bc060001ee8498","","null","","","learningBlock1","","","","That was a tob.","null","","","","","",""
"html-keyboard-response","146","666853","0.0-5.0-2.46","FL","ker7u0dhxt","1920","1080","0","1","0","5c87d68fe5bc060001ee8498","","null","","","learningBlock1","","","","<div style=""font-size:60px;""> </div>","null","FL","learning/Slide47.JPG","That was a tob.","","",""
"image-keyboard-response","147","667039","0.0-5.0-0.47","FL","ker7u0dhxt","1920","1080","0","1","0","5c87d68fe5bc060001ee8498","","null","","","","","","","learning/Slide48.JPG","null","","","","","",""
"html-keyboard-response","148","668208","0.0-5.0-1.47","FL","ker7u0dhxt","1920","1080","0","1","0","5c87d68fe5bc060001ee8498","","null","","","learningBlock1","","","","That was a bim.","null","","","","","",""
"html-keyboard-response","149","669208","0.0-5.0-2.47","FL","ker7u0dhxt","1920","1080","0","1","0","5c87d68fe5bc060001ee8498","","null","","","learningBlock1","","","","<div style=""font-size:60px;""> </div>","null","FL","learning/Slide48.JPG","That was a bim.","","",""
"image-keyboard-response","150","669394","0.0-5.0-0.48","FL","ker7u0dhxt","1920","1080","0","1","0","5c87d68fe5bc060001ee8498","","null","","","","","","","learning/Slide49.JPG","null","","","","","",""
"html-keyboard-response","151","670557","0.0-5.0-1.48","FL","ker7u0dhxt","1920","1080","0","1","0","5c87d68fe5bc060001ee8498","","null","","","learningBlock1","","","","That was a dep.","null","","","","","",""
"html-keyboard-response","152","671567","0.0-5.0-2.48","FL","ker7u0dhxt","1920","1080","0","1","0","5c87d68fe5bc060001ee8498","","null","","","learningBlock1","","","","<div style=""font-size:60px;""> </div>","null","FL","learning/Slide49.JPG","That was a dep.","","",""
"image-keyboard-response","153","671757","0.0-5.0-0.49","FL","ker7u0dhxt","1920","1080","0","1","0","5c87d68fe5bc060001ee8498","","null","","","","","","","learning/Slide50.JPG","null","","","","","",""
"html-keyboard-response","154","672915","0.0-5.0-1.49","FL","ker7u0dhxt","1920","1080","0","1","0","5c87d68fe5bc060001ee8498","","null","","","learningBlock1","","","","That was a tob.","null","","","","","",""
"html-keyboard-response","155","673917","0.0-5.0-2.49","FL","ker7u0dhxt","1920","1080","0","1","0","5c87d68fe5bc060001ee8498","","null","","","learningBlock1","","","","<div style=""font-size:60px;""> </div>","null","FL","learning/Slide50.JPG","That was a tob.","","",""
"image-keyboard-response","156","674107","0.0-5.0-0.50","FL","ker7u0dhxt","1920","1080","0","1","0","5c87d68fe5bc060001ee8498","","null","","","","","","","learning/Slide51.JPG","null","","","","","",""
"html-keyboard-response","157","675268","0.0-5.0-1.50","FL","ker7u0dhxt","1920","1080","0","1","0","5c87d68fe5bc060001ee8498","","null","","","learningBlock1","","","","That was a bim.","null","","","","","",""
"html-keyboard-response","158","676275","0.0-5.0-2.50","FL","ker7u0dhxt","1920","1080","0","1","0","5c87d68fe5bc060001ee8498","","null","","","learningBlock1","","","","<div style=""font-size:60px;""> </div>","null","FL","learning/Slide51.JPG","That was a bim.","","",""
"image-keyboard-response","159","676465","0.0-5.0-0.51","FL","ker7u0dhxt","1920","1080","0","1","0","5c87d68fe5bc060001ee8498","","null","","","","","","","learning/Slide52.JPG","null","","","","","",""
"html-keyboard-response","160","677635","0.0-5.0-1.51","FL","ker7u0dhxt","1920","1080","0","1","0","5c87d68fe5bc060001ee8498","","null","","","learningBlock1","","","","That was a wug.","null","","","","","",""
"html-keyboard-response","161","678646","0.0-5.0-2.51","FL","ker7u0dhxt","1920","1080","0","1","0","5c87d68fe5bc060001ee8498","","null","","","learningBlock1","","","","<div style=""font-size:60px;""> </div>","null","FL","learning/Slide52.JPG","That was a wug.","","",""
"image-keyboard-response","162","678825","0.0-5.0-0.52","FL","ker7u0dhxt","1920","1080","0","1","0","5c87d68fe5bc060001ee8498","","null","","","","","","","learning/Slide53.JPG","null","","","","","",""
"html-keyboard-response","163","679994","0.0-5.0-1.52","FL","ker7u0dhxt","1920","1080","0","1","0","5c87d68fe5bc060001ee8498","","null","","","learningBlock1","","","","That was a tob.","null","","","","","",""
"html-keyboard-response","164","681008","0.0-5.0-2.52","FL","ker7u0dhxt","1920","1080","0","1","0","5c87d68fe5bc060001ee8498","","null","","","learningBlock1","","","","<div style=""font-size:60px;""> </div>","null","FL","learning/Slide53.JPG","That was a tob.","","",""
"image-keyboard-response","165","681193","0.0-5.0-0.53","FL","ker7u0dhxt","1920","1080","0","1","0","5c87d68fe5bc060001ee8498","","null","","","","","","","learning/Slide54.JPG","null","","","","","",""
"html-keyboard-response","166","682363","0.0-5.0-1.53","FL","ker7u0dhxt","1920","1080","0","1","0","5c87d68fe5bc060001ee8498","","null","","","learningBlock1","","","","That was a dep.","null","","","","","",""
"html-keyboard-response","167","683366","0.0-5.0-2.53","FL","ker7u0dhxt","1920","1080","0","1","0","5c87d68fe5bc060001ee8498","","null","","","learningBlock1","","","","<div style=""font-size:60px;""> </div>","null","FL","learning/Slide54.JPG","That was a dep.","","",""
"image-keyboard-response","168","683547","0.0-5.0-0.54","FL","ker7u0dhxt","1920","1080","0","1","0","5c87d68fe5bc060001ee8498","","null","","","","","","","learning/Slide55.JPG","null","","","","","",""
"html-keyboard-response","169","684713","0.0-5.0-1.54","FL","ker7u0dhxt","1920","1080","0","1","0","5c87d68fe5bc060001ee8498","","null","","","learningBlock1","","","","That was a bim.","null","","","","","",""
"html-keyboard-response","170","685725","0.0-5.0-2.54","FL","ker7u0dhxt","1920","1080","0","1","0","5c87d68fe5bc060001ee8498","","null","","","learningBlock1","","","","<div style=""font-size:60px;""> </div>","null","FL","learning/Slide55.JPG","That was a bim.","","",""
"image-keyboard-response","171","685914","0.0-5.0-0.55","FL","ker7u0dhxt","1920","1080","0","1","0","5c87d68fe5bc060001ee8498","","null","","","","","","","learning/Slide56.JPG","null","","","","","",""
"html-keyboard-response","172","687074","0.0-5.0-1.55","FL","ker7u0dhxt","1920","1080","0","1","0","5c87d68fe5bc060001ee8498","","null","","","learningBlock1","","","","That was a tob.","null","","","","","",""
"html-keyboard-response","173","688088","0.0-5.0-2.55","FL","ker7u0dhxt","1920","1080","0","1","0","5c87d68fe5bc060001ee8498","","null","","","learningBlock1","","","","<div style=""font-size:60px;""> </div>","null","FL","learning/Slide56.JPG","That was a tob.","","",""
"image-keyboard-response","174","688274","0.0-5.0-0.56","FL","ker7u0dhxt","1920","1080","0","1","0","5c87d68fe5bc060001ee8498","","null","","","","","","","learning/Slide57.JPG","null","","","","","",""
"html-keyboard-response","175","689439","0.0-5.0-1.56","FL","ker7u0dhxt","1920","1080","0","1","0","5c87d68fe5bc060001ee8498","","null","","","learningBlock1","","","","That was a dep.","null","","","","","",""
"html-keyboard-response","176","690446","0.0-5.0-2.56","FL","ker7u0dhxt","1920","1080","0","1","0","5c87d68fe5bc060001ee8498","","null","","","learningBlock1","","","","<div style=""font-size:60px;""> </div>","null","FL","learning/Slide57.JPG","That was a dep.","","",""
"image-keyboard-response","177","690633","0.0-5.0-0.57","FL","ker7u0dhxt","1920","1080","0","1","0","5c87d68fe5bc060001ee8498","","null","","","","","","","learning/Slide58.JPG","null","","","","","",""
"html-keyboard-response","178","691804","0.0-5.0-1.57","FL","ker7u0dhxt","1920","1080","0","1","0","5c87d68fe5bc060001ee8498","","null","","","learningBlock1","","","","That was a wug.","null","","","","","",""
"html-keyboard-response","179","692816","0.0-5.0-2.57","FL","ker7u0dhxt","1920","1080","0","1","0","5c87d68fe5bc060001ee8498","","null","","","learningBlock1","","","","<div style=""font-size:60px;""> </div>","null","FL","learning/Slide58.JPG","That was a wug.","","",""
"image-keyboard-response","180","693004","0.0-5.0-0.58","FL","ker7u0dhxt","1920","1080","0","1","0","5c87d68fe5bc060001ee8498","","null","","","","","","","learning/Slide59.JPG","null","","","","","",""
"html-keyboard-response","181","694168","0.0-5.0-1.58","FL","ker7u0dhxt","1920","1080","0","1","0","5c87d68fe5bc060001ee8498","","null","","","learningBlock1","","","","That was a dep.","null","","","","","",""
"html-keyboard-response","182","695181","0.0-5.0-2.58","FL","ker7u0dhxt","1920","1080","0","1","0","5c87d68fe5bc060001ee8498","","null","","","learningBlock1","","","","<div style=""font-size:60px;""> </div>","null","FL","learning/Slide59.JPG","That was a dep.","","",""
"image-keyboard-response","183","695369","0.0-5.0-0.59","FL","ker7u0dhxt","1920","1080","0","1","0","5c87d68fe5bc060001ee8498","","null","","","","","","","learning/Slide60.JPG","null","","","","","",""
"html-keyboard-response","184","696539","0.0-5.0-1.59","FL","ker7u0dhxt","1920","1080","0","1","0","5c87d68fe5bc060001ee8498","","null","","","learningBlock1","","","","That was a wug.","null","","","","","",""
"html-keyboard-response","185","697565","0.0-5.0-2.59","FL","ker7u0dhxt","1920","1080","0","1","0","5c87d68fe5bc060001ee8498","","null","","","learningBlock1","","","","<div style=""font-size:60px;""> </div>","null","FL","learning/Slide60.JPG","That was a wug.","","",""
"image-keyboard-response","186","697879","0.0-5.0-0.60","FL","ker7u0dhxt","1920","1080","0","1","0","5c87d68fe5bc060001ee8498","","null","","","","","","","learning/Slide61.JPG","null","","","","","",""
"html-keyboard-response","187","699169","0.0-5.0-1.60","FL","ker7u0dhxt","1920","1080","0","1","0","5c87d68fe5bc060001ee8498","","null","","","learningBlock1","","","","That was a bim.","null","","","","","",""
"html-keyboard-response","188","700179","0.0-5.0-2.60","FL","ker7u0dhxt","1920","1080","0","1","0","5c87d68fe5bc060001ee8498","","null","","","learningBlock1","","","","<div style=""font-size:60px;""> </div>","null","FL","learning/Slide61.JPG","That was a bim.","","",""
"image-keyboard-response","189","700369","0.0-5.0-0.61","FL","ker7u0dhxt","1920","1080","0","1","0","5c87d68fe5bc060001ee8498","","null","","","","","","","learning/Slide62.JPG","null","","","","","",""
"html-keyboard-response","190","701530","0.0-5.0-1.61","FL","ker7u0dhxt","1920","1080","0","1","0","5c87d68fe5bc060001ee8498","","null","","","learningBlock1","","","","That was a dep.","null","","","","","",""
"html-keyboard-response","191","702533","0.0-5.0-2.61","FL","ker7u0dhxt","1920","1080","0","1","0","5c87d68fe5bc060001ee8498","","null","","","learningBlock1","","","","<div style=""font-size:60px;""> </div>","null","FL","learning/Slide62.JPG","That was a dep.","","",""
"image-keyboard-response","192","702726","0.0-5.0-0.62","FL","ker7u0dhxt","1920","1080","0","1","0","5c87d68fe5bc060001ee8498","","null","","","","","","","learning/Slide63.JPG","null","","","","","",""
"html-keyboard-response","193","704417","0.0-5.0-1.62","FL","ker7u0dhxt","1920","1080","0","1","0","5c87d68fe5bc060001ee8498","","null","","","learningBlock1","","","","That was a bim.","null","","","","","",""
"html-keyboard-response","194","705483","0.0-5.0-2.62","FL","ker7u0dhxt","1920","1080","0","1","0","5c87d68fe5bc060001ee8498","","null","","","learningBlock1","","","","<div style=""font-size:60px;""> </div>","null","FL","learning/Slide63.JPG","That was a bim.","","",""
"image-keyboard-response","195","705666","0.0-5.0-0.63","FL","ker7u0dhxt","1920","1080","0","1","0","5c87d68fe5bc060001ee8498","","null","","","","","","","learning/Slide64.JPG","null","","","","","",""
"html-keyboard-response","196","706852","0.0-5.0-1.63","FL","ker7u0dhxt","1920","1080","0","1","0","5c87d68fe5bc060001ee8498","","null","","","learningBlock1","","","","That was a tob.","null","","","","","",""
"html-keyboard-response","197","707864","0.0-5.0-2.63","FL","ker7u0dhxt","1920","1080","0","1","0","5c87d68fe5bc060001ee8498","","null","","","learningBlock1","","","","<div style=""font-size:60px;""> </div>","null","FL","learning/Slide64.JPG","That was a tob.","","",""
"image-keyboard-response","198","708050","0.0-5.0-0.64","FL","ker7u0dhxt","1920","1080","0","1","0","5c87d68fe5bc060001ee8498","","null","","","","","","","learning/Slide65.JPG","null","","","","","",""
"html-keyboard-response","199","709221","0.0-5.0-1.64","FL","ker7u0dhxt","1920","1080","0","1","0","5c87d68fe5bc060001ee8498","","null","","","learningBlock1","","","","That was a wug.","null","","","","","",""
"html-keyboard-response","200","710226","0.0-5.0-2.64","FL","ker7u0dhxt","1920","1080","0","1","0","5c87d68fe5bc060001ee8498","","null","","","learningBlock1","","","","<div style=""font-size:60px;""> </div>","null","FL","learning/Slide65.JPG","That was a wug.","","",""
"image-keyboard-response","201","710411","0.0-5.0-0.65","FL","ker7u0dhxt","1920","1080","0","1","0","5c87d68fe5bc060001ee8498","","null","","","","","","","learning/Slide66.JPG","null","","","","","",""
"html-keyboard-response","202","711571","0.0-5.0-1.65","FL","ker7u0dhxt","1920","1080","0","1","0","5c87d68fe5bc060001ee8498","","null","","","learningBlock1","","","","That was a dep.","null","","","","","",""
"html-keyboard-response","203","712586","0.0-5.0-2.65","FL","ker7u0dhxt","1920","1080","0","1","0","5c87d68fe5bc060001ee8498","","null","","","learningBlock1","","","","<div style=""font-size:60px;""> </div>","null","FL","learning/Slide66.JPG","That was a dep.","","",""
"image-keyboard-response","204","712773","0.0-5.0-0.66","FL","ker7u0dhxt","1920","1080","0","1","0","5c87d68fe5bc060001ee8498","","null","","","","","","","learning/Slide67.JPG","null","","","","","",""
"html-keyboard-response","205","713938","0.0-5.0-1.66","FL","ker7u0dhxt","1920","1080","0","1","0","5c87d68fe5bc060001ee8498","","null","","","learningBlock1","","","","That was a tob.","null","","","","","",""
"html-keyboard-response","206","714942","0.0-5.0-2.66","FL","ker7u0dhxt","1920","1080","0","1","0","5c87d68fe5bc060001ee8498","","null","","","learningBlock1","","","","<div style=""font-size:60px;""> </div>","null","FL","learning/Slide67.JPG","That was a tob.","","",""
"image-keyboard-response","207","715132","0.0-5.0-0.67","FL","ker7u0dhxt","1920","1080","0","1","0","5c87d68fe5bc060001ee8498","","null","","","","","","","learning/Slide68.JPG","null","","","","","",""
"html-keyboard-response","208","716295","0.0-5.0-1.67","FL","ker7u0dhxt","1920","1080","0","1","0","5c87d68fe5bc060001ee8498","","null","","","learningBlock1","","","","That was a wug.","null","","","","","",""
"html-keyboard-response","209","717305","0.0-5.0-2.67","FL","ker7u0dhxt","1920","1080","0","1","0","5c87d68fe5bc060001ee8498","","null","","","learningBlock1","","","","<div style=""font-size:60px;""> </div>","null","FL","learning/Slide68.JPG","That was a wug.","","",""
"image-keyboard-response","210","717495","0.0-5.0-0.68","FL","ker7u0dhxt","1920","1080","0","1","0","5c87d68fe5bc060001ee8498","","null","","","","","","","learning/Slide69.JPG","null","","","","","",""
"html-keyboard-response","211","718667","0.0-5.0-1.68","FL","ker7u0dhxt","1920","1080","0","1","0","5c87d68fe5bc060001ee8498","","null","","","learningBlock1","","","","That was a tob.","null","","","","","",""
"html-keyboard-response","212","719676","0.0-5.0-2.68","FL","ker7u0dhxt","1920","1080","0","1","0","5c87d68fe5bc060001ee8498","","null","","","learningBlock1","","","","<div style=""font-size:60px;""> </div>","null","FL","learning/Slide69.JPG","That was a tob.","","",""
"image-keyboard-response","213","719864","0.0-5.0-0.69","FL","ker7u0dhxt","1920","1080","0","1","0","5c87d68fe5bc060001ee8498","","null","","","","","","","learning/Slide70.JPG","null","","","","","",""
"html-keyboard-response","214","721030","0.0-5.0-1.69","FL","ker7u0dhxt","1920","1080","0","1","0","5c87d68fe5bc060001ee8498","","null","","","learningBlock1","","","","That was a dep.","null","","","","","",""
"html-keyboard-response","215","722036","0.0-5.0-2.69","FL","ker7u0dhxt","1920","1080","0","1","0","5c87d68fe5bc060001ee8498","","null","","","learningBlock1","","","","<div style=""font-size:60px;""> </div>","null","FL","learning/Slide70.JPG","That was a dep.","","",""
"image-keyboard-response","216","722223","0.0-5.0-0.70","FL","ker7u0dhxt","1920","1080","0","1","0","5c87d68fe5bc060001ee8498","","null","","","","","","","learning/Slide71.JPG","null","","","","","",""
"html-keyboard-response","217","723386","0.0-5.0-1.70","FL","ker7u0dhxt","1920","1080","0","1","0","5c87d68fe5bc060001ee8498","","null","","","learningBlock1","","","","That was a wug.","null","","","","","",""
"html-keyboard-response","218","724396","0.0-5.0-2.70","FL","ker7u0dhxt","1920","1080","0","1","0","5c87d68fe5bc060001ee8498","","null","","","learningBlock1","","","","<div style=""font-size:60px;""> </div>","null","FL","learning/Slide71.JPG","That was a wug.","","",""
"image-keyboard-response","219","724585","0.0-5.0-0.71","FL","ker7u0dhxt","1920","1080","0","1","0","5c87d68fe5bc060001ee8498","","null","","","","","","","learning/Slide72.JPG","null","","","","","",""
"html-keyboard-response","220","725748","0.0-5.0-1.71","FL","ker7u0dhxt","1920","1080","0","1","0","5c87d68fe5bc060001ee8498","","null","","","learningBlock1","","","","That was a bim.","null","","","","","",""
"html-keyboard-response","221","726757","0.0-5.0-2.71","FL","ker7u0dhxt","1920","1080","0","1","0","5c87d68fe5bc060001ee8498","","null","","","learningBlock1","","","","<div style=""font-size:60px;""> </div>","null","FL","learning/Slide72.JPG","That was a bim.","","",""
"image-keyboard-response","222","726940","0.0-5.0-0.72","FL","ker7u0dhxt","1920","1080","0","1","0","5c87d68fe5bc060001ee8498","","null","","","","","","","learning/Slide73.JPG","null","","","","","",""
"html-keyboard-response","223","728110","0.0-5.0-1.72","FL","ker7u0dhxt","1920","1080","0","1","0","5c87d68fe5bc060001ee8498","","null","","","learningBlock1","","","","That was a wug.","null","","","","","",""
"html-keyboard-response","224","729110","0.0-5.0-2.72","FL","ker7u0dhxt","1920","1080","0","1","0","5c87d68fe5bc060001ee8498","","null","","","learningBlock1","","","","<div style=""font-size:60px;""> </div>","null","FL","learning/Slide73.JPG","That was a wug.","","",""
"image-keyboard-response","225","729300","0.0-5.0-0.73","FL","ker7u0dhxt","1920","1080","0","1","0","5c87d68fe5bc060001ee8498","","null","","","","","","","learning/Slide74.JPG","null","","","","","",""
"html-keyboard-response","226","730462","0.0-5.0-1.73","FL","ker7u0dhxt","1920","1080","0","1","0","5c87d68fe5bc060001ee8498","","null","","","learningBlock1","","","","That was a dep.","null","","","","","",""
"html-keyboard-response","227","731465","0.0-5.0-2.73","FL","ker7u0dhxt","1920","1080","0","1","0","5c87d68fe5bc060001ee8498","","null","","","learningBlock1","","","","<div style=""font-size:60px;""> </div>","null","FL","learning/Slide74.JPG","That was a dep.","","",""
"image-keyboard-response","228","731653","0.0-5.0-0.74","FL","ker7u0dhxt","1920","1080","0","1","0","5c87d68fe5bc060001ee8498","","null","","","","","","","learning/Slide75.JPG","null","","","","","",""
"html-keyboard-response","229","732808","0.0-5.0-1.74","FL","ker7u0dhxt","1920","1080","0","1","0","5c87d68fe5bc060001ee8498","","null","","","learningBlock1","","","","That was a tob.","null","","","","","",""
"html-keyboard-response","230","733823","0.0-5.0-2.74","FL","ker7u0dhxt","1920","1080","0","1","0","5c87d68fe5bc060001ee8498","","null","","","learningBlock1","","","","<div style=""font-size:60px;""> </div>","null","FL","learning/Slide75.JPG","That was a tob.","","",""
"image-keyboard-response","231","734012","0.0-5.0-0.75","FL","ker7u0dhxt","1920","1080","0","1","0","5c87d68fe5bc060001ee8498","","null","","","","","","","learning/Slide76.JPG","null","","","","","",""
"html-keyboard-response","232","735170","0.0-5.0-1.75","FL","ker7u0dhxt","1920","1080","0","1","0","5c87d68fe5bc060001ee8498","","null","","","learningBlock1","","","","That was a bim.","null","","","","","",""
"html-keyboard-response","233","736179","0.0-5.0-2.75","FL","ker7u0dhxt","1920","1080","0","1","0","5c87d68fe5bc060001ee8498","","null","","","learningBlock1","","","","<div style=""font-size:60px;""> </div>","null","FL","learning/Slide76.JPG","That was a bim.","","",""
"image-keyboard-response","234","736369","0.0-5.0-0.76","FL","ker7u0dhxt","1920","1080","0","1","0","5c87d68fe5bc060001ee8498","","null","","","","","","","learning/Slide77.JPG","null","","","","","",""
"html-keyboard-response","235","737541","0.0-5.0-1.76","FL","ker7u0dhxt","1920","1080","0","1","0","5c87d68fe5bc060001ee8498","","null","","","learningBlock1","","","","That was a tob.","null","","","","","",""
"html-keyboard-response","236","738553","0.0-5.0-2.76","FL","ker7u0dhxt","1920","1080","0","1","0","5c87d68fe5bc060001ee8498","","null","","","learningBlock1","","","","<div style=""font-size:60px;""> </div>","null","FL","learning/Slide77.JPG","That was a tob.","","",""
"image-keyboard-response","237","738737","0.0-5.0-0.77","FL","ker7u0dhxt","1920","1080","0","1","0","5c87d68fe5bc060001ee8498","","null","","","","","","","learning/Slide78.JPG","null","","","","","",""
"html-keyboard-response","238","739903","0.0-5.0-1.77","FL","ker7u0dhxt","1920","1080","0","1","0","5c87d68fe5bc060001ee8498","","null","","","learningBlock1","","","","That was a wug.","null","","","","","",""
"html-keyboard-response","239","740909","0.0-5.0-2.77","FL","ker7u0dhxt","1920","1080","0","1","0","5c87d68fe5bc060001ee8498","","null","","","learningBlock1","","","","<div style=""font-size:60px;""> </div>","null","FL","learning/Slide78.JPG","That was a wug.","","",""
"image-keyboard-response","240","741101","0.0-5.0-0.78","FL","ker7u0dhxt","1920","1080","0","1","0","5c87d68fe5bc060001ee8498","","null","","","","","","","learning/Slide79.JPG","null","","","","","",""
"html-keyboard-response","241","742263","0.0-5.0-1.78","FL","ker7u0dhxt","1920","1080","0","1","0","5c87d68fe5bc060001ee8498","","null","","","learningBlock1","","","","That was a bim.","null","","","","","",""
"html-keyboard-response","242","743276","0.0-5.0-2.78","FL","ker7u0dhxt","1920","1080","0","1","0","5c87d68fe5bc060001ee8498","","null","","","learningBlock1","","","","<div style=""font-size:60px;""> </div>","null","FL","learning/Slide79.JPG","That was a bim.","","",""
"image-keyboard-response","243","743463","0.0-5.0-0.79","FL","ker7u0dhxt","1920","1080","0","1","0","5c87d68fe5bc060001ee8498","","null","","","","","","","learning/Slide80.JPG","null","","","","","",""
"html-keyboard-response","244","744623","0.0-5.0-1.79","FL","ker7u0dhxt","1920","1080","0","1","0","5c87d68fe5bc060001ee8498","","null","","","learningBlock1","","","","That was a tob.","null","","","","","",""
"html-keyboard-response","245","745626","0.0-5.0-2.79","FL","ker7u0dhxt","1920","1080","0","1","0","5c87d68fe5bc060001ee8498","","null","","","learningBlock1","","","","<div style=""font-size:60px;""> </div>","null","FL","learning/Slide80.JPG","That was a tob.","","",""
"instructions","246","806670","0.0-6.0","FL","ker7u0dhxt","1920","1080","0","1","0","5c87d68fe5bc060001ee8498","","NA","","[{""page_index"":0,""viewing_time"":61043}]","instructions","","","","","","","","","","",""
"image-keyboard-response","247","806852","0.0-7.0-0.0","FL","ker7u0dhxt","1920","1080","0","1","0","5c87d68fe5bc060001ee8498","","null","","","","","","","learning/Slide81.JPG","null","","","","","",""
"html-keyboard-response","248","808031","0.0-7.0-1.0","FL","ker7u0dhxt","1920","1080","0","1","0","5c87d68fe5bc060001ee8498","","null","","","learningBlock2","","","","That was a wug.","null","","","","","",""
"html-keyboard-response","249","809043","0.0-7.0-2.0","FL","ker7u0dhxt","1920","1080","0","1","0","5c87d68fe5bc060001ee8498","","null","","","learningBlock2","","","","<div style=""font-size:60px;""> </div>","null","FL","learning/Slide81.JPG","That was a wug.","","",""
"image-keyboard-response","250","809220","0.0-7.0-0.1","FL","ker7u0dhxt","1920","1080","0","1","0","5c87d68fe5bc060001ee8498","","null","","","","","","","learning/Slide82.JPG","null","","","","","",""
"html-keyboard-response","251","810381","0.0-7.0-1.1","FL","ker7u0dhxt","1920","1080","0","1","0","5c87d68fe5bc060001ee8498","","null","","","learningBlock2","","","","That was a bim.","null","","","","","",""
"html-keyboard-response","252","811386","0.0-7.0-2.1","FL","ker7u0dhxt","1920","1080","0","1","0","5c87d68fe5bc060001ee8498","","null","","","learningBlock2","","","","<div style=""font-size:60px;""> </div>","null","FL","learning/Slide82.JPG","That was a bim.","","",""
"image-keyboard-response","253","811563","0.0-7.0-0.2","FL","ker7u0dhxt","1920","1080","0","1","0","5c87d68fe5bc060001ee8498","","null","","","","","","","learning/Slide83.JPG","null","","","","","",""
"html-keyboard-response","254","812731","0.0-7.0-1.2","FL","ker7u0dhxt","1920","1080","0","1","0","5c87d68fe5bc060001ee8498","","null","","","learningBlock2","","","","That was a wug.","null","","","","","",""
"html-keyboard-response","255","813743","0.0-7.0-2.2","FL","ker7u0dhxt","1920","1080","0","1","0","5c87d68fe5bc060001ee8498","","null","","","learningBlock2","","","","<div style=""font-size:60px;""> </div>","null","FL","learning/Slide83.JPG","That was a wug.","","",""
"image-keyboard-response","256","813933","0.0-7.0-0.3","FL","ker7u0dhxt","1920","1080","0","1","0","5c87d68fe5bc060001ee8498","","null","","","","","","","learning/Slide84.JPG","null","","","","","",""
"html-keyboard-response","257","815094","0.0-7.0-1.3","FL","ker7u0dhxt","1920","1080","0","1","0","5c87d68fe5bc060001ee8498","","null","","","learningBlock2","","","","That was a dep.","null","","","","","",""
"html-keyboard-response","258","816104","0.0-7.0-2.3","FL","ker7u0dhxt","1920","1080","0","1","0","5c87d68fe5bc060001ee8498","","null","","","learningBlock2","","","","<div style=""font-size:60px;""> </div>","null","FL","learning/Slide84.JPG","That was a dep.","","",""
"image-keyboard-response","259","816293","0.0-7.0-0.4","FL","ker7u0dhxt","1920","1080","0","1","0","5c87d68fe5bc060001ee8498","","null","","","","","","","learning/Slide85.JPG","null","","","","","",""
"html-keyboard-response","260","817451","0.0-7.0-1.4","FL","ker7u0dhxt","1920","1080","0","1","0","5c87d68fe5bc060001ee8498","","null","","","learningBlock2","","","","That was a bim.","null","","","","","",""
"html-keyboard-response","261","818461","0.0-7.0-2.4","FL","ker7u0dhxt","1920","1080","0","1","0","5c87d68fe5bc060001ee8498","","null","","","learningBlock2","","","","<div style=""font-size:60px;""> </div>","null","FL","learning/Slide85.JPG","That was a bim.","","",""
"image-keyboard-response","262","818648","0.0-7.0-0.5","FL","ker7u0dhxt","1920","1080","0","1","0","5c87d68fe5bc060001ee8498","","null","","","","","","","learning/Slide86.JPG","null","","","","","",""
"html-keyboard-response","263","819808","0.0-7.0-1.5","FL","ker7u0dhxt","1920","1080","0","1","0","5c87d68fe5bc060001ee8498","","null","","","learningBlock2","","","","That was a tob.","null","","","","","",""
"html-keyboard-response","264","820822","0.0-7.0-2.5","FL","ker7u0dhxt","1920","1080","0","1","0","5c87d68fe5bc060001ee8498","","null","","","learningBlock2","","","","<div style=""font-size:60px;""> </div>","null","FL","learning/Slide86.JPG","That was a tob.","","",""
"image-keyboard-response","265","821011","0.0-7.0-0.6","FL","ker7u0dhxt","1920","1080","0","1","0","5c87d68fe5bc060001ee8498","","null","","","","","","","learning/Slide87.JPG","null","","","","","",""
"html-keyboard-response","266","822183","0.0-7.0-1.6","FL","ker7u0dhxt","1920","1080","0","1","0","5c87d68fe5bc060001ee8498","","null","","","learningBlock2","","","","That was a wug.","null","","","","","",""
"html-keyboard-response","267","823189","0.0-7.0-2.6","FL","ker7u0dhxt","1920","1080","0","1","0","5c87d68fe5bc060001ee8498","","null","","","learningBlock2","","","","<div style=""font-size:60px;""> </div>","null","FL","learning/Slide87.JPG","That was a wug.","","",""
"image-keyboard-response","268","823376","0.0-7.0-0.7","FL","ker7u0dhxt","1920","1080","0","1","0","5c87d68fe5bc060001ee8498","","null","","","","","","","learning/Slide88.JPG","null","","","","","",""
"html-keyboard-response","269","824545","0.0-7.0-1.7","FL","ker7u0dhxt","1920","1080","0","1","0","5c87d68fe5bc060001ee8498","","null","","","learningBlock2","","","","That was a tob.","null","","","","","",""
"html-keyboard-response","270","825554","0.0-7.0-2.7","FL","ker7u0dhxt","1920","1080","0","1","0","5c87d68fe5bc060001ee8498","","null","","","learningBlock2","","","","<div style=""font-size:60px;""> </div>","null","FL","learning/Slide88.JPG","That was a tob.","","",""
"image-keyboard-response","271","825740","0.0-7.0-0.8","FL","ker7u0dhxt","1920","1080","0","1","0","5c87d68fe5bc060001ee8498","","null","","","","","","","learning/Slide89.JPG","null","","","","","",""
"html-keyboard-response","272","826899","0.0-7.0-1.8","FL","ker7u0dhxt","1920","1080","0","1","0","5c87d68fe5bc060001ee8498","","null","","","learningBlock2","","","","That was a bim.","null","","","","","",""
"html-keyboard-response","273","827915","0.0-7.0-2.8","FL","ker7u0dhxt","1920","1080","0","1","0","5c87d68fe5bc060001ee8498","","null","","","learningBlock2","","","","<div style=""font-size:60px;""> </div>","null","FL","learning/Slide89.JPG","That was a bim.","","",""
"image-keyboard-response","274","828100","0.0-7.0-0.9","FL","ker7u0dhxt","1920","1080","0","1","0","5c87d68fe5bc060001ee8498","","null","","","","","","","learning/Slide90.JPG","null","","","","","",""
"html-keyboard-response","275","829275","0.0-7.0-1.9","FL","ker7u0dhxt","1920","1080","0","1","0","5c87d68fe5bc060001ee8498","","null","","","learningBlock2","","","","That was a dep.","null","","","","","",""
"html-keyboard-response","276","830276","0.0-7.0-2.9","FL","ker7u0dhxt","1920","1080","0","1","0","5c87d68fe5bc060001ee8498","","null","","","learningBlock2","","","","<div style=""font-size:60px;""> </div>","null","FL","learning/Slide90.JPG","That was a dep.","","",""
"image-keyboard-response","277","830465","0.0-7.0-0.10","FL","ker7u0dhxt","1920","1080","0","1","0","5c87d68fe5bc060001ee8498","","null","","","","","","","learning/Slide91.JPG","null","","","","","",""
"html-keyboard-response","278","831633","0.0-7.0-1.10","FL","ker7u0dhxt","1920","1080","0","1","0","5c87d68fe5bc060001ee8498","","null","","","learningBlock2","","","","That was a wug.","null","","","","","",""
"html-keyboard-response","279","832643","0.0-7.0-2.10","FL","ker7u0dhxt","1920","1080","0","1","0","5c87d68fe5bc060001ee8498","","null","","","learningBlock2","","","","<div style=""font-size:60px;""> </div>","null","FL","learning/Slide91.JPG","That was a wug.","","",""
"image-keyboard-response","280","832834","0.0-7.0-0.11","FL","ker7u0dhxt","1920","1080","0","1","0","5c87d68fe5bc060001ee8498","","null","","","","","","","learning/Slide92.JPG","null","","","","","",""
"html-keyboard-response","281","833995","0.0-7.0-1.11","FL","ker7u0dhxt","1920","1080","0","1","0","5c87d68fe5bc060001ee8498","","null","","","learningBlock2","","","","That was a tob.","null","","","","","",""
"html-keyboard-response","282","835010","0.0-7.0-2.11","FL","ker7u0dhxt","1920","1080","0","1","0","5c87d68fe5bc060001ee8498","","null","","","learningBlock2","","","","<div style=""font-size:60px;""> </div>","null","FL","learning/Slide92.JPG","That was a tob.","","",""
"image-keyboard-response","283","835198","0.0-7.0-0.12","FL","ker7u0dhxt","1920","1080","0","1","0","5c87d68fe5bc060001ee8498","","null","","","","","","","learning/Slide93.JPG","null","","","","","",""
"html-keyboard-response","284","836367","0.0-7.0-1.12","FL","ker7u0dhxt","1920","1080","0","1","0","5c87d68fe5bc060001ee8498","","null","","","learningBlock2","","","","That was a bim.","null","","","","","",""
"html-keyboard-response","285","837374","0.0-7.0-2.12","FL","ker7u0dhxt","1920","1080","0","1","0","5c87d68fe5bc060001ee8498","","null","","","learningBlock2","","","","<div style=""font-size:60px;""> </div>","null","FL","learning/Slide93.JPG","That was a bim.","","",""
"image-keyboard-response","286","837563","0.0-7.0-0.13","FL","ker7u0dhxt","1920","1080","0","1","0","5c87d68fe5bc060001ee8498","","null","","","","","","","learning/Slide94.JPG","null","","","","","",""
"html-keyboard-response","287","838723","0.0-7.0-1.13","FL","ker7u0dhxt","1920","1080","0","1","0","5c87d68fe5bc060001ee8498","","null","","","learningBlock2","","","","That was a tob.","null","","","","","",""
"html-keyboard-response","288","839737","0.0-7.0-2.13","FL","ker7u0dhxt","1920","1080","0","1","0","5c87d68fe5bc060001ee8498","","null","","","learningBlock2","","","","<div style=""font-size:60px;""> </div>","null","FL","learning/Slide94.JPG","That was a tob.","","",""
"image-keyboard-response","289","839925","0.0-7.0-0.14","FL","ker7u0dhxt","1920","1080","0","1","0","5c87d68fe5bc060001ee8498","","null","","","","","","","learning/Slide95.JPG","null","","","","","",""
"html-keyboard-response","290","841082","0.0-7.0-1.14","FL","ker7u0dhxt","1920","1080","0","1","0","5c87d68fe5bc060001ee8498","","null","","","learningBlock2","","","","That was a wug.","null","","","","","",""
"html-keyboard-response","291","842092","0.0-7.0-2.14","FL","ker7u0dhxt","1920","1080","0","1","0","5c87d68fe5bc060001ee8498","","null","","","learningBlock2","","","","<div style=""font-size:60px;""> </div>","null","FL","learning/Slide95.JPG","That was a wug.","","",""
"image-keyboard-response","292","842279","0.0-7.0-0.15","FL","ker7u0dhxt","1920","1080","0","1","0","5c87d68fe5bc060001ee8498","","null","","","","","","","learning/Slide96.JPG","null","","","","","",""
"html-keyboard-response","293","843445","0.0-7.0-1.15","FL","ker7u0dhxt","1920","1080","0","1","0","5c87d68fe5bc060001ee8498","","null","","","learningBlock2","","","","That was a tob.","null","","","","","",""
"html-keyboard-response","294","844459","0.0-7.0-2.15","FL","ker7u0dhxt","1920","1080","0","1","0","5c87d68fe5bc060001ee8498","","null","","","learningBlock2","","","","<div style=""font-size:60px;""> </div>","null","FL","learning/Slide96.JPG","That was a tob.","","",""
"image-keyboard-response","295","844646","0.0-7.0-0.16","FL","ker7u0dhxt","1920","1080","0","1","0","5c87d68fe5bc060001ee8498","","null","","","","","","","learning/Slide97.JPG","null","","","","","",""
"html-keyboard-response","296","845812","0.0-7.0-1.16","FL","ker7u0dhxt","1920","1080","0","1","0","5c87d68fe5bc060001ee8498","","null","","","learningBlock2","","","","That was a dep.","null","","","","","",""
"html-keyboard-response","297","846824","0.0-7.0-2.16","FL","ker7u0dhxt","1920","1080","0","1","0","5c87d68fe5bc060001ee8498","","null","","","learningBlock2","","","","<div style=""font-size:60px;""> </div>","null","FL","learning/Slide97.JPG","That was a dep.","","",""
"image-keyboard-response","298","847012","0.0-7.0-0.17","FL","ker7u0dhxt","1920","1080","0","1","0","5c87d68fe5bc060001ee8498","","null","","","","","","","learning/Slide98.JPG","null","","","","","",""
"html-keyboard-response","299","848175","0.0-7.0-1.17","FL","ker7u0dhxt","1920","1080","0","1","0","5c87d68fe5bc060001ee8498","","null","","","learningBlock2","","","","That was a bim.","null","","","","","",""
"html-keyboard-response","300","849181","0.0-7.0-2.17","FL","ker7u0dhxt","1920","1080","0","1","0","5c87d68fe5bc060001ee8498","","null","","","learningBlock2","","","","<div style=""font-size:60px;""> </div>","null","FL","learning/Slide98.JPG","That was a bim.","","",""
"image-keyboard-response","301","849371","0.0-7.0-0.18","FL","ker7u0dhxt","1920","1080","0","1","0","5c87d68fe5bc060001ee8498","","null","","","","","","","learning/Slide99.JPG","null","","","","","",""
"html-keyboard-response","302","850541","0.0-7.0-1.18","FL","ker7u0dhxt","1920","1080","0","1","0","5c87d68fe5bc060001ee8498","","null","","","learningBlock2","","","","That was a dep.","null","","","","","",""
"html-keyboard-response","303","851547","0.0-7.0-2.18","FL","ker7u0dhxt","1920","1080","0","1","0","5c87d68fe5bc060001ee8498","","null","","","learningBlock2","","","","<div style=""font-size:60px;""> </div>","null","FL","learning/Slide99.JPG","That was a dep.","","",""
"image-keyboard-response","304","851735","0.0-7.0-0.19","FL","ker7u0dhxt","1920","1080","0","1","0","5c87d68fe5bc060001ee8498","","null","","","","","","","learning/Slide100.JPG","null","","","","","",""
"html-keyboard-response","305","852906","0.0-7.0-1.19","FL","ker7u0dhxt","1920","1080","0","1","0","5c87d68fe5bc060001ee8498","","null","","","learningBlock2","","","","That was a bim.","null","","","","","",""
"html-keyboard-response","306","853910","0.0-7.0-2.19","FL","ker7u0dhxt","1920","1080","0","1","0","5c87d68fe5bc060001ee8498","","null","","","learningBlock2","","","","<div style=""font-size:60px;""> </div>","null","FL","learning/Slide100.JPG","That was a bim.","","",""
"image-keyboard-response","307","854098","0.0-7.0-0.20","FL","ker7u0dhxt","1920","1080","0","1","0","5c87d68fe5bc060001ee8498","","null","","","","","","","learning/Slide101.JPG","null","","","","","",""
"html-keyboard-response","308","855264","0.0-7.0-1.20","FL","ker7u0dhxt","1920","1080","0","1","0","5c87d68fe5bc060001ee8498","","null","","","learningBlock2","","","","That was a tob.","null","","","","","",""
"html-keyboard-response","309","856269","0.0-7.0-2.20","FL","ker7u0dhxt","1920","1080","0","1","0","5c87d68fe5bc060001ee8498","","null","","","learningBlock2","","","","<div style=""font-size:60px;""> </div>","null","FL","learning/Slide101.JPG","That was a tob.","","",""
"image-keyboard-response","310","856458","0.0-7.0-0.21","FL","ker7u0dhxt","1920","1080","0","1","0","5c87d68fe5bc060001ee8498","","null","","","","","","","learning/Slide102.JPG","null","","","","","",""
"html-keyboard-response","311","857617","0.0-7.0-1.21","FL","ker7u0dhxt","1920","1080","0","1","0","5c87d68fe5bc060001ee8498","","null","","","learningBlock2","","","","That was a bim.","null","","","","","",""
"html-keyboard-response","312","858626","0.0-7.0-2.21","FL","ker7u0dhxt","1920","1080","0","1","0","5c87d68fe5bc060001ee8498","","null","","","learningBlock2","","","","<div style=""font-size:60px;""> </div>","null","FL","learning/Slide102.JPG","That was a bim.","","",""
"image-keyboard-response","313","858818","0.0-7.0-0.22","FL","ker7u0dhxt","1920","1080","0","1","0","5c87d68fe5bc060001ee8498","","null","","","","","","","learning/Slide103.JPG","null","","","","","",""
"html-keyboard-response","314","859988","0.0-7.0-1.22","FL","ker7u0dhxt","1920","1080","0","1","0","5c87d68fe5bc060001ee8498","","null","","","learningBlock2","","","","That was a dep.","null","","","","","",""
"html-keyboard-response","315","860996","0.0-7.0-2.22","FL","ker7u0dhxt","1920","1080","0","1","0","5c87d68fe5bc060001ee8498","","null","","","learningBlock2","","","","<div style=""font-size:60px;""> </div>","null","FL","learning/Slide103.JPG","That was a dep.","","",""
"image-keyboard-response","316","861184","0.0-7.0-0.23","FL","ker7u0dhxt","1920","1080","0","1","0","5c87d68fe5bc060001ee8498","","null","","","","","","","learning/Slide104.JPG","null","","","","","",""
"html-keyboard-response","317","862341","0.0-7.0-1.23","FL","ker7u0dhxt","1920","1080","0","1","0","5c87d68fe5bc060001ee8498","","null","","","learningBlock2","","","","That was a tob.","null","","","","","",""
"html-keyboard-response","318","863354","0.0-7.0-2.23","FL","ker7u0dhxt","1920","1080","0","1","0","5c87d68fe5bc060001ee8498","","null","","","learningBlock2","","","","<div style=""font-size:60px;""> </div>","null","FL","learning/Slide104.JPG","That was a tob.","","",""
"image-keyboard-response","319","863543","0.0-7.0-0.24","FL","ker7u0dhxt","1920","1080","0","1","0","5c87d68fe5bc060001ee8498","","null","","","","","","","learning/Slide105.JPG","null","","","","","",""
"html-keyboard-response","320","864711","0.0-7.0-1.24","FL","ker7u0dhxt","1920","1080","0","1","0","5c87d68fe5bc060001ee8498","","null","","","learningBlock2","","","","That was a dep.","null","","","","","",""
"html-keyboard-response","321","865720","0.0-7.0-2.24","FL","ker7u0dhxt","1920","1080","0","1","0","5c87d68fe5bc060001ee8498","","null","","","learningBlock2","","","","<div style=""font-size:60px;""> </div>","null","FL","learning/Slide105.JPG","That was a dep.","","",""
"image-keyboard-response","322","865910","0.0-7.0-0.25","FL","ker7u0dhxt","1920","1080","0","1","0","5c87d68fe5bc060001ee8498","","null","","","","","","","learning/Slide106.JPG","null","","","","","",""
"html-keyboard-response","323","867067","0.0-7.0-1.25","FL","ker7u0dhxt","1920","1080","0","1","0","5c87d68fe5bc060001ee8498","","null","","","learningBlock2","","","","That was a wug.","null","","","","","",""
"html-keyboard-response","324","868069","0.0-7.0-2.25","FL","ker7u0dhxt","1920","1080","0","1","0","5c87d68fe5bc060001ee8498","","null","","","learningBlock2","","","","<div style=""font-size:60px;""> </div>","null","FL","learning/Slide106.JPG","That was a wug.","","",""
"image-keyboard-response","325","868255","0.0-7.0-0.26","FL","ker7u0dhxt","1920","1080","0","1","0","5c87d68fe5bc060001ee8498","","null","","","","","","","learning/Slide107.JPG","null","","","","","",""
"html-keyboard-response","326","869422","0.0-7.0-1.26","FL","ker7u0dhxt","1920","1080","0","1","0","5c87d68fe5bc060001ee8498","","null","","","learningBlock2","","","","That was a bim.","null","","","","","",""
"html-keyboard-response","327","870438","0.0-7.0-2.26","FL","ker7u0dhxt","1920","1080","0","1","0","5c87d68fe5bc060001ee8498","","null","","","learningBlock2","","","","<div style=""font-size:60px;""> </div>","null","FL","learning/Slide107.JPG","That was a bim.","","",""
"image-keyboard-response","328","870626","0.0-7.0-0.27","FL","ker7u0dhxt","1920","1080","0","1","0","5c87d68fe5bc060001ee8498","","null","","","","","","","learning/Slide108.JPG","null","","","","","",""
"html-keyboard-response","329","871795","0.0-7.0-1.27","FL","ker7u0dhxt","1920","1080","0","1","0","5c87d68fe5bc060001ee8498","","null","","","learningBlock2","","","","That was a dep.","null","","","","","",""
"html-keyboard-response","330","872799","0.0-7.0-2.27","FL","ker7u0dhxt","1920","1080","0","1","0","5c87d68fe5bc060001ee8498","","null","","","learningBlock2","","","","<div style=""font-size:60px;""> </div>","null","FL","learning/Slide108.JPG","That was a dep.","","",""
"image-keyboard-response","331","872988","0.0-7.0-0.28","FL","ker7u0dhxt","1920","1080","0","1","0","5c87d68fe5bc060001ee8498","","null","","","","","","","learning/Slide109.JPG","null","","","","","",""
"html-keyboard-response","332","874155","0.0-7.0-1.28","FL","ker7u0dhxt","1920","1080","0","1","0","5c87d68fe5bc060001ee8498","","null","","","learningBlock2","","","","That was a wug.","null","","","","","",""
"html-keyboard-response","333","875157","0.0-7.0-2.28","FL","ker7u0dhxt","1920","1080","0","1","0","5c87d68fe5bc060001ee8498","","null","","","learningBlock2","","","","<div style=""font-size:60px;""> </div>","null","FL","learning/Slide109.JPG","That was a wug.","","",""
"image-keyboard-response","334","875344","0.0-7.0-0.29","FL","ker7u0dhxt","1920","1080","0","1","0","5c87d68fe5bc060001ee8498","","null","","","","","","","learning/Slide110.JPG","null","","","","","",""
"html-keyboard-response","335","876510","0.0-7.0-1.29","FL","ker7u0dhxt","1920","1080","0","1","0","5c87d68fe5bc060001ee8498","","null","","","learningBlock2","","","","That was a bim.","null","","","","","",""
"html-keyboard-response","336","877512","0.0-7.0-2.29","FL","ker7u0dhxt","1920","1080","0","1","0","5c87d68fe5bc060001ee8498","","null","","","learningBlock2","","","","<div style=""font-size:60px;""> </div>","null","FL","learning/Slide110.JPG","That was a bim.","","",""
"image-keyboard-response","337","877701","0.0-7.0-0.30","FL","ker7u0dhxt","1920","1080","0","1","0","5c87d68fe5bc060001ee8498","","null","","","","","","","learning/Slide111.JPG","null","","","","","",""
"html-keyboard-response","338","878863","0.0-7.0-1.30","FL","ker7u0dhxt","1920","1080","0","1","0","5c87d68fe5bc060001ee8498","","null","","","learningBlock2","","","","That was a tob.","null","","","","","",""
"html-keyboard-response","339","879866","0.0-7.0-2.30","FL","ker7u0dhxt","1920","1080","0","1","0","5c87d68fe5bc060001ee8498","","null","","","learningBlock2","","","","<div style=""font-size:60px;""> </div>","null","FL","learning/Slide111.JPG","That was a tob.","","",""
"image-keyboard-response","340","880051","0.0-7.0-0.31","FL","ker7u0dhxt","1920","1080","0","1","0","5c87d68fe5bc060001ee8498","","null","","","","","","","learning/Slide112.JPG","null","","","","","",""
"html-keyboard-response","341","881212","0.0-7.0-1.31","FL","ker7u0dhxt","1920","1080","0","1","0","5c87d68fe5bc060001ee8498","","null","","","learningBlock2","","","","That was a wug.","null","","","","","",""
"html-keyboard-response","342","882216","0.0-7.0-2.31","FL","ker7u0dhxt","1920","1080","0","1","0","5c87d68fe5bc060001ee8498","","null","","","learningBlock2","","","","<div style=""font-size:60px;""> </div>","null","FL","learning/Slide112.JPG","That was a wug.","","",""
"image-keyboard-response","343","882402","0.0-7.0-0.32","FL","ker7u0dhxt","1920","1080","0","1","0","5c87d68fe5bc060001ee8498","","null","","","","","","","learning/Slide113.JPG","null","","","","","",""
"html-keyboard-response","344","883570","0.0-7.0-1.32","FL","ker7u0dhxt","1920","1080","0","1","0","5c87d68fe5bc060001ee8498","","null","","","learningBlock2","","","","That was a tob.","null","","","","","",""
"html-keyboard-response","345","884576","0.0-7.0-2.32","FL","ker7u0dhxt","1920","1080","0","1","0","5c87d68fe5bc060001ee8498","","null","","","learningBlock2","","","","<div style=""font-size:60px;""> </div>","null","FL","learning/Slide113.JPG","That was a tob.","","",""
"image-keyboard-response","346","884766","0.0-7.0-0.33","FL","ker7u0dhxt","1920","1080","0","1","0","5c87d68fe5bc060001ee8498","","null","","","","","","","learning/Slide114.JPG","null","","","","","",""
"html-keyboard-response","347","885926","0.0-7.0-1.33","FL","ker7u0dhxt","1920","1080","0","1","0","5c87d68fe5bc060001ee8498","","null","","","learningBlock2","","","","That was a wug.","null","","","","","",""
"html-keyboard-response","348","886933","0.0-7.0-2.33","FL","ker7u0dhxt","1920","1080","0","1","0","5c87d68fe5bc060001ee8498","","null","","","learningBlock2","","","","<div style=""font-size:60px;""> </div>","null","FL","learning/Slide114.JPG","That was a wug.","","",""
"image-keyboard-response","349","887120","0.0-7.0-0.34","FL","ker7u0dhxt","1920","1080","0","1","0","5c87d68fe5bc060001ee8498","","null","","","","","","","learning/Slide115.JPG","null","","","","","",""
"html-keyboard-response","350","888281","0.0-7.0-1.34","FL","ker7u0dhxt","1920","1080","0","1","0","5c87d68fe5bc060001ee8498","","null","","","learningBlock2","","","","That was a bim.","null","","","","","",""
"html-keyboard-response","351","889292","0.0-7.0-2.34","FL","ker7u0dhxt","1920","1080","0","1","0","5c87d68fe5bc060001ee8498","","null","","","learningBlock2","","","","<div style=""font-size:60px;""> </div>","null","FL","learning/Slide115.JPG","That was a bim.","","",""
"image-keyboard-response","352","889479","0.0-7.0-0.35","FL","ker7u0dhxt","1920","1080","0","1","0","5c87d68fe5bc060001ee8498","","null","","","","","","","learning/Slide116.JPG","null","","","","","",""
"html-keyboard-response","353","890635","0.0-7.0-1.35","FL","ker7u0dhxt","1920","1080","0","1","0","5c87d68fe5bc060001ee8498","","null","","","learningBlock2","","","","That was a dep.","null","","","","","",""
"html-keyboard-response","354","891647","0.0-7.0-2.35","FL","ker7u0dhxt","1920","1080","0","1","0","5c87d68fe5bc060001ee8498","","null","","","learningBlock2","","","","<div style=""font-size:60px;""> </div>","null","FL","learning/Slide116.JPG","That was a dep.","","",""
"image-keyboard-response","355","891833","0.0-7.0-0.36","FL","ker7u0dhxt","1920","1080","0","1","0","5c87d68fe5bc060001ee8498","","null","","","","","","","learning/Slide117.JPG","null","","","","","",""
"html-keyboard-response","356","893000","0.0-7.0-1.36","FL","ker7u0dhxt","1920","1080","0","1","0","5c87d68fe5bc060001ee8498","","null","","","learningBlock2","","","","That was a tob.","null","","","","","",""
"html-keyboard-response","357","894004","0.0-7.0-2.36","FL","ker7u0dhxt","1920","1080","0","1","0","5c87d68fe5bc060001ee8498","","null","","","learningBlock2","","","","<div style=""font-size:60px;""> </div>","null","FL","learning/Slide117.JPG","That was a tob.","","",""
"image-keyboard-response","358","894193","0.0-7.0-0.37","FL","ker7u0dhxt","1920","1080","0","1","0","5c87d68fe5bc060001ee8498","","null","","","","","","","learning/Slide118.JPG","null","","","","","",""
"html-keyboard-response","359","895358","0.0-7.0-1.37","FL","ker7u0dhxt","1920","1080","0","1","0","5c87d68fe5bc060001ee8498","","null","","","learningBlock2","","","","That was a dep.","null","","","","","",""
"html-keyboard-response","360","896372","0.0-7.0-2.37","FL","ker7u0dhxt","1920","1080","0","1","0","5c87d68fe5bc060001ee8498","","null","","","learningBlock2","","","","<div style=""font-size:60px;""> </div>","null","FL","learning/Slide118.JPG","That was a dep.","","",""
"image-keyboard-response","361","896564","0.0-7.0-0.38","FL","ker7u0dhxt","1920","1080","0","1","0","5c87d68fe5bc060001ee8498","","null","","","","","","","learning/Slide119.JPG","null","","","","","",""
"html-keyboard-response","362","897730","0.0-7.0-1.38","FL","ker7u0dhxt","1920","1080","0","1","0","5c87d68fe5bc060001ee8498","","null","","","learningBlock2","","","","That was a wug.","null","","","","","",""
"html-keyboard-response","363","898741","0.0-7.0-2.38","FL","ker7u0dhxt","1920","1080","0","1","0","5c87d68fe5bc060001ee8498","","null","","","learningBlock2","","","","<div style=""font-size:60px;""> </div>","null","FL","learning/Slide119.JPG","That was a wug.","","",""
"image-keyboard-response","364","898932","0.0-7.0-0.39","FL","ker7u0dhxt","1920","1080","0","1","0","5c87d68fe5bc060001ee8498","","null","","","","","","","learning/Slide120.JPG","null","","","","","",""
"html-keyboard-response","365","900100","0.0-7.0-1.39","FL","ker7u0dhxt","1920","1080","0","1","0","5c87d68fe5bc060001ee8498","","null","","","learningBlock2","","","","That was a dep.","null","","","","","",""
"html-keyboard-response","366","901103","0.0-7.0-2.39","FL","ker7u0dhxt","1920","1080","0","1","0","5c87d68fe5bc060001ee8498","","null","","","learningBlock2","","","","<div style=""font-size:60px;""> </div>","null","FL","learning/Slide120.JPG","That was a dep.","","",""
"image-keyboard-response","367","901292","0.0-7.0-0.40","FL","ker7u0dhxt","1920","1080","0","1","0","5c87d68fe5bc060001ee8498","","null","","","","","","","learning/Slide121.JPG","null","","","","","",""
"html-keyboard-response","368","902454","0.0-7.0-1.40","FL","ker7u0dhxt","1920","1080","0","1","0","5c87d68fe5bc060001ee8498","","null","","","learningBlock2","","","","That was a bim.","null","","","","","",""
"html-keyboard-response","369","903468","0.0-7.0-2.40","FL","ker7u0dhxt","1920","1080","0","1","0","5c87d68fe5bc060001ee8498","","null","","","learningBlock2","","","","<div style=""font-size:60px;""> </div>","null","FL","learning/Slide121.JPG","That was a bim.","","",""
"image-keyboard-response","370","903657","0.0-7.0-0.41","FL","ker7u0dhxt","1920","1080","0","1","0","5c87d68fe5bc060001ee8498","","null","","","","","","","learning/Slide122.JPG","null","","","","","",""
"html-keyboard-response","371","904822","0.0-7.0-1.41","FL","ker7u0dhxt","1920","1080","0","1","0","5c87d68fe5bc060001ee8498","","null","","","learningBlock2","","","","That was a wug.","null","","","","","",""
"html-keyboard-response","372","905830","0.0-7.0-2.41","FL","ker7u0dhxt","1920","1080","0","1","0","5c87d68fe5bc060001ee8498","","null","","","learningBlock2","","","","<div style=""font-size:60px;""> </div>","null","FL","learning/Slide122.JPG","That was a wug.","","",""
"image-keyboard-response","373","906019","0.0-7.0-0.42","FL","ker7u0dhxt","1920","1080","0","1","0","5c87d68fe5bc060001ee8498","","null","","","","","","","learning/Slide123.JPG","null","","","","","",""
"html-keyboard-response","374","907186","0.0-7.0-1.42","FL","ker7u0dhxt","1920","1080","0","1","0","5c87d68fe5bc060001ee8498","","null","","","learningBlock2","","","","That was a bim.","null","","","","","",""
"html-keyboard-response","375","908196","0.0-7.0-2.42","FL","ker7u0dhxt","1920","1080","0","1","0","5c87d68fe5bc060001ee8498","","null","","","learningBlock2","","","","<div style=""font-size:60px;""> </div>","null","FL","learning/Slide123.JPG","That was a bim.","","",""
"image-keyboard-response","376","908379","0.0-7.0-0.43","FL","ker7u0dhxt","1920","1080","0","1","0","5c87d68fe5bc060001ee8498","","null","","","","","","","learning/Slide124.JPG","null","","","","","",""
"html-keyboard-response","377","909555","0.0-7.0-1.43","FL","ker7u0dhxt","1920","1080","0","1","0","5c87d68fe5bc060001ee8498","","null","","","learningBlock2","","","","That was a tob.","null","","","","","",""
"html-keyboard-response","378","910565","0.0-7.0-2.43","FL","ker7u0dhxt","1920","1080","0","1","0","5c87d68fe5bc060001ee8498","","null","","","learningBlock2","","","","<div style=""font-size:60px;""> </div>","null","FL","learning/Slide124.JPG","That was a tob.","","",""
"image-keyboard-response","379","910759","0.0-7.0-0.44","FL","ker7u0dhxt","1920","1080","0","1","0","5c87d68fe5bc060001ee8498","","null","","","","","","","learning/Slide125.JPG","null","","","","","",""
"html-keyboard-response","380","911922","0.0-7.0-1.44","FL","ker7u0dhxt","1920","1080","0","1","0","5c87d68fe5bc060001ee8498","","null","","","learningBlock2","","","","That was a bim.","null","","","","","",""
"html-keyboard-response","381","912927","0.0-7.0-2.44","FL","ker7u0dhxt","1920","1080","0","1","0","5c87d68fe5bc060001ee8498","","null","","","learningBlock2","","","","<div style=""font-size:60px;""> </div>","null","FL","learning/Slide125.JPG","That was a bim.","","",""
"image-keyboard-response","382","913117","0.0-7.0-0.45","FL","ker7u0dhxt","1920","1080","0","1","0","5c87d68fe5bc060001ee8498","","null","","","","","","","learning/Slide126.JPG","null","","","","","",""
"html-keyboard-response","383","914284","0.0-7.0-1.45","FL","ker7u0dhxt","1920","1080","0","1","0","5c87d68fe5bc060001ee8498","","null","","","learningBlock2","","","","That was a tob.","null","","","","","",""
"html-keyboard-response","384","915287","0.0-7.0-2.45","FL","ker7u0dhxt","1920","1080","0","1","0","5c87d68fe5bc060001ee8498","","null","","","learningBlock2","","","","<div style=""font-size:60px;""> </div>","null","FL","learning/Slide126.JPG","That was a tob.","","",""
"image-keyboard-response","385","915478","0.0-7.0-0.46","FL","ker7u0dhxt","1920","1080","0","1","0","5c87d68fe5bc060001ee8498","","null","","","","","","","learning/Slide127.JPG","null","","","","","",""
"html-keyboard-response","386","916643","0.0-7.0-1.46","FL","ker7u0dhxt","1920","1080","0","1","0","5c87d68fe5bc060001ee8498","","null","","","learningBlock2","","","","That was a dep.","null","","","","","",""
"html-keyboard-response","387","917645","0.0-7.0-2.46","FL","ker7u0dhxt","1920","1080","0","1","0","5c87d68fe5bc060001ee8498","","null","","","learningBlock2","","","","<div style=""font-size:60px;""> </div>","null","FL","learning/Slide127.JPG","That was a dep.","","",""
"image-keyboard-response","388","917834","0.0-7.0-0.47","FL","ker7u0dhxt","1920","1080","0","1","0","5c87d68fe5bc060001ee8498","","null","","","","","","","learning/Slide128.JPG","null","","","","","",""
"html-keyboard-response","389","919000","0.0-7.0-1.47","FL","ker7u0dhxt","1920","1080","0","1","0","5c87d68fe5bc060001ee8498","","null","","","learningBlock2","","","","That was a wug.","null","","","","","",""
"html-keyboard-response","390","920014","0.0-7.0-2.47","FL","ker7u0dhxt","1920","1080","0","1","0","5c87d68fe5bc060001ee8498","","null","","","learningBlock2","","","","<div style=""font-size:60px;""> </div>","null","FL","learning/Slide128.JPG","That was a wug.","","",""
"image-keyboard-response","391","920199","0.0-7.0-0.48","FL","ker7u0dhxt","1920","1080","0","1","0","5c87d68fe5bc060001ee8498","","null","","","","","","","learning/Slide129.JPG","null","","","","","",""
"html-keyboard-response","392","921366","0.0-7.0-1.48","FL","ker7u0dhxt","1920","1080","0","1","0","5c87d68fe5bc060001ee8498","","null","","","learningBlock2","","","","That was a tob.","null","","","","","",""
"html-keyboard-response","393","922377","0.0-7.0-2.48","FL","ker7u0dhxt","1920","1080","0","1","0","5c87d68fe5bc060001ee8498","","null","","","learningBlock2","","","","<div style=""font-size:60px;""> </div>","null","FL","learning/Slide129.JPG","That was a tob.","","",""
"image-keyboard-response","394","922567","0.0-7.0-0.49","FL","ker7u0dhxt","1920","1080","0","1","0","5c87d68fe5bc060001ee8498","","null","","","","","","","learning/Slide130.JPG","null","","","","","",""
"html-keyboard-response","395","923727","0.0-7.0-1.49","FL","ker7u0dhxt","1920","1080","0","1","0","5c87d68fe5bc060001ee8498","","null","","","learningBlock2","","","","That was a wug.","null","","","","","",""
"html-keyboard-response","396","924732","0.0-7.0-2.49","FL","ker7u0dhxt","1920","1080","0","1","0","5c87d68fe5bc060001ee8498","","null","","","learningBlock2","","","","<div style=""font-size:60px;""> </div>","null","FL","learning/Slide130.JPG","That was a wug.","","",""
"image-keyboard-response","397","924919","0.0-7.0-0.50","FL","ker7u0dhxt","1920","1080","0","1","0","5c87d68fe5bc060001ee8498","","null","","","","","","","learning/Slide131.JPG","null","","","","","",""
"html-keyboard-response","398","926084","0.0-7.0-1.50","FL","ker7u0dhxt","1920","1080","0","1","0","5c87d68fe5bc060001ee8498","","null","","","learningBlock2","","","","That was a bim.","null","","","","","",""
"html-keyboard-response","399","927091","0.0-7.0-2.50","FL","ker7u0dhxt","1920","1080","0","1","0","5c87d68fe5bc060001ee8498","","null","","","learningBlock2","","","","<div style=""font-size:60px;""> </div>","null","FL","learning/Slide131.JPG","That was a bim.","","",""
"image-keyboard-response","400","927280","0.0-7.0-0.51","FL","ker7u0dhxt","1920","1080","0","1","0","5c87d68fe5bc060001ee8498","","null","","","","","","","learning/Slide132.JPG","null","","","","","",""
"html-keyboard-response","401","928448","0.0-7.0-1.51","FL","ker7u0dhxt","1920","1080","0","1","0","5c87d68fe5bc060001ee8498","","null","","","learningBlock2","","","","That was a dep.","null","","","","","",""
"html-keyboard-response","402","929452","0.0-7.0-2.51","FL","ker7u0dhxt","1920","1080","0","1","0","5c87d68fe5bc060001ee8498","","null","","","learningBlock2","","","","<div style=""font-size:60px;""> </div>","null","FL","learning/Slide132.JPG","That was a dep.","","",""
"image-keyboard-response","403","929640","0.0-7.0-0.52","FL","ker7u0dhxt","1920","1080","0","1","0","5c87d68fe5bc060001ee8498","","null","","","","","","","learning/Slide133.JPG","null","","","","","",""
"html-keyboard-response","404","930803","0.0-7.0-1.52","FL","ker7u0dhxt","1920","1080","0","1","0","5c87d68fe5bc060001ee8498","","null","","","learningBlock2","","","","That was a tob.","null","","","","","",""
"html-keyboard-response","405","931817","0.0-7.0-2.52","FL","ker7u0dhxt","1920","1080","0","1","0","5c87d68fe5bc060001ee8498","","null","","","learningBlock2","","","","<div style=""font-size:60px;""> </div>","null","FL","learning/Slide133.JPG","That was a tob.","","",""
"image-keyboard-response","406","932006","0.0-7.0-0.53","FL","ker7u0dhxt","1920","1080","0","1","0","5c87d68fe5bc060001ee8498","","null","","","","","","","learning/Slide134.JPG","null","","","","","",""
"html-keyboard-response","407","933165","0.0-7.0-1.53","FL","ker7u0dhxt","1920","1080","0","1","0","5c87d68fe5bc060001ee8498","","null","","","learningBlock2","","","","That was a dep.","null","","","","","",""
"html-keyboard-response","408","934166","0.0-7.0-2.53","FL","ker7u0dhxt","1920","1080","0","1","0","5c87d68fe5bc060001ee8498","","null","","","learningBlock2","","","","<div style=""font-size:60px;""> </div>","null","FL","learning/Slide134.JPG","That was a dep.","","",""
"image-keyboard-response","409","934350","0.0-7.0-0.54","FL","ker7u0dhxt","1920","1080","0","1","0","5c87d68fe5bc060001ee8498","","null","","","","","","","learning/Slide135.JPG","null","","","","","",""
"html-keyboard-response","410","935510","0.0-7.0-1.54","FL","ker7u0dhxt","1920","1080","0","1","0","5c87d68fe5bc060001ee8498","","null","","","learningBlock2","","","","That was a tob.","null","","","","","",""
"html-keyboard-response","411","936515","0.0-7.0-2.54","FL","ker7u0dhxt","1920","1080","0","1","0","5c87d68fe5bc060001ee8498","","null","","","learningBlock2","","","","<div style=""font-size:60px;""> </div>","null","FL","learning/Slide135.JPG","That was a tob.","","",""
"image-keyboard-response","412","936701","0.0-7.0-0.55","FL","ker7u0dhxt","1920","1080","0","1","0","5c87d68fe5bc060001ee8498","","null","","","","","","","learning/Slide136.JPG","null","","","","","",""
"html-keyboard-response","413","937872","0.0-7.0-1.55","FL","ker7u0dhxt","1920","1080","0","1","0","5c87d68fe5bc060001ee8498","","null","","","learningBlock2","","","","That was a wug.","null","","","","","",""
"html-keyboard-response","414","938875","0.0-7.0-2.55","FL","ker7u0dhxt","1920","1080","0","1","0","5c87d68fe5bc060001ee8498","","null","","","learningBlock2","","","","<div style=""font-size:60px;""> </div>","null","FL","learning/Slide136.JPG","That was a wug.","","",""
"image-keyboard-response","415","939063","0.0-7.0-0.56","FL","ker7u0dhxt","1920","1080","0","1","0","5c87d68fe5bc060001ee8498","","null","","","","","","","learning/Slide137.JPG","null","","","","","",""
"html-keyboard-response","416","940231","0.0-7.0-1.56","FL","ker7u0dhxt","1920","1080","0","1","0","5c87d68fe5bc060001ee8498","","null","","","learningBlock2","","","","That was a tob.","null","","","","","",""
"html-keyboard-response","417","941246","0.0-7.0-2.56","FL","ker7u0dhxt","1920","1080","0","1","0","5c87d68fe5bc060001ee8498","","null","","","learningBlock2","","","","<div style=""font-size:60px;""> </div>","null","FL","learning/Slide137.JPG","That was a tob.","","",""
"image-keyboard-response","418","941434","0.0-7.0-0.57","FL","ker7u0dhxt","1920","1080","0","1","0","5c87d68fe5bc060001ee8498","","null","","","","","","","learning/Slide138.JPG","null","","","","","",""
"html-keyboard-response","419","942605","0.0-7.0-1.57","FL","ker7u0dhxt","1920","1080","0","1","0","5c87d68fe5bc060001ee8498","","null","","","learningBlock2","","","","That was a bim.","null","","","","","",""
"html-keyboard-response","420","943619","0.0-7.0-2.57","FL","ker7u0dhxt","1920","1080","0","1","0","5c87d68fe5bc060001ee8498","","null","","","learningBlock2","","","","<div style=""font-size:60px;""> </div>","null","FL","learning/Slide138.JPG","That was a bim.","","",""
"image-keyboard-response","421","943804","0.0-7.0-0.58","FL","ker7u0dhxt","1920","1080","0","1","0","5c87d68fe5bc060001ee8498","","null","","","","","","","learning/Slide139.JPG","null","","","","","",""
"html-keyboard-response","422","944977","0.0-7.0-1.58","FL","ker7u0dhxt","1920","1080","0","1","0","5c87d68fe5bc060001ee8498","","null","","","learningBlock2","","","","That was a wug.","null","","","","","",""
"html-keyboard-response","423","945991","0.0-7.0-2.58","FL","ker7u0dhxt","1920","1080","0","1","0","5c87d68fe5bc060001ee8498","","null","","","learningBlock2","","","","<div style=""font-size:60px;""> </div>","null","FL","learning/Slide139.JPG","That was a wug.","","",""
"image-keyboard-response","424","946176","0.0-7.0-0.59","FL","ker7u0dhxt","1920","1080","0","1","0","5c87d68fe5bc060001ee8498","","null","","","","","","","learning/Slide140.JPG","null","","","","","",""
"html-keyboard-response","425","947341","0.0-7.0-1.59","FL","ker7u0dhxt","1920","1080","0","1","0","5c87d68fe5bc060001ee8498","","null","","","learningBlock2","","","","That was a dep.","null","","","","","",""
"html-keyboard-response","426","948343","0.0-7.0-2.59","FL","ker7u0dhxt","1920","1080","0","1","0","5c87d68fe5bc060001ee8498","","null","","","learningBlock2","","","","<div style=""font-size:60px;""> </div>","null","FL","learning/Slide140.JPG","That was a dep.","","",""
"image-keyboard-response","427","948533","0.0-7.0-0.60","FL","ker7u0dhxt","1920","1080","0","1","0","5c87d68fe5bc060001ee8498","","null","","","","","","","learning/Slide141.JPG","null","","","","","",""
"html-keyboard-response","428","949702","0.0-7.0-1.60","FL","ker7u0dhxt","1920","1080","0","1","0","5c87d68fe5bc060001ee8498","","null","","","learningBlock2","","","","That was a tob.","null","","","","","",""
"html-keyboard-response","429","950715","0.0-7.0-2.60","FL","ker7u0dhxt","1920","1080","0","1","0","5c87d68fe5bc060001ee8498","","null","","","learningBlock2","","","","<div style=""font-size:60px;""> </div>","null","FL","learning/Slide141.JPG","That was a tob.","","",""
"image-keyboard-response","430","950902","0.0-7.0-0.61","FL","ker7u0dhxt","1920","1080","0","1","0","5c87d68fe5bc060001ee8498","","null","","","","","","","learning/Slide142.JPG","null","","","","","",""
"html-keyboard-response","431","952062","0.0-7.0-1.61","FL","ker7u0dhxt","1920","1080","0","1","0","5c87d68fe5bc060001ee8498","","null","","","learningBlock2","","","","That was a wug.","null","","","","","",""
"html-keyboard-response","432","953076","0.0-7.0-2.61","FL","ker7u0dhxt","1920","1080","0","1","0","5c87d68fe5bc060001ee8498","","null","","","learningBlock2","","","","<div style=""font-size:60px;""> </div>","null","FL","learning/Slide142.JPG","That was a wug.","","",""
"image-keyboard-response","433","953262","0.0-7.0-0.62","FL","ker7u0dhxt","1920","1080","0","1","0","5c87d68fe5bc060001ee8498","","null","","","","","","","learning/Slide143.JPG","null","","","","","",""
"html-keyboard-response","434","954427","0.0-7.0-1.62","FL","ker7u0dhxt","1920","1080","0","1","0","5c87d68fe5bc060001ee8498","","null","","","learningBlock2","","","","That was a bim.","null","","","","","",""
