"trial_type","trial_index","time_elapsed","internal_node_id","condition","subject","screen_width","screen_height","attention","distraction","conscientious","prolificID","success","rt","url","view_history","test_part","final_height_px","final_width_px","scale_factor","stimulus","key_press","learningType","presentedImage","presentedLabel","button_pressed","response","responses"
"pavlovia","0","50","0.0-0.0","FL","jxvpkh0u3z","1536","864","0","1","0","5fd74512393436000a1a7323","","","","","","","","","","","","","","","",""
"fullscreen","1","3516","0.0-1.0","FL","jxvpkh0u3z","1536","864","0","1","0","5fd74512393436000a1a7323","true","","","","","","","","","","","","","","",""
"external-html","2","5443","0.0-2.0-0.0","FL","jxvpkh0u3z","1536","864","0","1","0","5fd74512393436000a1a7323","","1917.1099999803118","text/information_english.html","","","","","","","","","","","","",""
"external-html","3","7707","0.0-2.0-1.0","FL","jxvpkh0u3z","1536","864","0","1","0","5fd74512393436000a1a7323","","2257.099999987986","text/consent_english.html","","","","","","","","","","","","",""
"instructions","4","9427","0.0-3.0","FL","jxvpkh0u3z","1536","864","0","1","0","5fd74512393436000a1a7323","","NA","","[{""page_index"":0,""viewing_time"":1038.4699999704026},{""page_index"":1,""viewing_time"":680.1600000471808}]","instructions","","","","","","","","","","",""
"resize","5","16883","0.0-4.0","FL","jxvpkh0u3z","1536","864","0","1","0","5fd74512393436000a1a7323","","","","","","","336","2.1333333333333333","","","","","","","",""
"image-keyboard-response","6","17061","0.0-5.0-0.0","FL","jxvpkh0u3z","1536","864","0","1","0","5fd74512393436000a1a7323","","null","","","","","","","learning/Slide1.JPG","null","","","","","",""
"html-keyboard-response","7","18214","0.0-5.0-1.0","FL","jxvpkh0u3z","1536","864","0","1","0","5fd74512393436000a1a7323","","null","","","learningBlock1","","","","That was a tob.","null","","","","","",""
"html-keyboard-response","8","19216","0.0-5.0-2.0","FL","jxvpkh0u3z","1536","864","0","1","0","5fd74512393436000a1a7323","","null","","","learningBlock1","","","","<div style=""font-size:60px;""> </div>","null","FL","learning/Slide1.JPG","That was a tob.","","",""
"image-keyboard-response","9","19393","0.0-5.0-0.1","FL","jxvpkh0u3z","1536","864","0","1","0","5fd74512393436000a1a7323","","null","","","","","","","learning/Slide2.JPG","null","","","","","",""
"html-keyboard-response","10","20546","0.0-5.0-1.1","FL","jxvpkh0u3z","1536","864","0","1","0","5fd74512393436000a1a7323","","null","","","learningBlock1","","","","That was a wug.","null","","","","","",""
"html-keyboard-response","11","21547","0.0-5.0-2.1","FL","jxvpkh0u3z","1536","864","0","1","0","5fd74512393436000a1a7323","","null","","","learningBlock1","","","","<div style=""font-size:60px;""> </div>","null","FL","learning/Slide2.JPG","That was a wug.","","",""
"image-keyboard-response","12","21724","0.0-5.0-0.2","FL","jxvpkh0u3z","1536","864","0","1","0","5fd74512393436000a1a7323","","null","","","","","","","learning/Slide3.JPG","null","","","","","",""
"html-keyboard-response","13","22877","0.0-5.0-1.2","FL","jxvpkh0u3z","1536","864","0","1","0","5fd74512393436000a1a7323","","null","","","learningBlock1","","","","That was a bim.","null","","","","","",""
"html-keyboard-response","14","23879","0.0-5.0-2.2","FL","jxvpkh0u3z","1536","864","0","1","0","5fd74512393436000a1a7323","","null","","","learningBlock1","","","","<div style=""font-size:60px;""> </div>","null","FL","learning/Slide3.JPG","That was a bim.","","",""
"image-keyboard-response","15","24055","0.0-5.0-0.3","FL","jxvpkh0u3z","1536","864","0","1","0","5fd74512393436000a1a7323","","null","","","","","","","learning/Slide4.JPG","null","","","","","",""
"html-keyboard-response","16","25208","0.0-5.0-1.3","FL","jxvpkh0u3z","1536","864","0","1","0","5fd74512393436000a1a7323","","null","","","learningBlock1","","","","That was a dep.","null","","","","","",""
"html-keyboard-response","17","26209","0.0-5.0-2.3","FL","jxvpkh0u3z","1536","864","0","1","0","5fd74512393436000a1a7323","","null","","","learningBlock1","","","","<div style=""font-size:60px;""> </div>","null","FL","learning/Slide4.JPG","That was a dep.","","",""
"image-keyboard-response","18","26385","0.0-5.0-0.4","FL","jxvpkh0u3z","1536","864","0","1","0","5fd74512393436000a1a7323","","null","","","","","","","learning/Slide5.JPG","null","","","","","",""
"html-keyboard-response","19","27538","0.0-5.0-1.4","FL","jxvpkh0u3z","1536","864","0","1","0","5fd74512393436000a1a7323","","null","","","learningBlock1","","","","That was a wug.","null","","","","","",""
"html-keyboard-response","20","28538","0.0-5.0-2.4","FL","jxvpkh0u3z","1536","864","0","1","0","5fd74512393436000a1a7323","","null","","","learningBlock1","","","","<div style=""font-size:60px;""> </div>","null","FL","learning/Slide5.JPG","That was a wug.","","",""
"image-keyboard-response","21","28716","0.0-5.0-0.5","FL","jxvpkh0u3z","1536","864","0","1","0","5fd74512393436000a1a7323","","null","","","","","","","learning/Slide6.JPG","null","","","","","",""
"html-keyboard-response","22","29868","0.0-5.0-1.5","FL","jxvpkh0u3z","1536","864","0","1","0","5fd74512393436000a1a7323","","null","","","learningBlock1","","","","That was a dep.","null","","","","","",""
"html-keyboard-response","23","30870","0.0-5.0-2.5","FL","jxvpkh0u3z","1536","864","0","1","0","5fd74512393436000a1a7323","","null","","","learningBlock1","","","","<div style=""font-size:60px;""> </div>","null","FL","learning/Slide6.JPG","That was a dep.","","",""
"image-keyboard-response","24","31047","0.0-5.0-0.6","FL","jxvpkh0u3z","1536","864","0","1","0","5fd74512393436000a1a7323","","null","","","","","","","learning/Slide7.JPG","null","","","","","",""
"html-keyboard-response","25","32199","0.0-5.0-1.6","FL","jxvpkh0u3z","1536","864","0","1","0","5fd74512393436000a1a7323","","null","","","learningBlock1","","","","That was a wug.","null","","","","","",""
"html-keyboard-response","26","33201","0.0-5.0-2.6","FL","jxvpkh0u3z","1536","864","0","1","0","5fd74512393436000a1a7323","","null","","","learningBlock1","","","","<div style=""font-size:60px;""> </div>","null","FL","learning/Slide7.JPG","That was a wug.","","",""
"image-keyboard-response","27","33378","0.0-5.0-0.7","FL","jxvpkh0u3z","1536","864","0","1","0","5fd74512393436000a1a7323","","null","","","","","","","learning/Slide8.JPG","null","","","","","",""
"html-keyboard-response","28","34530","0.0-5.0-1.7","FL","jxvpkh0u3z","1536","864","0","1","0","5fd74512393436000a1a7323","","null","","","learningBlock1","","","","That was a bim.","null","","","","","",""
"html-keyboard-response","29","35531","0.0-5.0-2.7","FL","jxvpkh0u3z","1536","864","0","1","0","5fd74512393436000a1a7323","","null","","","learningBlock1","","","","<div style=""font-size:60px;""> </div>","null","FL","learning/Slide8.JPG","That was a bim.","","",""
"image-keyboard-response","30","35711","0.0-5.0-0.8","FL","jxvpkh0u3z","1536","864","0","1","0","5fd74512393436000a1a7323","","null","","","","","","","learning/Slide9.JPG","null","","","","","",""
"html-keyboard-response","31","36863","0.0-5.0-1.8","FL","jxvpkh0u3z","1536","864","0","1","0","5fd74512393436000a1a7323","","null","","","learningBlock1","","","","That was a wug.","null","","","","","",""
"html-keyboard-response","32","37864","0.0-5.0-2.8","FL","jxvpkh0u3z","1536","864","0","1","0","5fd74512393436000a1a7323","","null","","","learningBlock1","","","","<div style=""font-size:60px;""> </div>","null","FL","learning/Slide9.JPG","That was a wug.","","",""
"image-keyboard-response","33","38040","0.0-5.0-0.9","FL","jxvpkh0u3z","1536","864","0","1","0","5fd74512393436000a1a7323","","null","","","","","","","learning/Slide10.JPG","null","","","","","",""
"html-keyboard-response","34","39193","0.0-5.0-1.9","FL","jxvpkh0u3z","1536","864","0","1","0","5fd74512393436000a1a7323","","null","","","learningBlock1","","","","That was a dep.","null","","","","","",""
"html-keyboard-response","35","40195","0.0-5.0-2.9","FL","jxvpkh0u3z","1536","864","0","1","0","5fd74512393436000a1a7323","","null","","","learningBlock1","","","","<div style=""font-size:60px;""> </div>","null","FL","learning/Slide10.JPG","That was a dep.","","",""
"image-keyboard-response","36","40371","0.0-5.0-0.10","FL","jxvpkh0u3z","1536","864","0","1","0","5fd74512393436000a1a7323","","null","","","","","","","learning/Slide11.JPG","null","","","","","",""
"html-keyboard-response","37","41523","0.0-5.0-1.10","FL","jxvpkh0u3z","1536","864","0","1","0","5fd74512393436000a1a7323","","null","","","learningBlock1","","","","That was a tob.","null","","","","","",""
"html-keyboard-response","38","42526","0.0-5.0-2.10","FL","jxvpkh0u3z","1536","864","0","1","0","5fd74512393436000a1a7323","","null","","","learningBlock1","","","","<div style=""font-size:60px;""> </div>","null","FL","learning/Slide11.JPG","That was a tob.","","",""
"image-keyboard-response","39","42702","0.0-5.0-0.11","FL","jxvpkh0u3z","1536","864","0","1","0","5fd74512393436000a1a7323","","null","","","","","","","learning/Slide12.JPG","null","","","","","",""
"html-keyboard-response","40","43856","0.0-5.0-1.11","FL","jxvpkh0u3z","1536","864","0","1","0","5fd74512393436000a1a7323","","null","","","learningBlock1","","","","That was a dep.","null","","","","","",""
"html-keyboard-response","41","44857","0.0-5.0-2.11","FL","jxvpkh0u3z","1536","864","0","1","0","5fd74512393436000a1a7323","","null","","","learningBlock1","","","","<div style=""font-size:60px;""> </div>","null","FL","learning/Slide12.JPG","That was a dep.","","",""
"image-keyboard-response","42","45033","0.0-5.0-0.12","FL","jxvpkh0u3z","1536","864","0","1","0","5fd74512393436000a1a7323","","null","","","","","","","learning/Slide13.JPG","null","","","","","",""
"html-keyboard-response","43","46185","0.0-5.0-1.12","FL","jxvpkh0u3z","1536","864","0","1","0","5fd74512393436000a1a7323","","null","","","learningBlock1","","","","That was a bim.","null","","","","","",""
"html-keyboard-response","44","47188","0.0-5.0-2.12","FL","jxvpkh0u3z","1536","864","0","1","0","5fd74512393436000a1a7323","","null","","","learningBlock1","","","","<div style=""font-size:60px;""> </div>","null","FL","learning/Slide13.JPG","That was a bim.","","",""
"image-keyboard-response","45","47364","0.0-5.0-0.13","FL","jxvpkh0u3z","1536","864","0","1","0","5fd74512393436000a1a7323","","null","","","","","","","learning/Slide14.JPG","null","","","","","",""
"html-keyboard-response","46","48517","0.0-5.0-1.13","FL","jxvpkh0u3z","1536","864","0","1","0","5fd74512393436000a1a7323","","null","","","learningBlock1","","","","That was a wug.","null","","","","","",""
"html-keyboard-response","47","49519","0.0-5.0-2.13","FL","jxvpkh0u3z","1536","864","0","1","0","5fd74512393436000a1a7323","","null","","","learningBlock1","","","","<div style=""font-size:60px;""> </div>","null","FL","learning/Slide14.JPG","That was a wug.","","",""
"image-keyboard-response","48","49695","0.0-5.0-0.14","FL","jxvpkh0u3z","1536","864","0","1","0","5fd74512393436000a1a7323","","null","","","","","","","learning/Slide15.JPG","null","","","","","",""
"html-keyboard-response","49","50847","0.0-5.0-1.14","FL","jxvpkh0u3z","1536","864","0","1","0","5fd74512393436000a1a7323","","null","","","learningBlock1","","","","That was a tob.","null","","","","","",""
"html-keyboard-response","50","51849","0.0-5.0-2.14","FL","jxvpkh0u3z","1536","864","0","1","0","5fd74512393436000a1a7323","","null","","","learningBlock1","","","","<div style=""font-size:60px;""> </div>","null","FL","learning/Slide15.JPG","That was a tob.","","",""
"image-keyboard-response","51","52026","0.0-5.0-0.15","FL","jxvpkh0u3z","1536","864","0","1","0","5fd74512393436000a1a7323","","null","","","","","","","learning/Slide16.JPG","null","","","","","",""
"html-keyboard-response","52","53179","0.0-5.0-1.15","FL","jxvpkh0u3z","1536","864","0","1","0","5fd74512393436000a1a7323","","null","","","learningBlock1","","","","That was a dep.","null","","","","","",""
"html-keyboard-response","53","54180","0.0-5.0-2.15","FL","jxvpkh0u3z","1536","864","0","1","0","5fd74512393436000a1a7323","","null","","","learningBlock1","","","","<div style=""font-size:60px;""> </div>","null","FL","learning/Slide16.JPG","That was a dep.","","",""
"image-keyboard-response","54","54356","0.0-5.0-0.16","FL","jxvpkh0u3z","1536","864","0","1","0","5fd74512393436000a1a7323","","null","","","","","","","learning/Slide17.JPG","null","","","","","",""
"html-keyboard-response","55","55508","0.0-5.0-1.16","FL","jxvpkh0u3z","1536","864","0","1","0","5fd74512393436000a1a7323","","null","","","learningBlock1","","","","That was a bim.","null","","","","","",""
"html-keyboard-response","56","56511","0.0-5.0-2.16","FL","jxvpkh0u3z","1536","864","0","1","0","5fd74512393436000a1a7323","","null","","","learningBlock1","","","","<div style=""font-size:60px;""> </div>","null","FL","learning/Slide17.JPG","That was a bim.","","",""
"image-keyboard-response","57","56687","0.0-5.0-0.17","FL","jxvpkh0u3z","1536","864","0","1","0","5fd74512393436000a1a7323","","null","","","","","","","learning/Slide18.JPG","null","","","","","",""
"html-keyboard-response","58","57839","0.0-5.0-1.17","FL","jxvpkh0u3z","1536","864","0","1","0","5fd74512393436000a1a7323","","null","","","learningBlock1","","","","That was a tob.","null","","","","","",""
"html-keyboard-response","59","58842","0.0-5.0-2.17","FL","jxvpkh0u3z","1536","864","0","1","0","5fd74512393436000a1a7323","","null","","","learningBlock1","","","","<div style=""font-size:60px;""> </div>","null","FL","learning/Slide18.JPG","That was a tob.","","",""
"image-keyboard-response","60","59018","0.0-5.0-0.18","FL","jxvpkh0u3z","1536","864","0","1","0","5fd74512393436000a1a7323","","null","","","","","","","learning/Slide19.JPG","null","","","","","",""
"html-keyboard-response","61","60170","0.0-5.0-1.18","FL","jxvpkh0u3z","1536","864","0","1","0","5fd74512393436000a1a7323","","null","","","learningBlock1","","","","That was a wug.","null","","","","","",""
"html-keyboard-response","62","61171","0.0-5.0-2.18","FL","jxvpkh0u3z","1536","864","0","1","0","5fd74512393436000a1a7323","","null","","","learningBlock1","","","","<div style=""font-size:60px;""> </div>","null","FL","learning/Slide19.JPG","That was a wug.","","",""
"image-keyboard-response","63","61348","0.0-5.0-0.19","FL","jxvpkh0u3z","1536","864","0","1","0","5fd74512393436000a1a7323","","null","","","","","","","learning/Slide20.JPG","null","","","","","",""
"html-keyboard-response","64","62500","0.0-5.0-1.19","FL","jxvpkh0u3z","1536","864","0","1","0","5fd74512393436000a1a7323","","null","","","learningBlock1","","","","That was a bim.","null","","","","","",""
"html-keyboard-response","65","63501","0.0-5.0-2.19","FL","jxvpkh0u3z","1536","864","0","1","0","5fd74512393436000a1a7323","","null","","","learningBlock1","","","","<div style=""font-size:60px;""> </div>","null","FL","learning/Slide20.JPG","That was a bim.","","",""
"image-keyboard-response","66","63677","0.0-5.0-0.20","FL","jxvpkh0u3z","1536","864","0","1","0","5fd74512393436000a1a7323","","null","","","","","","","learning/Slide21.JPG","null","","","","","",""
"html-keyboard-response","67","64829","0.0-5.0-1.20","FL","jxvpkh0u3z","1536","864","0","1","0","5fd74512393436000a1a7323","","null","","","learningBlock1","","","","That was a dep.","null","","","","","",""
"html-keyboard-response","68","65830","0.0-5.0-2.20","FL","jxvpkh0u3z","1536","864","0","1","0","5fd74512393436000a1a7323","","null","","","learningBlock1","","","","<div style=""font-size:60px;""> </div>","null","FL","learning/Slide21.JPG","That was a dep.","","",""
"image-keyboard-response","69","66009","0.0-5.0-0.21","FL","jxvpkh0u3z","1536","864","0","1","0","5fd74512393436000a1a7323","","null","","","","","","","learning/Slide22.JPG","null","","","","","",""
"html-keyboard-response","70","67161","0.0-5.0-1.21","FL","jxvpkh0u3z","1536","864","0","1","0","5fd74512393436000a1a7323","","null","","","learningBlock1","","","","That was a bim.","null","","","","","",""
"html-keyboard-response","71","68162","0.0-5.0-2.21","FL","jxvpkh0u3z","1536","864","0","1","0","5fd74512393436000a1a7323","","null","","","learningBlock1","","","","<div style=""font-size:60px;""> </div>","null","FL","learning/Slide22.JPG","That was a bim.","","",""
"image-keyboard-response","72","68338","0.0-5.0-0.22","FL","jxvpkh0u3z","1536","864","0","1","0","5fd74512393436000a1a7323","","null","","","","","","","learning/Slide23.JPG","null","","","","","",""
"html-keyboard-response","73","69491","0.0-5.0-1.22","FL","jxvpkh0u3z","1536","864","0","1","0","5fd74512393436000a1a7323","","null","","","learningBlock1","","","","That was a tob.","null","","","","","",""
"html-keyboard-response","74","70493","0.0-5.0-2.22","FL","jxvpkh0u3z","1536","864","0","1","0","5fd74512393436000a1a7323","","null","","","learningBlock1","","","","<div style=""font-size:60px;""> </div>","null","FL","learning/Slide23.JPG","That was a tob.","","",""
"image-keyboard-response","75","70670","0.0-5.0-0.23","FL","jxvpkh0u3z","1536","864","0","1","0","5fd74512393436000a1a7323","","null","","","","","","","learning/Slide24.JPG","null","","","","","",""
"html-keyboard-response","76","71823","0.0-5.0-1.23","FL","jxvpkh0u3z","1536","864","0","1","0","5fd74512393436000a1a7323","","null","","","learningBlock1","","","","That was a wug.","null","","","","","",""
"html-keyboard-response","77","72824","0.0-5.0-2.23","FL","jxvpkh0u3z","1536","864","0","1","0","5fd74512393436000a1a7323","","null","","","learningBlock1","","","","<div style=""font-size:60px;""> </div>","null","FL","learning/Slide24.JPG","That was a wug.","","",""
"image-keyboard-response","78","73001","0.0-5.0-0.24","FL","jxvpkh0u3z","1536","864","0","1","0","5fd74512393436000a1a7323","","null","","","","","","","learning/Slide25.JPG","null","","","","","",""
"html-keyboard-response","79","74151","0.0-5.0-1.24","FL","jxvpkh0u3z","1536","864","0","1","0","5fd74512393436000a1a7323","","null","","","learningBlock1","","","","That was a dep.","null","","","","","",""
"html-keyboard-response","80","75153","0.0-5.0-2.24","FL","jxvpkh0u3z","1536","864","0","1","0","5fd74512393436000a1a7323","","null","","","learningBlock1","","","","<div style=""font-size:60px;""> </div>","null","FL","learning/Slide25.JPG","That was a dep.","","",""
"image-keyboard-response","81","75330","0.0-5.0-0.25","FL","jxvpkh0u3z","1536","864","0","1","0","5fd74512393436000a1a7323","","null","","","","","","","learning/Slide26.JPG","null","","","","","",""
"html-keyboard-response","82","76483","0.0-5.0-1.25","FL","jxvpkh0u3z","1536","864","0","1","0","5fd74512393436000a1a7323","","null","","","learningBlock1","","","","That was a wug.","null","","","","","",""
"html-keyboard-response","83","77486","0.0-5.0-2.25","FL","jxvpkh0u3z","1536","864","0","1","0","5fd74512393436000a1a7323","","null","","","learningBlock1","","","","<div style=""font-size:60px;""> </div>","null","FL","learning/Slide26.JPG","That was a wug.","","",""
"image-keyboard-response","84","77662","0.0-5.0-0.26","FL","jxvpkh0u3z","1536","864","0","1","0","5fd74512393436000a1a7323","","null","","","","","","","learning/Slide27.JPG","null","","","","","",""
"html-keyboard-response","85","78813","0.0-5.0-1.26","FL","jxvpkh0u3z","1536","864","0","1","0","5fd74512393436000a1a7323","","null","","","learningBlock1","","","","That was a bim.","null","","","","","",""
"html-keyboard-response","86","79815","0.0-5.0-2.26","FL","jxvpkh0u3z","1536","864","0","1","0","5fd74512393436000a1a7323","","null","","","learningBlock1","","","","<div style=""font-size:60px;""> </div>","null","FL","learning/Slide27.JPG","That was a bim.","","",""
"image-keyboard-response","87","79992","0.0-5.0-0.27","FL","jxvpkh0u3z","1536","864","0","1","0","5fd74512393436000a1a7323","","null","","","","","","","learning/Slide28.JPG","null","","","","","",""
"html-keyboard-response","88","81144","0.0-5.0-1.27","FL","jxvpkh0u3z","1536","864","0","1","0","5fd74512393436000a1a7323","","null","","","learningBlock1","","","","That was a dep.","null","","","","","",""
"html-keyboard-response","89","82146","0.0-5.0-2.27","FL","jxvpkh0u3z","1536","864","0","1","0","5fd74512393436000a1a7323","","null","","","learningBlock1","","","","<div style=""font-size:60px;""> </div>","null","FL","learning/Slide28.JPG","That was a dep.","","",""
"image-keyboard-response","90","82322","0.0-5.0-0.28","FL","jxvpkh0u3z","1536","864","0","1","0","5fd74512393436000a1a7323","","null","","","","","","","learning/Slide29.JPG","null","","","","","",""
"html-keyboard-response","91","83475","0.0-5.0-1.28","FL","jxvpkh0u3z","1536","864","0","1","0","5fd74512393436000a1a7323","","null","","","learningBlock1","","","","That was a tob.","null","","","","","",""
"html-keyboard-response","92","84476","0.0-5.0-2.28","FL","jxvpkh0u3z","1536","864","0","1","0","5fd74512393436000a1a7323","","null","","","learningBlock1","","","","<div style=""font-size:60px;""> </div>","null","FL","learning/Slide29.JPG","That was a tob.","","",""
"image-keyboard-response","93","84652","0.0-5.0-0.29","FL","jxvpkh0u3z","1536","864","0","1","0","5fd74512393436000a1a7323","","null","","","","","","","learning/Slide30.JPG","null","","","","","",""
"html-keyboard-response","94","85805","0.0-5.0-1.29","FL","jxvpkh0u3z","1536","864","0","1","0","5fd74512393436000a1a7323","","null","","","learningBlock1","","","","That was a dep.","null","","","","","",""
"html-keyboard-response","95","86807","0.0-5.0-2.29","FL","jxvpkh0u3z","1536","864","0","1","0","5fd74512393436000a1a7323","","null","","","learningBlock1","","","","<div style=""font-size:60px;""> </div>","null","FL","learning/Slide30.JPG","That was a dep.","","",""
"image-keyboard-response","96","86984","0.0-5.0-0.30","FL","jxvpkh0u3z","1536","864","0","1","0","5fd74512393436000a1a7323","","null","","","","","","","learning/Slide31.JPG","null","","","","","",""
"html-keyboard-response","97","88136","0.0-5.0-1.30","FL","jxvpkh0u3z","1536","864","0","1","0","5fd74512393436000a1a7323","","null","","","learningBlock1","","","","That was a wug.","null","","","","","",""
"html-keyboard-response","98","89138","0.0-5.0-2.30","FL","jxvpkh0u3z","1536","864","0","1","0","5fd74512393436000a1a7323","","null","","","learningBlock1","","","","<div style=""font-size:60px;""> </div>","null","FL","learning/Slide31.JPG","That was a wug.","","",""
"image-keyboard-response","99","89315","0.0-5.0-0.31","FL","jxvpkh0u3z","1536","864","0","1","0","5fd74512393436000a1a7323","","null","","","","","","","learning/Slide32.JPG","null","","","","","",""
"html-keyboard-response","100","90468","0.0-5.0-1.31","FL","jxvpkh0u3z","1536","864","0","1","0","5fd74512393436000a1a7323","","null","","","learningBlock1","","","","That was a tob.","null","","","","","",""
"html-keyboard-response","101","91470","0.0-5.0-2.31","FL","jxvpkh0u3z","1536","864","0","1","0","5fd74512393436000a1a7323","","null","","","learningBlock1","","","","<div style=""font-size:60px;""> </div>","null","FL","learning/Slide32.JPG","That was a tob.","","",""
"image-keyboard-response","102","91648","0.0-5.0-0.32","FL","jxvpkh0u3z","1536","864","0","1","0","5fd74512393436000a1a7323","","null","","","","","","","learning/Slide33.JPG","null","","","","","",""
"html-keyboard-response","103","92802","0.0-5.0-1.32","FL","jxvpkh0u3z","1536","864","0","1","0","5fd74512393436000a1a7323","","null","","","learningBlock1","","","","That was a bim.","null","","","","","",""
"html-keyboard-response","104","93806","0.0-5.0-2.32","FL","jxvpkh0u3z","1536","864","0","1","0","5fd74512393436000a1a7323","","null","","","learningBlock1","","","","<div style=""font-size:60px;""> </div>","null","FL","learning/Slide33.JPG","That was a bim.","","",""
"image-keyboard-response","105","93984","0.0-5.0-0.33","FL","jxvpkh0u3z","1536","864","0","1","0","5fd74512393436000a1a7323","","null","","","","","","","learning/Slide34.JPG","null","","","","","",""
"html-keyboard-response","106","95137","0.0-5.0-1.33","FL","jxvpkh0u3z","1536","864","0","1","0","5fd74512393436000a1a7323","","null","","","learningBlock1","","","","That was a tob.","null","","","","","",""
"html-keyboard-response","107","96170","0.0-5.0-2.33","FL","jxvpkh0u3z","1536","864","0","1","0","5fd74512393436000a1a7323","","null","","","learningBlock1","","","","<div style=""font-size:60px;""> </div>","null","FL","learning/Slide34.JPG","That was a tob.","","",""
"image-keyboard-response","108","96358","0.0-5.0-0.34","FL","jxvpkh0u3z","1536","864","0","1","0","5fd74512393436000a1a7323","","null","","","","","","","learning/Slide35.JPG","null","","","","","",""
"html-keyboard-response","109","97511","0.0-5.0-1.34","FL","jxvpkh0u3z","1536","864","0","1","0","5fd74512393436000a1a7323","","null","","","learningBlock1","","","","That was a bim.","null","","","","","",""
"html-keyboard-response","110","98514","0.0-5.0-2.34","FL","jxvpkh0u3z","1536","864","0","1","0","5fd74512393436000a1a7323","","null","","","learningBlock1","","","","<div style=""font-size:60px;""> </div>","null","FL","learning/Slide35.JPG","That was a bim.","","",""
"image-keyboard-response","111","98691","0.0-5.0-0.35","FL","jxvpkh0u3z","1536","864","0","1","0","5fd74512393436000a1a7323","","null","","","","","","","learning/Slide36.JPG","null","","","","","",""
"html-keyboard-response","112","99845","0.0-5.0-1.35","FL","jxvpkh0u3z","1536","864","0","1","0","5fd74512393436000a1a7323","","null","","","learningBlock1","","","","That was a dep.","null","","","","","",""
"html-keyboard-response","113","100846","0.0-5.0-2.35","FL","jxvpkh0u3z","1536","864","0","1","0","5fd74512393436000a1a7323","","null","","","learningBlock1","","","","<div style=""font-size:60px;""> </div>","null","FL","learning/Slide36.JPG","That was a dep.","","",""
"image-keyboard-response","114","101022","0.0-5.0-0.36","FL","jxvpkh0u3z","1536","864","0","1","0","5fd74512393436000a1a7323","","null","","","","","","","learning/Slide37.JPG","null","","","","","",""
"html-keyboard-response","115","102174","0.0-5.0-1.36","FL","jxvpkh0u3z","1536","864","0","1","0","5fd74512393436000a1a7323","","null","","","learningBlock1","","","","That was a tob.","null","","","","","",""
"html-keyboard-response","116","103176","0.0-5.0-2.36","FL","jxvpkh0u3z","1536","864","0","1","0","5fd74512393436000a1a7323","","null","","","learningBlock1","","","","<div style=""font-size:60px;""> </div>","null","FL","learning/Slide37.JPG","That was a tob.","","",""
"image-keyboard-response","117","103353","0.0-5.0-0.37","FL","jxvpkh0u3z","1536","864","0","1","0","5fd74512393436000a1a7323","","null","","","","","","","learning/Slide38.JPG","null","","","","","",""
"html-keyboard-response","118","104506","0.0-5.0-1.37","FL","jxvpkh0u3z","1536","864","0","1","0","5fd74512393436000a1a7323","","null","","","learningBlock1","","","","That was a wug.","null","","","","","",""
"html-keyboard-response","119","105508","0.0-5.0-2.37","FL","jxvpkh0u3z","1536","864","0","1","0","5fd74512393436000a1a7323","","null","","","learningBlock1","","","","<div style=""font-size:60px;""> </div>","null","FL","learning/Slide38.JPG","That was a wug.","","",""
"image-keyboard-response","120","105684","0.0-5.0-0.38","FL","jxvpkh0u3z","1536","864","0","1","0","5fd74512393436000a1a7323","","null","","","","","","","learning/Slide39.JPG","null","","","","","",""
"html-keyboard-response","121","106837","0.0-5.0-1.38","FL","jxvpkh0u3z","1536","864","0","1","0","5fd74512393436000a1a7323","","null","","","learningBlock1","","","","That was a bim.","null","","","","","",""
"html-keyboard-response","122","107838","0.0-5.0-2.38","FL","jxvpkh0u3z","1536","864","0","1","0","5fd74512393436000a1a7323","","null","","","learningBlock1","","","","<div style=""font-size:60px;""> </div>","null","FL","learning/Slide39.JPG","That was a bim.","","",""
"image-keyboard-response","123","108015","0.0-5.0-0.39","FL","jxvpkh0u3z","1536","864","0","1","0","5fd74512393436000a1a7323","","null","","","","","","","learning/Slide40.JPG","null","","","","","",""
"html-keyboard-response","124","109168","0.0-5.0-1.39","FL","jxvpkh0u3z","1536","864","0","1","0","5fd74512393436000a1a7323","","null","","","learningBlock1","","","","That was a tob.","null","","","","","",""
"html-keyboard-response","125","110170","0.0-5.0-2.39","FL","jxvpkh0u3z","1536","864","0","1","0","5fd74512393436000a1a7323","","null","","","learningBlock1","","","","<div style=""font-size:60px;""> </div>","null","FL","learning/Slide40.JPG","That was a tob.","","",""
"image-keyboard-response","126","110347","0.0-5.0-0.40","FL","jxvpkh0u3z","1536","864","0","1","0","5fd74512393436000a1a7323","","null","","","","","","","learning/Slide41.JPG","null","","","","","",""
"html-keyboard-response","127","111503","0.0-5.0-1.40","FL","jxvpkh0u3z","1536","864","0","1","0","5fd74512393436000a1a7323","","null","","","learningBlock1","","","","That was a bim.","null","","","","","",""
"html-keyboard-response","128","112504","0.0-5.0-2.40","FL","jxvpkh0u3z","1536","864","0","1","0","5fd74512393436000a1a7323","","null","","","learningBlock1","","","","<div style=""font-size:60px;""> </div>","null","FL","learning/Slide41.JPG","That was a bim.","","",""
"image-keyboard-response","129","112681","0.0-5.0-0.41","FL","jxvpkh0u3z","1536","864","0","1","0","5fd74512393436000a1a7323","","null","","","","","","","learning/Slide42.JPG","null","","","","","",""
"html-keyboard-response","130","113835","0.0-5.0-1.41","FL","jxvpkh0u3z","1536","864","0","1","0","5fd74512393436000a1a7323","","null","","","learningBlock1","","","","That was a dep.","null","","","","","",""
"html-keyboard-response","131","114837","0.0-5.0-2.41","FL","jxvpkh0u3z","1536","864","0","1","0","5fd74512393436000a1a7323","","null","","","learningBlock1","","","","<div style=""font-size:60px;""> </div>","null","FL","learning/Slide42.JPG","That was a dep.","","",""
"image-keyboard-response","132","115013","0.0-5.0-0.42","FL","jxvpkh0u3z","1536","864","0","1","0","5fd74512393436000a1a7323","","null","","","","","","","learning/Slide43.JPG","null","","","","","",""
"html-keyboard-response","133","116165","0.0-5.0-1.42","FL","jxvpkh0u3z","1536","864","0","1","0","5fd74512393436000a1a7323","","null","","","learningBlock1","","","","That was a wug.","null","","","","","",""
"html-keyboard-response","134","117168","0.0-5.0-2.42","FL","jxvpkh0u3z","1536","864","0","1","0","5fd74512393436000a1a7323","","null","","","learningBlock1","","","","<div style=""font-size:60px;""> </div>","null","FL","learning/Slide43.JPG","That was a wug.","","",""
"image-keyboard-response","135","117345","0.0-5.0-0.43","FL","jxvpkh0u3z","1536","864","0","1","0","5fd74512393436000a1a7323","","null","","","","","","","learning/Slide44.JPG","null","","","","","",""
"html-keyboard-response","136","118498","0.0-5.0-1.43","FL","jxvpkh0u3z","1536","864","0","1","0","5fd74512393436000a1a7323","","null","","","learningBlock1","","","","That was a bim.","null","","","","","",""
"html-keyboard-response","137","119500","0.0-5.0-2.43","FL","jxvpkh0u3z","1536","864","0","1","0","5fd74512393436000a1a7323","","null","","","learningBlock1","","","","<div style=""font-size:60px;""> </div>","null","FL","learning/Slide44.JPG","That was a bim.","","",""
"image-keyboard-response","138","119676","0.0-5.0-0.44","FL","jxvpkh0u3z","1536","864","0","1","0","5fd74512393436000a1a7323","","null","","","","","","","learning/Slide45.JPG","null","","","","","",""
"html-keyboard-response","139","120829","0.0-5.0-1.44","FL","jxvpkh0u3z","1536","864","0","1","0","5fd74512393436000a1a7323","","null","","","learningBlock1","","","","That was a wug.","null","","","","","",""
"html-keyboard-response","140","121830","0.0-5.0-2.44","FL","jxvpkh0u3z","1536","864","0","1","0","5fd74512393436000a1a7323","","null","","","learningBlock1","","","","<div style=""font-size:60px;""> </div>","null","FL","learning/Slide45.JPG","That was a wug.","","",""
"image-keyboard-response","141","122007","0.0-5.0-0.45","FL","jxvpkh0u3z","1536","864","0","1","0","5fd74512393436000a1a7323","","null","","","","","","","learning/Slide46.JPG","null","","","","","",""
"html-keyboard-response","142","123160","0.0-5.0-1.45","FL","jxvpkh0u3z","1536","864","0","1","0","5fd74512393436000a1a7323","","null","","","learningBlock1","","","","That was a dep.","null","","","","","",""
"html-keyboard-response","143","124162","0.0-5.0-2.45","FL","jxvpkh0u3z","1536","864","0","1","0","5fd74512393436000a1a7323","","null","","","learningBlock1","","","","<div style=""font-size:60px;""> </div>","null","FL","learning/Slide46.JPG","That was a dep.","","",""
"image-keyboard-response","144","124338","0.0-5.0-0.46","FL","jxvpkh0u3z","1536","864","0","1","0","5fd74512393436000a1a7323","","null","","","","","","","learning/Slide47.JPG","null","","","","","",""
"html-keyboard-response","145","125492","0.0-5.0-1.46","FL","jxvpkh0u3z","1536","864","0","1","0","5fd74512393436000a1a7323","","null","","","learningBlock1","","","","That was a tob.","null","","","","","",""
"html-keyboard-response","146","126494","0.0-5.0-2.46","FL","jxvpkh0u3z","1536","864","0","1","0","5fd74512393436000a1a7323","","null","","","learningBlock1","","","","<div style=""font-size:60px;""> </div>","null","FL","learning/Slide47.JPG","That was a tob.","","",""
"image-keyboard-response","147","126671","0.0-5.0-0.47","FL","jxvpkh0u3z","1536","864","0","1","0","5fd74512393436000a1a7323","","null","","","","","","","learning/Slide48.JPG","null","","","","","",""
"html-keyboard-response","148","127823","0.0-5.0-1.47","FL","jxvpkh0u3z","1536","864","0","1","0","5fd74512393436000a1a7323","","null","","","learningBlock1","","","","That was a bim.","null","","","","","",""
"html-keyboard-response","149","128825","0.0-5.0-2.47","FL","jxvpkh0u3z","1536","864","0","1","0","5fd74512393436000a1a7323","","null","","","learningBlock1","","","","<div style=""font-size:60px;""> </div>","null","FL","learning/Slide48.JPG","That was a bim.","","",""
"image-keyboard-response","150","129001","0.0-5.0-0.48","FL","jxvpkh0u3z","1536","864","0","1","0","5fd74512393436000a1a7323","","null","","","","","","","learning/Slide49.JPG","null","","","","","",""
"html-keyboard-response","151","130154","0.0-5.0-1.48","FL","jxvpkh0u3z","1536","864","0","1","0","5fd74512393436000a1a7323","","null","","","learningBlock1","","","","That was a dep.","null","","","","","",""
"html-keyboard-response","152","131156","0.0-5.0-2.48","FL","jxvpkh0u3z","1536","864","0","1","0","5fd74512393436000a1a7323","","null","","","learningBlock1","","","","<div style=""font-size:60px;""> </div>","null","FL","learning/Slide49.JPG","That was a dep.","","",""
"image-keyboard-response","153","131333","0.0-5.0-0.49","FL","jxvpkh0u3z","1536","864","0","1","0","5fd74512393436000a1a7323","","null","","","","","","","learning/Slide50.JPG","null","","","","","",""
"html-keyboard-response","154","132486","0.0-5.0-1.49","FL","jxvpkh0u3z","1536","864","0","1","0","5fd74512393436000a1a7323","","null","","","learningBlock1","","","","That was a tob.","null","","","","","",""
"html-keyboard-response","155","133486","0.0-5.0-2.49","FL","jxvpkh0u3z","1536","864","0","1","0","5fd74512393436000a1a7323","","null","","","learningBlock1","","","","<div style=""font-size:60px;""> </div>","null","FL","learning/Slide50.JPG","That was a tob.","","",""
"image-keyboard-response","156","133663","0.0-5.0-0.50","FL","jxvpkh0u3z","1536","864","0","1","0","5fd74512393436000a1a7323","","null","","","","","","","learning/Slide51.JPG","null","","","","","",""
"html-keyboard-response","157","134815","0.0-5.0-1.50","FL","jxvpkh0u3z","1536","864","0","1","0","5fd74512393436000a1a7323","","null","","","learningBlock1","","","","That was a bim.","null","","","","","",""
"html-keyboard-response","158","135817","0.0-5.0-2.50","FL","jxvpkh0u3z","1536","864","0","1","0","5fd74512393436000a1a7323","","null","","","learningBlock1","","","","<div style=""font-size:60px;""> </div>","null","FL","learning/Slide51.JPG","That was a bim.","","",""
"image-keyboard-response","159","135995","0.0-5.0-0.51","FL","jxvpkh0u3z","1536","864","0","1","0","5fd74512393436000a1a7323","","null","","","","","","","learning/Slide52.JPG","null","","","","","",""
"html-keyboard-response","160","137147","0.0-5.0-1.51","FL","jxvpkh0u3z","1536","864","0","1","0","5fd74512393436000a1a7323","","null","","","learningBlock1","","","","That was a wug.","null","","","","","",""
"html-keyboard-response","161","138150","0.0-5.0-2.51","FL","jxvpkh0u3z","1536","864","0","1","0","5fd74512393436000a1a7323","","null","","","learningBlock1","","","","<div style=""font-size:60px;""> </div>","null","FL","learning/Slide52.JPG","That was a wug.","","",""
"image-keyboard-response","162","138330","0.0-5.0-0.52","FL","jxvpkh0u3z","1536","864","0","1","0","5fd74512393436000a1a7323","","null","","","","","","","learning/Slide53.JPG","null","","","","","",""
"html-keyboard-response","163","139482","0.0-5.0-1.52","FL","jxvpkh0u3z","1536","864","0","1","0","5fd74512393436000a1a7323","","null","","","learningBlock1","","","","That was a tob.","null","","","","","",""
"html-keyboard-response","164","140484","0.0-5.0-2.52","FL","jxvpkh0u3z","1536","864","0","1","0","5fd74512393436000a1a7323","","null","","","learningBlock1","","","","<div style=""font-size:60px;""> </div>","null","FL","learning/Slide53.JPG","That was a tob.","","",""
"image-keyboard-response","165","140660","0.0-5.0-0.53","FL","jxvpkh0u3z","1536","864","0","1","0","5fd74512393436000a1a7323","","null","","","","","","","learning/Slide54.JPG","null","","","","","",""
"html-keyboard-response","166","141812","0.0-5.0-1.53","FL","jxvpkh0u3z","1536","864","0","1","0","5fd74512393436000a1a7323","","null","","","learningBlock1","","","","That was a dep.","null","","","","","",""
"html-keyboard-response","167","142814","0.0-5.0-2.53","FL","jxvpkh0u3z","1536","864","0","1","0","5fd74512393436000a1a7323","","null","","","learningBlock1","","","","<div style=""font-size:60px;""> </div>","null","FL","learning/Slide54.JPG","That was a dep.","","",""
"image-keyboard-response","168","142991","0.0-5.0-0.54","FL","jxvpkh0u3z","1536","864","0","1","0","5fd74512393436000a1a7323","","null","","","","","","","learning/Slide55.JPG","null","","","","","",""
"html-keyboard-response","169","144144","0.0-5.0-1.54","FL","jxvpkh0u3z","1536","864","0","1","0","5fd74512393436000a1a7323","","null","","","learningBlock1","","","","That was a bim.","null","","","","","",""
"html-keyboard-response","170","145146","0.0-5.0-2.54","FL","jxvpkh0u3z","1536","864","0","1","0","5fd74512393436000a1a7323","","null","","","learningBlock1","","","","<div style=""font-size:60px;""> </div>","null","FL","learning/Slide55.JPG","That was a bim.","","",""
"image-keyboard-response","171","145321","0.0-5.0-0.55","FL","jxvpkh0u3z","1536","864","0","1","0","5fd74512393436000a1a7323","","null","","","","","","","learning/Slide56.JPG","null","","","","","",""
"html-keyboard-response","172","146473","0.0-5.0-1.55","FL","jxvpkh0u3z","1536","864","0","1","0","5fd74512393436000a1a7323","","null","","","learningBlock1","","","","That was a tob.","null","","","","","",""
"html-keyboard-response","173","147475","0.0-5.0-2.55","FL","jxvpkh0u3z","1536","864","0","1","0","5fd74512393436000a1a7323","","null","","","learningBlock1","","","","<div style=""font-size:60px;""> </div>","null","FL","learning/Slide56.JPG","That was a tob.","","",""
"image-keyboard-response","174","147652","0.0-5.0-0.56","FL","jxvpkh0u3z","1536","864","0","1","0","5fd74512393436000a1a7323","","null","","","","","","","learning/Slide57.JPG","null","","","","","",""
"html-keyboard-response","175","148804","0.0-5.0-1.56","FL","jxvpkh0u3z","1536","864","0","1","0","5fd74512393436000a1a7323","","null","","","learningBlock1","","","","That was a dep.","null","","","","","",""
"html-keyboard-response","176","149805","0.0-5.0-2.56","FL","jxvpkh0u3z","1536","864","0","1","0","5fd74512393436000a1a7323","","null","","","learningBlock1","","","","<div style=""font-size:60px;""> </div>","null","FL","learning/Slide57.JPG","That was a dep.","","",""
"image-keyboard-response","177","149982","0.0-5.0-0.57","FL","jxvpkh0u3z","1536","864","0","1","0","5fd74512393436000a1a7323","","null","","","","","","","learning/Slide58.JPG","null","","","","","",""
"html-keyboard-response","178","151135","0.0-5.0-1.57","FL","jxvpkh0u3z","1536","864","0","1","0","5fd74512393436000a1a7323","","null","","","learningBlock1","","","","That was a wug.","null","","","","","",""
"html-keyboard-response","179","152136","0.0-5.0-2.57","FL","jxvpkh0u3z","1536","864","0","1","0","5fd74512393436000a1a7323","","null","","","learningBlock1","","","","<div style=""font-size:60px;""> </div>","null","FL","learning/Slide58.JPG","That was a wug.","","",""
"image-keyboard-response","180","152313","0.0-5.0-0.58","FL","jxvpkh0u3z","1536","864","0","1","0","5fd74512393436000a1a7323","","null","","","","","","","learning/Slide59.JPG","null","","","","","",""
"html-keyboard-response","181","153465","0.0-5.0-1.58","FL","jxvpkh0u3z","1536","864","0","1","0","5fd74512393436000a1a7323","","null","","","learningBlock1","","","","That was a dep.","null","","","","","",""
"html-keyboard-response","182","154466","0.0-5.0-2.58","FL","jxvpkh0u3z","1536","864","0","1","0","5fd74512393436000a1a7323","","null","","","learningBlock1","","","","<div style=""font-size:60px;""> </div>","null","FL","learning/Slide59.JPG","That was a dep.","","",""
"image-keyboard-response","183","154642","0.0-5.0-0.59","FL","jxvpkh0u3z","1536","864","0","1","0","5fd74512393436000a1a7323","","null","","","","","","","learning/Slide60.JPG","null","","","","","",""
"html-keyboard-response","184","155794","0.0-5.0-1.59","FL","jxvpkh0u3z","1536","864","0","1","0","5fd74512393436000a1a7323","","null","","","learningBlock1","","","","That was a wug.","null","","","","","",""
"html-keyboard-response","185","156796","0.0-5.0-2.59","FL","jxvpkh0u3z","1536","864","0","1","0","5fd74512393436000a1a7323","","null","","","learningBlock1","","","","<div style=""font-size:60px;""> </div>","null","FL","learning/Slide60.JPG","That was a wug.","","",""
"image-keyboard-response","186","156971","0.0-5.0-0.60","FL","jxvpkh0u3z","1536","864","0","1","0","5fd74512393436000a1a7323","","null","","","","","","","learning/Slide61.JPG","null","","","","","",""
"html-keyboard-response","187","158123","0.0-5.0-1.60","FL","jxvpkh0u3z","1536","864","0","1","0","5fd74512393436000a1a7323","","null","","","learningBlock1","","","","That was a bim.","null","","","","","",""
"html-keyboard-response","188","159125","0.0-5.0-2.60","FL","jxvpkh0u3z","1536","864","0","1","0","5fd74512393436000a1a7323","","null","","","learningBlock1","","","","<div style=""font-size:60px;""> </div>","null","FL","learning/Slide61.JPG","That was a bim.","","",""
"image-keyboard-response","189","159301","0.0-5.0-0.61","FL","jxvpkh0u3z","1536","864","0","1","0","5fd74512393436000a1a7323","","null","","","","","","","learning/Slide62.JPG","null","","","","","",""
"html-keyboard-response","190","160454","0.0-5.0-1.61","FL","jxvpkh0u3z","1536","864","0","1","0","5fd74512393436000a1a7323","","null","","","learningBlock1","","","","That was a dep.","null","","","","","",""
"html-keyboard-response","191","161455","0.0-5.0-2.61","FL","jxvpkh0u3z","1536","864","0","1","0","5fd74512393436000a1a7323","","null","","","learningBlock1","","","","<div style=""font-size:60px;""> </div>","null","FL","learning/Slide62.JPG","That was a dep.","","",""
"image-keyboard-response","192","161631","0.0-5.0-0.62","FL","jxvpkh0u3z","1536","864","0","1","0","5fd74512393436000a1a7323","","null","","","","","","","learning/Slide63.JPG","null","","","","","",""
"html-keyboard-response","193","162785","0.0-5.0-1.62","FL","jxvpkh0u3z","1536","864","0","1","0","5fd74512393436000a1a7323","","null","","","learningBlock1","","","","That was a bim.","null","","","","","",""
"html-keyboard-response","194","163787","0.0-5.0-2.62","FL","jxvpkh0u3z","1536","864","0","1","0","5fd74512393436000a1a7323","","null","","","learningBlock1","","","","<div style=""font-size:60px;""> </div>","null","FL","learning/Slide63.JPG","That was a bim.","","",""
"image-keyboard-response","195","163964","0.0-5.0-0.63","FL","jxvpkh0u3z","1536","864","0","1","0","5fd74512393436000a1a7323","","null","","","","","","","learning/Slide64.JPG","null","","","","","",""
"html-keyboard-response","196","165116","0.0-5.0-1.63","FL","jxvpkh0u3z","1536","864","0","1","0","5fd74512393436000a1a7323","","null","","","learningBlock1","","","","That was a tob.","null","","","","","",""
"html-keyboard-response","197","166117","0.0-5.0-2.63","FL","jxvpkh0u3z","1536","864","0","1","0","5fd74512393436000a1a7323","","null","","","learningBlock1","","","","<div style=""font-size:60px;""> </div>","null","FL","learning/Slide64.JPG","That was a tob.","","",""
"image-keyboard-response","198","166293","0.0-5.0-0.64","FL","jxvpkh0u3z","1536","864","0","1","0","5fd74512393436000a1a7323","","null","","","","","","","learning/Slide65.JPG","null","","","","","",""
"html-keyboard-response","199","167446","0.0-5.0-1.64","FL","jxvpkh0u3z","1536","864","0","1","0","5fd74512393436000a1a7323","","null","","","learningBlock1","","","","That was a wug.","null","","","","","",""
"html-keyboard-response","200","168447","0.0-5.0-2.64","FL","jxvpkh0u3z","1536","864","0","1","0","5fd74512393436000a1a7323","","null","","","learningBlock1","","","","<div style=""font-size:60px;""> </div>","null","FL","learning/Slide65.JPG","That was a wug.","","",""
"image-keyboard-response","201","168624","0.0-5.0-0.65","FL","jxvpkh0u3z","1536","864","0","1","0","5fd74512393436000a1a7323","","null","","","","","","","learning/Slide66.JPG","null","","","","","",""
"html-keyboard-response","202","169777","0.0-5.0-1.65","FL","jxvpkh0u3z","1536","864","0","1","0","5fd74512393436000a1a7323","","null","","","learningBlock1","","","","That was a dep.","null","","","","","",""
"html-keyboard-response","203","170779","0.0-5.0-2.65","FL","jxvpkh0u3z","1536","864","0","1","0","5fd74512393436000a1a7323","","null","","","learningBlock1","","","","<div style=""font-size:60px;""> </div>","null","FL","learning/Slide66.JPG","That was a dep.","","",""
"image-keyboard-response","204","170956","0.0-5.0-0.66","FL","jxvpkh0u3z","1536","864","0","1","0","5fd74512393436000a1a7323","","null","","","","","","","learning/Slide67.JPG","null","","","","","",""
"html-keyboard-response","205","172109","0.0-5.0-1.66","FL","jxvpkh0u3z","1536","864","0","1","0","5fd74512393436000a1a7323","","null","","","learningBlock1","","","","That was a tob.","null","","","","","",""
"html-keyboard-response","206","173110","0.0-5.0-2.66","FL","jxvpkh0u3z","1536","864","0","1","0","5fd74512393436000a1a7323","","null","","","learningBlock1","","","","<div style=""font-size:60px;""> </div>","null","FL","learning/Slide67.JPG","That was a tob.","","",""
"image-keyboard-response","207","173287","0.0-5.0-0.67","FL","jxvpkh0u3z","1536","864","0","1","0","5fd74512393436000a1a7323","","null","","","","","","","learning/Slide68.JPG","null","","","","","",""
"html-keyboard-response","208","174440","0.0-5.0-1.67","FL","jxvpkh0u3z","1536","864","0","1","0","5fd74512393436000a1a7323","","null","","","learningBlock1","","","","That was a wug.","null","","","","","",""
"html-keyboard-response","209","175441","0.0-5.0-2.67","FL","jxvpkh0u3z","1536","864","0","1","0","5fd74512393436000a1a7323","","null","","","learningBlock1","","","","<div style=""font-size:60px;""> </div>","null","FL","learning/Slide68.JPG","That was a wug.","","",""
"image-keyboard-response","210","175618","0.0-5.0-0.68","FL","jxvpkh0u3z","1536","864","0","1","0","5fd74512393436000a1a7323","","null","","","","","","","learning/Slide69.JPG","null","","","","","",""
"html-keyboard-response","211","176770","0.0-5.0-1.68","FL","jxvpkh0u3z","1536","864","0","1","0","5fd74512393436000a1a7323","","null","","","learningBlock1","","","","That was a tob.","null","","","","","",""
"html-keyboard-response","212","177772","0.0-5.0-2.68","FL","jxvpkh0u3z","1536","864","0","1","0","5fd74512393436000a1a7323","","null","","","learningBlock1","","","","<div style=""font-size:60px;""> </div>","null","FL","learning/Slide69.JPG","That was a tob.","","",""
"image-keyboard-response","213","177948","0.0-5.0-0.69","FL","jxvpkh0u3z","1536","864","0","1","0","5fd74512393436000a1a7323","","null","","","","","","","learning/Slide70.JPG","null","","","","","",""
"html-keyboard-response","214","179101","0.0-5.0-1.69","FL","jxvpkh0u3z","1536","864","0","1","0","5fd74512393436000a1a7323","","null","","","learningBlock1","","","","That was a dep.","null","","","","","",""
"html-keyboard-response","215","180102","0.0-5.0-2.69","FL","jxvpkh0u3z","1536","864","0","1","0","5fd74512393436000a1a7323","","null","","","learningBlock1","","","","<div style=""font-size:60px;""> </div>","null","FL","learning/Slide70.JPG","That was a dep.","","",""
"image-keyboard-response","216","180279","0.0-5.0-0.70","FL","jxvpkh0u3z","1536","864","0","1","0","5fd74512393436000a1a7323","","null","","","","","","","learning/Slide71.JPG","null","","","","","",""
"html-keyboard-response","217","181431","0.0-5.0-1.70","FL","jxvpkh0u3z","1536","864","0","1","0","5fd74512393436000a1a7323","","null","","","learningBlock1","","","","That was a wug.","null","","","","","",""
"html-keyboard-response","218","182433","0.0-5.0-2.70","FL","jxvpkh0u3z","1536","864","0","1","0","5fd74512393436000a1a7323","","null","","","learningBlock1","","","","<div style=""font-size:60px;""> </div>","null","FL","learning/Slide71.JPG","That was a wug.","","",""
"image-keyboard-response","219","182610","0.0-5.0-0.71","FL","jxvpkh0u3z","1536","864","0","1","0","5fd74512393436000a1a7323","","null","","","","","","","learning/Slide72.JPG","null","","","","","",""
"html-keyboard-response","220","183761","0.0-5.0-1.71","FL","jxvpkh0u3z","1536","864","0","1","0","5fd74512393436000a1a7323","","null","","","learningBlock1","","","","That was a bim.","null","","","","","",""
"html-keyboard-response","221","184762","0.0-5.0-2.71","FL","jxvpkh0u3z","1536","864","0","1","0","5fd74512393436000a1a7323","","null","","","learningBlock1","","","","<div style=""font-size:60px;""> </div>","null","FL","learning/Slide72.JPG","That was a bim.","","",""
"image-keyboard-response","222","184939","0.0-5.0-0.72","FL","jxvpkh0u3z","1536","864","0","1","0","5fd74512393436000a1a7323","","null","","","","","","","learning/Slide73.JPG","null","","","","","",""
"html-keyboard-response","223","186091","0.0-5.0-1.72","FL","jxvpkh0u3z","1536","864","0","1","0","5fd74512393436000a1a7323","","null","","","learningBlock1","","","","That was a wug.","null","","","","","",""
"html-keyboard-response","224","187093","0.0-5.0-2.72","FL","jxvpkh0u3z","1536","864","0","1","0","5fd74512393436000a1a7323","","null","","","learningBlock1","","","","<div style=""font-size:60px;""> </div>","null","FL","learning/Slide73.JPG","That was a wug.","","",""
"image-keyboard-response","225","187269","0.0-5.0-0.73","FL","jxvpkh0u3z","1536","864","0","1","0","5fd74512393436000a1a7323","","null","","","","","","","learning/Slide74.JPG","null","","","","","",""
"html-keyboard-response","226","188421","0.0-5.0-1.73","FL","jxvpkh0u3z","1536","864","0","1","0","5fd74512393436000a1a7323","","null","","","learningBlock1","","","","That was a dep.","null","","","","","",""
"html-keyboard-response","227","189423","0.0-5.0-2.73","FL","jxvpkh0u3z","1536","864","0","1","0","5fd74512393436000a1a7323","","null","","","learningBlock1","","","","<div style=""font-size:60px;""> </div>","null","FL","learning/Slide74.JPG","That was a dep.","","",""
"image-keyboard-response","228","189599","0.0-5.0-0.74","FL","jxvpkh0u3z","1536","864","0","1","0","5fd74512393436000a1a7323","","null","","","","","","","learning/Slide75.JPG","null","","","","","",""
"html-keyboard-response","229","190751","0.0-5.0-1.74","FL","jxvpkh0u3z","1536","864","0","1","0","5fd74512393436000a1a7323","","null","","","learningBlock1","","","","That was a tob.","null","","","","","",""
"html-keyboard-response","230","191752","0.0-5.0-2.74","FL","jxvpkh0u3z","1536","864","0","1","0","5fd74512393436000a1a7323","","null","","","learningBlock1","","","","<div style=""font-size:60px;""> </div>","null","FL","learning/Slide75.JPG","That was a tob.","","",""
"image-keyboard-response","231","191929","0.0-5.0-0.75","FL","jxvpkh0u3z","1536","864","0","1","0","5fd74512393436000a1a7323","","null","","","","","","","learning/Slide76.JPG","null","","","","","",""
"html-keyboard-response","232","193083","0.0-5.0-1.75","FL","jxvpkh0u3z","1536","864","0","1","0","5fd74512393436000a1a7323","","null","","","learningBlock1","","","","That was a bim.","null","","","","","",""
"html-keyboard-response","233","194084","0.0-5.0-2.75","FL","jxvpkh0u3z","1536","864","0","1","0","5fd74512393436000a1a7323","","null","","","learningBlock1","","","","<div style=""font-size:60px;""> </div>","null","FL","learning/Slide76.JPG","That was a bim.","","",""
"image-keyboard-response","234","194260","0.0-5.0-0.76","FL","jxvpkh0u3z","1536","864","0","1","0","5fd74512393436000a1a7323","","null","","","","","","","learning/Slide77.JPG","null","","","","","",""
"html-keyboard-response","235","195413","0.0-5.0-1.76","FL","jxvpkh0u3z","1536","864","0","1","0","5fd74512393436000a1a7323","","null","","","learningBlock1","","","","That was a tob.","null","","","","","",""
"html-keyboard-response","236","196414","0.0-5.0-2.76","FL","jxvpkh0u3z","1536","864","0","1","0","5fd74512393436000a1a7323","","null","","","learningBlock1","","","","<div style=""font-size:60px;""> </div>","null","FL","learning/Slide77.JPG","That was a tob.","","",""
"image-keyboard-response","237","196591","0.0-5.0-0.77","FL","jxvpkh0u3z","1536","864","0","1","0","5fd74512393436000a1a7323","","null","","","","","","","learning/Slide78.JPG","null","","","","","",""
"html-keyboard-response","238","197744","0.0-5.0-1.77","FL","jxvpkh0u3z","1536","864","0","1","0","5fd74512393436000a1a7323","","null","","","learningBlock1","","","","That was a wug.","null","","","","","",""
"html-keyboard-response","239","198745","0.0-5.0-2.77","FL","jxvpkh0u3z","1536","864","0","1","0","5fd74512393436000a1a7323","","null","","","learningBlock1","","","","<div style=""font-size:60px;""> </div>","null","FL","learning/Slide78.JPG","That was a wug.","","",""
"image-keyboard-response","240","198923","0.0-5.0-0.78","FL","jxvpkh0u3z","1536","864","0","1","0","5fd74512393436000a1a7323","","null","","","","","","","learning/Slide79.JPG","null","","","","","",""
"html-keyboard-response","241","200076","0.0-5.0-1.78","FL","jxvpkh0u3z","1536","864","0","1","0","5fd74512393436000a1a7323","","null","","","learningBlock1","","","","That was a bim.","null","","","","","",""
"html-keyboard-response","242","201078","0.0-5.0-2.78","FL","jxvpkh0u3z","1536","864","0","1","0","5fd74512393436000a1a7323","","null","","","learningBlock1","","","","<div style=""font-size:60px;""> </div>","null","FL","learning/Slide79.JPG","That was a bim.","","",""
"image-keyboard-response","243","201254","0.0-5.0-0.79","FL","jxvpkh0u3z","1536","864","0","1","0","5fd74512393436000a1a7323","","null","","","","","","","learning/Slide80.JPG","null","","","","","",""
"html-keyboard-response","244","202407","0.0-5.0-1.79","FL","jxvpkh0u3z","1536","864","0","1","0","5fd74512393436000a1a7323","","null","","","learningBlock1","","","","That was a tob.","null","","","","","",""
"html-keyboard-response","245","203408","0.0-5.0-2.79","FL","jxvpkh0u3z","1536","864","0","1","0","5fd74512393436000a1a7323","","null","","","learningBlock1","","","","<div style=""font-size:60px;""> </div>","null","FL","learning/Slide80.JPG","That was a tob.","","",""
"instructions","246","205771","0.0-6.0","FL","jxvpkh0u3z","1536","864","0","1","0","5fd74512393436000a1a7323","","NA","","[{""page_index"":0,""viewing_time"":2362.6200000289828}]","instructions","","","","","","","","","","",""
"image-keyboard-response","247","205947","0.0-7.0-0.0","FL","jxvpkh0u3z","1536","864","0","1","0","5fd74512393436000a1a7323","","null","","","","","","","learning/Slide81.JPG","null","","","","","",""
"html-keyboard-response","248","207100","0.0-7.0-1.0","FL","jxvpkh0u3z","1536","864","0","1","0","5fd74512393436000a1a7323","","null","","","learningBlock2","","","","That was a wug.","null","","","","","",""
"html-keyboard-response","249","208101","0.0-7.0-2.0","FL","jxvpkh0u3z","1536","864","0","1","0","5fd74512393436000a1a7323","","null","","","learningBlock2","","","","<div style=""font-size:60px;""> </div>","null","FL","learning/Slide81.JPG","That was a wug.","","",""
"image-keyboard-response","250","208277","0.0-7.0-0.1","FL","jxvpkh0u3z","1536","864","0","1","0","5fd74512393436000a1a7323","","null","","","","","","","learning/Slide82.JPG","null","","","","","",""
"html-keyboard-response","251","209429","0.0-7.0-1.1","FL","jxvpkh0u3z","1536","864","0","1","0","5fd74512393436000a1a7323","","null","","","learningBlock2","","","","That was a bim.","null","","","","","",""
"html-keyboard-response","252","210431","0.0-7.0-2.1","FL","jxvpkh0u3z","1536","864","0","1","0","5fd74512393436000a1a7323","","null","","","learningBlock2","","","","<div style=""font-size:60px;""> </div>","null","FL","learning/Slide82.JPG","That was a bim.","","",""
"image-keyboard-response","253","210607","0.0-7.0-0.2","FL","jxvpkh0u3z","1536","864","0","1","0","5fd74512393436000a1a7323","","null","","","","","","","learning/Slide83.JPG","null","","","","","",""
"html-keyboard-response","254","211759","0.0-7.0-1.2","FL","jxvpkh0u3z","1536","864","0","1","0","5fd74512393436000a1a7323","","null","","","learningBlock2","","","","That was a wug.","null","","","","","",""
"html-keyboard-response","255","212761","0.0-7.0-2.2","FL","jxvpkh0u3z","1536","864","0","1","0","5fd74512393436000a1a7323","","null","","","learningBlock2","","","","<div style=""font-size:60px;""> </div>","null","FL","learning/Slide83.JPG","That was a wug.","","",""
"image-keyboard-response","256","212938","0.0-7.0-0.3","FL","jxvpkh0u3z","1536","864","0","1","0","5fd74512393436000a1a7323","","null","","","","","","","learning/Slide84.JPG","null","","","","","",""
"html-keyboard-response","257","214091","0.0-7.0-1.3","FL","jxvpkh0u3z","1536","864","0","1","0","5fd74512393436000a1a7323","","null","","","learningBlock2","","","","That was a dep.","null","","","","","",""
"html-keyboard-response","258","215093","0.0-7.0-2.3","FL","jxvpkh0u3z","1536","864","0","1","0","5fd74512393436000a1a7323","","null","","","learningBlock2","","","","<div style=""font-size:60px;""> </div>","null","FL","learning/Slide84.JPG","That was a dep.","","",""
"image-keyboard-response","259","215271","0.0-7.0-0.4","FL","jxvpkh0u3z","1536","864","0","1","0","5fd74512393436000a1a7323","","null","","","","","","","learning/Slide85.JPG","null","","","","","",""
"html-keyboard-response","260","216423","0.0-7.0-1.4","FL","jxvpkh0u3z","1536","864","0","1","0","5fd74512393436000a1a7323","","null","","","learningBlock2","","","","That was a bim.","null","","","","","",""
"html-keyboard-response","261","217424","0.0-7.0-2.4","FL","jxvpkh0u3z","1536","864","0","1","0","5fd74512393436000a1a7323","","null","","","learningBlock2","","","","<div style=""font-size:60px;""> </div>","null","FL","learning/Slide85.JPG","That was a bim.","","",""
"image-keyboard-response","262","217601","0.0-7.0-0.5","FL","jxvpkh0u3z","1536","864","0","1","0","5fd74512393436000a1a7323","","null","","","","","","","learning/Slide86.JPG","null","","","","","",""
"html-keyboard-response","263","218753","0.0-7.0-1.5","FL","jxvpkh0u3z","1536","864","0","1","0","5fd74512393436000a1a7323","","null","","","learningBlock2","","","","That was a tob.","null","","","","","",""
"html-keyboard-response","264","219755","0.0-7.0-2.5","FL","jxvpkh0u3z","1536","864","0","1","0","5fd74512393436000a1a7323","","null","","","learningBlock2","","","","<div style=""font-size:60px;""> </div>","null","FL","learning/Slide86.JPG","That was a tob.","","",""
"image-keyboard-response","265","219931","0.0-7.0-0.6","FL","jxvpkh0u3z","1536","864","0","1","0","5fd74512393436000a1a7323","","null","","","","","","","learning/Slide87.JPG","null","","","","","",""
"html-keyboard-response","266","221084","0.0-7.0-1.6","FL","jxvpkh0u3z","1536","864","0","1","0","5fd74512393436000a1a7323","","null","","","learningBlock2","","","","That was a wug.","null","","","","","",""
"html-keyboard-response","267","222085","0.0-7.0-2.6","FL","jxvpkh0u3z","1536","864","0","1","0","5fd74512393436000a1a7323","","null","","","learningBlock2","","","","<div style=""font-size:60px;""> </div>","null","FL","learning/Slide87.JPG","That was a wug.","","",""
"image-keyboard-response","268","222263","0.0-7.0-0.7","FL","jxvpkh0u3z","1536","864","0","1","0","5fd74512393436000a1a7323","","null","","","","","","","learning/Slide88.JPG","null","","","","","",""
"html-keyboard-response","269","223416","0.0-7.0-1.7","FL","jxvpkh0u3z","1536","864","0","1","0","5fd74512393436000a1a7323","","null","","","learningBlock2","","","","That was a tob.","null","","","","","",""
"html-keyboard-response","270","224418","0.0-7.0-2.7","FL","jxvpkh0u3z","1536","864","0","1","0","5fd74512393436000a1a7323","","null","","","learningBlock2","","","","<div style=""font-size:60px;""> </div>","null","FL","learning/Slide88.JPG","That was a tob.","","",""
"image-keyboard-response","271","224595","0.0-7.0-0.8","FL","jxvpkh0u3z","1536","864","0","1","0","5fd74512393436000a1a7323","","null","","","","","","","learning/Slide89.JPG","null","","","","","",""
"html-keyboard-response","272","225747","0.0-7.0-1.8","FL","jxvpkh0u3z","1536","864","0","1","0","5fd74512393436000a1a7323","","null","","","learningBlock2","","","","That was a bim.","null","","","","","",""
"html-keyboard-response","273","226749","0.0-7.0-2.8","FL","jxvpkh0u3z","1536","864","0","1","0","5fd74512393436000a1a7323","","null","","","learningBlock2","","","","<div style=""font-size:60px;""> </div>","null","FL","learning/Slide89.JPG","That was a bim.","","",""
"image-keyboard-response","274","226925","0.0-7.0-0.9","FL","jxvpkh0u3z","1536","864","0","1","0","5fd74512393436000a1a7323","","null","","","","","","","learning/Slide90.JPG","null","","","","","",""
"html-keyboard-response","275","228079","0.0-7.0-1.9","FL","jxvpkh0u3z","1536","864","0","1","0","5fd74512393436000a1a7323","","null","","","learningBlock2","","","","That was a dep.","null","","","","","",""
"html-keyboard-response","276","229081","0.0-7.0-2.9","FL","jxvpkh0u3z","1536","864","0","1","0","5fd74512393436000a1a7323","","null","","","learningBlock2","","","","<div style=""font-size:60px;""> </div>","null","FL","learning/Slide90.JPG","That was a dep.","","",""
"image-keyboard-response","277","229258","0.0-7.0-0.10","FL","jxvpkh0u3z","1536","864","0","1","0","5fd74512393436000a1a7323","","null","","","","","","","learning/Slide91.JPG","null","","","","","",""
"html-keyboard-response","278","230409","0.0-7.0-1.10","FL","jxvpkh0u3z","1536","864","0","1","0","5fd74512393436000a1a7323","","null","","","learningBlock2","","","","That was a wug.","null","","","","","",""
"html-keyboard-response","279","231411","0.0-7.0-2.10","FL","jxvpkh0u3z","1536","864","0","1","0","5fd74512393436000a1a7323","","null","","","learningBlock2","","","","<div style=""font-size:60px;""> </div>","null","FL","learning/Slide91.JPG","That was a wug.","","",""
"image-keyboard-response","280","231588","0.0-7.0-0.11","FL","jxvpkh0u3z","1536","864","0","1","0","5fd74512393436000a1a7323","","null","","","","","","","learning/Slide92.JPG","null","","","","","",""
"html-keyboard-response","281","232741","0.0-7.0-1.11","FL","jxvpkh0u3z","1536","864","0","1","0","5fd74512393436000a1a7323","","null","","","learningBlock2","","","","That was a tob.","null","","","","","",""
"html-keyboard-response","282","233742","0.0-7.0-2.11","FL","jxvpkh0u3z","1536","864","0","1","0","5fd74512393436000a1a7323","","null","","","learningBlock2","","","","<div style=""font-size:60px;""> </div>","null","FL","learning/Slide92.JPG","That was a tob.","","",""
"image-keyboard-response","283","233919","0.0-7.0-0.12","FL","jxvpkh0u3z","1536","864","0","1","0","5fd74512393436000a1a7323","","null","","","","","","","learning/Slide93.JPG","null","","","","","",""
"html-keyboard-response","284","235072","0.0-7.0-1.12","FL","jxvpkh0u3z","1536","864","0","1","0","5fd74512393436000a1a7323","","null","","","learningBlock2","","","","That was a bim.","null","","","","","",""
"html-keyboard-response","285","236073","0.0-7.0-2.12","FL","jxvpkh0u3z","1536","864","0","1","0","5fd74512393436000a1a7323","","null","","","learningBlock2","","","","<div style=""font-size:60px;""> </div>","null","FL","learning/Slide93.JPG","That was a bim.","","",""
"image-keyboard-response","286","236250","0.0-7.0-0.13","FL","jxvpkh0u3z","1536","864","0","1","0","5fd74512393436000a1a7323","","null","","","","","","","learning/Slide94.JPG","null","","","","","",""
"html-keyboard-response","287","237402","0.0-7.0-1.13","FL","jxvpkh0u3z","1536","864","0","1","0","5fd74512393436000a1a7323","","null","","","learningBlock2","","","","That was a tob.","null","","","","","",""
"html-keyboard-response","288","238403","0.0-7.0-2.13","FL","jxvpkh0u3z","1536","864","0","1","0","5fd74512393436000a1a7323","","null","","","learningBlock2","","","","<div style=""font-size:60px;""> </div>","null","FL","learning/Slide94.JPG","That was a tob.","","",""
"image-keyboard-response","289","238579","0.0-7.0-0.14","FL","jxvpkh0u3z","1536","864","0","1","0","5fd74512393436000a1a7323","","null","","","","","","","learning/Slide95.JPG","null","","","","","",""
"html-keyboard-response","290","239731","0.0-7.0-1.14","FL","jxvpkh0u3z","1536","864","0","1","0","5fd74512393436000a1a7323","","null","","","learningBlock2","","","","That was a wug.","null","","","","","",""
"html-keyboard-response","291","240733","0.0-7.0-2.14","FL","jxvpkh0u3z","1536","864","0","1","0","5fd74512393436000a1a7323","","null","","","learningBlock2","","","","<div style=""font-size:60px;""> </div>","null","FL","learning/Slide95.JPG","That was a wug.","","",""
"image-keyboard-response","292","240910","0.0-7.0-0.15","FL","jxvpkh0u3z","1536","864","0","1","0","5fd74512393436000a1a7323","","null","","","","","","","learning/Slide96.JPG","null","","","","","",""
"html-keyboard-response","293","242062","0.0-7.0-1.15","FL","jxvpkh0u3z","1536","864","0","1","0","5fd74512393436000a1a7323","","null","","","learningBlock2","","","","That was a tob.","null","","","","","",""
"html-keyboard-response","294","243065","0.0-7.0-2.15","FL","jxvpkh0u3z","1536","864","0","1","0","5fd74512393436000a1a7323","","null","","","learningBlock2","","","","<div style=""font-size:60px;""> </div>","null","FL","learning/Slide96.JPG","That was a tob.","","",""
"image-keyboard-response","295","243242","0.0-7.0-0.16","FL","jxvpkh0u3z","1536","864","0","1","0","5fd74512393436000a1a7323","","null","","","","","","","learning/Slide97.JPG","null","","","","","",""
"html-keyboard-response","296","244396","0.0-7.0-1.16","FL","jxvpkh0u3z","1536","864","0","1","0","5fd74512393436000a1a7323","","null","","","learningBlock2","","","","That was a dep.","null","","","","","",""
"html-keyboard-response","297","245397","0.0-7.0-2.16","FL","jxvpkh0u3z","1536","864","0","1","0","5fd74512393436000a1a7323","","null","","","learningBlock2","","","","<div style=""font-size:60px;""> </div>","null","FL","learning/Slide97.JPG","That was a dep.","","",""
"image-keyboard-response","298","245574","0.0-7.0-0.17","FL","jxvpkh0u3z","1536","864","0","1","0","5fd74512393436000a1a7323","","null","","","","","","","learning/Slide98.JPG","null","","","","","",""
"html-keyboard-response","299","246727","0.0-7.0-1.17","FL","jxvpkh0u3z","1536","864","0","1","0","5fd74512393436000a1a7323","","null","","","learningBlock2","","","","That was a bim.","null","","","","","",""
"html-keyboard-response","300","247728","0.0-7.0-2.17","FL","jxvpkh0u3z","1536","864","0","1","0","5fd74512393436000a1a7323","","null","","","learningBlock2","","","","<div style=""font-size:60px;""> </div>","null","FL","learning/Slide98.JPG","That was a bim.","","",""
"image-keyboard-response","301","247906","0.0-7.0-0.18","FL","jxvpkh0u3z","1536","864","0","1","0","5fd74512393436000a1a7323","","null","","","","","","","learning/Slide99.JPG","null","","","","","",""
"html-keyboard-response","302","249058","0.0-7.0-1.18","FL","jxvpkh0u3z","1536","864","0","1","0","5fd74512393436000a1a7323","","null","","","learningBlock2","","","","That was a dep.","null","","","","","",""
"html-keyboard-response","303","250059","0.0-7.0-2.18","FL","jxvpkh0u3z","1536","864","0","1","0","5fd74512393436000a1a7323","","null","","","learningBlock2","","","","<div style=""font-size:60px;""> </div>","null","FL","learning/Slide99.JPG","That was a dep.","","",""
"image-keyboard-response","304","250236","0.0-7.0-0.19","FL","jxvpkh0u3z","1536","864","0","1","0","5fd74512393436000a1a7323","","null","","","","","","","learning/Slide100.JPG","null","","","","","",""
"html-keyboard-response","305","251388","0.0-7.0-1.19","FL","jxvpkh0u3z","1536","864","0","1","0","5fd74512393436000a1a7323","","null","","","learningBlock2","","","","That was a bim.","null","","","","","",""
"html-keyboard-response","306","252390","0.0-7.0-2.19","FL","jxvpkh0u3z","1536","864","0","1","0","5fd74512393436000a1a7323","","null","","","learningBlock2","","","","<div style=""font-size:60px;""> </div>","null","FL","learning/Slide100.JPG","That was a bim.","","",""
"image-keyboard-response","307","252566","0.0-7.0-0.20","FL","jxvpkh0u3z","1536","864","0","1","0","5fd74512393436000a1a7323","","null","","","","","","","learning/Slide101.JPG","null","","","","","",""
"html-keyboard-response","308","253719","0.0-7.0-1.20","FL","jxvpkh0u3z","1536","864","0","1","0","5fd74512393436000a1a7323","","null","","","learningBlock2","","","","That was a tob.","null","","","","","",""
"html-keyboard-response","309","254720","0.0-7.0-2.20","FL","jxvpkh0u3z","1536","864","0","1","0","5fd74512393436000a1a7323","","null","","","learningBlock2","","","","<div style=""font-size:60px;""> </div>","null","FL","learning/Slide101.JPG","That was a tob.","","",""
"image-keyboard-response","310","254897","0.0-7.0-0.21","FL","jxvpkh0u3z","1536","864","0","1","0","5fd74512393436000a1a7323","","null","","","","","","","learning/Slide102.JPG","null","","","","","",""
"html-keyboard-response","311","256049","0.0-7.0-1.21","FL","jxvpkh0u3z","1536","864","0","1","0","5fd74512393436000a1a7323","","null","","","learningBlock2","","","","That was a bim.","null","","","","","",""
"html-keyboard-response","312","257050","0.0-7.0-2.21","FL","jxvpkh0u3z","1536","864","0","1","0","5fd74512393436000a1a7323","","null","","","learningBlock2","","","","<div style=""font-size:60px;""> </div>","null","FL","learning/Slide102.JPG","That was a bim.","","",""
"image-keyboard-response","313","257228","0.0-7.0-0.22","FL","jxvpkh0u3z","1536","864","0","1","0","5fd74512393436000a1a7323","","null","","","","","","","learning/Slide103.JPG","null","","","","","",""
"html-keyboard-response","314","258381","0.0-7.0-1.22","FL","jxvpkh0u3z","1536","864","0","1","0","5fd74512393436000a1a7323","","null","","","learningBlock2","","","","That was a dep.","null","","","","","",""
"html-keyboard-response","315","259382","0.0-7.0-2.22","FL","jxvpkh0u3z","1536","864","0","1","0","5fd74512393436000a1a7323","","null","","","learningBlock2","","","","<div style=""font-size:60px;""> </div>","null","FL","learning/Slide103.JPG","That was a dep.","","",""
"image-keyboard-response","316","259558","0.0-7.0-0.23","FL","jxvpkh0u3z","1536","864","0","1","0","5fd74512393436000a1a7323","","null","","","","","","","learning/Slide104.JPG","null","","","","","",""
"html-keyboard-response","317","260711","0.0-7.0-1.23","FL","jxvpkh0u3z","1536","864","0","1","0","5fd74512393436000a1a7323","","null","","","learningBlock2","","","","That was a tob.","null","","","","","",""
"html-keyboard-response","318","261713","0.0-7.0-2.23","FL","jxvpkh0u3z","1536","864","0","1","0","5fd74512393436000a1a7323","","null","","","learningBlock2","","","","<div style=""font-size:60px;""> </div>","null","FL","learning/Slide104.JPG","That was a tob.","","",""
"image-keyboard-response","319","261890","0.0-7.0-0.24","FL","jxvpkh0u3z","1536","864","0","1","0","5fd74512393436000a1a7323","","null","","","","","","","learning/Slide105.JPG","null","","","","","",""
"html-keyboard-response","320","263042","0.0-7.0-1.24","FL","jxvpkh0u3z","1536","864","0","1","0","5fd74512393436000a1a7323","","null","","","learningBlock2","","","","That was a dep.","null","","","","","",""
"html-keyboard-response","321","264044","0.0-7.0-2.24","FL","jxvpkh0u3z","1536","864","0","1","0","5fd74512393436000a1a7323","","null","","","learningBlock2","","","","<div style=""font-size:60px;""> </div>","null","FL","learning/Slide105.JPG","That was a dep.","","",""
"image-keyboard-response","322","264220","0.0-7.0-0.25","FL","jxvpkh0u3z","1536","864","0","1","0","5fd74512393436000a1a7323","","null","","","","","","","learning/Slide106.JPG","null","","","","","",""
"html-keyboard-response","323","265373","0.0-7.0-1.25","FL","jxvpkh0u3z","1536","864","0","1","0","5fd74512393436000a1a7323","","null","","","learningBlock2","","","","That was a wug.","null","","","","","",""
"html-keyboard-response","324","266374","0.0-7.0-2.25","FL","jxvpkh0u3z","1536","864","0","1","0","5fd74512393436000a1a7323","","null","","","learningBlock2","","","","<div style=""font-size:60px;""> </div>","null","FL","learning/Slide106.JPG","That was a wug.","","",""
"image-keyboard-response","325","266551","0.0-7.0-0.26","FL","jxvpkh0u3z","1536","864","0","1","0","5fd74512393436000a1a7323","","null","","","","","","","learning/Slide107.JPG","null","","","","","",""
"html-keyboard-response","326","267703","0.0-7.0-1.26","FL","jxvpkh0u3z","1536","864","0","1","0","5fd74512393436000a1a7323","","null","","","learningBlock2","","","","That was a bim.","null","","","","","",""
"html-keyboard-response","327","268706","0.0-7.0-2.26","FL","jxvpkh0u3z","1536","864","0","1","0","5fd74512393436000a1a7323","","null","","","learningBlock2","","","","<div style=""font-size:60px;""> </div>","null","FL","learning/Slide107.JPG","That was a bim.","","",""
"image-keyboard-response","328","268884","0.0-7.0-0.27","FL","jxvpkh0u3z","1536","864","0","1","0","5fd74512393436000a1a7323","","null","","","","","","","learning/Slide108.JPG","null","","","","","",""
"html-keyboard-response","329","270037","0.0-7.0-1.27","FL","jxvpkh0u3z","1536","864","0","1","0","5fd74512393436000a1a7323","","null","","","learningBlock2","","","","That was a dep.","null","","","","","",""
"html-keyboard-response","330","271038","0.0-7.0-2.27","FL","jxvpkh0u3z","1536","864","0","1","0","5fd74512393436000a1a7323","","null","","","learningBlock2","","","","<div style=""font-size:60px;""> </div>","null","FL","learning/Slide108.JPG","That was a dep.","","",""
"image-keyboard-response","331","271215","0.0-7.0-0.28","FL","jxvpkh0u3z","1536","864","0","1","0","5fd74512393436000a1a7323","","null","","","","","","","learning/Slide109.JPG","null","","","","","",""
"html-keyboard-response","332","272368","0.0-7.0-1.28","FL","jxvpkh0u3z","1536","864","0","1","0","5fd74512393436000a1a7323","","null","","","learningBlock2","","","","That was a wug.","null","","","","","",""
"html-keyboard-response","333","273369","0.0-7.0-2.28","FL","jxvpkh0u3z","1536","864","0","1","0","5fd74512393436000a1a7323","","null","","","learningBlock2","","","","<div style=""font-size:60px;""> </div>","null","FL","learning/Slide109.JPG","That was a wug.","","",""
"image-keyboard-response","334","273545","0.0-7.0-0.29","FL","jxvpkh0u3z","1536","864","0","1","0","5fd74512393436000a1a7323","","null","","","","","","","learning/Slide110.JPG","null","","","","","",""
"html-keyboard-response","335","274698","0.0-7.0-1.29","FL","jxvpkh0u3z","1536","864","0","1","0","5fd74512393436000a1a7323","","null","","","learningBlock2","","","","That was a bim.","null","","","","","",""
"html-keyboard-response","336","275700","0.0-7.0-2.29","FL","jxvpkh0u3z","1536","864","0","1","0","5fd74512393436000a1a7323","","null","","","learningBlock2","","","","<div style=""font-size:60px;""> </div>","null","FL","learning/Slide110.JPG","That was a bim.","","",""
"image-keyboard-response","337","275877","0.0-7.0-0.30","FL","jxvpkh0u3z","1536","864","0","1","0","5fd74512393436000a1a7323","","null","","","","","","","learning/Slide111.JPG","null","","","","","",""
"html-keyboard-response","338","277030","0.0-7.0-1.30","FL","jxvpkh0u3z","1536","864","0","1","0","5fd74512393436000a1a7323","","null","","","learningBlock2","","","","That was a tob.","null","","","","","",""
"html-keyboard-response","339","278033","0.0-7.0-2.30","FL","jxvpkh0u3z","1536","864","0","1","0","5fd74512393436000a1a7323","","null","","","learningBlock2","","","","<div style=""font-size:60px;""> </div>","null","FL","learning/Slide111.JPG","That was a tob.","","",""
"image-keyboard-response","340","278210","0.0-7.0-0.31","FL","jxvpkh0u3z","1536","864","0","1","0","5fd74512393436000a1a7323","","null","","","","","","","learning/Slide112.JPG","null","","","","","",""
"html-keyboard-response","341","279363","0.0-7.0-1.31","FL","jxvpkh0u3z","1536","864","0","1","0","5fd74512393436000a1a7323","","null","","","learningBlock2","","","","That was a wug.","null","","","","","",""
"html-keyboard-response","342","280364","0.0-7.0-2.31","FL","jxvpkh0u3z","1536","864","0","1","0","5fd74512393436000a1a7323","","null","","","learningBlock2","","","","<div style=""font-size:60px;""> </div>","null","FL","learning/Slide112.JPG","That was a wug.","","",""
"image-keyboard-response","343","280541","0.0-7.0-0.32","FL","jxvpkh0u3z","1536","864","0","1","0","5fd74512393436000a1a7323","","null","","","","","","","learning/Slide113.JPG","null","","","","","",""
"html-keyboard-response","344","281694","0.0-7.0-1.32","FL","jxvpkh0u3z","1536","864","0","1","0","5fd74512393436000a1a7323","","null","","","learningBlock2","","","","That was a tob.","null","","","","","",""
"html-keyboard-response","345","282695","0.0-7.0-2.32","FL","jxvpkh0u3z","1536","864","0","1","0","5fd74512393436000a1a7323","","null","","","learningBlock2","","","","<div style=""font-size:60px;""> </div>","null","FL","learning/Slide113.JPG","That was a tob.","","",""
"image-keyboard-response","346","282871","0.0-7.0-0.33","FL","jxvpkh0u3z","1536","864","0","1","0","5fd74512393436000a1a7323","","null","","","","","","","learning/Slide114.JPG","null","","","","","",""
"html-keyboard-response","347","284023","0.0-7.0-1.33","FL","jxvpkh0u3z","1536","864","0","1","0","5fd74512393436000a1a7323","","null","","","learningBlock2","","","","That was a wug.","null","","","","","",""
"html-keyboard-response","348","285027","0.0-7.0-2.33","FL","jxvpkh0u3z","1536","864","0","1","0","5fd74512393436000a1a7323","","null","","","learningBlock2","","","","<div style=""font-size:60px;""> </div>","null","FL","learning/Slide114.JPG","That was a wug.","","",""
"image-keyboard-response","349","285203","0.0-7.0-0.34","FL","jxvpkh0u3z","1536","864","0","1","0","5fd74512393436000a1a7323","","null","","","","","","","learning/Slide115.JPG","null","","","","","",""
"html-keyboard-response","350","286355","0.0-7.0-1.34","FL","jxvpkh0u3z","1536","864","0","1","0","5fd74512393436000a1a7323","","null","","","learningBlock2","","","","That was a bim.","null","","","","","",""
"html-keyboard-response","351","287356","0.0-7.0-2.34","FL","jxvpkh0u3z","1536","864","0","1","0","5fd74512393436000a1a7323","","null","","","learningBlock2","","","","<div style=""font-size:60px;""> </div>","null","FL","learning/Slide115.JPG","That was a bim.","","",""
"image-keyboard-response","352","287532","0.0-7.0-0.35","FL","jxvpkh0u3z","1536","864","0","1","0","5fd74512393436000a1a7323","","null","","","","","","","learning/Slide116.JPG","null","","","","","",""
"html-keyboard-response","353","288684","0.0-7.0-1.35","FL","jxvpkh0u3z","1536","864","0","1","0","5fd74512393436000a1a7323","","null","","","learningBlock2","","","","That was a dep.","null","","","","","",""
"html-keyboard-response","354","289686","0.0-7.0-2.35","FL","jxvpkh0u3z","1536","864","0","1","0","5fd74512393436000a1a7323","","null","","","learningBlock2","","","","<div style=""font-size:60px;""> </div>","null","FL","learning/Slide116.JPG","That was a dep.","","",""
"image-keyboard-response","355","289862","0.0-7.0-0.36","FL","jxvpkh0u3z","1536","864","0","1","0","5fd74512393436000a1a7323","","null","","","","","","","learning/Slide117.JPG","null","","","","","",""
"html-keyboard-response","356","291016","0.0-7.0-1.36","FL","jxvpkh0u3z","1536","864","0","1","0","5fd74512393436000a1a7323","","null","","","learningBlock2","","","","That was a tob.","null","","","","","",""
"html-keyboard-response","357","292017","0.0-7.0-2.36","FL","jxvpkh0u3z","1536","864","0","1","0","5fd74512393436000a1a7323","","null","","","learningBlock2","","","","<div style=""font-size:60px;""> </div>","null","FL","learning/Slide117.JPG","That was a tob.","","",""
"image-keyboard-response","358","292194","0.0-7.0-0.37","FL","jxvpkh0u3z","1536","864","0","1","0","5fd74512393436000a1a7323","","null","","","","","","","learning/Slide118.JPG","null","","","","","",""
"html-keyboard-response","359","293346","0.0-7.0-1.37","FL","jxvpkh0u3z","1536","864","0","1","0","5fd74512393436000a1a7323","","null","","","learningBlock2","","","","That was a dep.","null","","","","","",""
"html-keyboard-response","360","294348","0.0-7.0-2.37","FL","jxvpkh0u3z","1536","864","0","1","0","5fd74512393436000a1a7323","","null","","","learningBlock2","","","","<div style=""font-size:60px;""> </div>","null","FL","learning/Slide118.JPG","That was a dep.","","",""
"image-keyboard-response","361","294526","0.0-7.0-0.38","FL","jxvpkh0u3z","1536","864","0","1","0","5fd74512393436000a1a7323","","null","","","","","","","learning/Slide119.JPG","null","","","","","",""
"html-keyboard-response","362","295678","0.0-7.0-1.38","FL","jxvpkh0u3z","1536","864","0","1","0","5fd74512393436000a1a7323","","null","","","learningBlock2","","","","That was a wug.","null","","","","","",""
"html-keyboard-response","363","296679","0.0-7.0-2.38","FL","jxvpkh0u3z","1536","864","0","1","0","5fd74512393436000a1a7323","","null","","","learningBlock2","","","","<div style=""font-size:60px;""> </div>","null","FL","learning/Slide119.JPG","That was a wug.","","",""
"image-keyboard-response","364","296856","0.0-7.0-0.39","FL","jxvpkh0u3z","1536","864","0","1","0","5fd74512393436000a1a7323","","null","","","","","","","learning/Slide120.JPG","null","","","","","",""
"html-keyboard-response","365","298008","0.0-7.0-1.39","FL","jxvpkh0u3z","1536","864","0","1","0","5fd74512393436000a1a7323","","null","","","learningBlock2","","","","That was a dep.","null","","","","","",""
"html-keyboard-response","366","299012","0.0-7.0-2.39","FL","jxvpkh0u3z","1536","864","0","1","0","5fd74512393436000a1a7323","","null","","","learningBlock2","","","","<div style=""font-size:60px;""> </div>","null","FL","learning/Slide120.JPG","That was a dep.","","",""
"image-keyboard-response","367","299188","0.0-7.0-0.40","FL","jxvpkh0u3z","1536","864","0","1","0","5fd74512393436000a1a7323","","null","","","","","","","learning/Slide121.JPG","null","","","","","",""
"html-keyboard-response","368","300341","0.0-7.0-1.40","FL","jxvpkh0u3z","1536","864","0","1","0","5fd74512393436000a1a7323","","null","","","learningBlock2","","","","That was a bim.","null","","","","","",""
"html-keyboard-response","369","301343","0.0-7.0-2.40","FL","jxvpkh0u3z","1536","864","0","1","0","5fd74512393436000a1a7323","","null","","","learningBlock2","","","","<div style=""font-size:60px;""> </div>","null","FL","learning/Slide121.JPG","That was a bim.","","",""
"image-keyboard-response","370","301519","0.0-7.0-0.41","FL","jxvpkh0u3z","1536","864","0","1","0","5fd74512393436000a1a7323","","null","","","","","","","learning/Slide122.JPG","null","","","","","",""
"html-keyboard-response","371","302671","0.0-7.0-1.41","FL","jxvpkh0u3z","1536","864","0","1","0","5fd74512393436000a1a7323","","null","","","learningBlock2","","","","That was a wug.","null","","","","","",""
"html-keyboard-response","372","303672","0.0-7.0-2.41","FL","jxvpkh0u3z","1536","864","0","1","0","5fd74512393436000a1a7323","","null","","","learningBlock2","","","","<div style=""font-size:60px;""> </div>","null","FL","learning/Slide122.JPG","That was a wug.","","",""
"image-keyboard-response","373","303849","0.0-7.0-0.42","FL","jxvpkh0u3z","1536","864","0","1","0","5fd74512393436000a1a7323","","null","","","","","","","learning/Slide123.JPG","null","","","","","",""
"html-keyboard-response","374","305002","0.0-7.0-1.42","FL","jxvpkh0u3z","1536","864","0","1","0","5fd74512393436000a1a7323","","null","","","learningBlock2","","","","That was a bim.","null","","","","","",""
"html-keyboard-response","375","306003","0.0-7.0-2.42","FL","jxvpkh0u3z","1536","864","0","1","0","5fd74512393436000a1a7323","","null","","","learningBlock2","","","","<div style=""font-size:60px;""> </div>","null","FL","learning/Slide123.JPG","That was a bim.","","",""
"image-keyboard-response","376","306179","0.0-7.0-0.43","FL","jxvpkh0u3z","1536","864","0","1","0","5fd74512393436000a1a7323","","null","","","","","","","learning/Slide124.JPG","null","","","","","",""
"html-keyboard-response","377","307332","0.0-7.0-1.43","FL","jxvpkh0u3z","1536","864","0","1","0","5fd74512393436000a1a7323","","null","","","learningBlock2","","","","That was a tob.","null","","","","","",""
"html-keyboard-response","378","308334","0.0-7.0-2.43","FL","jxvpkh0u3z","1536","864","0","1","0","5fd74512393436000a1a7323","","null","","","learningBlock2","","","","<div style=""font-size:60px;""> </div>","null","FL","learning/Slide124.JPG","That was a tob.","","",""
"image-keyboard-response","379","308511","0.0-7.0-0.44","FL","jxvpkh0u3z","1536","864","0","1","0","5fd74512393436000a1a7323","","null","","","","","","","learning/Slide125.JPG","null","","","","","",""
"html-keyboard-response","380","309663","0.0-7.0-1.44","FL","jxvpkh0u3z","1536","864","0","1","0","5fd74512393436000a1a7323","","null","","","learningBlock2","","","","That was a bim.","null","","","","","",""
"html-keyboard-response","381","310666","0.0-7.0-2.44","FL","jxvpkh0u3z","1536","864","0","1","0","5fd74512393436000a1a7323","","null","","","learningBlock2","","","","<div style=""font-size:60px;""> </div>","null","FL","learning/Slide125.JPG","That was a bim.","","",""
"image-keyboard-response","382","310842","0.0-7.0-0.45","FL","jxvpkh0u3z","1536","864","0","1","0","5fd74512393436000a1a7323","","null","","","","","","","learning/Slide126.JPG","null","","","","","",""
"html-keyboard-response","383","311994","0.0-7.0-1.45","FL","jxvpkh0u3z","1536","864","0","1","0","5fd74512393436000a1a7323","","null","","","learningBlock2","","","","That was a tob.","null","","","","","",""
"html-keyboard-response","384","312996","0.0-7.0-2.45","FL","jxvpkh0u3z","1536","864","0","1","0","5fd74512393436000a1a7323","","null","","","learningBlock2","","","","<div style=""font-size:60px;""> </div>","null","FL","learning/Slide126.JPG","That was a tob.","","",""
"image-keyboard-response","385","313173","0.0-7.0-0.46","FL","jxvpkh0u3z","1536","864","0","1","0","5fd74512393436000a1a7323","","null","","","","","","","learning/Slide127.JPG","null","","","","","",""
"html-keyboard-response","386","314325","0.0-7.0-1.46","FL","jxvpkh0u3z","1536","864","0","1","0","5fd74512393436000a1a7323","","null","","","learningBlock2","","","","That was a dep.","null","","","","","",""
"html-keyboard-response","387","315326","0.0-7.0-2.46","FL","jxvpkh0u3z","1536","864","0","1","0","5fd74512393436000a1a7323","","null","","","learningBlock2","","","","<div style=""font-size:60px;""> </div>","null","FL","learning/Slide127.JPG","That was a dep.","","",""
"image-keyboard-response","388","315503","0.0-7.0-0.47","FL","jxvpkh0u3z","1536","864","0","1","0","5fd74512393436000a1a7323","","null","","","","","","","learning/Slide128.JPG","null","","","","","",""
"html-keyboard-response","389","316656","0.0-7.0-1.47","FL","jxvpkh0u3z","1536","864","0","1","0","5fd74512393436000a1a7323","","null","","","learningBlock2","","","","That was a wug.","null","","","","","",""
"html-keyboard-response","390","317657","0.0-7.0-2.47","FL","jxvpkh0u3z","1536","864","0","1","0","5fd74512393436000a1a7323","","null","","","learningBlock2","","","","<div style=""font-size:60px;""> </div>","null","FL","learning/Slide128.JPG","That was a wug.","","",""
"image-keyboard-response","391","317834","0.0-7.0-0.48","FL","jxvpkh0u3z","1536","864","0","1","0","5fd74512393436000a1a7323","","null","","","","","","","learning/Slide129.JPG","null","","","","","",""
"html-keyboard-response","392","318986","0.0-7.0-1.48","FL","jxvpkh0u3z","1536","864","0","1","0","5fd74512393436000a1a7323","","null","","","learningBlock2","","","","That was a tob.","null","","","","","",""
"html-keyboard-response","393","319988","0.0-7.0-2.48","FL","jxvpkh0u3z","1536","864","0","1","0","5fd74512393436000a1a7323","","null","","","learningBlock2","","","","<div style=""font-size:60px;""> </div>","null","FL","learning/Slide129.JPG","That was a tob.","","",""
"image-keyboard-response","394","320165","0.0-7.0-0.49","FL","jxvpkh0u3z","1536","864","0","1","0","5fd74512393436000a1a7323","","null","","","","","","","learning/Slide130.JPG","null","","","","","",""
"html-keyboard-response","395","321318","0.0-7.0-1.49","FL","jxvpkh0u3z","1536","864","0","1","0","5fd74512393436000a1a7323","","null","","","learningBlock2","","","","That was a wug.","null","","","","","",""
"html-keyboard-response","396","322320","0.0-7.0-2.49","FL","jxvpkh0u3z","1536","864","0","1","0","5fd74512393436000a1a7323","","null","","","learningBlock2","","","","<div style=""font-size:60px;""> </div>","null","FL","learning/Slide130.JPG","That was a wug.","","",""
"image-keyboard-response","397","322496","0.0-7.0-0.50","FL","jxvpkh0u3z","1536","864","0","1","0","5fd74512393436000a1a7323","","null","","","","","","","learning/Slide131.JPG","null","","","","","",""
"html-keyboard-response","398","323648","0.0-7.0-1.50","FL","jxvpkh0u3z","1536","864","0","1","0","5fd74512393436000a1a7323","","null","","","learningBlock2","","","","That was a bim.","null","","","","","",""
"html-keyboard-response","399","324649","0.0-7.0-2.50","FL","jxvpkh0u3z","1536","864","0","1","0","5fd74512393436000a1a7323","","null","","","learningBlock2","","","","<div style=""font-size:60px;""> </div>","null","FL","learning/Slide131.JPG","That was a bim.","","",""
"image-keyboard-response","400","324825","0.0-7.0-0.51","FL","jxvpkh0u3z","1536","864","0","1","0","5fd74512393436000a1a7323","","null","","","","","","","learning/Slide132.JPG","null","","","","","",""
"html-keyboard-response","401","325977","0.0-7.0-1.51","FL","jxvpkh0u3z","1536","864","0","1","0","5fd74512393436000a1a7323","","null","","","learningBlock2","","","","That was a dep.","null","","","","","",""
"html-keyboard-response","402","326979","0.0-7.0-2.51","FL","jxvpkh0u3z","1536","864","0","1","0","5fd74512393436000a1a7323","","null","","","learningBlock2","","","","<div style=""font-size:60px;""> </div>","null","FL","learning/Slide132.JPG","That was a dep.","","",""
"image-keyboard-response","403","327155","0.0-7.0-0.52","FL","jxvpkh0u3z","1536","864","0","1","0","5fd74512393436000a1a7323","","null","","","","","","","learning/Slide133.JPG","null","","","","","",""
"html-keyboard-response","404","328311","0.0-7.0-1.52","FL","jxvpkh0u3z","1536","864","0","1","0","5fd74512393436000a1a7323","","null","","","learningBlock2","","","","That was a tob.","null","","","","","",""
"html-keyboard-response","405","329313","0.0-7.0-2.52","FL","jxvpkh0u3z","1536","864","0","1","0","5fd74512393436000a1a7323","","null","","","learningBlock2","","","","<div style=""font-size:60px;""> </div>","null","FL","learning/Slide133.JPG","That was a tob.","","",""
"image-keyboard-response","406","329490","0.0-7.0-0.53","FL","jxvpkh0u3z","1536","864","0","1","0","5fd74512393436000a1a7323","","null","","","","","","","learning/Slide134.JPG","null","","","","","",""
"html-keyboard-response","407","330643","0.0-7.0-1.53","FL","jxvpkh0u3z","1536","864","0","1","0","5fd74512393436000a1a7323","","null","","","learningBlock2","","","","That was a dep.","null","","","","","",""
"html-keyboard-response","408","331645","0.0-7.0-2.53","FL","jxvpkh0u3z","1536","864","0","1","0","5fd74512393436000a1a7323","","null","","","learningBlock2","","","","<div style=""font-size:60px;""> </div>","null","FL","learning/Slide134.JPG","That was a dep.","","",""
"image-keyboard-response","409","331822","0.0-7.0-0.54","FL","jxvpkh0u3z","1536","864","0","1","0","5fd74512393436000a1a7323","","null","","","","","","","learning/Slide135.JPG","null","","","","","",""
"html-keyboard-response","410","332973","0.0-7.0-1.54","FL","jxvpkh0u3z","1536","864","0","1","0","5fd74512393436000a1a7323","","null","","","learningBlock2","","","","That was a tob.","null","","","","","",""
"html-keyboard-response","411","333975","0.0-7.0-2.54","FL","jxvpkh0u3z","1536","864","0","1","0","5fd74512393436000a1a7323","","null","","","learningBlock2","","","","<div style=""font-size:60px;""> </div>","null","FL","learning/Slide135.JPG","That was a tob.","","",""
"image-keyboard-response","412","334151","0.0-7.0-0.55","FL","jxvpkh0u3z","1536","864","0","1","0","5fd74512393436000a1a7323","","null","","","","","","","learning/Slide136.JPG","null","","","","","",""
"html-keyboard-response","413","335303","0.0-7.0-1.55","FL","jxvpkh0u3z","1536","864","0","1","0","5fd74512393436000a1a7323","","null","","","learningBlock2","","","","That was a wug.","null","","","","","",""
"html-keyboard-response","414","336304","0.0-7.0-2.55","FL","jxvpkh0u3z","1536","864","0","1","0","5fd74512393436000a1a7323","","null","","","learningBlock2","","","","<div style=""font-size:60px;""> </div>","null","FL","learning/Slide136.JPG","That was a wug.","","",""
"image-keyboard-response","415","336481","0.0-7.0-0.56","FL","jxvpkh0u3z","1536","864","0","1","0","5fd74512393436000a1a7323","","null","","","","","","","learning/Slide137.JPG","null","","","","","",""
"html-keyboard-response","416","337633","0.0-7.0-1.56","FL","jxvpkh0u3z","1536","864","0","1","0","5fd74512393436000a1a7323","","null","","","learningBlock2","","","","That was a tob.","null","","","","","",""
"html-keyboard-response","417","338634","0.0-7.0-2.56","FL","jxvpkh0u3z","1536","864","0","1","0","5fd74512393436000a1a7323","","null","","","learningBlock2","","","","<div style=""font-size:60px;""> </div>","null","FL","learning/Slide137.JPG","That was a tob.","","",""
"image-keyboard-response","418","338812","0.0-7.0-0.57","FL","jxvpkh0u3z","1536","864","0","1","0","5fd74512393436000a1a7323","","null","","","","","","","learning/Slide138.JPG","null","","","","","",""
"html-keyboard-response","419","339963","0.0-7.0-1.57","FL","jxvpkh0u3z","1536","864","0","1","0","5fd74512393436000a1a7323","","null","","","learningBlock2","","","","That was a bim.","null","","","","","",""
"html-keyboard-response","420","340965","0.0-7.0-2.57","FL","jxvpkh0u3z","1536","864","0","1","0","5fd74512393436000a1a7323","","null","","","learningBlock2","","","","<div style=""font-size:60px;""> </div>","null","FL","learning/Slide138.JPG","That was a bim.","","",""
"image-keyboard-response","421","341141","0.0-7.0-0.58","FL","jxvpkh0u3z","1536","864","0","1","0","5fd74512393436000a1a7323","","null","","","","","","","learning/Slide139.JPG","null","","","","","",""
"html-keyboard-response","422","342292","0.0-7.0-1.58","FL","jxvpkh0u3z","1536","864","0","1","0","5fd74512393436000a1a7323","","null","","","learningBlock2","","","","That was a wug.","null","","","","","",""
"html-keyboard-response","423","343294","0.0-7.0-2.58","FL","jxvpkh0u3z","1536","864","0","1","0","5fd74512393436000a1a7323","","null","","","learningBlock2","","","","<div style=""font-size:60px;""> </div>","null","FL","learning/Slide139.JPG","That was a wug.","","",""
"image-keyboard-response","424","343471","0.0-7.0-0.59","FL","jxvpkh0u3z","1536","864","0","1","0","5fd74512393436000a1a7323","","null","","","","","","","learning/Slide140.JPG","null","","","","","",""
"html-keyboard-response","425","344629","0.0-7.0-1.59","FL","jxvpkh0u3z","1536","864","0","1","0","5fd74512393436000a1a7323","","null","","","learningBlock2","","","","That was a dep.","null","","","","","",""
"html-keyboard-response","426","345631","0.0-7.0-2.59","FL","jxvpkh0u3z","1536","864","0","1","0","5fd74512393436000a1a7323","","null","","","learningBlock2","","","","<div style=""font-size:60px;""> </div>","null","FL","learning/Slide140.JPG","That was a dep.","","",""
"image-keyboard-response","427","345808","0.0-7.0-0.60","FL","jxvpkh0u3z","1536","864","0","1","0","5fd74512393436000a1a7323","","null","","","","","","","learning/Slide141.JPG","null","","","","","",""
"html-keyboard-response","428","346960","0.0-7.0-1.60","FL","jxvpkh0u3z","1536","864","0","1","0","5fd74512393436000a1a7323","","null","","","learningBlock2","","","","That was a tob.","null","","","","","",""
"html-keyboard-response","429","347961","0.0-7.0-2.60","FL","jxvpkh0u3z","1536","864","0","1","0","5fd74512393436000a1a7323","","null","","","learningBlock2","","","","<div style=""font-size:60px;""> </div>","null","FL","learning/Slide141.JPG","That was a tob.","","",""
"image-keyboard-response","430","348138","0.0-7.0-0.61","FL","jxvpkh0u3z","1536","864","0","1","0","5fd74512393436000a1a7323","","null","","","","","","","learning/Slide142.JPG","null","","","","","",""
"html-keyboard-response","431","349291","0.0-7.0-1.61","FL","jxvpkh0u3z","1536","864","0","1","0","5fd74512393436000a1a7323","","null","","","learningBlock2","","","","That was a wug.","null","","","","","",""
"html-keyboard-response","432","350294","0.0-7.0-2.61","FL","jxvpkh0u3z","1536","864","0","1","0","5fd74512393436000a1a7323","","null","","","learningBlock2","","","","<div style=""font-size:60px;""> </div>","null","FL","learning/Slide142.JPG","That was a wug.","","",""
"image-keyboard-response","433","350470","0.0-7.0-0.62","FL","jxvpkh0u3z","1536","864","0","1","0","5fd74512393436000a1a7323","","null","","","","","","","learning/Slide143.JPG","null","","","","","",""
"html-keyboard-response","434","351623","0.0-7.0-1.62","FL","jxvpkh0u3z","1536","864","0","1","0","5fd74512393436000a1a7323","","null","","","learningBlock2","","","","That was a bim.","null","","","","","",""
"html-keyboard-response","435","352624","0.0-7.0-2.62","FL","jxvpkh0u3z","1536","864","0","1","0","5fd74512393436000a1a7323","","null","","","learningBlock2","","","","<div style=""font-size:60px;""> </div>","null","FL","learning/Slide143.JPG","That was a bim.","","",""
"image-keyboard-response","436","352801","0.0-7.0-0.63","FL","jxvpkh0u3z","1536","864","0","1","0","5fd74512393436000a1a7323","","null","","","","","","","learning/Slide144.JPG","null","","","","","",""
"html-keyboard-response","437","353953","0.0-7.0-1.63","FL","jxvpkh0u3z","1536","864","0","1","0","5fd74512393436000a1a7323","","null","","","learningBlock2","","","","That was a dep.","null","","","","","",""
