"trial_type","trial_index","time_elapsed","internal_node_id","condition","subject","screen_width","screen_height","attention","distraction","conscientious","prolificID","success","rt","url","view_history","test_part","final_height_px","final_width_px","scale_factor","stimulus","key_press","learningType","presentedImage","presentedLabel","button_pressed","response","responses"
"pavlovia","0","26","0.0-0.0","FL","q963ed16o4","1920","1080","0","1","0","6006cf1238099707863fc7b4","","","","","","","","","","","","","","","",""
"fullscreen","1","2760","0.0-1.0","FL","q963ed16o4","1920","1080","0","1","0","6006cf1238099707863fc7b4","true","","","","","","","","","","","","","","",""
"external-html","2","13596","0.0-2.0-0.0","FL","q963ed16o4","1920","1080","0","1","0","6006cf1238099707863fc7b4","","10755.92000000006","text/information_english.html","","","","","","","","","","","","",""
"external-html","3","21719","0.0-2.0-1.0","FL","q963ed16o4","1920","1080","0","1","0","6006cf1238099707863fc7b4","","8062.594999999872","text/consent_english.html","","","","","","","","","","","","",""
"instructions","4","27344","0.0-3.0","FL","q963ed16o4","1920","1080","0","1","0","6006cf1238099707863fc7b4","","NA","","[{""page_index"":0,""viewing_time"":1448.6899999999405},{""page_index"":1,""viewing_time"":4174.565000000031}]","instructions","","","","","","","","","","",""
"resize","5","59505","0.0-4.0","FL","q963ed16o4","1920","1080","0","1","0","6006cf1238099707863fc7b4","","","","","","","438","2.780952380952381","","","","","","","",""
"image-keyboard-response","6","59683","0.0-5.0-0.0","FL","q963ed16o4","1920","1080","0","1","0","6006cf1238099707863fc7b4","","null","","","","","","","learning/Slide1.JPG","null","","","","","",""
"html-keyboard-response","7","60836","0.0-5.0-1.0","FL","q963ed16o4","1920","1080","0","1","0","6006cf1238099707863fc7b4","","null","","","learningBlock1","","","","That was a tob.","null","","","","","",""
"html-keyboard-response","8","61838","0.0-5.0-2.0","FL","q963ed16o4","1920","1080","0","1","0","6006cf1238099707863fc7b4","","null","","","learningBlock1","","","","<div style=""font-size:60px;""> </div>","null","FL","learning/Slide1.JPG","That was a tob.","","",""
"image-keyboard-response","9","62015","0.0-5.0-0.1","FL","q963ed16o4","1920","1080","0","1","0","6006cf1238099707863fc7b4","","null","","","","","","","learning/Slide2.JPG","null","","","","","",""
"html-keyboard-response","10","63168","0.0-5.0-1.1","FL","q963ed16o4","1920","1080","0","1","0","6006cf1238099707863fc7b4","","null","","","learningBlock1","","","","That was a wug.","null","","","","","",""
"html-keyboard-response","11","64168","0.0-5.0-2.1","FL","q963ed16o4","1920","1080","0","1","0","6006cf1238099707863fc7b4","","null","","","learningBlock1","","","","<div style=""font-size:60px;""> </div>","null","FL","learning/Slide2.JPG","That was a wug.","","",""
"image-keyboard-response","12","64344","0.0-5.0-0.2","FL","q963ed16o4","1920","1080","0","1","0","6006cf1238099707863fc7b4","","null","","","","","","","learning/Slide3.JPG","null","","","","","",""
"html-keyboard-response","13","65496","0.0-5.0-1.2","FL","q963ed16o4","1920","1080","0","1","0","6006cf1238099707863fc7b4","","null","","","learningBlock1","","","","That was a bim.","null","","","","","",""
"html-keyboard-response","14","66499","0.0-5.0-2.2","FL","q963ed16o4","1920","1080","0","1","0","6006cf1238099707863fc7b4","","null","","","learningBlock1","","","","<div style=""font-size:60px;""> </div>","null","FL","learning/Slide3.JPG","That was a bim.","","",""
"image-keyboard-response","15","66675","0.0-5.0-0.3","FL","q963ed16o4","1920","1080","0","1","0","6006cf1238099707863fc7b4","","null","","","","","","","learning/Slide4.JPG","null","","","","","",""
"html-keyboard-response","16","67828","0.0-5.0-1.3","FL","q963ed16o4","1920","1080","0","1","0","6006cf1238099707863fc7b4","","null","","","learningBlock1","","","","That was a dep.","null","","","","","",""
"html-keyboard-response","17","68831","0.0-5.0-2.3","FL","q963ed16o4","1920","1080","0","1","0","6006cf1238099707863fc7b4","","null","","","learningBlock1","","","","<div style=""font-size:60px;""> </div>","null","FL","learning/Slide4.JPG","That was a dep.","","",""
"image-keyboard-response","18","69007","0.0-5.0-0.4","FL","q963ed16o4","1920","1080","0","1","0","6006cf1238099707863fc7b4","","null","","","","","","","learning/Slide5.JPG","null","","","","","",""
"html-keyboard-response","19","70159","0.0-5.0-1.4","FL","q963ed16o4","1920","1080","0","1","0","6006cf1238099707863fc7b4","","null","","","learningBlock1","","","","That was a wug.","null","","","","","",""
"html-keyboard-response","20","71161","0.0-5.0-2.4","FL","q963ed16o4","1920","1080","0","1","0","6006cf1238099707863fc7b4","","null","","","learningBlock1","","","","<div style=""font-size:60px;""> </div>","null","FL","learning/Slide5.JPG","That was a wug.","","",""
"image-keyboard-response","21","71337","0.0-5.0-0.5","FL","q963ed16o4","1920","1080","0","1","0","6006cf1238099707863fc7b4","","null","","","","","","","learning/Slide6.JPG","null","","","","","",""
"html-keyboard-response","22","72489","0.0-5.0-1.5","FL","q963ed16o4","1920","1080","0","1","0","6006cf1238099707863fc7b4","","null","","","learningBlock1","","","","That was a dep.","null","","","","","",""
"html-keyboard-response","23","73490","0.0-5.0-2.5","FL","q963ed16o4","1920","1080","0","1","0","6006cf1238099707863fc7b4","","null","","","learningBlock1","","","","<div style=""font-size:60px;""> </div>","null","FL","learning/Slide6.JPG","That was a dep.","","",""
"image-keyboard-response","24","73666","0.0-5.0-0.6","FL","q963ed16o4","1920","1080","0","1","0","6006cf1238099707863fc7b4","","null","","","","","","","learning/Slide7.JPG","null","","","","","",""
"html-keyboard-response","25","74818","0.0-5.0-1.6","FL","q963ed16o4","1920","1080","0","1","0","6006cf1238099707863fc7b4","","null","","","learningBlock1","","","","That was a wug.","null","","","","","",""
"html-keyboard-response","26","75820","0.0-5.0-2.6","FL","q963ed16o4","1920","1080","0","1","0","6006cf1238099707863fc7b4","","null","","","learningBlock1","","","","<div style=""font-size:60px;""> </div>","null","FL","learning/Slide7.JPG","That was a wug.","","",""
"image-keyboard-response","27","75996","0.0-5.0-0.7","FL","q963ed16o4","1920","1080","0","1","0","6006cf1238099707863fc7b4","","null","","","","","","","learning/Slide8.JPG","null","","","","","",""
"html-keyboard-response","28","77149","0.0-5.0-1.7","FL","q963ed16o4","1920","1080","0","1","0","6006cf1238099707863fc7b4","","null","","","learningBlock1","","","","That was a bim.","null","","","","","",""
"html-keyboard-response","29","78150","0.0-5.0-2.7","FL","q963ed16o4","1920","1080","0","1","0","6006cf1238099707863fc7b4","","null","","","learningBlock1","","","","<div style=""font-size:60px;""> </div>","null","FL","learning/Slide8.JPG","That was a bim.","","",""
"image-keyboard-response","30","78326","0.0-5.0-0.8","FL","q963ed16o4","1920","1080","0","1","0","6006cf1238099707863fc7b4","","null","","","","","","","learning/Slide9.JPG","null","","","","","",""
"html-keyboard-response","31","79478","0.0-5.0-1.8","FL","q963ed16o4","1920","1080","0","1","0","6006cf1238099707863fc7b4","","null","","","learningBlock1","","","","That was a wug.","null","","","","","",""
"html-keyboard-response","32","80479","0.0-5.0-2.8","FL","q963ed16o4","1920","1080","0","1","0","6006cf1238099707863fc7b4","","null","","","learningBlock1","","","","<div style=""font-size:60px;""> </div>","null","FL","learning/Slide9.JPG","That was a wug.","","",""
"image-keyboard-response","33","80655","0.0-5.0-0.9","FL","q963ed16o4","1920","1080","0","1","0","6006cf1238099707863fc7b4","","null","","","","","","","learning/Slide10.JPG","null","","","","","",""
"html-keyboard-response","34","81807","0.0-5.0-1.9","FL","q963ed16o4","1920","1080","0","1","0","6006cf1238099707863fc7b4","","null","","","learningBlock1","","","","That was a dep.","null","","","","","",""
"html-keyboard-response","35","82808","0.0-5.0-2.9","FL","q963ed16o4","1920","1080","0","1","0","6006cf1238099707863fc7b4","","null","","","learningBlock1","","","","<div style=""font-size:60px;""> </div>","null","FL","learning/Slide10.JPG","That was a dep.","","",""
"image-keyboard-response","36","82984","0.0-5.0-0.10","FL","q963ed16o4","1920","1080","0","1","0","6006cf1238099707863fc7b4","","null","","","","","","","learning/Slide11.JPG","null","","","","","",""
"html-keyboard-response","37","84137","0.0-5.0-1.10","FL","q963ed16o4","1920","1080","0","1","0","6006cf1238099707863fc7b4","","null","","","learningBlock1","","","","That was a tob.","null","","","","","",""
"html-keyboard-response","38","85138","0.0-5.0-2.10","FL","q963ed16o4","1920","1080","0","1","0","6006cf1238099707863fc7b4","","null","","","learningBlock1","","","","<div style=""font-size:60px;""> </div>","null","FL","learning/Slide11.JPG","That was a tob.","","",""
"image-keyboard-response","39","85315","0.0-5.0-0.11","FL","q963ed16o4","1920","1080","0","1","0","6006cf1238099707863fc7b4","","null","","","","","","","learning/Slide12.JPG","null","","","","","",""
"html-keyboard-response","40","86467","0.0-5.0-1.11","FL","q963ed16o4","1920","1080","0","1","0","6006cf1238099707863fc7b4","","null","","","learningBlock1","","","","That was a dep.","null","","","","","",""
"html-keyboard-response","41","87469","0.0-5.0-2.11","FL","q963ed16o4","1920","1080","0","1","0","6006cf1238099707863fc7b4","","null","","","learningBlock1","","","","<div style=""font-size:60px;""> </div>","null","FL","learning/Slide12.JPG","That was a dep.","","",""
"image-keyboard-response","42","87645","0.0-5.0-0.12","FL","q963ed16o4","1920","1080","0","1","0","6006cf1238099707863fc7b4","","null","","","","","","","learning/Slide13.JPG","null","","","","","",""
"html-keyboard-response","43","88797","0.0-5.0-1.12","FL","q963ed16o4","1920","1080","0","1","0","6006cf1238099707863fc7b4","","null","","","learningBlock1","","","","That was a bim.","null","","","","","",""
"html-keyboard-response","44","89798","0.0-5.0-2.12","FL","q963ed16o4","1920","1080","0","1","0","6006cf1238099707863fc7b4","","null","","","learningBlock1","","","","<div style=""font-size:60px;""> </div>","null","FL","learning/Slide13.JPG","That was a bim.","","",""
"image-keyboard-response","45","89974","0.0-5.0-0.13","FL","q963ed16o4","1920","1080","0","1","0","6006cf1238099707863fc7b4","","null","","","","","","","learning/Slide14.JPG","null","","","","","",""
"html-keyboard-response","46","91127","0.0-5.0-1.13","FL","q963ed16o4","1920","1080","0","1","0","6006cf1238099707863fc7b4","","null","","","learningBlock1","","","","That was a wug.","null","","","","","",""
"html-keyboard-response","47","92128","0.0-5.0-2.13","FL","q963ed16o4","1920","1080","0","1","0","6006cf1238099707863fc7b4","","null","","","learningBlock1","","","","<div style=""font-size:60px;""> </div>","null","FL","learning/Slide14.JPG","That was a wug.","","",""
"image-keyboard-response","48","92305","0.0-5.0-0.14","FL","q963ed16o4","1920","1080","0","1","0","6006cf1238099707863fc7b4","","null","","","","","","","learning/Slide15.JPG","null","","","","","",""
"html-keyboard-response","49","93458","0.0-5.0-1.14","FL","q963ed16o4","1920","1080","0","1","0","6006cf1238099707863fc7b4","","null","","","learningBlock1","","","","That was a tob.","null","","","","","",""
"html-keyboard-response","50","94459","0.0-5.0-2.14","FL","q963ed16o4","1920","1080","0","1","0","6006cf1238099707863fc7b4","","null","","","learningBlock1","","","","<div style=""font-size:60px;""> </div>","null","FL","learning/Slide15.JPG","That was a tob.","","",""
"image-keyboard-response","51","94636","0.0-5.0-0.15","FL","q963ed16o4","1920","1080","0","1","0","6006cf1238099707863fc7b4","","null","","","","","","","learning/Slide16.JPG","null","","","","","",""
"html-keyboard-response","52","95789","0.0-5.0-1.15","FL","q963ed16o4","1920","1080","0","1","0","6006cf1238099707863fc7b4","","null","","","learningBlock1","","","","That was a dep.","null","","","","","",""
"html-keyboard-response","53","96791","0.0-5.0-2.15","FL","q963ed16o4","1920","1080","0","1","0","6006cf1238099707863fc7b4","","null","","","learningBlock1","","","","<div style=""font-size:60px;""> </div>","null","FL","learning/Slide16.JPG","That was a dep.","","",""
"image-keyboard-response","54","96968","0.0-5.0-0.16","FL","q963ed16o4","1920","1080","0","1","0","6006cf1238099707863fc7b4","","null","","","","","","","learning/Slide17.JPG","null","","","","","",""
"html-keyboard-response","55","98120","0.0-5.0-1.16","FL","q963ed16o4","1920","1080","0","1","0","6006cf1238099707863fc7b4","","null","","","learningBlock1","","","","That was a bim.","null","","","","","",""
"html-keyboard-response","56","99121","0.0-5.0-2.16","FL","q963ed16o4","1920","1080","0","1","0","6006cf1238099707863fc7b4","","null","","","learningBlock1","","","","<div style=""font-size:60px;""> </div>","null","FL","learning/Slide17.JPG","That was a bim.","","",""
"image-keyboard-response","57","99299","0.0-5.0-0.17","FL","q963ed16o4","1920","1080","0","1","0","6006cf1238099707863fc7b4","","null","","","","","","","learning/Slide18.JPG","null","","","","","",""
"html-keyboard-response","58","100451","0.0-5.0-1.17","FL","q963ed16o4","1920","1080","0","1","0","6006cf1238099707863fc7b4","","null","","","learningBlock1","","","","That was a tob.","null","","","","","",""
"html-keyboard-response","59","101453","0.0-5.0-2.17","FL","q963ed16o4","1920","1080","0","1","0","6006cf1238099707863fc7b4","","null","","","learningBlock1","","","","<div style=""font-size:60px;""> </div>","null","FL","learning/Slide18.JPG","That was a tob.","","",""
"image-keyboard-response","60","101629","0.0-5.0-0.18","FL","q963ed16o4","1920","1080","0","1","0","6006cf1238099707863fc7b4","","null","","","","","","","learning/Slide19.JPG","null","","","","","",""
"html-keyboard-response","61","102782","0.0-5.0-1.18","FL","q963ed16o4","1920","1080","0","1","0","6006cf1238099707863fc7b4","","null","","","learningBlock1","","","","That was a wug.","null","","","","","",""
"html-keyboard-response","62","103783","0.0-5.0-2.18","FL","q963ed16o4","1920","1080","0","1","0","6006cf1238099707863fc7b4","","null","","","learningBlock1","","","","<div style=""font-size:60px;""> </div>","null","FL","learning/Slide19.JPG","That was a wug.","","",""
"image-keyboard-response","63","103960","0.0-5.0-0.19","FL","q963ed16o4","1920","1080","0","1","0","6006cf1238099707863fc7b4","","null","","","","","","","learning/Slide20.JPG","null","","","","","",""
"html-keyboard-response","64","105111","0.0-5.0-1.19","FL","q963ed16o4","1920","1080","0","1","0","6006cf1238099707863fc7b4","","null","","","learningBlock1","","","","That was a bim.","null","","","","","",""
"html-keyboard-response","65","106113","0.0-5.0-2.19","FL","q963ed16o4","1920","1080","0","1","0","6006cf1238099707863fc7b4","","null","","","learningBlock1","","","","<div style=""font-size:60px;""> </div>","null","FL","learning/Slide20.JPG","That was a bim.","","",""
"image-keyboard-response","66","106289","0.0-5.0-0.20","FL","q963ed16o4","1920","1080","0","1","0","6006cf1238099707863fc7b4","","null","","","","","","","learning/Slide21.JPG","null","","","","","",""
"html-keyboard-response","67","107441","0.0-5.0-1.20","FL","q963ed16o4","1920","1080","0","1","0","6006cf1238099707863fc7b4","","null","","","learningBlock1","","","","That was a dep.","null","","","","","",""
"html-keyboard-response","68","108443","0.0-5.0-2.20","FL","q963ed16o4","1920","1080","0","1","0","6006cf1238099707863fc7b4","","null","","","learningBlock1","","","","<div style=""font-size:60px;""> </div>","null","FL","learning/Slide21.JPG","That was a dep.","","",""
"image-keyboard-response","69","108620","0.0-5.0-0.21","FL","q963ed16o4","1920","1080","0","1","0","6006cf1238099707863fc7b4","","null","","","","","","","learning/Slide22.JPG","null","","","","","",""
"html-keyboard-response","70","109772","0.0-5.0-1.21","FL","q963ed16o4","1920","1080","0","1","0","6006cf1238099707863fc7b4","","null","","","learningBlock1","","","","That was a bim.","null","","","","","",""
"html-keyboard-response","71","110774","0.0-5.0-2.21","FL","q963ed16o4","1920","1080","0","1","0","6006cf1238099707863fc7b4","","null","","","learningBlock1","","","","<div style=""font-size:60px;""> </div>","null","FL","learning/Slide22.JPG","That was a bim.","","",""
"image-keyboard-response","72","110950","0.0-5.0-0.22","FL","q963ed16o4","1920","1080","0","1","0","6006cf1238099707863fc7b4","","null","","","","","","","learning/Slide23.JPG","null","","","","","",""
"html-keyboard-response","73","112101","0.0-5.0-1.22","FL","q963ed16o4","1920","1080","0","1","0","6006cf1238099707863fc7b4","","null","","","learningBlock1","","","","That was a tob.","null","","","","","",""
"html-keyboard-response","74","113102","0.0-5.0-2.22","FL","q963ed16o4","1920","1080","0","1","0","6006cf1238099707863fc7b4","","null","","","learningBlock1","","","","<div style=""font-size:60px;""> </div>","null","FL","learning/Slide23.JPG","That was a tob.","","",""
"image-keyboard-response","75","113279","0.0-5.0-0.23","FL","q963ed16o4","1920","1080","0","1","0","6006cf1238099707863fc7b4","","null","","","","","","","learning/Slide24.JPG","null","","","","","",""
"html-keyboard-response","76","114432","0.0-5.0-1.23","FL","q963ed16o4","1920","1080","0","1","0","6006cf1238099707863fc7b4","","null","","","learningBlock1","","","","That was a wug.","null","","","","","",""
"html-keyboard-response","77","115433","0.0-5.0-2.23","FL","q963ed16o4","1920","1080","0","1","0","6006cf1238099707863fc7b4","","null","","","learningBlock1","","","","<div style=""font-size:60px;""> </div>","null","FL","learning/Slide24.JPG","That was a wug.","","",""
"image-keyboard-response","78","115611","0.0-5.0-0.24","FL","q963ed16o4","1920","1080","0","1","0","6006cf1238099707863fc7b4","","null","","","","","","","learning/Slide25.JPG","null","","","","","",""
"html-keyboard-response","79","116762","0.0-5.0-1.24","FL","q963ed16o4","1920","1080","0","1","0","6006cf1238099707863fc7b4","","null","","","learningBlock1","","","","That was a dep.","null","","","","","",""
"html-keyboard-response","80","117763","0.0-5.0-2.24","FL","q963ed16o4","1920","1080","0","1","0","6006cf1238099707863fc7b4","","null","","","learningBlock1","","","","<div style=""font-size:60px;""> </div>","null","FL","learning/Slide25.JPG","That was a dep.","","",""
"image-keyboard-response","81","117939","0.0-5.0-0.25","FL","q963ed16o4","1920","1080","0","1","0","6006cf1238099707863fc7b4","","null","","","","","","","learning/Slide26.JPG","null","","","","","",""
"html-keyboard-response","82","119092","0.0-5.0-1.25","FL","q963ed16o4","1920","1080","0","1","0","6006cf1238099707863fc7b4","","null","","","learningBlock1","","","","That was a wug.","null","","","","","",""
"html-keyboard-response","83","120093","0.0-5.0-2.25","FL","q963ed16o4","1920","1080","0","1","0","6006cf1238099707863fc7b4","","null","","","learningBlock1","","","","<div style=""font-size:60px;""> </div>","null","FL","learning/Slide26.JPG","That was a wug.","","",""
"image-keyboard-response","84","120269","0.0-5.0-0.26","FL","q963ed16o4","1920","1080","0","1","0","6006cf1238099707863fc7b4","","null","","","","","","","learning/Slide27.JPG","null","","","","","",""
"html-keyboard-response","85","121422","0.0-5.0-1.26","FL","q963ed16o4","1920","1080","0","1","0","6006cf1238099707863fc7b4","","null","","","learningBlock1","","","","That was a bim.","null","","","","","",""
"html-keyboard-response","86","122424","0.0-5.0-2.26","FL","q963ed16o4","1920","1080","0","1","0","6006cf1238099707863fc7b4","","null","","","learningBlock1","","","","<div style=""font-size:60px;""> </div>","null","FL","learning/Slide27.JPG","That was a bim.","","",""
"image-keyboard-response","87","122600","0.0-5.0-0.27","FL","q963ed16o4","1920","1080","0","1","0","6006cf1238099707863fc7b4","","null","","","","","","","learning/Slide28.JPG","null","","","","","",""
"html-keyboard-response","88","123752","0.0-5.0-1.27","FL","q963ed16o4","1920","1080","0","1","0","6006cf1238099707863fc7b4","","null","","","learningBlock1","","","","That was a dep.","null","","","","","",""
"html-keyboard-response","89","124752","0.0-5.0-2.27","FL","q963ed16o4","1920","1080","0","1","0","6006cf1238099707863fc7b4","","null","","","learningBlock1","","","","<div style=""font-size:60px;""> </div>","null","FL","learning/Slide28.JPG","That was a dep.","","",""
"image-keyboard-response","90","124928","0.0-5.0-0.28","FL","q963ed16o4","1920","1080","0","1","0","6006cf1238099707863fc7b4","","null","","","","","","","learning/Slide29.JPG","null","","","","","",""
"html-keyboard-response","91","126080","0.0-5.0-1.28","FL","q963ed16o4","1920","1080","0","1","0","6006cf1238099707863fc7b4","","null","","","learningBlock1","","","","That was a tob.","null","","","","","",""
"html-keyboard-response","92","127082","0.0-5.0-2.28","FL","q963ed16o4","1920","1080","0","1","0","6006cf1238099707863fc7b4","","null","","","learningBlock1","","","","<div style=""font-size:60px;""> </div>","null","FL","learning/Slide29.JPG","That was a tob.","","",""
"image-keyboard-response","93","127259","0.0-5.0-0.29","FL","q963ed16o4","1920","1080","0","1","0","6006cf1238099707863fc7b4","","null","","","","","","","learning/Slide30.JPG","null","","","","","",""
"html-keyboard-response","94","128410","0.0-5.0-1.29","FL","q963ed16o4","1920","1080","0","1","0","6006cf1238099707863fc7b4","","null","","","learningBlock1","","","","That was a dep.","null","","","","","",""
"html-keyboard-response","95","129412","0.0-5.0-2.29","FL","q963ed16o4","1920","1080","0","1","0","6006cf1238099707863fc7b4","","null","","","learningBlock1","","","","<div style=""font-size:60px;""> </div>","null","FL","learning/Slide30.JPG","That was a dep.","","",""
"image-keyboard-response","96","129589","0.0-5.0-0.30","FL","q963ed16o4","1920","1080","0","1","0","6006cf1238099707863fc7b4","","null","","","","","","","learning/Slide31.JPG","null","","","","","",""
"html-keyboard-response","97","130741","0.0-5.0-1.30","FL","q963ed16o4","1920","1080","0","1","0","6006cf1238099707863fc7b4","","null","","","learningBlock1","","","","That was a wug.","null","","","","","",""
"html-keyboard-response","98","131743","0.0-5.0-2.30","FL","q963ed16o4","1920","1080","0","1","0","6006cf1238099707863fc7b4","","null","","","learningBlock1","","","","<div style=""font-size:60px;""> </div>","null","FL","learning/Slide31.JPG","That was a wug.","","",""
"image-keyboard-response","99","131919","0.0-5.0-0.31","FL","q963ed16o4","1920","1080","0","1","0","6006cf1238099707863fc7b4","","null","","","","","","","learning/Slide32.JPG","null","","","","","",""
"html-keyboard-response","100","133072","0.0-5.0-1.31","FL","q963ed16o4","1920","1080","0","1","0","6006cf1238099707863fc7b4","","null","","","learningBlock1","","","","That was a tob.","null","","","","","",""
"html-keyboard-response","101","134073","0.0-5.0-2.31","FL","q963ed16o4","1920","1080","0","1","0","6006cf1238099707863fc7b4","","null","","","learningBlock1","","","","<div style=""font-size:60px;""> </div>","null","FL","learning/Slide32.JPG","That was a tob.","","",""
"image-keyboard-response","102","134249","0.0-5.0-0.32","FL","q963ed16o4","1920","1080","0","1","0","6006cf1238099707863fc7b4","","null","","","","","","","learning/Slide33.JPG","null","","","","","",""
"html-keyboard-response","103","135403","0.0-5.0-1.32","FL","q963ed16o4","1920","1080","0","1","0","6006cf1238099707863fc7b4","","null","","","learningBlock1","","","","That was a bim.","null","","","","","",""
"html-keyboard-response","104","136405","0.0-5.0-2.32","FL","q963ed16o4","1920","1080","0","1","0","6006cf1238099707863fc7b4","","null","","","learningBlock1","","","","<div style=""font-size:60px;""> </div>","null","FL","learning/Slide33.JPG","That was a bim.","","",""
"image-keyboard-response","105","136582","0.0-5.0-0.33","FL","q963ed16o4","1920","1080","0","1","0","6006cf1238099707863fc7b4","","null","","","","","","","learning/Slide34.JPG","null","","","","","",""
"html-keyboard-response","106","137733","0.0-5.0-1.33","FL","q963ed16o4","1920","1080","0","1","0","6006cf1238099707863fc7b4","","null","","","learningBlock1","","","","That was a tob.","null","","","","","",""
"html-keyboard-response","107","138734","0.0-5.0-2.33","FL","q963ed16o4","1920","1080","0","1","0","6006cf1238099707863fc7b4","","null","","","learningBlock1","","","","<div style=""font-size:60px;""> </div>","null","FL","learning/Slide34.JPG","That was a tob.","","",""
"image-keyboard-response","108","138911","0.0-5.0-0.34","FL","q963ed16o4","1920","1080","0","1","0","6006cf1238099707863fc7b4","","null","","","","","","","learning/Slide35.JPG","null","","","","","",""
"html-keyboard-response","109","140063","0.0-5.0-1.34","FL","q963ed16o4","1920","1080","0","1","0","6006cf1238099707863fc7b4","","null","","","learningBlock1","","","","That was a bim.","null","","","","","",""
"html-keyboard-response","110","141064","0.0-5.0-2.34","FL","q963ed16o4","1920","1080","0","1","0","6006cf1238099707863fc7b4","","null","","","learningBlock1","","","","<div style=""font-size:60px;""> </div>","null","FL","learning/Slide35.JPG","That was a bim.","","",""
"image-keyboard-response","111","141241","0.0-5.0-0.35","FL","q963ed16o4","1920","1080","0","1","0","6006cf1238099707863fc7b4","","null","","","","","","","learning/Slide36.JPG","null","","","","","",""
"html-keyboard-response","112","142394","0.0-5.0-1.35","FL","q963ed16o4","1920","1080","0","1","0","6006cf1238099707863fc7b4","","null","","","learningBlock1","","","","That was a dep.","null","","","","","",""
"html-keyboard-response","113","143395","0.0-5.0-2.35","FL","q963ed16o4","1920","1080","0","1","0","6006cf1238099707863fc7b4","","null","","","learningBlock1","","","","<div style=""font-size:60px;""> </div>","null","FL","learning/Slide36.JPG","That was a dep.","","",""
"image-keyboard-response","114","143572","0.0-5.0-0.36","FL","q963ed16o4","1920","1080","0","1","0","6006cf1238099707863fc7b4","","null","","","","","","","learning/Slide37.JPG","null","","","","","",""
"html-keyboard-response","115","144725","0.0-5.0-1.36","FL","q963ed16o4","1920","1080","0","1","0","6006cf1238099707863fc7b4","","null","","","learningBlock1","","","","That was a tob.","null","","","","","",""
"html-keyboard-response","116","145726","0.0-5.0-2.36","FL","q963ed16o4","1920","1080","0","1","0","6006cf1238099707863fc7b4","","null","","","learningBlock1","","","","<div style=""font-size:60px;""> </div>","null","FL","learning/Slide37.JPG","That was a tob.","","",""
"image-keyboard-response","117","145902","0.0-5.0-0.37","FL","q963ed16o4","1920","1080","0","1","0","6006cf1238099707863fc7b4","","null","","","","","","","learning/Slide38.JPG","null","","","","","",""
"html-keyboard-response","118","147054","0.0-5.0-1.37","FL","q963ed16o4","1920","1080","0","1","0","6006cf1238099707863fc7b4","","null","","","learningBlock1","","","","That was a wug.","null","","","","","",""
"html-keyboard-response","119","148057","0.0-5.0-2.37","FL","q963ed16o4","1920","1080","0","1","0","6006cf1238099707863fc7b4","","null","","","learningBlock1","","","","<div style=""font-size:60px;""> </div>","null","FL","learning/Slide38.JPG","That was a wug.","","",""
"image-keyboard-response","120","148233","0.0-5.0-0.38","FL","q963ed16o4","1920","1080","0","1","0","6006cf1238099707863fc7b4","","null","","","","","","","learning/Slide39.JPG","null","","","","","",""
"html-keyboard-response","121","149385","0.0-5.0-1.38","FL","q963ed16o4","1920","1080","0","1","0","6006cf1238099707863fc7b4","","null","","","learningBlock1","","","","That was a bim.","null","","","","","",""
"html-keyboard-response","122","150387","0.0-5.0-2.38","FL","q963ed16o4","1920","1080","0","1","0","6006cf1238099707863fc7b4","","null","","","learningBlock1","","","","<div style=""font-size:60px;""> </div>","null","FL","learning/Slide39.JPG","That was a bim.","","",""
"image-keyboard-response","123","150563","0.0-5.0-0.39","FL","q963ed16o4","1920","1080","0","1","0","6006cf1238099707863fc7b4","","null","","","","","","","learning/Slide40.JPG","null","","","","","",""
"html-keyboard-response","124","151716","0.0-5.0-1.39","FL","q963ed16o4","1920","1080","0","1","0","6006cf1238099707863fc7b4","","null","","","learningBlock1","","","","That was a tob.","null","","","","","",""
"html-keyboard-response","125","152718","0.0-5.0-2.39","FL","q963ed16o4","1920","1080","0","1","0","6006cf1238099707863fc7b4","","null","","","learningBlock1","","","","<div style=""font-size:60px;""> </div>","null","FL","learning/Slide40.JPG","That was a tob.","","",""
"image-keyboard-response","126","152894","0.0-5.0-0.40","FL","q963ed16o4","1920","1080","0","1","0","6006cf1238099707863fc7b4","","null","","","","","","","learning/Slide41.JPG","null","","","","","",""
"html-keyboard-response","127","154046","0.0-5.0-1.40","FL","q963ed16o4","1920","1080","0","1","0","6006cf1238099707863fc7b4","","null","","","learningBlock1","","","","That was a bim.","null","","","","","",""
"html-keyboard-response","128","155048","0.0-5.0-2.40","FL","q963ed16o4","1920","1080","0","1","0","6006cf1238099707863fc7b4","","null","","","learningBlock1","","","","<div style=""font-size:60px;""> </div>","null","FL","learning/Slide41.JPG","That was a bim.","","",""
"image-keyboard-response","129","155224","0.0-5.0-0.41","FL","q963ed16o4","1920","1080","0","1","0","6006cf1238099707863fc7b4","","null","","","","","","","learning/Slide42.JPG","null","","","","","",""
"html-keyboard-response","130","156377","0.0-5.0-1.41","FL","q963ed16o4","1920","1080","0","1","0","6006cf1238099707863fc7b4","","null","","","learningBlock1","","","","That was a dep.","null","","","","","",""
"html-keyboard-response","131","157379","0.0-5.0-2.41","FL","q963ed16o4","1920","1080","0","1","0","6006cf1238099707863fc7b4","","null","","","learningBlock1","","","","<div style=""font-size:60px;""> </div>","null","FL","learning/Slide42.JPG","That was a dep.","","",""
"image-keyboard-response","132","157555","0.0-5.0-0.42","FL","q963ed16o4","1920","1080","0","1","0","6006cf1238099707863fc7b4","","null","","","","","","","learning/Slide43.JPG","null","","","","","",""
"html-keyboard-response","133","158708","0.0-5.0-1.42","FL","q963ed16o4","1920","1080","0","1","0","6006cf1238099707863fc7b4","","null","","","learningBlock1","","","","That was a wug.","null","","","","","",""
"html-keyboard-response","134","159710","0.0-5.0-2.42","FL","q963ed16o4","1920","1080","0","1","0","6006cf1238099707863fc7b4","","null","","","learningBlock1","","","","<div style=""font-size:60px;""> </div>","null","FL","learning/Slide43.JPG","That was a wug.","","",""
"image-keyboard-response","135","159887","0.0-5.0-0.43","FL","q963ed16o4","1920","1080","0","1","0","6006cf1238099707863fc7b4","","null","","","","","","","learning/Slide44.JPG","null","","","","","",""
"html-keyboard-response","136","161039","0.0-5.0-1.43","FL","q963ed16o4","1920","1080","0","1","0","6006cf1238099707863fc7b4","","null","","","learningBlock1","","","","That was a bim.","null","","","","","",""
"html-keyboard-response","137","162040","0.0-5.0-2.43","FL","q963ed16o4","1920","1080","0","1","0","6006cf1238099707863fc7b4","","null","","","learningBlock1","","","","<div style=""font-size:60px;""> </div>","null","FL","learning/Slide44.JPG","That was a bim.","","",""
"image-keyboard-response","138","162217","0.0-5.0-0.44","FL","q963ed16o4","1920","1080","0","1","0","6006cf1238099707863fc7b4","","null","","","","","","","learning/Slide45.JPG","null","","","","","",""
"html-keyboard-response","139","163369","0.0-5.0-1.44","FL","q963ed16o4","1920","1080","0","1","0","6006cf1238099707863fc7b4","","null","","","learningBlock1","","","","That was a wug.","null","","","","","",""
"html-keyboard-response","140","164370","0.0-5.0-2.44","FL","q963ed16o4","1920","1080","0","1","0","6006cf1238099707863fc7b4","","null","","","learningBlock1","","","","<div style=""font-size:60px;""> </div>","null","FL","learning/Slide45.JPG","That was a wug.","","",""
"image-keyboard-response","141","164548","0.0-5.0-0.45","FL","q963ed16o4","1920","1080","0","1","0","6006cf1238099707863fc7b4","","null","","","","","","","learning/Slide46.JPG","null","","","","","",""
"html-keyboard-response","142","165700","0.0-5.0-1.45","FL","q963ed16o4","1920","1080","0","1","0","6006cf1238099707863fc7b4","","null","","","learningBlock1","","","","That was a dep.","null","","","","","",""
"html-keyboard-response","143","166703","0.0-5.0-2.45","FL","q963ed16o4","1920","1080","0","1","0","6006cf1238099707863fc7b4","","null","","","learningBlock1","","","","<div style=""font-size:60px;""> </div>","null","FL","learning/Slide46.JPG","That was a dep.","","",""
"image-keyboard-response","144","166879","0.0-5.0-0.46","FL","q963ed16o4","1920","1080","0","1","0","6006cf1238099707863fc7b4","","null","","","","","","","learning/Slide47.JPG","null","","","","","",""
"html-keyboard-response","145","168031","0.0-5.0-1.46","FL","q963ed16o4","1920","1080","0","1","0","6006cf1238099707863fc7b4","","null","","","learningBlock1","","","","That was a tob.","null","","","","","",""
"html-keyboard-response","146","169033","0.0-5.0-2.46","FL","q963ed16o4","1920","1080","0","1","0","6006cf1238099707863fc7b4","","null","","","learningBlock1","","","","<div style=""font-size:60px;""> </div>","null","FL","learning/Slide47.JPG","That was a tob.","","",""
"image-keyboard-response","147","169209","0.0-5.0-0.47","FL","q963ed16o4","1920","1080","0","1","0","6006cf1238099707863fc7b4","","null","","","","","","","learning/Slide48.JPG","null","","","","","",""
"html-keyboard-response","148","170361","0.0-5.0-1.47","FL","q963ed16o4","1920","1080","0","1","0","6006cf1238099707863fc7b4","","null","","","learningBlock1","","","","That was a bim.","null","","","","","",""
"html-keyboard-response","149","171363","0.0-5.0-2.47","FL","q963ed16o4","1920","1080","0","1","0","6006cf1238099707863fc7b4","","null","","","learningBlock1","","","","<div style=""font-size:60px;""> </div>","null","FL","learning/Slide48.JPG","That was a bim.","","",""
"image-keyboard-response","150","171539","0.0-5.0-0.48","FL","q963ed16o4","1920","1080","0","1","0","6006cf1238099707863fc7b4","","null","","","","","","","learning/Slide49.JPG","null","","","","","",""
"html-keyboard-response","151","172690","0.0-5.0-1.48","FL","q963ed16o4","1920","1080","0","1","0","6006cf1238099707863fc7b4","","null","","","learningBlock1","","","","That was a dep.","null","","","","","",""
"html-keyboard-response","152","173692","0.0-5.0-2.48","FL","q963ed16o4","1920","1080","0","1","0","6006cf1238099707863fc7b4","","null","","","learningBlock1","","","","<div style=""font-size:60px;""> </div>","null","FL","learning/Slide49.JPG","That was a dep.","","",""
"image-keyboard-response","153","173868","0.0-5.0-0.49","FL","q963ed16o4","1920","1080","0","1","0","6006cf1238099707863fc7b4","","null","","","","","","","learning/Slide50.JPG","null","","","","","",""
"html-keyboard-response","154","175020","0.0-5.0-1.49","FL","q963ed16o4","1920","1080","0","1","0","6006cf1238099707863fc7b4","","null","","","learningBlock1","","","","That was a tob.","null","","","","","",""
"html-keyboard-response","155","176021","0.0-5.0-2.49","FL","q963ed16o4","1920","1080","0","1","0","6006cf1238099707863fc7b4","","null","","","learningBlock1","","","","<div style=""font-size:60px;""> </div>","null","FL","learning/Slide50.JPG","That was a tob.","","",""
"image-keyboard-response","156","176197","0.0-5.0-0.50","FL","q963ed16o4","1920","1080","0","1","0","6006cf1238099707863fc7b4","","null","","","","","","","learning/Slide51.JPG","null","","","","","",""
"html-keyboard-response","157","177350","0.0-5.0-1.50","FL","q963ed16o4","1920","1080","0","1","0","6006cf1238099707863fc7b4","","null","","","learningBlock1","","","","That was a bim.","null","","","","","",""
"html-keyboard-response","158","178351","0.0-5.0-2.50","FL","q963ed16o4","1920","1080","0","1","0","6006cf1238099707863fc7b4","","null","","","learningBlock1","","","","<div style=""font-size:60px;""> </div>","null","FL","learning/Slide51.JPG","That was a bim.","","",""
"image-keyboard-response","159","178527","0.0-5.0-0.51","FL","q963ed16o4","1920","1080","0","1","0","6006cf1238099707863fc7b4","","null","","","","","","","learning/Slide52.JPG","null","","","","","",""
"html-keyboard-response","160","179679","0.0-5.0-1.51","FL","q963ed16o4","1920","1080","0","1","0","6006cf1238099707863fc7b4","","null","","","learningBlock1","","","","That was a wug.","null","","","","","",""
"html-keyboard-response","161","180681","0.0-5.0-2.51","FL","q963ed16o4","1920","1080","0","1","0","6006cf1238099707863fc7b4","","null","","","learningBlock1","","","","<div style=""font-size:60px;""> </div>","null","FL","learning/Slide52.JPG","That was a wug.","","",""
"image-keyboard-response","162","180858","0.0-5.0-0.52","FL","q963ed16o4","1920","1080","0","1","0","6006cf1238099707863fc7b4","","null","","","","","","","learning/Slide53.JPG","null","","","","","",""
"html-keyboard-response","163","182010","0.0-5.0-1.52","FL","q963ed16o4","1920","1080","0","1","0","6006cf1238099707863fc7b4","","null","","","learningBlock1","","","","That was a tob.","null","","","","","",""
"html-keyboard-response","164","183011","0.0-5.0-2.52","FL","q963ed16o4","1920","1080","0","1","0","6006cf1238099707863fc7b4","","null","","","learningBlock1","","","","<div style=""font-size:60px;""> </div>","null","FL","learning/Slide53.JPG","That was a tob.","","",""
"image-keyboard-response","165","183188","0.0-5.0-0.53","FL","q963ed16o4","1920","1080","0","1","0","6006cf1238099707863fc7b4","","null","","","","","","","learning/Slide54.JPG","null","","","","","",""
"html-keyboard-response","166","184340","0.0-5.0-1.53","FL","q963ed16o4","1920","1080","0","1","0","6006cf1238099707863fc7b4","","null","","","learningBlock1","","","","That was a dep.","null","","","","","",""
"html-keyboard-response","167","185342","0.0-5.0-2.53","FL","q963ed16o4","1920","1080","0","1","0","6006cf1238099707863fc7b4","","null","","","learningBlock1","","","","<div style=""font-size:60px;""> </div>","null","FL","learning/Slide54.JPG","That was a dep.","","",""
"image-keyboard-response","168","185518","0.0-5.0-0.54","FL","q963ed16o4","1920","1080","0","1","0","6006cf1238099707863fc7b4","","null","","","","","","","learning/Slide55.JPG","null","","","","","",""
"html-keyboard-response","169","186671","0.0-5.0-1.54","FL","q963ed16o4","1920","1080","0","1","0","6006cf1238099707863fc7b4","","null","","","learningBlock1","","","","That was a bim.","null","","","","","",""
"html-keyboard-response","170","187673","0.0-5.0-2.54","FL","q963ed16o4","1920","1080","0","1","0","6006cf1238099707863fc7b4","","null","","","learningBlock1","","","","<div style=""font-size:60px;""> </div>","null","FL","learning/Slide55.JPG","That was a bim.","","",""
"image-keyboard-response","171","187849","0.0-5.0-0.55","FL","q963ed16o4","1920","1080","0","1","0","6006cf1238099707863fc7b4","","null","","","","","","","learning/Slide56.JPG","null","","","","","",""
"html-keyboard-response","172","189000","0.0-5.0-1.55","FL","q963ed16o4","1920","1080","0","1","0","6006cf1238099707863fc7b4","","null","","","learningBlock1","","","","That was a tob.","null","","","","","",""
"html-keyboard-response","173","190001","0.0-5.0-2.55","FL","q963ed16o4","1920","1080","0","1","0","6006cf1238099707863fc7b4","","null","","","learningBlock1","","","","<div style=""font-size:60px;""> </div>","null","FL","learning/Slide56.JPG","That was a tob.","","",""
"image-keyboard-response","174","190178","0.0-5.0-0.56","FL","q963ed16o4","1920","1080","0","1","0","6006cf1238099707863fc7b4","","null","","","","","","","learning/Slide57.JPG","null","","","","","",""
"html-keyboard-response","175","191331","0.0-5.0-1.56","FL","q963ed16o4","1920","1080","0","1","0","6006cf1238099707863fc7b4","","null","","","learningBlock1","","","","That was a dep.","null","","","","","",""
"html-keyboard-response","176","192333","0.0-5.0-2.56","FL","q963ed16o4","1920","1080","0","1","0","6006cf1238099707863fc7b4","","null","","","learningBlock1","","","","<div style=""font-size:60px;""> </div>","null","FL","learning/Slide57.JPG","That was a dep.","","",""
"image-keyboard-response","177","192509","0.0-5.0-0.57","FL","q963ed16o4","1920","1080","0","1","0","6006cf1238099707863fc7b4","","null","","","","","","","learning/Slide58.JPG","null","","","","","",""
"html-keyboard-response","178","193661","0.0-5.0-1.57","FL","q963ed16o4","1920","1080","0","1","0","6006cf1238099707863fc7b4","","null","","","learningBlock1","","","","That was a wug.","null","","","","","",""
"html-keyboard-response","179","194664","0.0-5.0-2.57","FL","q963ed16o4","1920","1080","0","1","0","6006cf1238099707863fc7b4","","null","","","learningBlock1","","","","<div style=""font-size:60px;""> </div>","null","FL","learning/Slide58.JPG","That was a wug.","","",""
"image-keyboard-response","180","194841","0.0-5.0-0.58","FL","q963ed16o4","1920","1080","0","1","0","6006cf1238099707863fc7b4","","null","","","","","","","learning/Slide59.JPG","null","","","","","",""
"html-keyboard-response","181","195993","0.0-5.0-1.58","FL","q963ed16o4","1920","1080","0","1","0","6006cf1238099707863fc7b4","","null","","","learningBlock1","","","","That was a dep.","null","","","","","",""
"html-keyboard-response","182","196995","0.0-5.0-2.58","FL","q963ed16o4","1920","1080","0","1","0","6006cf1238099707863fc7b4","","null","","","learningBlock1","","","","<div style=""font-size:60px;""> </div>","null","FL","learning/Slide59.JPG","That was a dep.","","",""
"image-keyboard-response","183","197172","0.0-5.0-0.59","FL","q963ed16o4","1920","1080","0","1","0","6006cf1238099707863fc7b4","","null","","","","","","","learning/Slide60.JPG","null","","","","","",""
"html-keyboard-response","184","198325","0.0-5.0-1.59","FL","q963ed16o4","1920","1080","0","1","0","6006cf1238099707863fc7b4","","null","","","learningBlock1","","","","That was a wug.","null","","","","","",""
"html-keyboard-response","185","199327","0.0-5.0-2.59","FL","q963ed16o4","1920","1080","0","1","0","6006cf1238099707863fc7b4","","null","","","learningBlock1","","","","<div style=""font-size:60px;""> </div>","null","FL","learning/Slide60.JPG","That was a wug.","","",""
"image-keyboard-response","186","199503","0.0-5.0-0.60","FL","q963ed16o4","1920","1080","0","1","0","6006cf1238099707863fc7b4","","null","","","","","","","learning/Slide61.JPG","null","","","","","",""
"html-keyboard-response","187","200656","0.0-5.0-1.60","FL","q963ed16o4","1920","1080","0","1","0","6006cf1238099707863fc7b4","","null","","","learningBlock1","","","","That was a bim.","null","","","","","",""
"html-keyboard-response","188","201657","0.0-5.0-2.60","FL","q963ed16o4","1920","1080","0","1","0","6006cf1238099707863fc7b4","","null","","","learningBlock1","","","","<div style=""font-size:60px;""> </div>","null","FL","learning/Slide61.JPG","That was a bim.","","",""
"image-keyboard-response","189","201833","0.0-5.0-0.61","FL","q963ed16o4","1920","1080","0","1","0","6006cf1238099707863fc7b4","","null","","","","","","","learning/Slide62.JPG","null","","","","","",""
"html-keyboard-response","190","202985","0.0-5.0-1.61","FL","q963ed16o4","1920","1080","0","1","0","6006cf1238099707863fc7b4","","null","","","learningBlock1","","","","That was a dep.","null","","","","","",""
"html-keyboard-response","191","203986","0.0-5.0-2.61","FL","q963ed16o4","1920","1080","0","1","0","6006cf1238099707863fc7b4","","null","","","learningBlock1","","","","<div style=""font-size:60px;""> </div>","null","FL","learning/Slide62.JPG","That was a dep.","","",""
"image-keyboard-response","192","204163","0.0-5.0-0.62","FL","q963ed16o4","1920","1080","0","1","0","6006cf1238099707863fc7b4","","null","","","","","","","learning/Slide63.JPG","null","","","","","",""
"html-keyboard-response","193","205315","0.0-5.0-1.62","FL","q963ed16o4","1920","1080","0","1","0","6006cf1238099707863fc7b4","","null","","","learningBlock1","","","","That was a bim.","null","","","","","",""
"html-keyboard-response","194","206316","0.0-5.0-2.62","FL","q963ed16o4","1920","1080","0","1","0","6006cf1238099707863fc7b4","","null","","","learningBlock1","","","","<div style=""font-size:60px;""> </div>","null","FL","learning/Slide63.JPG","That was a bim.","","",""
"image-keyboard-response","195","206493","0.0-5.0-0.63","FL","q963ed16o4","1920","1080","0","1","0","6006cf1238099707863fc7b4","","null","","","","","","","learning/Slide64.JPG","null","","","","","",""
"html-keyboard-response","196","207645","0.0-5.0-1.63","FL","q963ed16o4","1920","1080","0","1","0","6006cf1238099707863fc7b4","","null","","","learningBlock1","","","","That was a tob.","null","","","","","",""
"html-keyboard-response","197","208645","0.0-5.0-2.63","FL","q963ed16o4","1920","1080","0","1","0","6006cf1238099707863fc7b4","","null","","","learningBlock1","","","","<div style=""font-size:60px;""> </div>","null","FL","learning/Slide64.JPG","That was a tob.","","",""
"image-keyboard-response","198","208822","0.0-5.0-0.64","FL","q963ed16o4","1920","1080","0","1","0","6006cf1238099707863fc7b4","","null","","","","","","","learning/Slide65.JPG","null","","","","","",""
"html-keyboard-response","199","209975","0.0-5.0-1.64","FL","q963ed16o4","1920","1080","0","1","0","6006cf1238099707863fc7b4","","null","","","learningBlock1","","","","That was a wug.","null","","","","","",""
"html-keyboard-response","200","210977","0.0-5.0-2.64","FL","q963ed16o4","1920","1080","0","1","0","6006cf1238099707863fc7b4","","null","","","learningBlock1","","","","<div style=""font-size:60px;""> </div>","null","FL","learning/Slide65.JPG","That was a wug.","","",""
"image-keyboard-response","201","211154","0.0-5.0-0.65","FL","q963ed16o4","1920","1080","0","1","0","6006cf1238099707863fc7b4","","null","","","","","","","learning/Slide66.JPG","null","","","","","",""
"html-keyboard-response","202","212306","0.0-5.0-1.65","FL","q963ed16o4","1920","1080","0","1","0","6006cf1238099707863fc7b4","","null","","","learningBlock1","","","","That was a dep.","null","","","","","",""
"html-keyboard-response","203","213307","0.0-5.0-2.65","FL","q963ed16o4","1920","1080","0","1","0","6006cf1238099707863fc7b4","","null","","","learningBlock1","","","","<div style=""font-size:60px;""> </div>","null","FL","learning/Slide66.JPG","That was a dep.","","",""
"image-keyboard-response","204","213483","0.0-5.0-0.66","FL","q963ed16o4","1920","1080","0","1","0","6006cf1238099707863fc7b4","","null","","","","","","","learning/Slide67.JPG","null","","","","","",""
"html-keyboard-response","205","214634","0.0-5.0-1.66","FL","q963ed16o4","1920","1080","0","1","0","6006cf1238099707863fc7b4","","null","","","learningBlock1","","","","That was a tob.","null","","","","","",""
"html-keyboard-response","206","215636","0.0-5.0-2.66","FL","q963ed16o4","1920","1080","0","1","0","6006cf1238099707863fc7b4","","null","","","learningBlock1","","","","<div style=""font-size:60px;""> </div>","null","FL","learning/Slide67.JPG","That was a tob.","","",""
"image-keyboard-response","207","215813","0.0-5.0-0.67","FL","q963ed16o4","1920","1080","0","1","0","6006cf1238099707863fc7b4","","null","","","","","","","learning/Slide68.JPG","null","","","","","",""
"html-keyboard-response","208","216964","0.0-5.0-1.67","FL","q963ed16o4","1920","1080","0","1","0","6006cf1238099707863fc7b4","","null","","","learningBlock1","","","","That was a wug.","null","","","","","",""
"html-keyboard-response","209","217965","0.0-5.0-2.67","FL","q963ed16o4","1920","1080","0","1","0","6006cf1238099707863fc7b4","","null","","","learningBlock1","","","","<div style=""font-size:60px;""> </div>","null","FL","learning/Slide68.JPG","That was a wug.","","",""
"image-keyboard-response","210","218142","0.0-5.0-0.68","FL","q963ed16o4","1920","1080","0","1","0","6006cf1238099707863fc7b4","","null","","","","","","","learning/Slide69.JPG","null","","","","","",""
"html-keyboard-response","211","219294","0.0-5.0-1.68","FL","q963ed16o4","1920","1080","0","1","0","6006cf1238099707863fc7b4","","null","","","learningBlock1","","","","That was a tob.","null","","","","","",""
"html-keyboard-response","212","220295","0.0-5.0-2.68","FL","q963ed16o4","1920","1080","0","1","0","6006cf1238099707863fc7b4","","null","","","learningBlock1","","","","<div style=""font-size:60px;""> </div>","null","FL","learning/Slide69.JPG","That was a tob.","","",""
"image-keyboard-response","213","220472","0.0-5.0-0.69","FL","q963ed16o4","1920","1080","0","1","0","6006cf1238099707863fc7b4","","null","","","","","","","learning/Slide70.JPG","null","","","","","",""
"html-keyboard-response","214","221625","0.0-5.0-1.69","FL","q963ed16o4","1920","1080","0","1","0","6006cf1238099707863fc7b4","","null","","","learningBlock1","","","","That was a dep.","null","","","","","",""
"html-keyboard-response","215","222627","0.0-5.0-2.69","FL","q963ed16o4","1920","1080","0","1","0","6006cf1238099707863fc7b4","","null","","","learningBlock1","","","","<div style=""font-size:60px;""> </div>","null","FL","learning/Slide70.JPG","That was a dep.","","",""
"image-keyboard-response","216","222804","0.0-5.0-0.70","FL","q963ed16o4","1920","1080","0","1","0","6006cf1238099707863fc7b4","","null","","","","","","","learning/Slide71.JPG","null","","","","","",""
"html-keyboard-response","217","223957","0.0-5.0-1.70","FL","q963ed16o4","1920","1080","0","1","0","6006cf1238099707863fc7b4","","null","","","learningBlock1","","","","That was a wug.","null","","","","","",""
"html-keyboard-response","218","224958","0.0-5.0-2.70","FL","q963ed16o4","1920","1080","0","1","0","6006cf1238099707863fc7b4","","null","","","learningBlock1","","","","<div style=""font-size:60px;""> </div>","null","FL","learning/Slide71.JPG","That was a wug.","","",""
"image-keyboard-response","219","225135","0.0-5.0-0.71","FL","q963ed16o4","1920","1080","0","1","0","6006cf1238099707863fc7b4","","null","","","","","","","learning/Slide72.JPG","null","","","","","",""
"html-keyboard-response","220","226288","0.0-5.0-1.71","FL","q963ed16o4","1920","1080","0","1","0","6006cf1238099707863fc7b4","","null","","","learningBlock1","","","","That was a bim.","null","","","","","",""
"html-keyboard-response","221","227289","0.0-5.0-2.71","FL","q963ed16o4","1920","1080","0","1","0","6006cf1238099707863fc7b4","","null","","","learningBlock1","","","","<div style=""font-size:60px;""> </div>","null","FL","learning/Slide72.JPG","That was a bim.","","",""
"image-keyboard-response","222","227465","0.0-5.0-0.72","FL","q963ed16o4","1920","1080","0","1","0","6006cf1238099707863fc7b4","","null","","","","","","","learning/Slide73.JPG","null","","","","","",""
"html-keyboard-response","223","228618","0.0-5.0-1.72","FL","q963ed16o4","1920","1080","0","1","0","6006cf1238099707863fc7b4","","null","","","learningBlock1","","","","That was a wug.","null","","","","","",""
"html-keyboard-response","224","229620","0.0-5.0-2.72","FL","q963ed16o4","1920","1080","0","1","0","6006cf1238099707863fc7b4","","null","","","learningBlock1","","","","<div style=""font-size:60px;""> </div>","null","FL","learning/Slide73.JPG","That was a wug.","","",""
"image-keyboard-response","225","229796","0.0-5.0-0.73","FL","q963ed16o4","1920","1080","0","1","0","6006cf1238099707863fc7b4","","null","","","","","","","learning/Slide74.JPG","null","","","","","",""
"html-keyboard-response","226","230950","0.0-5.0-1.73","FL","q963ed16o4","1920","1080","0","1","0","6006cf1238099707863fc7b4","","null","","","learningBlock1","","","","That was a dep.","null","","","","","",""
"html-keyboard-response","227","231951","0.0-5.0-2.73","FL","q963ed16o4","1920","1080","0","1","0","6006cf1238099707863fc7b4","","null","","","learningBlock1","","","","<div style=""font-size:60px;""> </div>","null","FL","learning/Slide74.JPG","That was a dep.","","",""
"image-keyboard-response","228","232128","0.0-5.0-0.74","FL","q963ed16o4","1920","1080","0","1","0","6006cf1238099707863fc7b4","","null","","","","","","","learning/Slide75.JPG","null","","","","","",""
"html-keyboard-response","229","233281","0.0-5.0-1.74","FL","q963ed16o4","1920","1080","0","1","0","6006cf1238099707863fc7b4","","null","","","learningBlock1","","","","That was a tob.","null","","","","","",""
"html-keyboard-response","230","234283","0.0-5.0-2.74","FL","q963ed16o4","1920","1080","0","1","0","6006cf1238099707863fc7b4","","null","","","learningBlock1","","","","<div style=""font-size:60px;""> </div>","null","FL","learning/Slide75.JPG","That was a tob.","","",""
"image-keyboard-response","231","234459","0.0-5.0-0.75","FL","q963ed16o4","1920","1080","0","1","0","6006cf1238099707863fc7b4","","null","","","","","","","learning/Slide76.JPG","null","","","","","",""
"html-keyboard-response","232","235612","0.0-5.0-1.75","FL","q963ed16o4","1920","1080","0","1","0","6006cf1238099707863fc7b4","","null","","","learningBlock1","","","","That was a bim.","null","","","","","",""
"html-keyboard-response","233","236613","0.0-5.0-2.75","FL","q963ed16o4","1920","1080","0","1","0","6006cf1238099707863fc7b4","","null","","","learningBlock1","","","","<div style=""font-size:60px;""> </div>","null","FL","learning/Slide76.JPG","That was a bim.","","",""
"image-keyboard-response","234","236788","0.0-5.0-0.76","FL","q963ed16o4","1920","1080","0","1","0","6006cf1238099707863fc7b4","","null","","","","","","","learning/Slide77.JPG","null","","","","","",""
"html-keyboard-response","235","237941","0.0-5.0-1.76","FL","q963ed16o4","1920","1080","0","1","0","6006cf1238099707863fc7b4","","null","","","learningBlock1","","","","That was a tob.","null","","","","","",""
"html-keyboard-response","236","238943","0.0-5.0-2.76","FL","q963ed16o4","1920","1080","0","1","0","6006cf1238099707863fc7b4","","null","","","learningBlock1","","","","<div style=""font-size:60px;""> </div>","null","FL","learning/Slide77.JPG","That was a tob.","","",""
"image-keyboard-response","237","239121","0.0-5.0-0.77","FL","q963ed16o4","1920","1080","0","1","0","6006cf1238099707863fc7b4","","null","","","","","","","learning/Slide78.JPG","null","","","","","",""
"html-keyboard-response","238","240273","0.0-5.0-1.77","FL","q963ed16o4","1920","1080","0","1","0","6006cf1238099707863fc7b4","","null","","","learningBlock1","","","","That was a wug.","null","","","","","",""
"html-keyboard-response","239","241274","0.0-5.0-2.77","FL","q963ed16o4","1920","1080","0","1","0","6006cf1238099707863fc7b4","","null","","","learningBlock1","","","","<div style=""font-size:60px;""> </div>","null","FL","learning/Slide78.JPG","That was a wug.","","",""
"image-keyboard-response","240","241450","0.0-5.0-0.78","FL","q963ed16o4","1920","1080","0","1","0","6006cf1238099707863fc7b4","","null","","","","","","","learning/Slide79.JPG","null","","","","","",""
"html-keyboard-response","241","242602","0.0-5.0-1.78","FL","q963ed16o4","1920","1080","0","1","0","6006cf1238099707863fc7b4","","null","","","learningBlock1","","","","That was a bim.","null","","","","","",""
"html-keyboard-response","242","243604","0.0-5.0-2.78","FL","q963ed16o4","1920","1080","0","1","0","6006cf1238099707863fc7b4","","null","","","learningBlock1","","","","<div style=""font-size:60px;""> </div>","null","FL","learning/Slide79.JPG","That was a bim.","","",""
"image-keyboard-response","243","243780","0.0-5.0-0.79","FL","q963ed16o4","1920","1080","0","1","0","6006cf1238099707863fc7b4","","null","","","","","","","learning/Slide80.JPG","null","","","","","",""
"html-keyboard-response","244","244932","0.0-5.0-1.79","FL","q963ed16o4","1920","1080","0","1","0","6006cf1238099707863fc7b4","","null","","","learningBlock1","","","","That was a tob.","null","","","","","",""
"html-keyboard-response","245","245934","0.0-5.0-2.79","FL","q963ed16o4","1920","1080","0","1","0","6006cf1238099707863fc7b4","","null","","","learningBlock1","","","","<div style=""font-size:60px;""> </div>","null","FL","learning/Slide80.JPG","That was a tob.","","",""
"instructions","246","248512","0.0-6.0","FL","q963ed16o4","1920","1080","0","1","0","6006cf1238099707863fc7b4","","NA","","[{""page_index"":0,""viewing_time"":2577.615000000136}]","instructions","","","","","","","","","","",""
"image-keyboard-response","247","248688","0.0-7.0-0.0","FL","q963ed16o4","1920","1080","0","1","0","6006cf1238099707863fc7b4","","null","","","","","","","learning/Slide81.JPG","null","","","","","",""
"html-keyboard-response","248","249840","0.0-7.0-1.0","FL","q963ed16o4","1920","1080","0","1","0","6006cf1238099707863fc7b4","","null","","","learningBlock2","","","","That was a wug.","null","","","","","",""
"html-keyboard-response","249","250842","0.0-7.0-2.0","FL","q963ed16o4","1920","1080","0","1","0","6006cf1238099707863fc7b4","","null","","","learningBlock2","","","","<div style=""font-size:60px;""> </div>","null","FL","learning/Slide81.JPG","That was a wug.","","",""
"image-keyboard-response","250","251018","0.0-7.0-0.1","FL","q963ed16o4","1920","1080","0","1","0","6006cf1238099707863fc7b4","","null","","","","","","","learning/Slide82.JPG","null","","","","","",""
"html-keyboard-response","251","252171","0.0-7.0-1.1","FL","q963ed16o4","1920","1080","0","1","0","6006cf1238099707863fc7b4","","null","","","learningBlock2","","","","That was a bim.","null","","","","","",""
"html-keyboard-response","252","253172","0.0-7.0-2.1","FL","q963ed16o4","1920","1080","0","1","0","6006cf1238099707863fc7b4","","null","","","learningBlock2","","","","<div style=""font-size:60px;""> </div>","null","FL","learning/Slide82.JPG","That was a bim.","","",""
"image-keyboard-response","253","253348","0.0-7.0-0.2","FL","q963ed16o4","1920","1080","0","1","0","6006cf1238099707863fc7b4","","null","","","","","","","learning/Slide83.JPG","null","","","","","",""
"html-keyboard-response","254","254501","0.0-7.0-1.2","FL","q963ed16o4","1920","1080","0","1","0","6006cf1238099707863fc7b4","","null","","","learningBlock2","","","","That was a wug.","null","","","","","",""
"html-keyboard-response","255","255503","0.0-7.0-2.2","FL","q963ed16o4","1920","1080","0","1","0","6006cf1238099707863fc7b4","","null","","","learningBlock2","","","","<div style=""font-size:60px;""> </div>","null","FL","learning/Slide83.JPG","That was a wug.","","",""
"image-keyboard-response","256","255679","0.0-7.0-0.3","FL","q963ed16o4","1920","1080","0","1","0","6006cf1238099707863fc7b4","","null","","","","","","","learning/Slide84.JPG","null","","","","","",""
"html-keyboard-response","257","256831","0.0-7.0-1.3","FL","q963ed16o4","1920","1080","0","1","0","6006cf1238099707863fc7b4","","null","","","learningBlock2","","","","That was a dep.","null","","","","","",""
"html-keyboard-response","258","257832","0.0-7.0-2.3","FL","q963ed16o4","1920","1080","0","1","0","6006cf1238099707863fc7b4","","null","","","learningBlock2","","","","<div style=""font-size:60px;""> </div>","null","FL","learning/Slide84.JPG","That was a dep.","","",""
"image-keyboard-response","259","258008","0.0-7.0-0.4","FL","q963ed16o4","1920","1080","0","1","0","6006cf1238099707863fc7b4","","null","","","","","","","learning/Slide85.JPG","null","","","","","",""
"html-keyboard-response","260","259160","0.0-7.0-1.4","FL","q963ed16o4","1920","1080","0","1","0","6006cf1238099707863fc7b4","","null","","","learningBlock2","","","","That was a bim.","null","","","","","",""
"html-keyboard-response","261","260161","0.0-7.0-2.4","FL","q963ed16o4","1920","1080","0","1","0","6006cf1238099707863fc7b4","","null","","","learningBlock2","","","","<div style=""font-size:60px;""> </div>","null","FL","learning/Slide85.JPG","That was a bim.","","",""
"image-keyboard-response","262","260338","0.0-7.0-0.5","FL","q963ed16o4","1920","1080","0","1","0","6006cf1238099707863fc7b4","","null","","","","","","","learning/Slide86.JPG","null","","","","","",""
"html-keyboard-response","263","261491","0.0-7.0-1.5","FL","q963ed16o4","1920","1080","0","1","0","6006cf1238099707863fc7b4","","null","","","learningBlock2","","","","That was a tob.","null","","","","","",""
"html-keyboard-response","264","262492","0.0-7.0-2.5","FL","q963ed16o4","1920","1080","0","1","0","6006cf1238099707863fc7b4","","null","","","learningBlock2","","","","<div style=""font-size:60px;""> </div>","null","FL","learning/Slide86.JPG","That was a tob.","","",""
"image-keyboard-response","265","262668","0.0-7.0-0.6","FL","q963ed16o4","1920","1080","0","1","0","6006cf1238099707863fc7b4","","null","","","","","","","learning/Slide87.JPG","null","","","","","",""
"html-keyboard-response","266","263821","0.0-7.0-1.6","FL","q963ed16o4","1920","1080","0","1","0","6006cf1238099707863fc7b4","","null","","","learningBlock2","","","","That was a wug.","null","","","","","",""
"html-keyboard-response","267","264822","0.0-7.0-2.6","FL","q963ed16o4","1920","1080","0","1","0","6006cf1238099707863fc7b4","","null","","","learningBlock2","","","","<div style=""font-size:60px;""> </div>","null","FL","learning/Slide87.JPG","That was a wug.","","",""
"image-keyboard-response","268","264999","0.0-7.0-0.7","FL","q963ed16o4","1920","1080","0","1","0","6006cf1238099707863fc7b4","","null","","","","","","","learning/Slide88.JPG","null","","","","","",""
"html-keyboard-response","269","266150","0.0-7.0-1.7","FL","q963ed16o4","1920","1080","0","1","0","6006cf1238099707863fc7b4","","null","","","learningBlock2","","","","That was a tob.","null","","","","","",""
"html-keyboard-response","270","267152","0.0-7.0-2.7","FL","q963ed16o4","1920","1080","0","1","0","6006cf1238099707863fc7b4","","null","","","learningBlock2","","","","<div style=""font-size:60px;""> </div>","null","FL","learning/Slide88.JPG","That was a tob.","","",""
"image-keyboard-response","271","267329","0.0-7.0-0.8","FL","q963ed16o4","1920","1080","0","1","0","6006cf1238099707863fc7b4","","null","","","","","","","learning/Slide89.JPG","null","","","","","",""
"html-keyboard-response","272","268481","0.0-7.0-1.8","FL","q963ed16o4","1920","1080","0","1","0","6006cf1238099707863fc7b4","","null","","","learningBlock2","","","","That was a bim.","null","","","","","",""
"html-keyboard-response","273","269483","0.0-7.0-2.8","FL","q963ed16o4","1920","1080","0","1","0","6006cf1238099707863fc7b4","","null","","","learningBlock2","","","","<div style=""font-size:60px;""> </div>","null","FL","learning/Slide89.JPG","That was a bim.","","",""
"image-keyboard-response","274","269659","0.0-7.0-0.9","FL","q963ed16o4","1920","1080","0","1","0","6006cf1238099707863fc7b4","","null","","","","","","","learning/Slide90.JPG","null","","","","","",""
"html-keyboard-response","275","270812","0.0-7.0-1.9","FL","q963ed16o4","1920","1080","0","1","0","6006cf1238099707863fc7b4","","null","","","learningBlock2","","","","That was a dep.","null","","","","","",""
"html-keyboard-response","276","271814","0.0-7.0-2.9","FL","q963ed16o4","1920","1080","0","1","0","6006cf1238099707863fc7b4","","null","","","learningBlock2","","","","<div style=""font-size:60px;""> </div>","null","FL","learning/Slide90.JPG","That was a dep.","","",""
"image-keyboard-response","277","271990","0.0-7.0-0.10","FL","q963ed16o4","1920","1080","0","1","0","6006cf1238099707863fc7b4","","null","","","","","","","learning/Slide91.JPG","null","","","","","",""
"html-keyboard-response","278","273142","0.0-7.0-1.10","FL","q963ed16o4","1920","1080","0","1","0","6006cf1238099707863fc7b4","","null","","","learningBlock2","","","","That was a wug.","null","","","","","",""
"html-keyboard-response","279","274143","0.0-7.0-2.10","FL","q963ed16o4","1920","1080","0","1","0","6006cf1238099707863fc7b4","","null","","","learningBlock2","","","","<div style=""font-size:60px;""> </div>","null","FL","learning/Slide91.JPG","That was a wug.","","",""
"image-keyboard-response","280","274320","0.0-7.0-0.11","FL","q963ed16o4","1920","1080","0","1","0","6006cf1238099707863fc7b4","","null","","","","","","","learning/Slide92.JPG","null","","","","","",""
"html-keyboard-response","281","275472","0.0-7.0-1.11","FL","q963ed16o4","1920","1080","0","1","0","6006cf1238099707863fc7b4","","null","","","learningBlock2","","","","That was a tob.","null","","","","","",""
"html-keyboard-response","282","276474","0.0-7.0-2.11","FL","q963ed16o4","1920","1080","0","1","0","6006cf1238099707863fc7b4","","null","","","learningBlock2","","","","<div style=""font-size:60px;""> </div>","null","FL","learning/Slide92.JPG","That was a tob.","","",""
"image-keyboard-response","283","276651","0.0-7.0-0.12","FL","q963ed16o4","1920","1080","0","1","0","6006cf1238099707863fc7b4","","null","","","","","","","learning/Slide93.JPG","null","","","","","",""
"html-keyboard-response","284","277804","0.0-7.0-1.12","FL","q963ed16o4","1920","1080","0","1","0","6006cf1238099707863fc7b4","","null","","","learningBlock2","","","","That was a bim.","null","","","","","",""
"html-keyboard-response","285","278806","0.0-7.0-2.12","FL","q963ed16o4","1920","1080","0","1","0","6006cf1238099707863fc7b4","","null","","","learningBlock2","","","","<div style=""font-size:60px;""> </div>","null","FL","learning/Slide93.JPG","That was a bim.","","",""
"image-keyboard-response","286","278983","0.0-7.0-0.13","FL","q963ed16o4","1920","1080","0","1","0","6006cf1238099707863fc7b4","","null","","","","","","","learning/Slide94.JPG","null","","","","","",""
"html-keyboard-response","287","280135","0.0-7.0-1.13","FL","q963ed16o4","1920","1080","0","1","0","6006cf1238099707863fc7b4","","null","","","learningBlock2","","","","That was a tob.","null","","","","","",""
"html-keyboard-response","288","281136","0.0-7.0-2.13","FL","q963ed16o4","1920","1080","0","1","0","6006cf1238099707863fc7b4","","null","","","learningBlock2","","","","<div style=""font-size:60px;""> </div>","null","FL","learning/Slide94.JPG","That was a tob.","","",""
"image-keyboard-response","289","281312","0.0-7.0-0.14","FL","q963ed16o4","1920","1080","0","1","0","6006cf1238099707863fc7b4","","null","","","","","","","learning/Slide95.JPG","null","","","","","",""
"html-keyboard-response","290","282463","0.0-7.0-1.14","FL","q963ed16o4","1920","1080","0","1","0","6006cf1238099707863fc7b4","","null","","","learningBlock2","","","","That was a wug.","null","","","","","",""
"html-keyboard-response","291","283465","0.0-7.0-2.14","FL","q963ed16o4","1920","1080","0","1","0","6006cf1238099707863fc7b4","","null","","","learningBlock2","","","","<div style=""font-size:60px;""> </div>","null","FL","learning/Slide95.JPG","That was a wug.","","",""
"image-keyboard-response","292","283641","0.0-7.0-0.15","FL","q963ed16o4","1920","1080","0","1","0","6006cf1238099707863fc7b4","","null","","","","","","","learning/Slide96.JPG","null","","","","","",""
"html-keyboard-response","293","284793","0.0-7.0-1.15","FL","q963ed16o4","1920","1080","0","1","0","6006cf1238099707863fc7b4","","null","","","learningBlock2","","","","That was a tob.","null","","","","","",""
"html-keyboard-response","294","285795","0.0-7.0-2.15","FL","q963ed16o4","1920","1080","0","1","0","6006cf1238099707863fc7b4","","null","","","learningBlock2","","","","<div style=""font-size:60px;""> </div>","null","FL","learning/Slide96.JPG","That was a tob.","","",""
"image-keyboard-response","295","285971","0.0-7.0-0.16","FL","q963ed16o4","1920","1080","0","1","0","6006cf1238099707863fc7b4","","null","","","","","","","learning/Slide97.JPG","null","","","","","",""
"html-keyboard-response","296","287124","0.0-7.0-1.16","FL","q963ed16o4","1920","1080","0","1","0","6006cf1238099707863fc7b4","","null","","","learningBlock2","","","","That was a dep.","null","","","","","",""
"html-keyboard-response","297","288125","0.0-7.0-2.16","FL","q963ed16o4","1920","1080","0","1","0","6006cf1238099707863fc7b4","","null","","","learningBlock2","","","","<div style=""font-size:60px;""> </div>","null","FL","learning/Slide97.JPG","That was a dep.","","",""
"image-keyboard-response","298","288303","0.0-7.0-0.17","FL","q963ed16o4","1920","1080","0","1","0","6006cf1238099707863fc7b4","","null","","","","","","","learning/Slide98.JPG","null","","","","","",""
"html-keyboard-response","299","289455","0.0-7.0-1.17","FL","q963ed16o4","1920","1080","0","1","0","6006cf1238099707863fc7b4","","null","","","learningBlock2","","","","That was a bim.","null","","","","","",""
"html-keyboard-response","300","290456","0.0-7.0-2.17","FL","q963ed16o4","1920","1080","0","1","0","6006cf1238099707863fc7b4","","null","","","learningBlock2","","","","<div style=""font-size:60px;""> </div>","null","FL","learning/Slide98.JPG","That was a bim.","","",""
"image-keyboard-response","301","290632","0.0-7.0-0.18","FL","q963ed16o4","1920","1080","0","1","0","6006cf1238099707863fc7b4","","null","","","","","","","learning/Slide99.JPG","null","","","","","",""
"html-keyboard-response","302","291784","0.0-7.0-1.18","FL","q963ed16o4","1920","1080","0","1","0","6006cf1238099707863fc7b4","","null","","","learningBlock2","","","","That was a dep.","null","","","","","",""
"html-keyboard-response","303","292786","0.0-7.0-2.18","FL","q963ed16o4","1920","1080","0","1","0","6006cf1238099707863fc7b4","","null","","","learningBlock2","","","","<div style=""font-size:60px;""> </div>","null","FL","learning/Slide99.JPG","That was a dep.","","",""
"image-keyboard-response","304","292962","0.0-7.0-0.19","FL","q963ed16o4","1920","1080","0","1","0","6006cf1238099707863fc7b4","","null","","","","","","","learning/Slide100.JPG","null","","","","","",""
"html-keyboard-response","305","294114","0.0-7.0-1.19","FL","q963ed16o4","1920","1080","0","1","0","6006cf1238099707863fc7b4","","null","","","learningBlock2","","","","That was a bim.","null","","","","","",""
"html-keyboard-response","306","295115","0.0-7.0-2.19","FL","q963ed16o4","1920","1080","0","1","0","6006cf1238099707863fc7b4","","null","","","learningBlock2","","","","<div style=""font-size:60px;""> </div>","null","FL","learning/Slide100.JPG","That was a bim.","","",""
"image-keyboard-response","307","295291","0.0-7.0-0.20","FL","q963ed16o4","1920","1080","0","1","0","6006cf1238099707863fc7b4","","null","","","","","","","learning/Slide101.JPG","null","","","","","",""
"html-keyboard-response","308","296443","0.0-7.0-1.20","FL","q963ed16o4","1920","1080","0","1","0","6006cf1238099707863fc7b4","","null","","","learningBlock2","","","","That was a tob.","null","","","","","",""
"html-keyboard-response","309","297445","0.0-7.0-2.20","FL","q963ed16o4","1920","1080","0","1","0","6006cf1238099707863fc7b4","","null","","","learningBlock2","","","","<div style=""font-size:60px;""> </div>","null","FL","learning/Slide101.JPG","That was a tob.","","",""
"image-keyboard-response","310","297621","0.0-7.0-0.21","FL","q963ed16o4","1920","1080","0","1","0","6006cf1238099707863fc7b4","","null","","","","","","","learning/Slide102.JPG","null","","","","","",""
"html-keyboard-response","311","298773","0.0-7.0-1.21","FL","q963ed16o4","1920","1080","0","1","0","6006cf1238099707863fc7b4","","null","","","learningBlock2","","","","That was a bim.","null","","","","","",""
"html-keyboard-response","312","299774","0.0-7.0-2.21","FL","q963ed16o4","1920","1080","0","1","0","6006cf1238099707863fc7b4","","null","","","learningBlock2","","","","<div style=""font-size:60px;""> </div>","null","FL","learning/Slide102.JPG","That was a bim.","","",""
"image-keyboard-response","313","299950","0.0-7.0-0.22","FL","q963ed16o4","1920","1080","0","1","0","6006cf1238099707863fc7b4","","null","","","","","","","learning/Slide103.JPG","null","","","","","",""
"html-keyboard-response","314","301103","0.0-7.0-1.22","FL","q963ed16o4","1920","1080","0","1","0","6006cf1238099707863fc7b4","","null","","","learningBlock2","","","","That was a dep.","null","","","","","",""
"html-keyboard-response","315","302104","0.0-7.0-2.22","FL","q963ed16o4","1920","1080","0","1","0","6006cf1238099707863fc7b4","","null","","","learningBlock2","","","","<div style=""font-size:60px;""> </div>","null","FL","learning/Slide103.JPG","That was a dep.","","",""
"image-keyboard-response","316","302280","0.0-7.0-0.23","FL","q963ed16o4","1920","1080","0","1","0","6006cf1238099707863fc7b4","","null","","","","","","","learning/Slide104.JPG","null","","","","","",""
"html-keyboard-response","317","303431","0.0-7.0-1.23","FL","q963ed16o4","1920","1080","0","1","0","6006cf1238099707863fc7b4","","null","","","learningBlock2","","","","That was a tob.","null","","","","","",""
"html-keyboard-response","318","304434","0.0-7.0-2.23","FL","q963ed16o4","1920","1080","0","1","0","6006cf1238099707863fc7b4","","null","","","learningBlock2","","","","<div style=""font-size:60px;""> </div>","null","FL","learning/Slide104.JPG","That was a tob.","","",""
"image-keyboard-response","319","304610","0.0-7.0-0.24","FL","q963ed16o4","1920","1080","0","1","0","6006cf1238099707863fc7b4","","null","","","","","","","learning/Slide105.JPG","null","","","","","",""
"html-keyboard-response","320","305763","0.0-7.0-1.24","FL","q963ed16o4","1920","1080","0","1","0","6006cf1238099707863fc7b4","","null","","","learningBlock2","","","","That was a dep.","null","","","","","",""
"html-keyboard-response","321","306764","0.0-7.0-2.24","FL","q963ed16o4","1920","1080","0","1","0","6006cf1238099707863fc7b4","","null","","","learningBlock2","","","","<div style=""font-size:60px;""> </div>","null","FL","learning/Slide105.JPG","That was a dep.","","",""
"image-keyboard-response","322","306941","0.0-7.0-0.25","FL","q963ed16o4","1920","1080","0","1","0","6006cf1238099707863fc7b4","","null","","","","","","","learning/Slide106.JPG","null","","","","","",""
"html-keyboard-response","323","308094","0.0-7.0-1.25","FL","q963ed16o4","1920","1080","0","1","0","6006cf1238099707863fc7b4","","null","","","learningBlock2","","","","That was a wug.","null","","","","","",""
"html-keyboard-response","324","309095","0.0-7.0-2.25","FL","q963ed16o4","1920","1080","0","1","0","6006cf1238099707863fc7b4","","null","","","learningBlock2","","","","<div style=""font-size:60px;""> </div>","null","FL","learning/Slide106.JPG","That was a wug.","","",""
"image-keyboard-response","325","309272","0.0-7.0-0.26","FL","q963ed16o4","1920","1080","0","1","0","6006cf1238099707863fc7b4","","null","","","","","","","learning/Slide107.JPG","null","","","","","",""
"html-keyboard-response","326","310424","0.0-7.0-1.26","FL","q963ed16o4","1920","1080","0","1","0","6006cf1238099707863fc7b4","","null","","","learningBlock2","","","","That was a bim.","null","","","","","",""
"html-keyboard-response","327","311425","0.0-7.0-2.26","FL","q963ed16o4","1920","1080","0","1","0","6006cf1238099707863fc7b4","","null","","","learningBlock2","","","","<div style=""font-size:60px;""> </div>","null","FL","learning/Slide107.JPG","That was a bim.","","",""
"image-keyboard-response","328","311602","0.0-7.0-0.27","FL","q963ed16o4","1920","1080","0","1","0","6006cf1238099707863fc7b4","","null","","","","","","","learning/Slide108.JPG","null","","","","","",""
"html-keyboard-response","329","312753","0.0-7.0-1.27","FL","q963ed16o4","1920","1080","0","1","0","6006cf1238099707863fc7b4","","null","","","learningBlock2","","","","That was a dep.","null","","","","","",""
"html-keyboard-response","330","313755","0.0-7.0-2.27","FL","q963ed16o4","1920","1080","0","1","0","6006cf1238099707863fc7b4","","null","","","learningBlock2","","","","<div style=""font-size:60px;""> </div>","null","FL","learning/Slide108.JPG","That was a dep.","","",""
"image-keyboard-response","331","313932","0.0-7.0-0.28","FL","q963ed16o4","1920","1080","0","1","0","6006cf1238099707863fc7b4","","null","","","","","","","learning/Slide109.JPG","null","","","","","",""
"html-keyboard-response","332","315085","0.0-7.0-1.28","FL","q963ed16o4","1920","1080","0","1","0","6006cf1238099707863fc7b4","","null","","","learningBlock2","","","","That was a wug.","null","","","","","",""
"html-keyboard-response","333","316085","0.0-7.0-2.28","FL","q963ed16o4","1920","1080","0","1","0","6006cf1238099707863fc7b4","","null","","","learningBlock2","","","","<div style=""font-size:60px;""> </div>","null","FL","learning/Slide109.JPG","That was a wug.","","",""
"image-keyboard-response","334","316262","0.0-7.0-0.29","FL","q963ed16o4","1920","1080","0","1","0","6006cf1238099707863fc7b4","","null","","","","","","","learning/Slide110.JPG","null","","","","","",""
"html-keyboard-response","335","317415","0.0-7.0-1.29","FL","q963ed16o4","1920","1080","0","1","0","6006cf1238099707863fc7b4","","null","","","learningBlock2","","","","That was a bim.","null","","","","","",""
"html-keyboard-response","336","318416","0.0-7.0-2.29","FL","q963ed16o4","1920","1080","0","1","0","6006cf1238099707863fc7b4","","null","","","learningBlock2","","","","<div style=""font-size:60px;""> </div>","null","FL","learning/Slide110.JPG","That was a bim.","","",""
"image-keyboard-response","337","318593","0.0-7.0-0.30","FL","q963ed16o4","1920","1080","0","1","0","6006cf1238099707863fc7b4","","null","","","","","","","learning/Slide111.JPG","null","","","","","",""
"html-keyboard-response","338","319746","0.0-7.0-1.30","FL","q963ed16o4","1920","1080","0","1","0","6006cf1238099707863fc7b4","","null","","","learningBlock2","","","","That was a tob.","null","","","","","",""
"html-keyboard-response","339","320747","0.0-7.0-2.30","FL","q963ed16o4","1920","1080","0","1","0","6006cf1238099707863fc7b4","","null","","","learningBlock2","","","","<div style=""font-size:60px;""> </div>","null","FL","learning/Slide111.JPG","That was a tob.","","",""
"image-keyboard-response","340","320924","0.0-7.0-0.31","FL","q963ed16o4","1920","1080","0","1","0","6006cf1238099707863fc7b4","","null","","","","","","","learning/Slide112.JPG","null","","","","","",""
"html-keyboard-response","341","322076","0.0-7.0-1.31","FL","q963ed16o4","1920","1080","0","1","0","6006cf1238099707863fc7b4","","null","","","learningBlock2","","","","That was a wug.","null","","","","","",""
"html-keyboard-response","342","323077","0.0-7.0-2.31","FL","q963ed16o4","1920","1080","0","1","0","6006cf1238099707863fc7b4","","null","","","learningBlock2","","","","<div style=""font-size:60px;""> </div>","null","FL","learning/Slide112.JPG","That was a wug.","","",""
"image-keyboard-response","343","323254","0.0-7.0-0.32","FL","q963ed16o4","1920","1080","0","1","0","6006cf1238099707863fc7b4","","null","","","","","","","learning/Slide113.JPG","null","","","","","",""
"html-keyboard-response","344","324406","0.0-7.0-1.32","FL","q963ed16o4","1920","1080","0","1","0","6006cf1238099707863fc7b4","","null","","","learningBlock2","","","","That was a tob.","null","","","","","",""
"html-keyboard-response","345","325407","0.0-7.0-2.32","FL","q963ed16o4","1920","1080","0","1","0","6006cf1238099707863fc7b4","","null","","","learningBlock2","","","","<div style=""font-size:60px;""> </div>","null","FL","learning/Slide113.JPG","That was a tob.","","",""
"image-keyboard-response","346","325584","0.0-7.0-0.33","FL","q963ed16o4","1920","1080","0","1","0","6006cf1238099707863fc7b4","","null","","","","","","","learning/Slide114.JPG","null","","","","","",""
"html-keyboard-response","347","326735","0.0-7.0-1.33","FL","q963ed16o4","1920","1080","0","1","0","6006cf1238099707863fc7b4","","null","","","learningBlock2","","","","That was a wug.","null","","","","","",""
"html-keyboard-response","348","327737","0.0-7.0-2.33","FL","q963ed16o4","1920","1080","0","1","0","6006cf1238099707863fc7b4","","null","","","learningBlock2","","","","<div style=""font-size:60px;""> </div>","null","FL","learning/Slide114.JPG","That was a wug.","","",""
"image-keyboard-response","349","327915","0.0-7.0-0.34","FL","q963ed16o4","1920","1080","0","1","0","6006cf1238099707863fc7b4","","null","","","","","","","learning/Slide115.JPG","null","","","","","",""
"html-keyboard-response","350","329066","0.0-7.0-1.34","FL","q963ed16o4","1920","1080","0","1","0","6006cf1238099707863fc7b4","","null","","","learningBlock2","","","","That was a bim.","null","","","","","",""
"html-keyboard-response","351","330068","0.0-7.0-2.34","FL","q963ed16o4","1920","1080","0","1","0","6006cf1238099707863fc7b4","","null","","","learningBlock2","","","","<div style=""font-size:60px;""> </div>","null","FL","learning/Slide115.JPG","That was a bim.","","",""
"image-keyboard-response","352","330244","0.0-7.0-0.35","FL","q963ed16o4","1920","1080","0","1","0","6006cf1238099707863fc7b4","","null","","","","","","","learning/Slide116.JPG","null","","","","","",""
"html-keyboard-response","353","331397","0.0-7.0-1.35","FL","q963ed16o4","1920","1080","0","1","0","6006cf1238099707863fc7b4","","null","","","learningBlock2","","","","That was a dep.","null","","","","","",""
"html-keyboard-response","354","332398","0.0-7.0-2.35","FL","q963ed16o4","1920","1080","0","1","0","6006cf1238099707863fc7b4","","null","","","learningBlock2","","","","<div style=""font-size:60px;""> </div>","null","FL","learning/Slide116.JPG","That was a dep.","","",""
"image-keyboard-response","355","332574","0.0-7.0-0.36","FL","q963ed16o4","1920","1080","0","1","0","6006cf1238099707863fc7b4","","null","","","","","","","learning/Slide117.JPG","null","","","","","",""
"html-keyboard-response","356","333727","0.0-7.0-1.36","FL","q963ed16o4","1920","1080","0","1","0","6006cf1238099707863fc7b4","","null","","","learningBlock2","","","","That was a tob.","null","","","","","",""
"html-keyboard-response","357","334730","0.0-7.0-2.36","FL","q963ed16o4","1920","1080","0","1","0","6006cf1238099707863fc7b4","","null","","","learningBlock2","","","","<div style=""font-size:60px;""> </div>","null","FL","learning/Slide117.JPG","That was a tob.","","",""
"image-keyboard-response","358","334906","0.0-7.0-0.37","FL","q963ed16o4","1920","1080","0","1","0","6006cf1238099707863fc7b4","","null","","","","","","","learning/Slide118.JPG","null","","","","","",""
"html-keyboard-response","359","336057","0.0-7.0-1.37","FL","q963ed16o4","1920","1080","0","1","0","6006cf1238099707863fc7b4","","null","","","learningBlock2","","","","That was a dep.","null","","","","","",""
"html-keyboard-response","360","337059","0.0-7.0-2.37","FL","q963ed16o4","1920","1080","0","1","0","6006cf1238099707863fc7b4","","null","","","learningBlock2","","","","<div style=""font-size:60px;""> </div>","null","FL","learning/Slide118.JPG","That was a dep.","","",""
"image-keyboard-response","361","337235","0.0-7.0-0.38","FL","q963ed16o4","1920","1080","0","1","0","6006cf1238099707863fc7b4","","null","","","","","","","learning/Slide119.JPG","null","","","","","",""
"html-keyboard-response","362","338388","0.0-7.0-1.38","FL","q963ed16o4","1920","1080","0","1","0","6006cf1238099707863fc7b4","","null","","","learningBlock2","","","","That was a wug.","null","","","","","",""
"html-keyboard-response","363","339390","0.0-7.0-2.38","FL","q963ed16o4","1920","1080","0","1","0","6006cf1238099707863fc7b4","","null","","","learningBlock2","","","","<div style=""font-size:60px;""> </div>","null","FL","learning/Slide119.JPG","That was a wug.","","",""
"image-keyboard-response","364","339566","0.0-7.0-0.39","FL","q963ed16o4","1920","1080","0","1","0","6006cf1238099707863fc7b4","","null","","","","","","","learning/Slide120.JPG","null","","","","","",""
"html-keyboard-response","365","340719","0.0-7.0-1.39","FL","q963ed16o4","1920","1080","0","1","0","6006cf1238099707863fc7b4","","null","","","learningBlock2","","","","That was a dep.","null","","","","","",""
"html-keyboard-response","366","341721","0.0-7.0-2.39","FL","q963ed16o4","1920","1080","0","1","0","6006cf1238099707863fc7b4","","null","","","learningBlock2","","","","<div style=""font-size:60px;""> </div>","null","FL","learning/Slide120.JPG","That was a dep.","","",""
"image-keyboard-response","367","341898","0.0-7.0-0.40","FL","q963ed16o4","1920","1080","0","1","0","6006cf1238099707863fc7b4","","null","","","","","","","learning/Slide121.JPG","null","","","","","",""
"html-keyboard-response","368","343050","0.0-7.0-1.40","FL","q963ed16o4","1920","1080","0","1","0","6006cf1238099707863fc7b4","","null","","","learningBlock2","","","","That was a bim.","null","","","","","",""
"html-keyboard-response","369","344051","0.0-7.0-2.40","FL","q963ed16o4","1920","1080","0","1","0","6006cf1238099707863fc7b4","","null","","","learningBlock2","","","","<div style=""font-size:60px;""> </div>","null","FL","learning/Slide121.JPG","That was a bim.","","",""
"image-keyboard-response","370","344227","0.0-7.0-0.41","FL","q963ed16o4","1920","1080","0","1","0","6006cf1238099707863fc7b4","","null","","","","","","","learning/Slide122.JPG","null","","","","","",""
"html-keyboard-response","371","345379","0.0-7.0-1.41","FL","q963ed16o4","1920","1080","0","1","0","6006cf1238099707863fc7b4","","null","","","learningBlock2","","","","That was a wug.","null","","","","","",""
"html-keyboard-response","372","346380","0.0-7.0-2.41","FL","q963ed16o4","1920","1080","0","1","0","6006cf1238099707863fc7b4","","null","","","learningBlock2","","","","<div style=""font-size:60px;""> </div>","null","FL","learning/Slide122.JPG","That was a wug.","","",""
"image-keyboard-response","373","346557","0.0-7.0-0.42","FL","q963ed16o4","1920","1080","0","1","0","6006cf1238099707863fc7b4","","null","","","","","","","learning/Slide123.JPG","null","","","","","",""
"html-keyboard-response","374","347710","0.0-7.0-1.42","FL","q963ed16o4","1920","1080","0","1","0","6006cf1238099707863fc7b4","","null","","","learningBlock2","","","","That was a bim.","null","","","","","",""
"html-keyboard-response","375","348711","0.0-7.0-2.42","FL","q963ed16o4","1920","1080","0","1","0","6006cf1238099707863fc7b4","","null","","","learningBlock2","","","","<div style=""font-size:60px;""> </div>","null","FL","learning/Slide123.JPG","That was a bim.","","",""
"image-keyboard-response","376","348887","0.0-7.0-0.43","FL","q963ed16o4","1920","1080","0","1","0","6006cf1238099707863fc7b4","","null","","","","","","","learning/Slide124.JPG","null","","","","","",""
"html-keyboard-response","377","350039","0.0-7.0-1.43","FL","q963ed16o4","1920","1080","0","1","0","6006cf1238099707863fc7b4","","null","","","learningBlock2","","","","That was a tob.","null","","","","","",""
"html-keyboard-response","378","351041","0.0-7.0-2.43","FL","q963ed16o4","1920","1080","0","1","0","6006cf1238099707863fc7b4","","null","","","learningBlock2","","","","<div style=""font-size:60px;""> </div>","null","FL","learning/Slide124.JPG","That was a tob.","","",""
"image-keyboard-response","379","351217","0.0-7.0-0.44","FL","q963ed16o4","1920","1080","0","1","0","6006cf1238099707863fc7b4","","null","","","","","","","learning/Slide125.JPG","null","","","","","",""
"html-keyboard-response","380","352370","0.0-7.0-1.44","FL","q963ed16o4","1920","1080","0","1","0","6006cf1238099707863fc7b4","","null","","","learningBlock2","","","","That was a bim.","null","","","","","",""
"html-keyboard-response","381","353371","0.0-7.0-2.44","FL","q963ed16o4","1920","1080","0","1","0","6006cf1238099707863fc7b4","","null","","","learningBlock2","","","","<div style=""font-size:60px;""> </div>","null","FL","learning/Slide125.JPG","That was a bim.","","",""
"image-keyboard-response","382","353547","0.0-7.0-0.45","FL","q963ed16o4","1920","1080","0","1","0","6006cf1238099707863fc7b4","","null","","","","","","","learning/Slide126.JPG","null","","","","","",""
"html-keyboard-response","383","354699","0.0-7.0-1.45","FL","q963ed16o4","1920","1080","0","1","0","6006cf1238099707863fc7b4","","null","","","learningBlock2","","","","That was a tob.","null","","","","","",""
"html-keyboard-response","384","355700","0.0-7.0-2.45","FL","q963ed16o4","1920","1080","0","1","0","6006cf1238099707863fc7b4","","null","","","learningBlock2","","","","<div style=""font-size:60px;""> </div>","null","FL","learning/Slide126.JPG","That was a tob.","","",""
"image-keyboard-response","385","355877","0.0-7.0-0.46","FL","q963ed16o4","1920","1080","0","1","0","6006cf1238099707863fc7b4","","null","","","","","","","learning/Slide127.JPG","null","","","","","",""
"html-keyboard-response","386","357029","0.0-7.0-1.46","FL","q963ed16o4","1920","1080","0","1","0","6006cf1238099707863fc7b4","","null","","","learningBlock2","","","","That was a dep.","null","","","","","",""
"html-keyboard-response","387","358030","0.0-7.0-2.46","FL","q963ed16o4","1920","1080","0","1","0","6006cf1238099707863fc7b4","","null","","","learningBlock2","","","","<div style=""font-size:60px;""> </div>","null","FL","learning/Slide127.JPG","That was a dep.","","",""
"image-keyboard-response","388","358206","0.0-7.0-0.47","FL","q963ed16o4","1920","1080","0","1","0","6006cf1238099707863fc7b4","","null","","","","","","","learning/Slide128.JPG","null","","","","","",""
"html-keyboard-response","389","359358","0.0-7.0-1.47","FL","q963ed16o4","1920","1080","0","1","0","6006cf1238099707863fc7b4","","null","","","learningBlock2","","","","That was a wug.","null","","","","","",""
"html-keyboard-response","390","360360","0.0-7.0-2.47","FL","q963ed16o4","1920","1080","0","1","0","6006cf1238099707863fc7b4","","null","","","learningBlock2","","","","<div style=""font-size:60px;""> </div>","null","FL","learning/Slide128.JPG","That was a wug.","","",""
"image-keyboard-response","391","360536","0.0-7.0-0.48","FL","q963ed16o4","1920","1080","0","1","0","6006cf1238099707863fc7b4","","null","","","","","","","learning/Slide129.JPG","null","","","","","",""
"html-keyboard-response","392","361689","0.0-7.0-1.48","FL","q963ed16o4","1920","1080","0","1","0","6006cf1238099707863fc7b4","","null","","","learningBlock2","","","","That was a tob.","null","","","","","",""
"html-keyboard-response","393","362691","0.0-7.0-2.48","FL","q963ed16o4","1920","1080","0","1","0","6006cf1238099707863fc7b4","","null","","","learningBlock2","","","","<div style=""font-size:60px;""> </div>","null","FL","learning/Slide129.JPG","That was a tob.","","",""
"image-keyboard-response","394","362867","0.0-7.0-0.49","FL","q963ed16o4","1920","1080","0","1","0","6006cf1238099707863fc7b4","","null","","","","","","","learning/Slide130.JPG","null","","","","","",""
"html-keyboard-response","395","364019","0.0-7.0-1.49","FL","q963ed16o4","1920","1080","0","1","0","6006cf1238099707863fc7b4","","null","","","learningBlock2","","","","That was a wug.","null","","","","","",""
"html-keyboard-response","396","365020","0.0-7.0-2.49","FL","q963ed16o4","1920","1080","0","1","0","6006cf1238099707863fc7b4","","null","","","learningBlock2","","","","<div style=""font-size:60px;""> </div>","null","FL","learning/Slide130.JPG","That was a wug.","","",""
"image-keyboard-response","397","365196","0.0-7.0-0.50","FL","q963ed16o4","1920","1080","0","1","0","6006cf1238099707863fc7b4","","null","","","","","","","learning/Slide131.JPG","null","","","","","",""
"html-keyboard-response","398","366348","0.0-7.0-1.50","FL","q963ed16o4","1920","1080","0","1","0","6006cf1238099707863fc7b4","","null","","","learningBlock2","","","","That was a bim.","null","","","","","",""
"html-keyboard-response","399","367349","0.0-7.0-2.50","FL","q963ed16o4","1920","1080","0","1","0","6006cf1238099707863fc7b4","","null","","","learningBlock2","","","","<div style=""font-size:60px;""> </div>","null","FL","learning/Slide131.JPG","That was a bim.","","",""
"image-keyboard-response","400","367526","0.0-7.0-0.51","FL","q963ed16o4","1920","1080","0","1","0","6006cf1238099707863fc7b4","","null","","","","","","","learning/Slide132.JPG","null","","","","","",""
"html-keyboard-response","401","368679","0.0-7.0-1.51","FL","q963ed16o4","1920","1080","0","1","0","6006cf1238099707863fc7b4","","null","","","learningBlock2","","","","That was a dep.","null","","","","","",""
"html-keyboard-response","402","369680","0.0-7.0-2.51","FL","q963ed16o4","1920","1080","0","1","0","6006cf1238099707863fc7b4","","null","","","learningBlock2","","","","<div style=""font-size:60px;""> </div>","null","FL","learning/Slide132.JPG","That was a dep.","","",""
"image-keyboard-response","403","369857","0.0-7.0-0.52","FL","q963ed16o4","1920","1080","0","1","0","6006cf1238099707863fc7b4","","null","","","","","","","learning/Slide133.JPG","null","","","","","",""
"html-keyboard-response","404","371011","0.0-7.0-1.52","FL","q963ed16o4","1920","1080","0","1","0","6006cf1238099707863fc7b4","","null","","","learningBlock2","","","","That was a tob.","null","","","","","",""
"html-keyboard-response","405","372013","0.0-7.0-2.52","FL","q963ed16o4","1920","1080","0","1","0","6006cf1238099707863fc7b4","","null","","","learningBlock2","","","","<div style=""font-size:60px;""> </div>","null","FL","learning/Slide133.JPG","That was a tob.","","",""
"image-keyboard-response","406","372189","0.0-7.0-0.53","FL","q963ed16o4","1920","1080","0","1","0","6006cf1238099707863fc7b4","","null","","","","","","","learning/Slide134.JPG","null","","","","","",""
"html-keyboard-response","407","373341","0.0-7.0-1.53","FL","q963ed16o4","1920","1080","0","1","0","6006cf1238099707863fc7b4","","null","","","learningBlock2","","","","That was a dep.","null","","","","","",""
"html-keyboard-response","408","374343","0.0-7.0-2.53","FL","q963ed16o4","1920","1080","0","1","0","6006cf1238099707863fc7b4","","null","","","learningBlock2","","","","<div style=""font-size:60px;""> </div>","null","FL","learning/Slide134.JPG","That was a dep.","","",""
"image-keyboard-response","409","374518","0.0-7.0-0.54","FL","q963ed16o4","1920","1080","0","1","0","6006cf1238099707863fc7b4","","null","","","","","","","learning/Slide135.JPG","null","","","","","",""
"html-keyboard-response","410","375671","0.0-7.0-1.54","FL","q963ed16o4","1920","1080","0","1","0","6006cf1238099707863fc7b4","","null","","","learningBlock2","","","","That was a tob.","null","","","","","",""
"html-keyboard-response","411","376673","0.0-7.0-2.54","FL","q963ed16o4","1920","1080","0","1","0","6006cf1238099707863fc7b4","","null","","","learningBlock2","","","","<div style=""font-size:60px;""> </div>","null","FL","learning/Slide135.JPG","That was a tob.","","",""
"image-keyboard-response","412","376851","0.0-7.0-0.55","FL","q963ed16o4","1920","1080","0","1","0","6006cf1238099707863fc7b4","","null","","","","","","","learning/Slide136.JPG","null","","","","","",""
"html-keyboard-response","413","378002","0.0-7.0-1.55","FL","q963ed16o4","1920","1080","0","1","0","6006cf1238099707863fc7b4","","null","","","learningBlock2","","","","That was a wug.","null","","","","","",""
"html-keyboard-response","414","379004","0.0-7.0-2.55","FL","q963ed16o4","1920","1080","0","1","0","6006cf1238099707863fc7b4","","null","","","learningBlock2","","","","<div style=""font-size:60px;""> </div>","null","FL","learning/Slide136.JPG","That was a wug.","","",""
"image-keyboard-response","415","379181","0.0-7.0-0.56","FL","q963ed16o4","1920","1080","0","1","0","6006cf1238099707863fc7b4","","null","","","","","","","learning/Slide137.JPG","null","","","","","",""
"html-keyboard-response","416","380333","0.0-7.0-1.56","FL","q963ed16o4","1920","1080","0","1","0","6006cf1238099707863fc7b4","","null","","","learningBlock2","","","","That was a tob.","null","","","","","",""
"html-keyboard-response","417","381334","0.0-7.0-2.56","FL","q963ed16o4","1920","1080","0","1","0","6006cf1238099707863fc7b4","","null","","","learningBlock2","","","","<div style=""font-size:60px;""> </div>","null","FL","learning/Slide137.JPG","That was a tob.","","",""
"image-keyboard-response","418","381510","0.0-7.0-0.57","FL","q963ed16o4","1920","1080","0","1","0","6006cf1238099707863fc7b4","","null","","","","","","","learning/Slide138.JPG","null","","","","","",""
"html-keyboard-response","419","382662","0.0-7.0-1.57","FL","q963ed16o4","1920","1080","0","1","0","6006cf1238099707863fc7b4","","null","","","learningBlock2","","","","That was a bim.","null","","","","","",""
"html-keyboard-response","420","383663","0.0-7.0-2.57","FL","q963ed16o4","1920","1080","0","1","0","6006cf1238099707863fc7b4","","null","","","learningBlock2","","","","<div style=""font-size:60px;""> </div>","null","FL","learning/Slide138.JPG","That was a bim.","","",""
"image-keyboard-response","421","383839","0.0-7.0-0.58","FL","q963ed16o4","1920","1080","0","1","0","6006cf1238099707863fc7b4","","null","","","","","","","learning/Slide139.JPG","null","","","","","",""
"html-keyboard-response","422","384991","0.0-7.0-1.58","FL","q963ed16o4","1920","1080","0","1","0","6006cf1238099707863fc7b4","","null","","","learningBlock2","","","","That was a wug.","null","","","","","",""
"html-keyboard-response","423","385993","0.0-7.0-2.58","FL","q963ed16o4","1920","1080","0","1","0","6006cf1238099707863fc7b4","","null","","","learningBlock2","","","","<div style=""font-size:60px;""> </div>","null","FL","learning/Slide139.JPG","That was a wug.","","",""
"image-keyboard-response","424","386169","0.0-7.0-0.59","FL","q963ed16o4","1920","1080","0","1","0","6006cf1238099707863fc7b4","","null","","","","","","","learning/Slide140.JPG","null","","","","","",""
"html-keyboard-response","425","387320","0.0-7.0-1.59","FL","q963ed16o4","1920","1080","0","1","0","6006cf1238099707863fc7b4","","null","","","learningBlock2","","","","That was a dep.","null","","","","","",""
"html-keyboard-response","426","388322","0.0-7.0-2.59","FL","q963ed16o4","1920","1080","0","1","0","6006cf1238099707863fc7b4","","null","","","learningBlock2","","","","<div style=""font-size:60px;""> </div>","null","FL","learning/Slide140.JPG","That was a dep.","","",""
"image-keyboard-response","427","388498","0.0-7.0-0.60","FL","q963ed16o4","1920","1080","0","1","0","6006cf1238099707863fc7b4","","null","","","","","","","learning/Slide141.JPG","null","","","","","",""
"html-keyboard-response","428","389650","0.0-7.0-1.60","FL","q963ed16o4","1920","1080","0","1","0","6006cf1238099707863fc7b4","","null","","","learningBlock2","","","","That was a tob.","null","","","","","",""
"html-keyboard-response","429","390651","0.0-7.0-2.60","FL","q963ed16o4","1920","1080","0","1","0","6006cf1238099707863fc7b4","","null","","","learningBlock2","","","","<div style=""font-size:60px;""> </div>","null","FL","learning/Slide141.JPG","That was a tob.","","",""
"image-keyboard-response","430","390828","0.0-7.0-0.61","FL","q963ed16o4","1920","1080","0","1","0","6006cf1238099707863fc7b4","","null","","","","","","","learning/Slide142.JPG","null","","","","","",""
"html-keyboard-response","431","391981","0.0-7.0-1.61","FL","q963ed16o4","1920","1080","0","1","0","6006cf1238099707863fc7b4","","null","","","learningBlock2","","","","That was a wug.","null","","","","","",""
"html-keyboard-response","432","392983","0.0-7.0-2.61","FL","q963ed16o4","1920","1080","0","1","0","6006cf1238099707863fc7b4","","null","","","learningBlock2","","","","<div style=""font-size:60px;""> </div>","null","FL","learning/Slide142.JPG","That was a wug.","","",""
"image-keyboard-response","433","393159","0.0-7.0-0.62","FL","q963ed16o4","1920","1080","0","1","0","6006cf1238099707863fc7b4","","null","","","","","","","learning/Slide143.JPG","null","","","","","",""
"html-keyboard-response","434","394311","0.0-7.0-1.62","FL","q963ed16o4","1920","1080","0","1","0","6006cf1238099707863fc7b4","","null","","","learningBlock2","","","","That was a bim.","null","","","","","",""
