"trial_type","trial_index","time_elapsed","internal_node_id","condition","subject","screen_width","screen_height","attention","distraction","conscientious","prolificID","success","rt","url","view_history","test_part","final_height_px","final_width_px","scale_factor","stimulus","key_press","learningType","presentedImage","presentedLabel","button_pressed","response","responses"
"pavlovia","0","3","0.0-0.0","FL","b576vfvfdd","1920","1080","0","1","0","5ea85cf4ad1f760a537eadfe","","","","","","","","","","","","","","","",""
"fullscreen","1","15434","0.0-1.0","FL","b576vfvfdd","1920","1080","0","1","0","5ea85cf4ad1f760a537eadfe","true","","","","","","","","","","","","","","",""
"external-html","2","19737","0.0-2.0-0.0","FL","b576vfvfdd","1920","1080","0","1","0","5ea85cf4ad1f760a537eadfe","","4261","text/information_english.html","","","","","","","","","","","","",""
"external-html","3","29074","0.0-2.0-1.0","FL","b576vfvfdd","1920","1080","0","1","0","5ea85cf4ad1f760a537eadfe","","9276","text/consent_english.html","","","","","","","","","","","","",""
"instructions","4","43594","0.0-3.0","FL","b576vfvfdd","1920","1080","0","1","0","5ea85cf4ad1f760a537eadfe","","NA","","[{""page_index"":0,""viewing_time"":2135},{""page_index"":1,""viewing_time"":12386}]","instructions","","","","","","","","","","",""
"resize","5","77676","0.0-4.0","FL","b576vfvfdd","1920","1080","0","1","0","5ea85cf4ad1f760a537eadfe","","","","","","","326","2.0698412698412696","","","","","","","",""
"image-keyboard-response","6","77853","0.0-5.0-0.0","FL","b576vfvfdd","1920","1080","0","1","0","5ea85cf4ad1f760a537eadfe","","null","","","","","","","learning/Slide1.JPG","null","","","","","",""
"html-keyboard-response","7","79005","0.0-5.0-1.0","FL","b576vfvfdd","1920","1080","0","1","0","5ea85cf4ad1f760a537eadfe","","null","","","learningBlock1","","","","That was a tob.","null","","","","","",""
"html-keyboard-response","8","80005","0.0-5.0-2.0","FL","b576vfvfdd","1920","1080","0","1","0","5ea85cf4ad1f760a537eadfe","","null","","","learningBlock1","","","","<div style=""font-size:60px;""> </div>","null","FL","learning/Slide1.JPG","That was a tob.","","",""
"image-keyboard-response","9","80181","0.0-5.0-0.1","FL","b576vfvfdd","1920","1080","0","1","0","5ea85cf4ad1f760a537eadfe","","null","","","","","","","learning/Slide2.JPG","null","","","","","",""
"html-keyboard-response","10","81332","0.0-5.0-1.1","FL","b576vfvfdd","1920","1080","0","1","0","5ea85cf4ad1f760a537eadfe","","null","","","learningBlock1","","","","That was a wug.","null","","","","","",""
"html-keyboard-response","11","82334","0.0-5.0-2.1","FL","b576vfvfdd","1920","1080","0","1","0","5ea85cf4ad1f760a537eadfe","","null","","","learningBlock1","","","","<div style=""font-size:60px;""> </div>","null","FL","learning/Slide2.JPG","That was a wug.","","",""
"image-keyboard-response","12","82509","0.0-5.0-0.2","FL","b576vfvfdd","1920","1080","0","1","0","5ea85cf4ad1f760a537eadfe","","null","","","","","","","learning/Slide3.JPG","null","","","","","",""
"html-keyboard-response","13","83660","0.0-5.0-1.2","FL","b576vfvfdd","1920","1080","0","1","0","5ea85cf4ad1f760a537eadfe","","null","","","learningBlock1","","","","That was a bim.","null","","","","","",""
"html-keyboard-response","14","84661","0.0-5.0-2.2","FL","b576vfvfdd","1920","1080","0","1","0","5ea85cf4ad1f760a537eadfe","","null","","","learningBlock1","","","","<div style=""font-size:60px;""> </div>","null","FL","learning/Slide3.JPG","That was a bim.","","",""
"image-keyboard-response","15","84838","0.0-5.0-0.3","FL","b576vfvfdd","1920","1080","0","1","0","5ea85cf4ad1f760a537eadfe","","null","","","","","","","learning/Slide4.JPG","null","","","","","",""
"html-keyboard-response","16","85990","0.0-5.0-1.3","FL","b576vfvfdd","1920","1080","0","1","0","5ea85cf4ad1f760a537eadfe","","null","","","learningBlock1","","","","That was a dep.","null","","","","","",""
"html-keyboard-response","17","86992","0.0-5.0-2.3","FL","b576vfvfdd","1920","1080","0","1","0","5ea85cf4ad1f760a537eadfe","","null","","","learningBlock1","","","","<div style=""font-size:60px;""> </div>","null","FL","learning/Slide4.JPG","That was a dep.","","",""
"image-keyboard-response","18","87167","0.0-5.0-0.4","FL","b576vfvfdd","1920","1080","0","1","0","5ea85cf4ad1f760a537eadfe","","null","","","","","","","learning/Slide5.JPG","null","","","","","",""
"html-keyboard-response","19","88317","0.0-5.0-1.4","FL","b576vfvfdd","1920","1080","0","1","0","5ea85cf4ad1f760a537eadfe","","null","","","learningBlock1","","","","That was a wug.","null","","","","","",""
"html-keyboard-response","20","89318","0.0-5.0-2.4","FL","b576vfvfdd","1920","1080","0","1","0","5ea85cf4ad1f760a537eadfe","","null","","","learningBlock1","","","","<div style=""font-size:60px;""> </div>","null","FL","learning/Slide5.JPG","That was a wug.","","",""
"image-keyboard-response","21","89494","0.0-5.0-0.5","FL","b576vfvfdd","1920","1080","0","1","0","5ea85cf4ad1f760a537eadfe","","null","","","","","","","learning/Slide6.JPG","null","","","","","",""
"html-keyboard-response","22","90645","0.0-5.0-1.5","FL","b576vfvfdd","1920","1080","0","1","0","5ea85cf4ad1f760a537eadfe","","null","","","learningBlock1","","","","That was a dep.","null","","","","","",""
"html-keyboard-response","23","91646","0.0-5.0-2.5","FL","b576vfvfdd","1920","1080","0","1","0","5ea85cf4ad1f760a537eadfe","","null","","","learningBlock1","","","","<div style=""font-size:60px;""> </div>","null","FL","learning/Slide6.JPG","That was a dep.","","",""
"image-keyboard-response","24","91821","0.0-5.0-0.6","FL","b576vfvfdd","1920","1080","0","1","0","5ea85cf4ad1f760a537eadfe","","null","","","","","","","learning/Slide7.JPG","null","","","","","",""
"html-keyboard-response","25","92972","0.0-5.0-1.6","FL","b576vfvfdd","1920","1080","0","1","0","5ea85cf4ad1f760a537eadfe","","null","","","learningBlock1","","","","That was a wug.","null","","","","","",""
"html-keyboard-response","26","93975","0.0-5.0-2.6","FL","b576vfvfdd","1920","1080","0","1","0","5ea85cf4ad1f760a537eadfe","","null","","","learningBlock1","","","","<div style=""font-size:60px;""> </div>","null","FL","learning/Slide7.JPG","That was a wug.","","",""
"image-keyboard-response","27","94150","0.0-5.0-0.7","FL","b576vfvfdd","1920","1080","0","1","0","5ea85cf4ad1f760a537eadfe","","null","","","","","","","learning/Slide8.JPG","null","","","","","",""
"html-keyboard-response","28","95302","0.0-5.0-1.7","FL","b576vfvfdd","1920","1080","0","1","0","5ea85cf4ad1f760a537eadfe","","null","","","learningBlock1","","","","That was a bim.","null","","","","","",""
"html-keyboard-response","29","96303","0.0-5.0-2.7","FL","b576vfvfdd","1920","1080","0","1","0","5ea85cf4ad1f760a537eadfe","","null","","","learningBlock1","","","","<div style=""font-size:60px;""> </div>","null","FL","learning/Slide8.JPG","That was a bim.","","",""
"image-keyboard-response","30","96479","0.0-5.0-0.8","FL","b576vfvfdd","1920","1080","0","1","0","5ea85cf4ad1f760a537eadfe","","null","","","","","","","learning/Slide9.JPG","null","","","","","",""
"html-keyboard-response","31","97629","0.0-5.0-1.8","FL","b576vfvfdd","1920","1080","0","1","0","5ea85cf4ad1f760a537eadfe","","null","","","learningBlock1","","","","That was a wug.","null","","","","","",""
"html-keyboard-response","32","98630","0.0-5.0-2.8","FL","b576vfvfdd","1920","1080","0","1","0","5ea85cf4ad1f760a537eadfe","","null","","","learningBlock1","","","","<div style=""font-size:60px;""> </div>","null","FL","learning/Slide9.JPG","That was a wug.","","",""
"image-keyboard-response","33","98805","0.0-5.0-0.9","FL","b576vfvfdd","1920","1080","0","1","0","5ea85cf4ad1f760a537eadfe","","null","","","","","","","learning/Slide10.JPG","null","","","","","",""
"html-keyboard-response","34","99956","0.0-5.0-1.9","FL","b576vfvfdd","1920","1080","0","1","0","5ea85cf4ad1f760a537eadfe","","null","","","learningBlock1","","","","That was a dep.","null","","","","","",""
"html-keyboard-response","35","100957","0.0-5.0-2.9","FL","b576vfvfdd","1920","1080","0","1","0","5ea85cf4ad1f760a537eadfe","","null","","","learningBlock1","","","","<div style=""font-size:60px;""> </div>","null","FL","learning/Slide10.JPG","That was a dep.","","",""
"image-keyboard-response","36","101133","0.0-5.0-0.10","FL","b576vfvfdd","1920","1080","0","1","0","5ea85cf4ad1f760a537eadfe","","null","","","","","","","learning/Slide11.JPG","null","","","","","",""
"html-keyboard-response","37","102285","0.0-5.0-1.10","FL","b576vfvfdd","1920","1080","0","1","0","5ea85cf4ad1f760a537eadfe","","null","","","learningBlock1","","","","That was a tob.","null","","","","","",""
"html-keyboard-response","38","103286","0.0-5.0-2.10","FL","b576vfvfdd","1920","1080","0","1","0","5ea85cf4ad1f760a537eadfe","","null","","","learningBlock1","","","","<div style=""font-size:60px;""> </div>","null","FL","learning/Slide11.JPG","That was a tob.","","",""
"image-keyboard-response","39","103462","0.0-5.0-0.11","FL","b576vfvfdd","1920","1080","0","1","0","5ea85cf4ad1f760a537eadfe","","null","","","","","","","learning/Slide12.JPG","null","","","","","",""
"html-keyboard-response","40","104615","0.0-5.0-1.11","FL","b576vfvfdd","1920","1080","0","1","0","5ea85cf4ad1f760a537eadfe","","null","","","learningBlock1","","","","That was a dep.","null","","","","","",""
"html-keyboard-response","41","105615","0.0-5.0-2.11","FL","b576vfvfdd","1920","1080","0","1","0","5ea85cf4ad1f760a537eadfe","","null","","","learningBlock1","","","","<div style=""font-size:60px;""> </div>","null","FL","learning/Slide12.JPG","That was a dep.","","",""
"image-keyboard-response","42","105791","0.0-5.0-0.12","FL","b576vfvfdd","1920","1080","0","1","0","5ea85cf4ad1f760a537eadfe","","null","","","","","","","learning/Slide13.JPG","null","","","","","",""
"html-keyboard-response","43","106941","0.0-5.0-1.12","FL","b576vfvfdd","1920","1080","0","1","0","5ea85cf4ad1f760a537eadfe","","null","","","learningBlock1","","","","That was a bim.","null","","","","","",""
"html-keyboard-response","44","107943","0.0-5.0-2.12","FL","b576vfvfdd","1920","1080","0","1","0","5ea85cf4ad1f760a537eadfe","","null","","","learningBlock1","","","","<div style=""font-size:60px;""> </div>","null","FL","learning/Slide13.JPG","That was a bim.","","",""
"image-keyboard-response","45","108118","0.0-5.0-0.13","FL","b576vfvfdd","1920","1080","0","1","0","5ea85cf4ad1f760a537eadfe","","null","","","","","","","learning/Slide14.JPG","null","","","","","",""
"html-keyboard-response","46","109270","0.0-5.0-1.13","FL","b576vfvfdd","1920","1080","0","1","0","5ea85cf4ad1f760a537eadfe","","null","","","learningBlock1","","","","That was a wug.","null","","","","","",""
"html-keyboard-response","47","110270","0.0-5.0-2.13","FL","b576vfvfdd","1920","1080","0","1","0","5ea85cf4ad1f760a537eadfe","","null","","","learningBlock1","","","","<div style=""font-size:60px;""> </div>","null","FL","learning/Slide14.JPG","That was a wug.","","",""
"image-keyboard-response","48","110447","0.0-5.0-0.14","FL","b576vfvfdd","1920","1080","0","1","0","5ea85cf4ad1f760a537eadfe","","null","","","","","","","learning/Slide15.JPG","null","","","","","",""
"html-keyboard-response","49","111599","0.0-5.0-1.14","FL","b576vfvfdd","1920","1080","0","1","0","5ea85cf4ad1f760a537eadfe","","null","","","learningBlock1","","","","That was a tob.","null","","","","","",""
"html-keyboard-response","50","112599","0.0-5.0-2.14","FL","b576vfvfdd","1920","1080","0","1","0","5ea85cf4ad1f760a537eadfe","","null","","","learningBlock1","","","","<div style=""font-size:60px;""> </div>","null","FL","learning/Slide15.JPG","That was a tob.","","",""
"image-keyboard-response","51","112775","0.0-5.0-0.15","FL","b576vfvfdd","1920","1080","0","1","0","5ea85cf4ad1f760a537eadfe","","null","","","","","","","learning/Slide16.JPG","null","","","","","",""
"html-keyboard-response","52","113926","0.0-5.0-1.15","FL","b576vfvfdd","1920","1080","0","1","0","5ea85cf4ad1f760a537eadfe","","null","","","learningBlock1","","","","That was a dep.","null","","","","","",""
"html-keyboard-response","53","114927","0.0-5.0-2.15","FL","b576vfvfdd","1920","1080","0","1","0","5ea85cf4ad1f760a537eadfe","","null","","","learningBlock1","","","","<div style=""font-size:60px;""> </div>","null","FL","learning/Slide16.JPG","That was a dep.","","",""
"image-keyboard-response","54","115104","0.0-5.0-0.16","FL","b576vfvfdd","1920","1080","0","1","0","5ea85cf4ad1f760a537eadfe","","null","","","","","","","learning/Slide17.JPG","null","","","","","",""
"html-keyboard-response","55","116255","0.0-5.0-1.16","FL","b576vfvfdd","1920","1080","0","1","0","5ea85cf4ad1f760a537eadfe","","null","","","learningBlock1","","","","That was a bim.","null","","","","","",""
"html-keyboard-response","56","117257","0.0-5.0-2.16","FL","b576vfvfdd","1920","1080","0","1","0","5ea85cf4ad1f760a537eadfe","","null","","","learningBlock1","","","","<div style=""font-size:60px;""> </div>","null","FL","learning/Slide17.JPG","That was a bim.","","",""
"image-keyboard-response","57","117434","0.0-5.0-0.17","FL","b576vfvfdd","1920","1080","0","1","0","5ea85cf4ad1f760a537eadfe","","null","","","","","","","learning/Slide18.JPG","null","","","","","",""
"html-keyboard-response","58","118585","0.0-5.0-1.17","FL","b576vfvfdd","1920","1080","0","1","0","5ea85cf4ad1f760a537eadfe","","null","","","learningBlock1","","","","That was a tob.","null","","","","","",""
"html-keyboard-response","59","119586","0.0-5.0-2.17","FL","b576vfvfdd","1920","1080","0","1","0","5ea85cf4ad1f760a537eadfe","","null","","","learningBlock1","","","","<div style=""font-size:60px;""> </div>","null","FL","learning/Slide18.JPG","That was a tob.","","",""
"image-keyboard-response","60","119762","0.0-5.0-0.18","FL","b576vfvfdd","1920","1080","0","1","0","5ea85cf4ad1f760a537eadfe","","null","","","","","","","learning/Slide19.JPG","null","","","","","",""
"html-keyboard-response","61","120913","0.0-5.0-1.18","FL","b576vfvfdd","1920","1080","0","1","0","5ea85cf4ad1f760a537eadfe","","null","","","learningBlock1","","","","That was a wug.","null","","","","","",""
"html-keyboard-response","62","121914","0.0-5.0-2.18","FL","b576vfvfdd","1920","1080","0","1","0","5ea85cf4ad1f760a537eadfe","","null","","","learningBlock1","","","","<div style=""font-size:60px;""> </div>","null","FL","learning/Slide19.JPG","That was a wug.","","",""
"image-keyboard-response","63","122091","0.0-5.0-0.19","FL","b576vfvfdd","1920","1080","0","1","0","5ea85cf4ad1f760a537eadfe","","null","","","","","","","learning/Slide20.JPG","null","","","","","",""
"html-keyboard-response","64","123241","0.0-5.0-1.19","FL","b576vfvfdd","1920","1080","0","1","0","5ea85cf4ad1f760a537eadfe","","null","","","learningBlock1","","","","That was a bim.","null","","","","","",""
"html-keyboard-response","65","124241","0.0-5.0-2.19","FL","b576vfvfdd","1920","1080","0","1","0","5ea85cf4ad1f760a537eadfe","","null","","","learningBlock1","","","","<div style=""font-size:60px;""> </div>","null","FL","learning/Slide20.JPG","That was a bim.","","",""
"image-keyboard-response","66","124417","0.0-5.0-0.20","FL","b576vfvfdd","1920","1080","0","1","0","5ea85cf4ad1f760a537eadfe","","null","","","","","","","learning/Slide21.JPG","null","","","","","",""
"html-keyboard-response","67","125570","0.0-5.0-1.20","FL","b576vfvfdd","1920","1080","0","1","0","5ea85cf4ad1f760a537eadfe","","null","","","learningBlock1","","","","That was a dep.","null","","","","","",""
"html-keyboard-response","68","126570","0.0-5.0-2.20","FL","b576vfvfdd","1920","1080","0","1","0","5ea85cf4ad1f760a537eadfe","","null","","","learningBlock1","","","","<div style=""font-size:60px;""> </div>","null","FL","learning/Slide21.JPG","That was a dep.","","",""
"image-keyboard-response","69","126745","0.0-5.0-0.21","FL","b576vfvfdd","1920","1080","0","1","0","5ea85cf4ad1f760a537eadfe","","null","","","","","","","learning/Slide22.JPG","null","","","","","",""
"html-keyboard-response","70","127897","0.0-5.0-1.21","FL","b576vfvfdd","1920","1080","0","1","0","5ea85cf4ad1f760a537eadfe","","null","","","learningBlock1","","","","That was a bim.","null","","","","","",""
"html-keyboard-response","71","128897","0.0-5.0-2.21","FL","b576vfvfdd","1920","1080","0","1","0","5ea85cf4ad1f760a537eadfe","","null","","","learningBlock1","","","","<div style=""font-size:60px;""> </div>","null","FL","learning/Slide22.JPG","That was a bim.","","",""
"image-keyboard-response","72","129074","0.0-5.0-0.22","FL","b576vfvfdd","1920","1080","0","1","0","5ea85cf4ad1f760a537eadfe","","null","","","","","","","learning/Slide23.JPG","null","","","","","",""
"html-keyboard-response","73","130225","0.0-5.0-1.22","FL","b576vfvfdd","1920","1080","0","1","0","5ea85cf4ad1f760a537eadfe","","null","","","learningBlock1","","","","That was a tob.","null","","","","","",""
"html-keyboard-response","74","131226","0.0-5.0-2.22","FL","b576vfvfdd","1920","1080","0","1","0","5ea85cf4ad1f760a537eadfe","","null","","","learningBlock1","","","","<div style=""font-size:60px;""> </div>","null","FL","learning/Slide23.JPG","That was a tob.","","",""
"image-keyboard-response","75","131402","0.0-5.0-0.23","FL","b576vfvfdd","1920","1080","0","1","0","5ea85cf4ad1f760a537eadfe","","null","","","","","","","learning/Slide24.JPG","null","","","","","",""
"html-keyboard-response","76","132553","0.0-5.0-1.23","FL","b576vfvfdd","1920","1080","0","1","0","5ea85cf4ad1f760a537eadfe","","null","","","learningBlock1","","","","That was a wug.","null","","","","","",""
"html-keyboard-response","77","133553","0.0-5.0-2.23","FL","b576vfvfdd","1920","1080","0","1","0","5ea85cf4ad1f760a537eadfe","","null","","","learningBlock1","","","","<div style=""font-size:60px;""> </div>","null","FL","learning/Slide24.JPG","That was a wug.","","",""
"image-keyboard-response","78","133729","0.0-5.0-0.24","FL","b576vfvfdd","1920","1080","0","1","0","5ea85cf4ad1f760a537eadfe","","null","","","","","","","learning/Slide25.JPG","null","","","","","",""
"html-keyboard-response","79","134879","0.0-5.0-1.24","FL","b576vfvfdd","1920","1080","0","1","0","5ea85cf4ad1f760a537eadfe","","null","","","learningBlock1","","","","That was a dep.","null","","","","","",""
"html-keyboard-response","80","135881","0.0-5.0-2.24","FL","b576vfvfdd","1920","1080","0","1","0","5ea85cf4ad1f760a537eadfe","","null","","","learningBlock1","","","","<div style=""font-size:60px;""> </div>","null","FL","learning/Slide25.JPG","That was a dep.","","",""
"image-keyboard-response","81","136057","0.0-5.0-0.25","FL","b576vfvfdd","1920","1080","0","1","0","5ea85cf4ad1f760a537eadfe","","null","","","","","","","learning/Slide26.JPG","null","","","","","",""
"html-keyboard-response","82","137207","0.0-5.0-1.25","FL","b576vfvfdd","1920","1080","0","1","0","5ea85cf4ad1f760a537eadfe","","null","","","learningBlock1","","","","That was a wug.","null","","","","","",""
"html-keyboard-response","83","138207","0.0-5.0-2.25","FL","b576vfvfdd","1920","1080","0","1","0","5ea85cf4ad1f760a537eadfe","","null","","","learningBlock1","","","","<div style=""font-size:60px;""> </div>","null","FL","learning/Slide26.JPG","That was a wug.","","",""
"image-keyboard-response","84","138383","0.0-5.0-0.26","FL","b576vfvfdd","1920","1080","0","1","0","5ea85cf4ad1f760a537eadfe","","null","","","","","","","learning/Slide27.JPG","null","","","","","",""
"html-keyboard-response","85","139534","0.0-5.0-1.26","FL","b576vfvfdd","1920","1080","0","1","0","5ea85cf4ad1f760a537eadfe","","null","","","learningBlock1","","","","That was a bim.","null","","","","","",""
"html-keyboard-response","86","140535","0.0-5.0-2.26","FL","b576vfvfdd","1920","1080","0","1","0","5ea85cf4ad1f760a537eadfe","","null","","","learningBlock1","","","","<div style=""font-size:60px;""> </div>","null","FL","learning/Slide27.JPG","That was a bim.","","",""
"image-keyboard-response","87","140710","0.0-5.0-0.27","FL","b576vfvfdd","1920","1080","0","1","0","5ea85cf4ad1f760a537eadfe","","null","","","","","","","learning/Slide28.JPG","null","","","","","",""
"html-keyboard-response","88","141861","0.0-5.0-1.27","FL","b576vfvfdd","1920","1080","0","1","0","5ea85cf4ad1f760a537eadfe","","null","","","learningBlock1","","","","That was a dep.","null","","","","","",""
"html-keyboard-response","89","142862","0.0-5.0-2.27","FL","b576vfvfdd","1920","1080","0","1","0","5ea85cf4ad1f760a537eadfe","","null","","","learningBlock1","","","","<div style=""font-size:60px;""> </div>","null","FL","learning/Slide28.JPG","That was a dep.","","",""
"image-keyboard-response","90","143038","0.0-5.0-0.28","FL","b576vfvfdd","1920","1080","0","1","0","5ea85cf4ad1f760a537eadfe","","null","","","","","","","learning/Slide29.JPG","null","","","","","",""
"html-keyboard-response","91","144191","0.0-5.0-1.28","FL","b576vfvfdd","1920","1080","0","1","0","5ea85cf4ad1f760a537eadfe","","null","","","learningBlock1","","","","That was a tob.","null","","","","","",""
"html-keyboard-response","92","145191","0.0-5.0-2.28","FL","b576vfvfdd","1920","1080","0","1","0","5ea85cf4ad1f760a537eadfe","","null","","","learningBlock1","","","","<div style=""font-size:60px;""> </div>","null","FL","learning/Slide29.JPG","That was a tob.","","",""
"image-keyboard-response","93","145368","0.0-5.0-0.29","FL","b576vfvfdd","1920","1080","0","1","0","5ea85cf4ad1f760a537eadfe","","null","","","","","","","learning/Slide30.JPG","null","","","","","",""
"html-keyboard-response","94","146519","0.0-5.0-1.29","FL","b576vfvfdd","1920","1080","0","1","0","5ea85cf4ad1f760a537eadfe","","null","","","learningBlock1","","","","That was a dep.","null","","","","","",""
"html-keyboard-response","95","147521","0.0-5.0-2.29","FL","b576vfvfdd","1920","1080","0","1","0","5ea85cf4ad1f760a537eadfe","","null","","","learningBlock1","","","","<div style=""font-size:60px;""> </div>","null","FL","learning/Slide30.JPG","That was a dep.","","",""
"image-keyboard-response","96","147697","0.0-5.0-0.30","FL","b576vfvfdd","1920","1080","0","1","0","5ea85cf4ad1f760a537eadfe","","null","","","","","","","learning/Slide31.JPG","null","","","","","",""
"html-keyboard-response","97","148848","0.0-5.0-1.30","FL","b576vfvfdd","1920","1080","0","1","0","5ea85cf4ad1f760a537eadfe","","null","","","learningBlock1","","","","That was a wug.","null","","","","","",""
"html-keyboard-response","98","149848","0.0-5.0-2.30","FL","b576vfvfdd","1920","1080","0","1","0","5ea85cf4ad1f760a537eadfe","","null","","","learningBlock1","","","","<div style=""font-size:60px;""> </div>","null","FL","learning/Slide31.JPG","That was a wug.","","",""
"image-keyboard-response","99","150024","0.0-5.0-0.31","FL","b576vfvfdd","1920","1080","0","1","0","5ea85cf4ad1f760a537eadfe","","null","","","","","","","learning/Slide32.JPG","null","","","","","",""
"html-keyboard-response","100","151175","0.0-5.0-1.31","FL","b576vfvfdd","1920","1080","0","1","0","5ea85cf4ad1f760a537eadfe","","null","","","learningBlock1","","","","That was a tob.","null","","","","","",""
"html-keyboard-response","101","152176","0.0-5.0-2.31","FL","b576vfvfdd","1920","1080","0","1","0","5ea85cf4ad1f760a537eadfe","","null","","","learningBlock1","","","","<div style=""font-size:60px;""> </div>","null","FL","learning/Slide32.JPG","That was a tob.","","",""
"image-keyboard-response","102","152352","0.0-5.0-0.32","FL","b576vfvfdd","1920","1080","0","1","0","5ea85cf4ad1f760a537eadfe","","null","","","","","","","learning/Slide33.JPG","null","","","","","",""
"html-keyboard-response","103","153502","0.0-5.0-1.32","FL","b576vfvfdd","1920","1080","0","1","0","5ea85cf4ad1f760a537eadfe","","null","","","learningBlock1","","","","That was a bim.","null","","","","","",""
"html-keyboard-response","104","154502","0.0-5.0-2.32","FL","b576vfvfdd","1920","1080","0","1","0","5ea85cf4ad1f760a537eadfe","","null","","","learningBlock1","","","","<div style=""font-size:60px;""> </div>","null","FL","learning/Slide33.JPG","That was a bim.","","",""
"image-keyboard-response","105","154678","0.0-5.0-0.33","FL","b576vfvfdd","1920","1080","0","1","0","5ea85cf4ad1f760a537eadfe","","null","","","","","","","learning/Slide34.JPG","null","","","","","",""
"html-keyboard-response","106","155831","0.0-5.0-1.33","FL","b576vfvfdd","1920","1080","0","1","0","5ea85cf4ad1f760a537eadfe","","null","","","learningBlock1","","","","That was a tob.","null","","","","","",""
"html-keyboard-response","107","156832","0.0-5.0-2.33","FL","b576vfvfdd","1920","1080","0","1","0","5ea85cf4ad1f760a537eadfe","","null","","","learningBlock1","","","","<div style=""font-size:60px;""> </div>","null","FL","learning/Slide34.JPG","That was a tob.","","",""
"image-keyboard-response","108","157009","0.0-5.0-0.34","FL","b576vfvfdd","1920","1080","0","1","0","5ea85cf4ad1f760a537eadfe","","null","","","","","","","learning/Slide35.JPG","null","","","","","",""
"html-keyboard-response","109","158158","0.0-5.0-1.34","FL","b576vfvfdd","1920","1080","0","1","0","5ea85cf4ad1f760a537eadfe","","null","","","learningBlock1","","","","That was a bim.","null","","","","","",""
"html-keyboard-response","110","159160","0.0-5.0-2.34","FL","b576vfvfdd","1920","1080","0","1","0","5ea85cf4ad1f760a537eadfe","","null","","","learningBlock1","","","","<div style=""font-size:60px;""> </div>","null","FL","learning/Slide35.JPG","That was a bim.","","",""
"image-keyboard-response","111","159334","0.0-5.0-0.35","FL","b576vfvfdd","1920","1080","0","1","0","5ea85cf4ad1f760a537eadfe","","null","","","","","","","learning/Slide36.JPG","null","","","","","",""
"html-keyboard-response","112","160488","0.0-5.0-1.35","FL","b576vfvfdd","1920","1080","0","1","0","5ea85cf4ad1f760a537eadfe","","null","","","learningBlock1","","","","That was a dep.","null","","","","","",""
"html-keyboard-response","113","161488","0.0-5.0-2.35","FL","b576vfvfdd","1920","1080","0","1","0","5ea85cf4ad1f760a537eadfe","","null","","","learningBlock1","","","","<div style=""font-size:60px;""> </div>","null","FL","learning/Slide36.JPG","That was a dep.","","",""
"image-keyboard-response","114","161664","0.0-5.0-0.36","FL","b576vfvfdd","1920","1080","0","1","0","5ea85cf4ad1f760a537eadfe","","null","","","","","","","learning/Slide37.JPG","null","","","","","",""
"html-keyboard-response","115","162815","0.0-5.0-1.36","FL","b576vfvfdd","1920","1080","0","1","0","5ea85cf4ad1f760a537eadfe","","null","","","learningBlock1","","","","That was a tob.","null","","","","","",""
"html-keyboard-response","116","163815","0.0-5.0-2.36","FL","b576vfvfdd","1920","1080","0","1","0","5ea85cf4ad1f760a537eadfe","","null","","","learningBlock1","","","","<div style=""font-size:60px;""> </div>","null","FL","learning/Slide37.JPG","That was a tob.","","",""
"image-keyboard-response","117","163992","0.0-5.0-0.37","FL","b576vfvfdd","1920","1080","0","1","0","5ea85cf4ad1f760a537eadfe","","null","","","","","","","learning/Slide38.JPG","null","","","","","",""
"html-keyboard-response","118","165143","0.0-5.0-1.37","FL","b576vfvfdd","1920","1080","0","1","0","5ea85cf4ad1f760a537eadfe","","null","","","learningBlock1","","","","That was a wug.","null","","","","","",""
"html-keyboard-response","119","166143","0.0-5.0-2.37","FL","b576vfvfdd","1920","1080","0","1","0","5ea85cf4ad1f760a537eadfe","","null","","","learningBlock1","","","","<div style=""font-size:60px;""> </div>","null","FL","learning/Slide38.JPG","That was a wug.","","",""
"image-keyboard-response","120","166319","0.0-5.0-0.38","FL","b576vfvfdd","1920","1080","0","1","0","5ea85cf4ad1f760a537eadfe","","null","","","","","","","learning/Slide39.JPG","null","","","","","",""
"html-keyboard-response","121","167470","0.0-5.0-1.38","FL","b576vfvfdd","1920","1080","0","1","0","5ea85cf4ad1f760a537eadfe","","null","","","learningBlock1","","","","That was a bim.","null","","","","","",""
"html-keyboard-response","122","168470","0.0-5.0-2.38","FL","b576vfvfdd","1920","1080","0","1","0","5ea85cf4ad1f760a537eadfe","","null","","","learningBlock1","","","","<div style=""font-size:60px;""> </div>","null","FL","learning/Slide39.JPG","That was a bim.","","",""
"image-keyboard-response","123","168647","0.0-5.0-0.39","FL","b576vfvfdd","1920","1080","0","1","0","5ea85cf4ad1f760a537eadfe","","null","","","","","","","learning/Slide40.JPG","null","","","","","",""
"html-keyboard-response","124","169799","0.0-5.0-1.39","FL","b576vfvfdd","1920","1080","0","1","0","5ea85cf4ad1f760a537eadfe","","null","","","learningBlock1","","","","That was a tob.","null","","","","","",""
"html-keyboard-response","125","170799","0.0-5.0-2.39","FL","b576vfvfdd","1920","1080","0","1","0","5ea85cf4ad1f760a537eadfe","","null","","","learningBlock1","","","","<div style=""font-size:60px;""> </div>","null","FL","learning/Slide40.JPG","That was a tob.","","",""
"image-keyboard-response","126","170974","0.0-5.0-0.40","FL","b576vfvfdd","1920","1080","0","1","0","5ea85cf4ad1f760a537eadfe","","null","","","","","","","learning/Slide41.JPG","null","","","","","",""
"html-keyboard-response","127","172125","0.0-5.0-1.40","FL","b576vfvfdd","1920","1080","0","1","0","5ea85cf4ad1f760a537eadfe","","null","","","learningBlock1","","","","That was a bim.","null","","","","","",""
"html-keyboard-response","128","173126","0.0-5.0-2.40","FL","b576vfvfdd","1920","1080","0","1","0","5ea85cf4ad1f760a537eadfe","","null","","","learningBlock1","","","","<div style=""font-size:60px;""> </div>","null","FL","learning/Slide41.JPG","That was a bim.","","",""
"image-keyboard-response","129","173302","0.0-5.0-0.41","FL","b576vfvfdd","1920","1080","0","1","0","5ea85cf4ad1f760a537eadfe","","null","","","","","","","learning/Slide42.JPG","null","","","","","",""
"html-keyboard-response","130","174453","0.0-5.0-1.41","FL","b576vfvfdd","1920","1080","0","1","0","5ea85cf4ad1f760a537eadfe","","null","","","learningBlock1","","","","That was a dep.","null","","","","","",""
"html-keyboard-response","131","175455","0.0-5.0-2.41","FL","b576vfvfdd","1920","1080","0","1","0","5ea85cf4ad1f760a537eadfe","","null","","","learningBlock1","","","","<div style=""font-size:60px;""> </div>","null","FL","learning/Slide42.JPG","That was a dep.","","",""
"image-keyboard-response","132","175630","0.0-5.0-0.42","FL","b576vfvfdd","1920","1080","0","1","0","5ea85cf4ad1f760a537eadfe","","null","","","","","","","learning/Slide43.JPG","null","","","","","",""
"html-keyboard-response","133","176782","0.0-5.0-1.42","FL","b576vfvfdd","1920","1080","0","1","0","5ea85cf4ad1f760a537eadfe","","null","","","learningBlock1","","","","That was a wug.","null","","","","","",""
"html-keyboard-response","134","177783","0.0-5.0-2.42","FL","b576vfvfdd","1920","1080","0","1","0","5ea85cf4ad1f760a537eadfe","","null","","","learningBlock1","","","","<div style=""font-size:60px;""> </div>","null","FL","learning/Slide43.JPG","That was a wug.","","",""
"image-keyboard-response","135","177957","0.0-5.0-0.43","FL","b576vfvfdd","1920","1080","0","1","0","5ea85cf4ad1f760a537eadfe","","null","","","","","","","learning/Slide44.JPG","null","","","","","",""
"html-keyboard-response","136","179108","0.0-5.0-1.43","FL","b576vfvfdd","1920","1080","0","1","0","5ea85cf4ad1f760a537eadfe","","null","","","learningBlock1","","","","That was a bim.","null","","","","","",""
"html-keyboard-response","137","180110","0.0-5.0-2.43","FL","b576vfvfdd","1920","1080","0","1","0","5ea85cf4ad1f760a537eadfe","","null","","","learningBlock1","","","","<div style=""font-size:60px;""> </div>","null","FL","learning/Slide44.JPG","That was a bim.","","",""
"image-keyboard-response","138","180285","0.0-5.0-0.44","FL","b576vfvfdd","1920","1080","0","1","0","5ea85cf4ad1f760a537eadfe","","null","","","","","","","learning/Slide45.JPG","null","","","","","",""
"html-keyboard-response","139","181438","0.0-5.0-1.44","FL","b576vfvfdd","1920","1080","0","1","0","5ea85cf4ad1f760a537eadfe","","null","","","learningBlock1","","","","That was a wug.","null","","","","","",""
"html-keyboard-response","140","182439","0.0-5.0-2.44","FL","b576vfvfdd","1920","1080","0","1","0","5ea85cf4ad1f760a537eadfe","","null","","","learningBlock1","","","","<div style=""font-size:60px;""> </div>","null","FL","learning/Slide45.JPG","That was a wug.","","",""
"image-keyboard-response","141","182614","0.0-5.0-0.45","FL","b576vfvfdd","1920","1080","0","1","0","5ea85cf4ad1f760a537eadfe","","null","","","","","","","learning/Slide46.JPG","null","","","","","",""
"html-keyboard-response","142","183766","0.0-5.0-1.45","FL","b576vfvfdd","1920","1080","0","1","0","5ea85cf4ad1f760a537eadfe","","null","","","learningBlock1","","","","That was a dep.","null","","","","","",""
"html-keyboard-response","143","184767","0.0-5.0-2.45","FL","b576vfvfdd","1920","1080","0","1","0","5ea85cf4ad1f760a537eadfe","","null","","","learningBlock1","","","","<div style=""font-size:60px;""> </div>","null","FL","learning/Slide46.JPG","That was a dep.","","",""
"image-keyboard-response","144","184942","0.0-5.0-0.46","FL","b576vfvfdd","1920","1080","0","1","0","5ea85cf4ad1f760a537eadfe","","null","","","","","","","learning/Slide47.JPG","null","","","","","",""
"html-keyboard-response","145","186093","0.0-5.0-1.46","FL","b576vfvfdd","1920","1080","0","1","0","5ea85cf4ad1f760a537eadfe","","null","","","learningBlock1","","","","That was a tob.","null","","","","","",""
"html-keyboard-response","146","187095","0.0-5.0-2.46","FL","b576vfvfdd","1920","1080","0","1","0","5ea85cf4ad1f760a537eadfe","","null","","","learningBlock1","","","","<div style=""font-size:60px;""> </div>","null","FL","learning/Slide47.JPG","That was a tob.","","",""
"image-keyboard-response","147","187269","0.0-5.0-0.47","FL","b576vfvfdd","1920","1080","0","1","0","5ea85cf4ad1f760a537eadfe","","null","","","","","","","learning/Slide48.JPG","null","","","","","",""
"html-keyboard-response","148","188422","0.0-5.0-1.47","FL","b576vfvfdd","1920","1080","0","1","0","5ea85cf4ad1f760a537eadfe","","null","","","learningBlock1","","","","That was a bim.","null","","","","","",""
"html-keyboard-response","149","189423","0.0-5.0-2.47","FL","b576vfvfdd","1920","1080","0","1","0","5ea85cf4ad1f760a537eadfe","","null","","","learningBlock1","","","","<div style=""font-size:60px;""> </div>","null","FL","learning/Slide48.JPG","That was a bim.","","",""
"image-keyboard-response","150","189600","0.0-5.0-0.48","FL","b576vfvfdd","1920","1080","0","1","0","5ea85cf4ad1f760a537eadfe","","null","","","","","","","learning/Slide49.JPG","null","","","","","",""
"html-keyboard-response","151","190750","0.0-5.0-1.48","FL","b576vfvfdd","1920","1080","0","1","0","5ea85cf4ad1f760a537eadfe","","null","","","learningBlock1","","","","That was a dep.","null","","","","","",""
"html-keyboard-response","152","191750","0.0-5.0-2.48","FL","b576vfvfdd","1920","1080","0","1","0","5ea85cf4ad1f760a537eadfe","","null","","","learningBlock1","","","","<div style=""font-size:60px;""> </div>","null","FL","learning/Slide49.JPG","That was a dep.","","",""
"image-keyboard-response","153","191927","0.0-5.0-0.49","FL","b576vfvfdd","1920","1080","0","1","0","5ea85cf4ad1f760a537eadfe","","null","","","","","","","learning/Slide50.JPG","null","","","","","",""
"html-keyboard-response","154","193078","0.0-5.0-1.49","FL","b576vfvfdd","1920","1080","0","1","0","5ea85cf4ad1f760a537eadfe","","null","","","learningBlock1","","","","That was a tob.","null","","","","","",""
"html-keyboard-response","155","194078","0.0-5.0-2.49","FL","b576vfvfdd","1920","1080","0","1","0","5ea85cf4ad1f760a537eadfe","","null","","","learningBlock1","","","","<div style=""font-size:60px;""> </div>","null","FL","learning/Slide50.JPG","That was a tob.","","",""
"image-keyboard-response","156","194254","0.0-5.0-0.50","FL","b576vfvfdd","1920","1080","0","1","0","5ea85cf4ad1f760a537eadfe","","null","","","","","","","learning/Slide51.JPG","null","","","","","",""
"html-keyboard-response","157","195406","0.0-5.0-1.50","FL","b576vfvfdd","1920","1080","0","1","0","5ea85cf4ad1f760a537eadfe","","null","","","learningBlock1","","","","That was a bim.","null","","","","","",""
"html-keyboard-response","158","196408","0.0-5.0-2.50","FL","b576vfvfdd","1920","1080","0","1","0","5ea85cf4ad1f760a537eadfe","","null","","","learningBlock1","","","","<div style=""font-size:60px;""> </div>","null","FL","learning/Slide51.JPG","That was a bim.","","",""
"image-keyboard-response","159","196585","0.0-5.0-0.51","FL","b576vfvfdd","1920","1080","0","1","0","5ea85cf4ad1f760a537eadfe","","null","","","","","","","learning/Slide52.JPG","null","","","","","",""
"html-keyboard-response","160","197735","0.0-5.0-1.51","FL","b576vfvfdd","1920","1080","0","1","0","5ea85cf4ad1f760a537eadfe","","null","","","learningBlock1","","","","That was a wug.","null","","","","","",""
"html-keyboard-response","161","198736","0.0-5.0-2.51","FL","b576vfvfdd","1920","1080","0","1","0","5ea85cf4ad1f760a537eadfe","","null","","","learningBlock1","","","","<div style=""font-size:60px;""> </div>","null","FL","learning/Slide52.JPG","That was a wug.","","",""
"image-keyboard-response","162","198911","0.0-5.0-0.52","FL","b576vfvfdd","1920","1080","0","1","0","5ea85cf4ad1f760a537eadfe","","null","","","","","","","learning/Slide53.JPG","null","","","","","",""
"html-keyboard-response","163","200064","0.0-5.0-1.52","FL","b576vfvfdd","1920","1080","0","1","0","5ea85cf4ad1f760a537eadfe","","null","","","learningBlock1","","","","That was a tob.","null","","","","","",""
"html-keyboard-response","164","201063","0.0-5.0-2.52","FL","b576vfvfdd","1920","1080","0","1","0","5ea85cf4ad1f760a537eadfe","","null","","","learningBlock1","","","","<div style=""font-size:60px;""> </div>","null","FL","learning/Slide53.JPG","That was a tob.","","",""
"image-keyboard-response","165","201239","0.0-5.0-0.53","FL","b576vfvfdd","1920","1080","0","1","0","5ea85cf4ad1f760a537eadfe","","null","","","","","","","learning/Slide54.JPG","null","","","","","",""
"html-keyboard-response","166","202390","0.0-5.0-1.53","FL","b576vfvfdd","1920","1080","0","1","0","5ea85cf4ad1f760a537eadfe","","null","","","learningBlock1","","","","That was a dep.","null","","","","","",""
"html-keyboard-response","167","203392","0.0-5.0-2.53","FL","b576vfvfdd","1920","1080","0","1","0","5ea85cf4ad1f760a537eadfe","","null","","","learningBlock1","","","","<div style=""font-size:60px;""> </div>","null","FL","learning/Slide54.JPG","That was a dep.","","",""
"image-keyboard-response","168","203569","0.0-5.0-0.54","FL","b576vfvfdd","1920","1080","0","1","0","5ea85cf4ad1f760a537eadfe","","null","","","","","","","learning/Slide55.JPG","null","","","","","",""
"html-keyboard-response","169","204719","0.0-5.0-1.54","FL","b576vfvfdd","1920","1080","0","1","0","5ea85cf4ad1f760a537eadfe","","null","","","learningBlock1","","","","That was a bim.","null","","","","","",""
"html-keyboard-response","170","205720","0.0-5.0-2.54","FL","b576vfvfdd","1920","1080","0","1","0","5ea85cf4ad1f760a537eadfe","","null","","","learningBlock1","","","","<div style=""font-size:60px;""> </div>","null","FL","learning/Slide55.JPG","That was a bim.","","",""
"image-keyboard-response","171","205895","0.0-5.0-0.55","FL","b576vfvfdd","1920","1080","0","1","0","5ea85cf4ad1f760a537eadfe","","null","","","","","","","learning/Slide56.JPG","null","","","","","",""
"html-keyboard-response","172","207046","0.0-5.0-1.55","FL","b576vfvfdd","1920","1080","0","1","0","5ea85cf4ad1f760a537eadfe","","null","","","learningBlock1","","","","That was a tob.","null","","","","","",""
"html-keyboard-response","173","208048","0.0-5.0-2.55","FL","b576vfvfdd","1920","1080","0","1","0","5ea85cf4ad1f760a537eadfe","","null","","","learningBlock1","","","","<div style=""font-size:60px;""> </div>","null","FL","learning/Slide56.JPG","That was a tob.","","",""
"image-keyboard-response","174","208224","0.0-5.0-0.56","FL","b576vfvfdd","1920","1080","0","1","0","5ea85cf4ad1f760a537eadfe","","null","","","","","","","learning/Slide57.JPG","null","","","","","",""
"html-keyboard-response","175","209376","0.0-5.0-1.56","FL","b576vfvfdd","1920","1080","0","1","0","5ea85cf4ad1f760a537eadfe","","null","","","learningBlock1","","","","That was a dep.","null","","","","","",""
"html-keyboard-response","176","210377","0.0-5.0-2.56","FL","b576vfvfdd","1920","1080","0","1","0","5ea85cf4ad1f760a537eadfe","","null","","","learningBlock1","","","","<div style=""font-size:60px;""> </div>","null","FL","learning/Slide57.JPG","That was a dep.","","",""
"image-keyboard-response","177","210552","0.0-5.0-0.57","FL","b576vfvfdd","1920","1080","0","1","0","5ea85cf4ad1f760a537eadfe","","null","","","","","","","learning/Slide58.JPG","null","","","","","",""
"html-keyboard-response","178","211703","0.0-5.0-1.57","FL","b576vfvfdd","1920","1080","0","1","0","5ea85cf4ad1f760a537eadfe","","null","","","learningBlock1","","","","That was a wug.","null","","","","","",""
"html-keyboard-response","179","212703","0.0-5.0-2.57","FL","b576vfvfdd","1920","1080","0","1","0","5ea85cf4ad1f760a537eadfe","","null","","","learningBlock1","","","","<div style=""font-size:60px;""> </div>","null","FL","learning/Slide58.JPG","That was a wug.","","",""
"image-keyboard-response","180","212880","0.0-5.0-0.58","FL","b576vfvfdd","1920","1080","0","1","0","5ea85cf4ad1f760a537eadfe","","null","","","","","","","learning/Slide59.JPG","null","","","","","",""
"html-keyboard-response","181","214030","0.0-5.0-1.58","FL","b576vfvfdd","1920","1080","0","1","0","5ea85cf4ad1f760a537eadfe","","null","","","learningBlock1","","","","That was a dep.","null","","","","","",""
"html-keyboard-response","182","215031","0.0-5.0-2.58","FL","b576vfvfdd","1920","1080","0","1","0","5ea85cf4ad1f760a537eadfe","","null","","","learningBlock1","","","","<div style=""font-size:60px;""> </div>","null","FL","learning/Slide59.JPG","That was a dep.","","",""
"image-keyboard-response","183","215206","0.0-5.0-0.59","FL","b576vfvfdd","1920","1080","0","1","0","5ea85cf4ad1f760a537eadfe","","null","","","","","","","learning/Slide60.JPG","null","","","","","",""
"html-keyboard-response","184","216358","0.0-5.0-1.59","FL","b576vfvfdd","1920","1080","0","1","0","5ea85cf4ad1f760a537eadfe","","null","","","learningBlock1","","","","That was a wug.","null","","","","","",""
"html-keyboard-response","185","217358","0.0-5.0-2.59","FL","b576vfvfdd","1920","1080","0","1","0","5ea85cf4ad1f760a537eadfe","","null","","","learningBlock1","","","","<div style=""font-size:60px;""> </div>","null","FL","learning/Slide60.JPG","That was a wug.","","",""
"image-keyboard-response","186","217534","0.0-5.0-0.60","FL","b576vfvfdd","1920","1080","0","1","0","5ea85cf4ad1f760a537eadfe","","null","","","","","","","learning/Slide61.JPG","null","","","","","",""
"html-keyboard-response","187","218686","0.0-5.0-1.60","FL","b576vfvfdd","1920","1080","0","1","0","5ea85cf4ad1f760a537eadfe","","null","","","learningBlock1","","","","That was a bim.","null","","","","","",""
"html-keyboard-response","188","219686","0.0-5.0-2.60","FL","b576vfvfdd","1920","1080","0","1","0","5ea85cf4ad1f760a537eadfe","","null","","","learningBlock1","","","","<div style=""font-size:60px;""> </div>","null","FL","learning/Slide61.JPG","That was a bim.","","",""
"image-keyboard-response","189","219863","0.0-5.0-0.61","FL","b576vfvfdd","1920","1080","0","1","0","5ea85cf4ad1f760a537eadfe","","null","","","","","","","learning/Slide62.JPG","null","","","","","",""
"html-keyboard-response","190","221013","0.0-5.0-1.61","FL","b576vfvfdd","1920","1080","0","1","0","5ea85cf4ad1f760a537eadfe","","null","","","learningBlock1","","","","That was a dep.","null","","","","","",""
"html-keyboard-response","191","222013","0.0-5.0-2.61","FL","b576vfvfdd","1920","1080","0","1","0","5ea85cf4ad1f760a537eadfe","","null","","","learningBlock1","","","","<div style=""font-size:60px;""> </div>","null","FL","learning/Slide62.JPG","That was a dep.","","",""
"image-keyboard-response","192","222188","0.0-5.0-0.62","FL","b576vfvfdd","1920","1080","0","1","0","5ea85cf4ad1f760a537eadfe","","null","","","","","","","learning/Slide63.JPG","null","","","","","",""
"html-keyboard-response","193","223340","0.0-5.0-1.62","FL","b576vfvfdd","1920","1080","0","1","0","5ea85cf4ad1f760a537eadfe","","null","","","learningBlock1","","","","That was a bim.","null","","","","","",""
"html-keyboard-response","194","224340","0.0-5.0-2.62","FL","b576vfvfdd","1920","1080","0","1","0","5ea85cf4ad1f760a537eadfe","","null","","","learningBlock1","","","","<div style=""font-size:60px;""> </div>","null","FL","learning/Slide63.JPG","That was a bim.","","",""
"image-keyboard-response","195","224517","0.0-5.0-0.63","FL","b576vfvfdd","1920","1080","0","1","0","5ea85cf4ad1f760a537eadfe","","null","","","","","","","learning/Slide64.JPG","null","","","","","",""
"html-keyboard-response","196","225668","0.0-5.0-1.63","FL","b576vfvfdd","1920","1080","0","1","0","5ea85cf4ad1f760a537eadfe","","null","","","learningBlock1","","","","That was a tob.","null","","","","","",""
"html-keyboard-response","197","226667","0.0-5.0-2.63","FL","b576vfvfdd","1920","1080","0","1","0","5ea85cf4ad1f760a537eadfe","","null","","","learningBlock1","","","","<div style=""font-size:60px;""> </div>","null","FL","learning/Slide64.JPG","That was a tob.","","",""
"image-keyboard-response","198","226843","0.0-5.0-0.64","FL","b576vfvfdd","1920","1080","0","1","0","5ea85cf4ad1f760a537eadfe","","null","","","","","","","learning/Slide65.JPG","null","","","","","",""
"html-keyboard-response","199","227993","0.0-5.0-1.64","FL","b576vfvfdd","1920","1080","0","1","0","5ea85cf4ad1f760a537eadfe","","null","","","learningBlock1","","","","That was a wug.","null","","","","","",""
"html-keyboard-response","200","228994","0.0-5.0-2.64","FL","b576vfvfdd","1920","1080","0","1","0","5ea85cf4ad1f760a537eadfe","","null","","","learningBlock1","","","","<div style=""font-size:60px;""> </div>","null","FL","learning/Slide65.JPG","That was a wug.","","",""
"image-keyboard-response","201","229169","0.0-5.0-0.65","FL","b576vfvfdd","1920","1080","0","1","0","5ea85cf4ad1f760a537eadfe","","null","","","","","","","learning/Slide66.JPG","null","","","","","",""
"html-keyboard-response","202","230322","0.0-5.0-1.65","FL","b576vfvfdd","1920","1080","0","1","0","5ea85cf4ad1f760a537eadfe","","null","","","learningBlock1","","","","That was a dep.","null","","","","","",""
"html-keyboard-response","203","231322","0.0-5.0-2.65","FL","b576vfvfdd","1920","1080","0","1","0","5ea85cf4ad1f760a537eadfe","","null","","","learningBlock1","","","","<div style=""font-size:60px;""> </div>","null","FL","learning/Slide66.JPG","That was a dep.","","",""
"image-keyboard-response","204","231499","0.0-5.0-0.66","FL","b576vfvfdd","1920","1080","0","1","0","5ea85cf4ad1f760a537eadfe","","null","","","","","","","learning/Slide67.JPG","null","","","","","",""
"html-keyboard-response","205","232649","0.0-5.0-1.66","FL","b576vfvfdd","1920","1080","0","1","0","5ea85cf4ad1f760a537eadfe","","null","","","learningBlock1","","","","That was a tob.","null","","","","","",""
"html-keyboard-response","206","233651","0.0-5.0-2.66","FL","b576vfvfdd","1920","1080","0","1","0","5ea85cf4ad1f760a537eadfe","","null","","","learningBlock1","","","","<div style=""font-size:60px;""> </div>","null","FL","learning/Slide67.JPG","That was a tob.","","",""
"image-keyboard-response","207","233826","0.0-5.0-0.67","FL","b576vfvfdd","1920","1080","0","1","0","5ea85cf4ad1f760a537eadfe","","null","","","","","","","learning/Slide68.JPG","null","","","","","",""
"html-keyboard-response","208","234977","0.0-5.0-1.67","FL","b576vfvfdd","1920","1080","0","1","0","5ea85cf4ad1f760a537eadfe","","null","","","learningBlock1","","","","That was a wug.","null","","","","","",""
"html-keyboard-response","209","235978","0.0-5.0-2.67","FL","b576vfvfdd","1920","1080","0","1","0","5ea85cf4ad1f760a537eadfe","","null","","","learningBlock1","","","","<div style=""font-size:60px;""> </div>","null","FL","learning/Slide68.JPG","That was a wug.","","",""
"image-keyboard-response","210","236154","0.0-5.0-0.68","FL","b576vfvfdd","1920","1080","0","1","0","5ea85cf4ad1f760a537eadfe","","null","","","","","","","learning/Slide69.JPG","null","","","","","",""
"html-keyboard-response","211","237306","0.0-5.0-1.68","FL","b576vfvfdd","1920","1080","0","1","0","5ea85cf4ad1f760a537eadfe","","null","","","learningBlock1","","","","That was a tob.","null","","","","","",""
"html-keyboard-response","212","238306","0.0-5.0-2.68","FL","b576vfvfdd","1920","1080","0","1","0","5ea85cf4ad1f760a537eadfe","","null","","","learningBlock1","","","","<div style=""font-size:60px;""> </div>","null","FL","learning/Slide69.JPG","That was a tob.","","",""
"image-keyboard-response","213","238483","0.0-5.0-0.69","FL","b576vfvfdd","1920","1080","0","1","0","5ea85cf4ad1f760a537eadfe","","null","","","","","","","learning/Slide70.JPG","null","","","","","",""
"html-keyboard-response","214","239634","0.0-5.0-1.69","FL","b576vfvfdd","1920","1080","0","1","0","5ea85cf4ad1f760a537eadfe","","null","","","learningBlock1","","","","That was a dep.","null","","","","","",""
"html-keyboard-response","215","240634","0.0-5.0-2.69","FL","b576vfvfdd","1920","1080","0","1","0","5ea85cf4ad1f760a537eadfe","","null","","","learningBlock1","","","","<div style=""font-size:60px;""> </div>","null","FL","learning/Slide70.JPG","That was a dep.","","",""
"image-keyboard-response","216","240811","0.0-5.0-0.70","FL","b576vfvfdd","1920","1080","0","1","0","5ea85cf4ad1f760a537eadfe","","null","","","","","","","learning/Slide71.JPG","null","","","","","",""
"html-keyboard-response","217","241961","0.0-5.0-1.70","FL","b576vfvfdd","1920","1080","0","1","0","5ea85cf4ad1f760a537eadfe","","null","","","learningBlock1","","","","That was a wug.","null","","","","","",""
"html-keyboard-response","218","242961","0.0-5.0-2.70","FL","b576vfvfdd","1920","1080","0","1","0","5ea85cf4ad1f760a537eadfe","","null","","","learningBlock1","","","","<div style=""font-size:60px;""> </div>","null","FL","learning/Slide71.JPG","That was a wug.","","",""
"image-keyboard-response","219","243137","0.0-5.0-0.71","FL","b576vfvfdd","1920","1080","0","1","0","5ea85cf4ad1f760a537eadfe","","null","","","","","","","learning/Slide72.JPG","null","","","","","",""
"html-keyboard-response","220","244289","0.0-5.0-1.71","FL","b576vfvfdd","1920","1080","0","1","0","5ea85cf4ad1f760a537eadfe","","null","","","learningBlock1","","","","That was a bim.","null","","","","","",""
"html-keyboard-response","221","245291","0.0-5.0-2.71","FL","b576vfvfdd","1920","1080","0","1","0","5ea85cf4ad1f760a537eadfe","","null","","","learningBlock1","","","","<div style=""font-size:60px;""> </div>","null","FL","learning/Slide72.JPG","That was a bim.","","",""
"image-keyboard-response","222","245466","0.0-5.0-0.72","FL","b576vfvfdd","1920","1080","0","1","0","5ea85cf4ad1f760a537eadfe","","null","","","","","","","learning/Slide73.JPG","null","","","","","",""
"html-keyboard-response","223","246617","0.0-5.0-1.72","FL","b576vfvfdd","1920","1080","0","1","0","5ea85cf4ad1f760a537eadfe","","null","","","learningBlock1","","","","That was a wug.","null","","","","","",""
"html-keyboard-response","224","247618","0.0-5.0-2.72","FL","b576vfvfdd","1920","1080","0","1","0","5ea85cf4ad1f760a537eadfe","","null","","","learningBlock1","","","","<div style=""font-size:60px;""> </div>","null","FL","learning/Slide73.JPG","That was a wug.","","",""
"image-keyboard-response","225","247792","0.0-5.0-0.73","FL","b576vfvfdd","1920","1080","0","1","0","5ea85cf4ad1f760a537eadfe","","null","","","","","","","learning/Slide74.JPG","null","","","","","",""
"html-keyboard-response","226","248945","0.0-5.0-1.73","FL","b576vfvfdd","1920","1080","0","1","0","5ea85cf4ad1f760a537eadfe","","null","","","learningBlock1","","","","That was a dep.","null","","","","","",""
"html-keyboard-response","227","249946","0.0-5.0-2.73","FL","b576vfvfdd","1920","1080","0","1","0","5ea85cf4ad1f760a537eadfe","","null","","","learningBlock1","","","","<div style=""font-size:60px;""> </div>","null","FL","learning/Slide74.JPG","That was a dep.","","",""
"image-keyboard-response","228","250122","0.0-5.0-0.74","FL","b576vfvfdd","1920","1080","0","1","0","5ea85cf4ad1f760a537eadfe","","null","","","","","","","learning/Slide75.JPG","null","","","","","",""
"html-keyboard-response","229","251272","0.0-5.0-1.74","FL","b576vfvfdd","1920","1080","0","1","0","5ea85cf4ad1f760a537eadfe","","null","","","learningBlock1","","","","That was a tob.","null","","","","","",""
"html-keyboard-response","230","252274","0.0-5.0-2.74","FL","b576vfvfdd","1920","1080","0","1","0","5ea85cf4ad1f760a537eadfe","","null","","","learningBlock1","","","","<div style=""font-size:60px;""> </div>","null","FL","learning/Slide75.JPG","That was a tob.","","",""
"image-keyboard-response","231","252449","0.0-5.0-0.75","FL","b576vfvfdd","1920","1080","0","1","0","5ea85cf4ad1f760a537eadfe","","null","","","","","","","learning/Slide76.JPG","null","","","","","",""
"html-keyboard-response","232","253600","0.0-5.0-1.75","FL","b576vfvfdd","1920","1080","0","1","0","5ea85cf4ad1f760a537eadfe","","null","","","learningBlock1","","","","That was a bim.","null","","","","","",""
"html-keyboard-response","233","254600","0.0-5.0-2.75","FL","b576vfvfdd","1920","1080","0","1","0","5ea85cf4ad1f760a537eadfe","","null","","","learningBlock1","","","","<div style=""font-size:60px;""> </div>","null","FL","learning/Slide76.JPG","That was a bim.","","",""
"image-keyboard-response","234","254777","0.0-5.0-0.76","FL","b576vfvfdd","1920","1080","0","1","0","5ea85cf4ad1f760a537eadfe","","null","","","","","","","learning/Slide77.JPG","null","","","","","",""
"html-keyboard-response","235","255928","0.0-5.0-1.76","FL","b576vfvfdd","1920","1080","0","1","0","5ea85cf4ad1f760a537eadfe","","null","","","learningBlock1","","","","That was a tob.","null","","","","","",""
"html-keyboard-response","236","256928","0.0-5.0-2.76","FL","b576vfvfdd","1920","1080","0","1","0","5ea85cf4ad1f760a537eadfe","","null","","","learningBlock1","","","","<div style=""font-size:60px;""> </div>","null","FL","learning/Slide77.JPG","That was a tob.","","",""
"image-keyboard-response","237","257104","0.0-5.0-0.77","FL","b576vfvfdd","1920","1080","0","1","0","5ea85cf4ad1f760a537eadfe","","null","","","","","","","learning/Slide78.JPG","null","","","","","",""
"html-keyboard-response","238","258255","0.0-5.0-1.77","FL","b576vfvfdd","1920","1080","0","1","0","5ea85cf4ad1f760a537eadfe","","null","","","learningBlock1","","","","That was a wug.","null","","","","","",""
"html-keyboard-response","239","259255","0.0-5.0-2.77","FL","b576vfvfdd","1920","1080","0","1","0","5ea85cf4ad1f760a537eadfe","","null","","","learningBlock1","","","","<div style=""font-size:60px;""> </div>","null","FL","learning/Slide78.JPG","That was a wug.","","",""
"image-keyboard-response","240","259431","0.0-5.0-0.78","FL","b576vfvfdd","1920","1080","0","1","0","5ea85cf4ad1f760a537eadfe","","null","","","","","","","learning/Slide79.JPG","null","","","","","",""
"html-keyboard-response","241","260583","0.0-5.0-1.78","FL","b576vfvfdd","1920","1080","0","1","0","5ea85cf4ad1f760a537eadfe","","null","","","learningBlock1","","","","That was a bim.","null","","","","","",""
"html-keyboard-response","242","261583","0.0-5.0-2.78","FL","b576vfvfdd","1920","1080","0","1","0","5ea85cf4ad1f760a537eadfe","","null","","","learningBlock1","","","","<div style=""font-size:60px;""> </div>","null","FL","learning/Slide79.JPG","That was a bim.","","",""
"image-keyboard-response","243","261759","0.0-5.0-0.79","FL","b576vfvfdd","1920","1080","0","1","0","5ea85cf4ad1f760a537eadfe","","null","","","","","","","learning/Slide80.JPG","null","","","","","",""
"html-keyboard-response","244","262909","0.0-5.0-1.79","FL","b576vfvfdd","1920","1080","0","1","0","5ea85cf4ad1f760a537eadfe","","null","","","learningBlock1","","","","That was a tob.","null","","","","","",""
"html-keyboard-response","245","263910","0.0-5.0-2.79","FL","b576vfvfdd","1920","1080","0","1","0","5ea85cf4ad1f760a537eadfe","","null","","","learningBlock1","","","","<div style=""font-size:60px;""> </div>","null","FL","learning/Slide80.JPG","That was a tob.","","",""
"instructions","246","269987","0.0-6.0","FL","b576vfvfdd","1920","1080","0","1","0","5ea85cf4ad1f760a537eadfe","","NA","","[{""page_index"":0,""viewing_time"":6077}]","instructions","","","","","","","","","","",""
"image-keyboard-response","247","270162","0.0-7.0-0.0","FL","b576vfvfdd","1920","1080","0","1","0","5ea85cf4ad1f760a537eadfe","","null","","","","","","","learning/Slide81.JPG","null","","","","","",""
"html-keyboard-response","248","271315","0.0-7.0-1.0","FL","b576vfvfdd","1920","1080","0","1","0","5ea85cf4ad1f760a537eadfe","","null","","","learningBlock2","","","","That was a wug.","null","","","","","",""
"html-keyboard-response","249","272316","0.0-7.0-2.0","FL","b576vfvfdd","1920","1080","0","1","0","5ea85cf4ad1f760a537eadfe","","null","","","learningBlock2","","","","<div style=""font-size:60px;""> </div>","null","FL","learning/Slide81.JPG","That was a wug.","","",""
"image-keyboard-response","250","272492","0.0-7.0-0.1","FL","b576vfvfdd","1920","1080","0","1","0","5ea85cf4ad1f760a537eadfe","","null","","","","","","","learning/Slide82.JPG","null","","","","","",""
"html-keyboard-response","251","273642","0.0-7.0-1.1","FL","b576vfvfdd","1920","1080","0","1","0","5ea85cf4ad1f760a537eadfe","","null","","","learningBlock2","","","","That was a bim.","null","","","","","",""
"html-keyboard-response","252","274643","0.0-7.0-2.1","FL","b576vfvfdd","1920","1080","0","1","0","5ea85cf4ad1f760a537eadfe","","null","","","learningBlock2","","","","<div style=""font-size:60px;""> </div>","null","FL","learning/Slide82.JPG","That was a bim.","","",""
"image-keyboard-response","253","274818","0.0-7.0-0.2","FL","b576vfvfdd","1920","1080","0","1","0","5ea85cf4ad1f760a537eadfe","","null","","","","","","","learning/Slide83.JPG","null","","","","","",""
"html-keyboard-response","254","275970","0.0-7.0-1.2","FL","b576vfvfdd","1920","1080","0","1","0","5ea85cf4ad1f760a537eadfe","","null","","","learningBlock2","","","","That was a wug.","null","","","","","",""
"html-keyboard-response","255","276971","0.0-7.0-2.2","FL","b576vfvfdd","1920","1080","0","1","0","5ea85cf4ad1f760a537eadfe","","null","","","learningBlock2","","","","<div style=""font-size:60px;""> </div>","null","FL","learning/Slide83.JPG","That was a wug.","","",""
"image-keyboard-response","256","277146","0.0-7.0-0.3","FL","b576vfvfdd","1920","1080","0","1","0","5ea85cf4ad1f760a537eadfe","","null","","","","","","","learning/Slide84.JPG","null","","","","","",""
"html-keyboard-response","257","278299","0.0-7.0-1.3","FL","b576vfvfdd","1920","1080","0","1","0","5ea85cf4ad1f760a537eadfe","","null","","","learningBlock2","","","","That was a dep.","null","","","","","",""
"html-keyboard-response","258","279298","0.0-7.0-2.3","FL","b576vfvfdd","1920","1080","0","1","0","5ea85cf4ad1f760a537eadfe","","null","","","learningBlock2","","","","<div style=""font-size:60px;""> </div>","null","FL","learning/Slide84.JPG","That was a dep.","","",""
"image-keyboard-response","259","279474","0.0-7.0-0.4","FL","b576vfvfdd","1920","1080","0","1","0","5ea85cf4ad1f760a537eadfe","","null","","","","","","","learning/Slide85.JPG","null","","","","","",""
"html-keyboard-response","260","280628","0.0-7.0-1.4","FL","b576vfvfdd","1920","1080","0","1","0","5ea85cf4ad1f760a537eadfe","","null","","","learningBlock2","","","","That was a bim.","null","","","","","",""
"html-keyboard-response","261","281629","0.0-7.0-2.4","FL","b576vfvfdd","1920","1080","0","1","0","5ea85cf4ad1f760a537eadfe","","null","","","learningBlock2","","","","<div style=""font-size:60px;""> </div>","null","FL","learning/Slide85.JPG","That was a bim.","","",""
"image-keyboard-response","262","281805","0.0-7.0-0.5","FL","b576vfvfdd","1920","1080","0","1","0","5ea85cf4ad1f760a537eadfe","","null","","","","","","","learning/Slide86.JPG","null","","","","","",""
"html-keyboard-response","263","282956","0.0-7.0-1.5","FL","b576vfvfdd","1920","1080","0","1","0","5ea85cf4ad1f760a537eadfe","","null","","","learningBlock2","","","","That was a tob.","null","","","","","",""
"html-keyboard-response","264","283956","0.0-7.0-2.5","FL","b576vfvfdd","1920","1080","0","1","0","5ea85cf4ad1f760a537eadfe","","null","","","learningBlock2","","","","<div style=""font-size:60px;""> </div>","null","FL","learning/Slide86.JPG","That was a tob.","","",""
"image-keyboard-response","265","284134","0.0-7.0-0.6","FL","b576vfvfdd","1920","1080","0","1","0","5ea85cf4ad1f760a537eadfe","","null","","","","","","","learning/Slide87.JPG","null","","","","","",""
"html-keyboard-response","266","285284","0.0-7.0-1.6","FL","b576vfvfdd","1920","1080","0","1","0","5ea85cf4ad1f760a537eadfe","","null","","","learningBlock2","","","","That was a wug.","null","","","","","",""
"html-keyboard-response","267","286286","0.0-7.0-2.6","FL","b576vfvfdd","1920","1080","0","1","0","5ea85cf4ad1f760a537eadfe","","null","","","learningBlock2","","","","<div style=""font-size:60px;""> </div>","null","FL","learning/Slide87.JPG","That was a wug.","","",""
"image-keyboard-response","268","286461","0.0-7.0-0.7","FL","b576vfvfdd","1920","1080","0","1","0","5ea85cf4ad1f760a537eadfe","","null","","","","","","","learning/Slide88.JPG","null","","","","","",""
"html-keyboard-response","269","287612","0.0-7.0-1.7","FL","b576vfvfdd","1920","1080","0","1","0","5ea85cf4ad1f760a537eadfe","","null","","","learningBlock2","","","","That was a tob.","null","","","","","",""
"html-keyboard-response","270","288614","0.0-7.0-2.7","FL","b576vfvfdd","1920","1080","0","1","0","5ea85cf4ad1f760a537eadfe","","null","","","learningBlock2","","","","<div style=""font-size:60px;""> </div>","null","FL","learning/Slide88.JPG","That was a tob.","","",""
"image-keyboard-response","271","288789","0.0-7.0-0.8","FL","b576vfvfdd","1920","1080","0","1","0","5ea85cf4ad1f760a537eadfe","","null","","","","","","","learning/Slide89.JPG","null","","","","","",""
"html-keyboard-response","272","289941","0.0-7.0-1.8","FL","b576vfvfdd","1920","1080","0","1","0","5ea85cf4ad1f760a537eadfe","","null","","","learningBlock2","","","","That was a bim.","null","","","","","",""
"html-keyboard-response","273","290942","0.0-7.0-2.8","FL","b576vfvfdd","1920","1080","0","1","0","5ea85cf4ad1f760a537eadfe","","null","","","learningBlock2","","","","<div style=""font-size:60px;""> </div>","null","FL","learning/Slide89.JPG","That was a bim.","","",""
"image-keyboard-response","274","291118","0.0-7.0-0.9","FL","b576vfvfdd","1920","1080","0","1","0","5ea85cf4ad1f760a537eadfe","","null","","","","","","","learning/Slide90.JPG","null","","","","","",""
"html-keyboard-response","275","292269","0.0-7.0-1.9","FL","b576vfvfdd","1920","1080","0","1","0","5ea85cf4ad1f760a537eadfe","","null","","","learningBlock2","","","","That was a dep.","null","","","","","",""
"html-keyboard-response","276","293272","0.0-7.0-2.9","FL","b576vfvfdd","1920","1080","0","1","0","5ea85cf4ad1f760a537eadfe","","null","","","learningBlock2","","","","<div style=""font-size:60px;""> </div>","null","FL","learning/Slide90.JPG","That was a dep.","","",""
"image-keyboard-response","277","293447","0.0-7.0-0.10","FL","b576vfvfdd","1920","1080","0","1","0","5ea85cf4ad1f760a537eadfe","","null","","","","","","","learning/Slide91.JPG","null","","","","","",""
"html-keyboard-response","278","294599","0.0-7.0-1.10","FL","b576vfvfdd","1920","1080","0","1","0","5ea85cf4ad1f760a537eadfe","","null","","","learningBlock2","","","","That was a wug.","null","","","","","",""
"html-keyboard-response","279","295600","0.0-7.0-2.10","FL","b576vfvfdd","1920","1080","0","1","0","5ea85cf4ad1f760a537eadfe","","null","","","learningBlock2","","","","<div style=""font-size:60px;""> </div>","null","FL","learning/Slide91.JPG","That was a wug.","","",""
"image-keyboard-response","280","295775","0.0-7.0-0.11","FL","b576vfvfdd","1920","1080","0","1","0","5ea85cf4ad1f760a537eadfe","","null","","","","","","","learning/Slide92.JPG","null","","","","","",""
"html-keyboard-response","281","296927","0.0-7.0-1.11","FL","b576vfvfdd","1920","1080","0","1","0","5ea85cf4ad1f760a537eadfe","","null","","","learningBlock2","","","","That was a tob.","null","","","","","",""
"html-keyboard-response","282","297928","0.0-7.0-2.11","FL","b576vfvfdd","1920","1080","0","1","0","5ea85cf4ad1f760a537eadfe","","null","","","learningBlock2","","","","<div style=""font-size:60px;""> </div>","null","FL","learning/Slide92.JPG","That was a tob.","","",""
"image-keyboard-response","283","298103","0.0-7.0-0.12","FL","b576vfvfdd","1920","1080","0","1","0","5ea85cf4ad1f760a537eadfe","","null","","","","","","","learning/Slide93.JPG","null","","","","","",""
"html-keyboard-response","284","299253","0.0-7.0-1.12","FL","b576vfvfdd","1920","1080","0","1","0","5ea85cf4ad1f760a537eadfe","","null","","","learningBlock2","","","","That was a bim.","null","","","","","",""
"html-keyboard-response","285","300254","0.0-7.0-2.12","FL","b576vfvfdd","1920","1080","0","1","0","5ea85cf4ad1f760a537eadfe","","null","","","learningBlock2","","","","<div style=""font-size:60px;""> </div>","null","FL","learning/Slide93.JPG","That was a bim.","","",""
"image-keyboard-response","286","300430","0.0-7.0-0.13","FL","b576vfvfdd","1920","1080","0","1","0","5ea85cf4ad1f760a537eadfe","","null","","","","","","","learning/Slide94.JPG","null","","","","","",""
"html-keyboard-response","287","301581","0.0-7.0-1.13","FL","b576vfvfdd","1920","1080","0","1","0","5ea85cf4ad1f760a537eadfe","","null","","","learningBlock2","","","","That was a tob.","null","","","","","",""
"html-keyboard-response","288","302582","0.0-7.0-2.13","FL","b576vfvfdd","1920","1080","0","1","0","5ea85cf4ad1f760a537eadfe","","null","","","learningBlock2","","","","<div style=""font-size:60px;""> </div>","null","FL","learning/Slide94.JPG","That was a tob.","","",""
"image-keyboard-response","289","302757","0.0-7.0-0.14","FL","b576vfvfdd","1920","1080","0","1","0","5ea85cf4ad1f760a537eadfe","","null","","","","","","","learning/Slide95.JPG","null","","","","","",""
"html-keyboard-response","290","303907","0.0-7.0-1.14","FL","b576vfvfdd","1920","1080","0","1","0","5ea85cf4ad1f760a537eadfe","","null","","","learningBlock2","","","","That was a wug.","null","","","","","",""
"html-keyboard-response","291","304908","0.0-7.0-2.14","FL","b576vfvfdd","1920","1080","0","1","0","5ea85cf4ad1f760a537eadfe","","null","","","learningBlock2","","","","<div style=""font-size:60px;""> </div>","null","FL","learning/Slide95.JPG","That was a wug.","","",""
"image-keyboard-response","292","305084","0.0-7.0-0.15","FL","b576vfvfdd","1920","1080","0","1","0","5ea85cf4ad1f760a537eadfe","","null","","","","","","","learning/Slide96.JPG","null","","","","","",""
"html-keyboard-response","293","306235","0.0-7.0-1.15","FL","b576vfvfdd","1920","1080","0","1","0","5ea85cf4ad1f760a537eadfe","","null","","","learningBlock2","","","","That was a tob.","null","","","","","",""
"html-keyboard-response","294","307236","0.0-7.0-2.15","FL","b576vfvfdd","1920","1080","0","1","0","5ea85cf4ad1f760a537eadfe","","null","","","learningBlock2","","","","<div style=""font-size:60px;""> </div>","null","FL","learning/Slide96.JPG","That was a tob.","","",""
"image-keyboard-response","295","307413","0.0-7.0-0.16","FL","b576vfvfdd","1920","1080","0","1","0","5ea85cf4ad1f760a537eadfe","","null","","","","","","","learning/Slide97.JPG","null","","","","","",""
"html-keyboard-response","296","308564","0.0-7.0-1.16","FL","b576vfvfdd","1920","1080","0","1","0","5ea85cf4ad1f760a537eadfe","","null","","","learningBlock2","","","","That was a dep.","null","","","","","",""
"html-keyboard-response","297","309564","0.0-7.0-2.16","FL","b576vfvfdd","1920","1080","0","1","0","5ea85cf4ad1f760a537eadfe","","null","","","learningBlock2","","","","<div style=""font-size:60px;""> </div>","null","FL","learning/Slide97.JPG","That was a dep.","","",""
"image-keyboard-response","298","309740","0.0-7.0-0.17","FL","b576vfvfdd","1920","1080","0","1","0","5ea85cf4ad1f760a537eadfe","","null","","","","","","","learning/Slide98.JPG","null","","","","","",""
"html-keyboard-response","299","310891","0.0-7.0-1.17","FL","b576vfvfdd","1920","1080","0","1","0","5ea85cf4ad1f760a537eadfe","","null","","","learningBlock2","","","","That was a bim.","null","","","","","",""
"html-keyboard-response","300","311891","0.0-7.0-2.17","FL","b576vfvfdd","1920","1080","0","1","0","5ea85cf4ad1f760a537eadfe","","null","","","learningBlock2","","","","<div style=""font-size:60px;""> </div>","null","FL","learning/Slide98.JPG","That was a bim.","","",""
"image-keyboard-response","301","312067","0.0-7.0-0.18","FL","b576vfvfdd","1920","1080","0","1","0","5ea85cf4ad1f760a537eadfe","","null","","","","","","","learning/Slide99.JPG","null","","","","","",""
"html-keyboard-response","302","313218","0.0-7.0-1.18","FL","b576vfvfdd","1920","1080","0","1","0","5ea85cf4ad1f760a537eadfe","","null","","","learningBlock2","","","","That was a dep.","null","","","","","",""
"html-keyboard-response","303","314220","0.0-7.0-2.18","FL","b576vfvfdd","1920","1080","0","1","0","5ea85cf4ad1f760a537eadfe","","null","","","learningBlock2","","","","<div style=""font-size:60px;""> </div>","null","FL","learning/Slide99.JPG","That was a dep.","","",""
"image-keyboard-response","304","314396","0.0-7.0-0.19","FL","b576vfvfdd","1920","1080","0","1","0","5ea85cf4ad1f760a537eadfe","","null","","","","","","","learning/Slide100.JPG","null","","","","","",""
"html-keyboard-response","305","315547","0.0-7.0-1.19","FL","b576vfvfdd","1920","1080","0","1","0","5ea85cf4ad1f760a537eadfe","","null","","","learningBlock2","","","","That was a bim.","null","","","","","",""
"html-keyboard-response","306","316548","0.0-7.0-2.19","FL","b576vfvfdd","1920","1080","0","1","0","5ea85cf4ad1f760a537eadfe","","null","","","learningBlock2","","","","<div style=""font-size:60px;""> </div>","null","FL","learning/Slide100.JPG","That was a bim.","","",""
"image-keyboard-response","307","316723","0.0-7.0-0.20","FL","b576vfvfdd","1920","1080","0","1","0","5ea85cf4ad1f760a537eadfe","","null","","","","","","","learning/Slide101.JPG","null","","","","","",""
"html-keyboard-response","308","317875","0.0-7.0-1.20","FL","b576vfvfdd","1920","1080","0","1","0","5ea85cf4ad1f760a537eadfe","","null","","","learningBlock2","","","","That was a tob.","null","","","","","",""
"html-keyboard-response","309","318876","0.0-7.0-2.20","FL","b576vfvfdd","1920","1080","0","1","0","5ea85cf4ad1f760a537eadfe","","null","","","learningBlock2","","","","<div style=""font-size:60px;""> </div>","null","FL","learning/Slide101.JPG","That was a tob.","","",""
"image-keyboard-response","310","319051","0.0-7.0-0.21","FL","b576vfvfdd","1920","1080","0","1","0","5ea85cf4ad1f760a537eadfe","","null","","","","","","","learning/Slide102.JPG","null","","","","","",""
"html-keyboard-response","311","320202","0.0-7.0-1.21","FL","b576vfvfdd","1920","1080","0","1","0","5ea85cf4ad1f760a537eadfe","","null","","","learningBlock2","","","","That was a bim.","null","","","","","",""
"html-keyboard-response","312","321202","0.0-7.0-2.21","FL","b576vfvfdd","1920","1080","0","1","0","5ea85cf4ad1f760a537eadfe","","null","","","learningBlock2","","","","<div style=""font-size:60px;""> </div>","null","FL","learning/Slide102.JPG","That was a bim.","","",""
"image-keyboard-response","313","321379","0.0-7.0-0.22","FL","b576vfvfdd","1920","1080","0","1","0","5ea85cf4ad1f760a537eadfe","","null","","","","","","","learning/Slide103.JPG","null","","","","","",""
"html-keyboard-response","314","322530","0.0-7.0-1.22","FL","b576vfvfdd","1920","1080","0","1","0","5ea85cf4ad1f760a537eadfe","","null","","","learningBlock2","","","","That was a dep.","null","","","","","",""
"html-keyboard-response","315","323531","0.0-7.0-2.22","FL","b576vfvfdd","1920","1080","0","1","0","5ea85cf4ad1f760a537eadfe","","null","","","learningBlock2","","","","<div style=""font-size:60px;""> </div>","null","FL","learning/Slide103.JPG","That was a dep.","","",""
"image-keyboard-response","316","323707","0.0-7.0-0.23","FL","b576vfvfdd","1920","1080","0","1","0","5ea85cf4ad1f760a537eadfe","","null","","","","","","","learning/Slide104.JPG","null","","","","","",""
"html-keyboard-response","317","324857","0.0-7.0-1.23","FL","b576vfvfdd","1920","1080","0","1","0","5ea85cf4ad1f760a537eadfe","","null","","","learningBlock2","","","","That was a tob.","null","","","","","",""
"html-keyboard-response","318","325860","0.0-7.0-2.23","FL","b576vfvfdd","1920","1080","0","1","0","5ea85cf4ad1f760a537eadfe","","null","","","learningBlock2","","","","<div style=""font-size:60px;""> </div>","null","FL","learning/Slide104.JPG","That was a tob.","","",""
"image-keyboard-response","319","326035","0.0-7.0-0.24","FL","b576vfvfdd","1920","1080","0","1","0","5ea85cf4ad1f760a537eadfe","","null","","","","","","","learning/Slide105.JPG","null","","","","","",""
"html-keyboard-response","320","327188","0.0-7.0-1.24","FL","b576vfvfdd","1920","1080","0","1","0","5ea85cf4ad1f760a537eadfe","","null","","","learningBlock2","","","","That was a dep.","null","","","","","",""
"html-keyboard-response","321","328188","0.0-7.0-2.24","FL","b576vfvfdd","1920","1080","0","1","0","5ea85cf4ad1f760a537eadfe","","null","","","learningBlock2","","","","<div style=""font-size:60px;""> </div>","null","FL","learning/Slide105.JPG","That was a dep.","","",""
"image-keyboard-response","322","328363","0.0-7.0-0.25","FL","b576vfvfdd","1920","1080","0","1","0","5ea85cf4ad1f760a537eadfe","","null","","","","","","","learning/Slide106.JPG","null","","","","","",""
"html-keyboard-response","323","329514","0.0-7.0-1.25","FL","b576vfvfdd","1920","1080","0","1","0","5ea85cf4ad1f760a537eadfe","","null","","","learningBlock2","","","","That was a wug.","null","","","","","",""
"html-keyboard-response","324","330514","0.0-7.0-2.25","FL","b576vfvfdd","1920","1080","0","1","0","5ea85cf4ad1f760a537eadfe","","null","","","learningBlock2","","","","<div style=""font-size:60px;""> </div>","null","FL","learning/Slide106.JPG","That was a wug.","","",""
"image-keyboard-response","325","330690","0.0-7.0-0.26","FL","b576vfvfdd","1920","1080","0","1","0","5ea85cf4ad1f760a537eadfe","","null","","","","","","","learning/Slide107.JPG","null","","","","","",""
"html-keyboard-response","326","331840","0.0-7.0-1.26","FL","b576vfvfdd","1920","1080","0","1","0","5ea85cf4ad1f760a537eadfe","","null","","","learningBlock2","","","","That was a bim.","null","","","","","",""
"html-keyboard-response","327","332841","0.0-7.0-2.26","FL","b576vfvfdd","1920","1080","0","1","0","5ea85cf4ad1f760a537eadfe","","null","","","learningBlock2","","","","<div style=""font-size:60px;""> </div>","null","FL","learning/Slide107.JPG","That was a bim.","","",""
"image-keyboard-response","328","333018","0.0-7.0-0.27","FL","b576vfvfdd","1920","1080","0","1","0","5ea85cf4ad1f760a537eadfe","","null","","","","","","","learning/Slide108.JPG","null","","","","","",""
"html-keyboard-response","329","334169","0.0-7.0-1.27","FL","b576vfvfdd","1920","1080","0","1","0","5ea85cf4ad1f760a537eadfe","","null","","","learningBlock2","","","","That was a dep.","null","","","","","",""
"html-keyboard-response","330","335169","0.0-7.0-2.27","FL","b576vfvfdd","1920","1080","0","1","0","5ea85cf4ad1f760a537eadfe","","null","","","learningBlock2","","","","<div style=""font-size:60px;""> </div>","null","FL","learning/Slide108.JPG","That was a dep.","","",""
"image-keyboard-response","331","335344","0.0-7.0-0.28","FL","b576vfvfdd","1920","1080","0","1","0","5ea85cf4ad1f760a537eadfe","","null","","","","","","","learning/Slide109.JPG","null","","","","","",""
"html-keyboard-response","332","336496","0.0-7.0-1.28","FL","b576vfvfdd","1920","1080","0","1","0","5ea85cf4ad1f760a537eadfe","","null","","","learningBlock2","","","","That was a wug.","null","","","","","",""
"html-keyboard-response","333","337497","0.0-7.0-2.28","FL","b576vfvfdd","1920","1080","0","1","0","5ea85cf4ad1f760a537eadfe","","null","","","learningBlock2","","","","<div style=""font-size:60px;""> </div>","null","FL","learning/Slide109.JPG","That was a wug.","","",""
"image-keyboard-response","334","337674","0.0-7.0-0.29","FL","b576vfvfdd","1920","1080","0","1","0","5ea85cf4ad1f760a537eadfe","","null","","","","","","","learning/Slide110.JPG","null","","","","","",""
"html-keyboard-response","335","338825","0.0-7.0-1.29","FL","b576vfvfdd","1920","1080","0","1","0","5ea85cf4ad1f760a537eadfe","","null","","","learningBlock2","","","","That was a bim.","null","","","","","",""
"html-keyboard-response","336","339825","0.0-7.0-2.29","FL","b576vfvfdd","1920","1080","0","1","0","5ea85cf4ad1f760a537eadfe","","null","","","learningBlock2","","","","<div style=""font-size:60px;""> </div>","null","FL","learning/Slide110.JPG","That was a bim.","","",""
"image-keyboard-response","337","340000","0.0-7.0-0.30","FL","b576vfvfdd","1920","1080","0","1","0","5ea85cf4ad1f760a537eadfe","","null","","","","","","","learning/Slide111.JPG","null","","","","","",""
"html-keyboard-response","338","341150","0.0-7.0-1.30","FL","b576vfvfdd","1920","1080","0","1","0","5ea85cf4ad1f760a537eadfe","","null","","","learningBlock2","","","","That was a tob.","null","","","","","",""
"html-keyboard-response","339","342150","0.0-7.0-2.30","FL","b576vfvfdd","1920","1080","0","1","0","5ea85cf4ad1f760a537eadfe","","null","","","learningBlock2","","","","<div style=""font-size:60px;""> </div>","null","FL","learning/Slide111.JPG","That was a tob.","","",""
"image-keyboard-response","340","342327","0.0-7.0-0.31","FL","b576vfvfdd","1920","1080","0","1","0","5ea85cf4ad1f760a537eadfe","","null","","","","","","","learning/Slide112.JPG","null","","","","","",""
"html-keyboard-response","341","343478","0.0-7.0-1.31","FL","b576vfvfdd","1920","1080","0","1","0","5ea85cf4ad1f760a537eadfe","","null","","","learningBlock2","","","","That was a wug.","null","","","","","",""
"html-keyboard-response","342","344479","0.0-7.0-2.31","FL","b576vfvfdd","1920","1080","0","1","0","5ea85cf4ad1f760a537eadfe","","null","","","learningBlock2","","","","<div style=""font-size:60px;""> </div>","null","FL","learning/Slide112.JPG","That was a wug.","","",""
"image-keyboard-response","343","344655","0.0-7.0-0.32","FL","b576vfvfdd","1920","1080","0","1","0","5ea85cf4ad1f760a537eadfe","","null","","","","","","","learning/Slide113.JPG","null","","","","","",""
"html-keyboard-response","344","345806","0.0-7.0-1.32","FL","b576vfvfdd","1920","1080","0","1","0","5ea85cf4ad1f760a537eadfe","","null","","","learningBlock2","","","","That was a tob.","null","","","","","",""
"html-keyboard-response","345","346807","0.0-7.0-2.32","FL","b576vfvfdd","1920","1080","0","1","0","5ea85cf4ad1f760a537eadfe","","null","","","learningBlock2","","","","<div style=""font-size:60px;""> </div>","null","FL","learning/Slide113.JPG","That was a tob.","","",""
"image-keyboard-response","346","346983","0.0-7.0-0.33","FL","b576vfvfdd","1920","1080","0","1","0","5ea85cf4ad1f760a537eadfe","","null","","","","","","","learning/Slide114.JPG","null","","","","","",""
"html-keyboard-response","347","348136","0.0-7.0-1.33","FL","b576vfvfdd","1920","1080","0","1","0","5ea85cf4ad1f760a537eadfe","","null","","","learningBlock2","","","","That was a wug.","null","","","","","",""
"html-keyboard-response","348","349136","0.0-7.0-2.33","FL","b576vfvfdd","1920","1080","0","1","0","5ea85cf4ad1f760a537eadfe","","null","","","learningBlock2","","","","<div style=""font-size:60px;""> </div>","null","FL","learning/Slide114.JPG","That was a wug.","","",""
"image-keyboard-response","349","349312","0.0-7.0-0.34","FL","b576vfvfdd","1920","1080","0","1","0","5ea85cf4ad1f760a537eadfe","","null","","","","","","","learning/Slide115.JPG","null","","","","","",""
"html-keyboard-response","350","350463","0.0-7.0-1.34","FL","b576vfvfdd","1920","1080","0","1","0","5ea85cf4ad1f760a537eadfe","","null","","","learningBlock2","","","","That was a bim.","null","","","","","",""
"html-keyboard-response","351","351463","0.0-7.0-2.34","FL","b576vfvfdd","1920","1080","0","1","0","5ea85cf4ad1f760a537eadfe","","null","","","learningBlock2","","","","<div style=""font-size:60px;""> </div>","null","FL","learning/Slide115.JPG","That was a bim.","","",""
"image-keyboard-response","352","351639","0.0-7.0-0.35","FL","b576vfvfdd","1920","1080","0","1","0","5ea85cf4ad1f760a537eadfe","","null","","","","","","","learning/Slide116.JPG","null","","","","","",""
"html-keyboard-response","353","352791","0.0-7.0-1.35","FL","b576vfvfdd","1920","1080","0","1","0","5ea85cf4ad1f760a537eadfe","","null","","","learningBlock2","","","","That was a dep.","null","","","","","",""
"html-keyboard-response","354","353792","0.0-7.0-2.35","FL","b576vfvfdd","1920","1080","0","1","0","5ea85cf4ad1f760a537eadfe","","null","","","learningBlock2","","","","<div style=""font-size:60px;""> </div>","null","FL","learning/Slide116.JPG","That was a dep.","","",""
"image-keyboard-response","355","353968","0.0-7.0-0.36","FL","b576vfvfdd","1920","1080","0","1","0","5ea85cf4ad1f760a537eadfe","","null","","","","","","","learning/Slide117.JPG","null","","","","","",""
"html-keyboard-response","356","355119","0.0-7.0-1.36","FL","b576vfvfdd","1920","1080","0","1","0","5ea85cf4ad1f760a537eadfe","","null","","","learningBlock2","","","","That was a tob.","null","","","","","",""
"html-keyboard-response","357","356121","0.0-7.0-2.36","FL","b576vfvfdd","1920","1080","0","1","0","5ea85cf4ad1f760a537eadfe","","null","","","learningBlock2","","","","<div style=""font-size:60px;""> </div>","null","FL","learning/Slide117.JPG","That was a tob.","","",""
"image-keyboard-response","358","356297","0.0-7.0-0.37","FL","b576vfvfdd","1920","1080","0","1","0","5ea85cf4ad1f760a537eadfe","","null","","","","","","","learning/Slide118.JPG","null","","","","","",""
"html-keyboard-response","359","357448","0.0-7.0-1.37","FL","b576vfvfdd","1920","1080","0","1","0","5ea85cf4ad1f760a537eadfe","","null","","","learningBlock2","","","","That was a dep.","null","","","","","",""
"html-keyboard-response","360","358448","0.0-7.0-2.37","FL","b576vfvfdd","1920","1080","0","1","0","5ea85cf4ad1f760a537eadfe","","null","","","learningBlock2","","","","<div style=""font-size:60px;""> </div>","null","FL","learning/Slide118.JPG","That was a dep.","","",""
"image-keyboard-response","361","358624","0.0-7.0-0.38","FL","b576vfvfdd","1920","1080","0","1","0","5ea85cf4ad1f760a537eadfe","","null","","","","","","","learning/Slide119.JPG","null","","","","","",""
"html-keyboard-response","362","359775","0.0-7.0-1.38","FL","b576vfvfdd","1920","1080","0","1","0","5ea85cf4ad1f760a537eadfe","","null","","","learningBlock2","","","","That was a wug.","null","","","","","",""
"html-keyboard-response","363","360776","0.0-7.0-2.38","FL","b576vfvfdd","1920","1080","0","1","0","5ea85cf4ad1f760a537eadfe","","null","","","learningBlock2","","","","<div style=""font-size:60px;""> </div>","null","FL","learning/Slide119.JPG","That was a wug.","","",""
"image-keyboard-response","364","360951","0.0-7.0-0.39","FL","b576vfvfdd","1920","1080","0","1","0","5ea85cf4ad1f760a537eadfe","","null","","","","","","","learning/Slide120.JPG","null","","","","","",""
"html-keyboard-response","365","362102","0.0-7.0-1.39","FL","b576vfvfdd","1920","1080","0","1","0","5ea85cf4ad1f760a537eadfe","","null","","","learningBlock2","","","","That was a dep.","null","","","","","",""
"html-keyboard-response","366","363104","0.0-7.0-2.39","FL","b576vfvfdd","1920","1080","0","1","0","5ea85cf4ad1f760a537eadfe","","null","","","learningBlock2","","","","<div style=""font-size:60px;""> </div>","null","FL","learning/Slide120.JPG","That was a dep.","","",""
"image-keyboard-response","367","363279","0.0-7.0-0.40","FL","b576vfvfdd","1920","1080","0","1","0","5ea85cf4ad1f760a537eadfe","","null","","","","","","","learning/Slide121.JPG","null","","","","","",""
"html-keyboard-response","368","364432","0.0-7.0-1.40","FL","b576vfvfdd","1920","1080","0","1","0","5ea85cf4ad1f760a537eadfe","","null","","","learningBlock2","","","","That was a bim.","null","","","","","",""
"html-keyboard-response","369","365432","0.0-7.0-2.40","FL","b576vfvfdd","1920","1080","0","1","0","5ea85cf4ad1f760a537eadfe","","null","","","learningBlock2","","","","<div style=""font-size:60px;""> </div>","null","FL","learning/Slide121.JPG","That was a bim.","","",""
"image-keyboard-response","370","365609","0.0-7.0-0.41","FL","b576vfvfdd","1920","1080","0","1","0","5ea85cf4ad1f760a537eadfe","","null","","","","","","","learning/Slide122.JPG","null","","","","","",""
"html-keyboard-response","371","366761","0.0-7.0-1.41","FL","b576vfvfdd","1920","1080","0","1","0","5ea85cf4ad1f760a537eadfe","","null","","","learningBlock2","","","","That was a wug.","null","","","","","",""
"html-keyboard-response","372","367762","0.0-7.0-2.41","FL","b576vfvfdd","1920","1080","0","1","0","5ea85cf4ad1f760a537eadfe","","null","","","learningBlock2","","","","<div style=""font-size:60px;""> </div>","null","FL","learning/Slide122.JPG","That was a wug.","","",""
"image-keyboard-response","373","367937","0.0-7.0-0.42","FL","b576vfvfdd","1920","1080","0","1","0","5ea85cf4ad1f760a537eadfe","","null","","","","","","","learning/Slide123.JPG","null","","","","","",""
"html-keyboard-response","374","369090","0.0-7.0-1.42","FL","b576vfvfdd","1920","1080","0","1","0","5ea85cf4ad1f760a537eadfe","","null","","","learningBlock2","","","","That was a bim.","null","","","","","",""
"html-keyboard-response","375","370090","0.0-7.0-2.42","FL","b576vfvfdd","1920","1080","0","1","0","5ea85cf4ad1f760a537eadfe","","null","","","learningBlock2","","","","<div style=""font-size:60px;""> </div>","null","FL","learning/Slide123.JPG","That was a bim.","","",""
"image-keyboard-response","376","370265","0.0-7.0-0.43","FL","b576vfvfdd","1920","1080","0","1","0","5ea85cf4ad1f760a537eadfe","","null","","","","","","","learning/Slide124.JPG","null","","","","","",""
"html-keyboard-response","377","371415","0.0-7.0-1.43","FL","b576vfvfdd","1920","1080","0","1","0","5ea85cf4ad1f760a537eadfe","","null","","","learningBlock2","","","","That was a tob.","null","","","","","",""
"html-keyboard-response","378","372416","0.0-7.0-2.43","FL","b576vfvfdd","1920","1080","0","1","0","5ea85cf4ad1f760a537eadfe","","null","","","learningBlock2","","","","<div style=""font-size:60px;""> </div>","null","FL","learning/Slide124.JPG","That was a tob.","","",""
"image-keyboard-response","379","372592","0.0-7.0-0.44","FL","b576vfvfdd","1920","1080","0","1","0","5ea85cf4ad1f760a537eadfe","","null","","","","","","","learning/Slide125.JPG","null","","","","","",""
"html-keyboard-response","380","373743","0.0-7.0-1.44","FL","b576vfvfdd","1920","1080","0","1","0","5ea85cf4ad1f760a537eadfe","","null","","","learningBlock2","","","","That was a bim.","null","","","","","",""
"html-keyboard-response","381","374744","0.0-7.0-2.44","FL","b576vfvfdd","1920","1080","0","1","0","5ea85cf4ad1f760a537eadfe","","null","","","learningBlock2","","","","<div style=""font-size:60px;""> </div>","null","FL","learning/Slide125.JPG","That was a bim.","","",""
"image-keyboard-response","382","374920","0.0-7.0-0.45","FL","b576vfvfdd","1920","1080","0","1","0","5ea85cf4ad1f760a537eadfe","","null","","","","","","","learning/Slide126.JPG","null","","","","","",""
"html-keyboard-response","383","376072","0.0-7.0-1.45","FL","b576vfvfdd","1920","1080","0","1","0","5ea85cf4ad1f760a537eadfe","","null","","","learningBlock2","","","","That was a tob.","null","","","","","",""
"html-keyboard-response","384","377073","0.0-7.0-2.45","FL","b576vfvfdd","1920","1080","0","1","0","5ea85cf4ad1f760a537eadfe","","null","","","learningBlock2","","","","<div style=""font-size:60px;""> </div>","null","FL","learning/Slide126.JPG","That was a tob.","","",""
"image-keyboard-response","385","377248","0.0-7.0-0.46","FL","b576vfvfdd","1920","1080","0","1","0","5ea85cf4ad1f760a537eadfe","","null","","","","","","","learning/Slide127.JPG","null","","","","","",""
"html-keyboard-response","386","378402","0.0-7.0-1.46","FL","b576vfvfdd","1920","1080","0","1","0","5ea85cf4ad1f760a537eadfe","","null","","","learningBlock2","","","","That was a dep.","null","","","","","",""
"html-keyboard-response","387","379402","0.0-7.0-2.46","FL","b576vfvfdd","1920","1080","0","1","0","5ea85cf4ad1f760a537eadfe","","null","","","learningBlock2","","","","<div style=""font-size:60px;""> </div>","null","FL","learning/Slide127.JPG","That was a dep.","","",""
"image-keyboard-response","388","379578","0.0-7.0-0.47","FL","b576vfvfdd","1920","1080","0","1","0","5ea85cf4ad1f760a537eadfe","","null","","","","","","","learning/Slide128.JPG","null","","","","","",""
"html-keyboard-response","389","380728","0.0-7.0-1.47","FL","b576vfvfdd","1920","1080","0","1","0","5ea85cf4ad1f760a537eadfe","","null","","","learningBlock2","","","","That was a wug.","null","","","","","",""
"html-keyboard-response","390","381729","0.0-7.0-2.47","FL","b576vfvfdd","1920","1080","0","1","0","5ea85cf4ad1f760a537eadfe","","null","","","learningBlock2","","","","<div style=""font-size:60px;""> </div>","null","FL","learning/Slide128.JPG","That was a wug.","","",""
"image-keyboard-response","391","381905","0.0-7.0-0.48","FL","b576vfvfdd","1920","1080","0","1","0","5ea85cf4ad1f760a537eadfe","","null","","","","","","","learning/Slide129.JPG","null","","","","","",""
"html-keyboard-response","392","383055","0.0-7.0-1.48","FL","b576vfvfdd","1920","1080","0","1","0","5ea85cf4ad1f760a537eadfe","","null","","","learningBlock2","","","","That was a tob.","null","","","","","",""
"html-keyboard-response","393","384056","0.0-7.0-2.48","FL","b576vfvfdd","1920","1080","0","1","0","5ea85cf4ad1f760a537eadfe","","null","","","learningBlock2","","","","<div style=""font-size:60px;""> </div>","null","FL","learning/Slide129.JPG","That was a tob.","","",""
"image-keyboard-response","394","384231","0.0-7.0-0.49","FL","b576vfvfdd","1920","1080","0","1","0","5ea85cf4ad1f760a537eadfe","","null","","","","","","","learning/Slide130.JPG","null","","","","","",""
"html-keyboard-response","395","385381","0.0-7.0-1.49","FL","b576vfvfdd","1920","1080","0","1","0","5ea85cf4ad1f760a537eadfe","","null","","","learningBlock2","","","","That was a wug.","null","","","","","",""
"html-keyboard-response","396","386383","0.0-7.0-2.49","FL","b576vfvfdd","1920","1080","0","1","0","5ea85cf4ad1f760a537eadfe","","null","","","learningBlock2","","","","<div style=""font-size:60px;""> </div>","null","FL","learning/Slide130.JPG","That was a wug.","","",""
"image-keyboard-response","397","386560","0.0-7.0-0.50","FL","b576vfvfdd","1920","1080","0","1","0","5ea85cf4ad1f760a537eadfe","","null","","","","","","","learning/Slide131.JPG","null","","","","","",""
"html-keyboard-response","398","387713","0.0-7.0-1.50","FL","b576vfvfdd","1920","1080","0","1","0","5ea85cf4ad1f760a537eadfe","","null","","","learningBlock2","","","","That was a bim.","null","","","","","",""
"html-keyboard-response","399","388713","0.0-7.0-2.50","FL","b576vfvfdd","1920","1080","0","1","0","5ea85cf4ad1f760a537eadfe","","null","","","learningBlock2","","","","<div style=""font-size:60px;""> </div>","null","FL","learning/Slide131.JPG","That was a bim.","","",""
"image-keyboard-response","400","388889","0.0-7.0-0.51","FL","b576vfvfdd","1920","1080","0","1","0","5ea85cf4ad1f760a537eadfe","","null","","","","","","","learning/Slide132.JPG","null","","","","","",""
"html-keyboard-response","401","390039","0.0-7.0-1.51","FL","b576vfvfdd","1920","1080","0","1","0","5ea85cf4ad1f760a537eadfe","","null","","","learningBlock2","","","","That was a dep.","null","","","","","",""
"html-keyboard-response","402","391040","0.0-7.0-2.51","FL","b576vfvfdd","1920","1080","0","1","0","5ea85cf4ad1f760a537eadfe","","null","","","learningBlock2","","","","<div style=""font-size:60px;""> </div>","null","FL","learning/Slide132.JPG","That was a dep.","","",""
"image-keyboard-response","403","391215","0.0-7.0-0.52","FL","b576vfvfdd","1920","1080","0","1","0","5ea85cf4ad1f760a537eadfe","","null","","","","","","","learning/Slide133.JPG","null","","","","","",""
"html-keyboard-response","404","392367","0.0-7.0-1.52","FL","b576vfvfdd","1920","1080","0","1","0","5ea85cf4ad1f760a537eadfe","","null","","","learningBlock2","","","","That was a tob.","null","","","","","",""
"html-keyboard-response","405","393369","0.0-7.0-2.52","FL","b576vfvfdd","1920","1080","0","1","0","5ea85cf4ad1f760a537eadfe","","null","","","learningBlock2","","","","<div style=""font-size:60px;""> </div>","null","FL","learning/Slide133.JPG","That was a tob.","","",""
"image-keyboard-response","406","393544","0.0-7.0-0.53","FL","b576vfvfdd","1920","1080","0","1","0","5ea85cf4ad1f760a537eadfe","","null","","","","","","","learning/Slide134.JPG","null","","","","","",""
"html-keyboard-response","407","394697","0.0-7.0-1.53","FL","b576vfvfdd","1920","1080","0","1","0","5ea85cf4ad1f760a537eadfe","","null","","","learningBlock2","","","","That was a dep.","null","","","","","",""
"html-keyboard-response","408","395697","0.0-7.0-2.53","FL","b576vfvfdd","1920","1080","0","1","0","5ea85cf4ad1f760a537eadfe","","null","","","learningBlock2","","","","<div style=""font-size:60px;""> </div>","null","FL","learning/Slide134.JPG","That was a dep.","","",""
"image-keyboard-response","409","395873","0.0-7.0-0.54","FL","b576vfvfdd","1920","1080","0","1","0","5ea85cf4ad1f760a537eadfe","","null","","","","","","","learning/Slide135.JPG","null","","","","","",""
"html-keyboard-response","410","397023","0.0-7.0-1.54","FL","b576vfvfdd","1920","1080","0","1","0","5ea85cf4ad1f760a537eadfe","","null","","","learningBlock2","","","","That was a tob.","null","","","","","",""
"html-keyboard-response","411","398024","0.0-7.0-2.54","FL","b576vfvfdd","1920","1080","0","1","0","5ea85cf4ad1f760a537eadfe","","null","","","learningBlock2","","","","<div style=""font-size:60px;""> </div>","null","FL","learning/Slide135.JPG","That was a tob.","","",""
"image-keyboard-response","412","398201","0.0-7.0-0.55","FL","b576vfvfdd","1920","1080","0","1","0","5ea85cf4ad1f760a537eadfe","","null","","","","","","","learning/Slide136.JPG","null","","","","","",""
"html-keyboard-response","413","399354","0.0-7.0-1.55","FL","b576vfvfdd","1920","1080","0","1","0","5ea85cf4ad1f760a537eadfe","","null","","","learningBlock2","","","","That was a wug.","null","","","","","",""
"html-keyboard-response","414","400356","0.0-7.0-2.55","FL","b576vfvfdd","1920","1080","0","1","0","5ea85cf4ad1f760a537eadfe","","null","","","learningBlock2","","","","<div style=""font-size:60px;""> </div>","null","FL","learning/Slide136.JPG","That was a wug.","","",""
"image-keyboard-response","415","400531","0.0-7.0-0.56","FL","b576vfvfdd","1920","1080","0","1","0","5ea85cf4ad1f760a537eadfe","","null","","","","","","","learning/Slide137.JPG","null","","","","","",""
"html-keyboard-response","416","401683","0.0-7.0-1.56","FL","b576vfvfdd","1920","1080","0","1","0","5ea85cf4ad1f760a537eadfe","","null","","","learningBlock2","","","","That was a tob.","null","","","","","",""
"html-keyboard-response","417","402686","0.0-7.0-2.56","FL","b576vfvfdd","1920","1080","0","1","0","5ea85cf4ad1f760a537eadfe","","null","","","learningBlock2","","","","<div style=""font-size:60px;""> </div>","null","FL","learning/Slide137.JPG","That was a tob.","","",""
"image-keyboard-response","418","402862","0.0-7.0-0.57","FL","b576vfvfdd","1920","1080","0","1","0","5ea85cf4ad1f760a537eadfe","","null","","","","","","","learning/Slide138.JPG","null","","","","","",""
"html-keyboard-response","419","404014","0.0-7.0-1.57","FL","b576vfvfdd","1920","1080","0","1","0","5ea85cf4ad1f760a537eadfe","","null","","","learningBlock2","","","","That was a bim.","null","","","","","",""
"html-keyboard-response","420","405016","0.0-7.0-2.57","FL","b576vfvfdd","1920","1080","0","1","0","5ea85cf4ad1f760a537eadfe","","null","","","learningBlock2","","","","<div style=""font-size:60px;""> </div>","null","FL","learning/Slide138.JPG","That was a bim.","","",""
"image-keyboard-response","421","405192","0.0-7.0-0.58","FL","b576vfvfdd","1920","1080","0","1","0","5ea85cf4ad1f760a537eadfe","","null","","","","","","","learning/Slide139.JPG","null","","","","","",""
"html-keyboard-response","422","406343","0.0-7.0-1.58","FL","b576vfvfdd","1920","1080","0","1","0","5ea85cf4ad1f760a537eadfe","","null","","","learningBlock2","","","","That was a wug.","null","","","","","",""
"html-keyboard-response","423","407345","0.0-7.0-2.58","FL","b576vfvfdd","1920","1080","0","1","0","5ea85cf4ad1f760a537eadfe","","null","","","learningBlock2","","","","<div style=""font-size:60px;""> </div>","null","FL","learning/Slide139.JPG","That was a wug.","","",""
"image-keyboard-response","424","407521","0.0-7.0-0.59","FL","b576vfvfdd","1920","1080","0","1","0","5ea85cf4ad1f760a537eadfe","","null","","","","","","","learning/Slide140.JPG","null","","","","","",""
"html-keyboard-response","425","408674","0.0-7.0-1.59","FL","b576vfvfdd","1920","1080","0","1","0","5ea85cf4ad1f760a537eadfe","","null","","","learningBlock2","","","","That was a dep.","null","","","","","",""
"html-keyboard-response","426","409674","0.0-7.0-2.59","FL","b576vfvfdd","1920","1080","0","1","0","5ea85cf4ad1f760a537eadfe","","null","","","learningBlock2","","","","<div style=""font-size:60px;""> </div>","null","FL","learning/Slide140.JPG","That was a dep.","","",""
"image-keyboard-response","427","409850","0.0-7.0-0.60","FL","b576vfvfdd","1920","1080","0","1","0","5ea85cf4ad1f760a537eadfe","","null","","","","","","","learning/Slide141.JPG","null","","","","","",""
"html-keyboard-response","428","411002","0.0-7.0-1.60","FL","b576vfvfdd","1920","1080","0","1","0","5ea85cf4ad1f760a537eadfe","","null","","","learningBlock2","","","","That was a tob.","null","","","","","",""
"html-keyboard-response","429","412004","0.0-7.0-2.60","FL","b576vfvfdd","1920","1080","0","1","0","5ea85cf4ad1f760a537eadfe","","null","","","learningBlock2","","","","<div style=""font-size:60px;""> </div>","null","FL","learning/Slide141.JPG","That was a tob.","","",""
"image-keyboard-response","430","412180","0.0-7.0-0.61","FL","b576vfvfdd","1920","1080","0","1","0","5ea85cf4ad1f760a537eadfe","","null","","","","","","","learning/Slide142.JPG","null","","","","","",""
"html-keyboard-response","431","413332","0.0-7.0-1.61","FL","b576vfvfdd","1920","1080","0","1","0","5ea85cf4ad1f760a537eadfe","","null","","","learningBlock2","","","","That was a wug.","null","","","","","",""
"html-keyboard-response","432","414335","0.0-7.0-2.61","FL","b576vfvfdd","1920","1080","0","1","0","5ea85cf4ad1f760a537eadfe","","null","","","learningBlock2","","","","<div style=""font-size:60px;""> </div>","null","FL","learning/Slide142.JPG","That was a wug.","","",""
"image-keyboard-response","433","414510","0.0-7.0-0.62","FL","b576vfvfdd","1920","1080","0","1","0","5ea85cf4ad1f760a537eadfe","","null","","","","","","","learning/Slide143.JPG","null","","","","","",""
"html-keyboard-response","434","415662","0.0-7.0-1.62","FL","b576vfvfdd","1920","1080","0","1","0","5ea85cf4ad1f760a537eadfe","","null","","","learningBlock2","","","","That was a bim.","null","","","","","",""
"html-keyboard-response","435","416662","0.0-7.0-2.62","FL","b576vfvfdd","1920","1080","0","1","0","5ea85cf4ad1f760a537eadfe","","null","","","learningBlock2","","","","<div style=""font-size:60px;""> </div>","null","FL","learning/Slide143.JPG","That was a bim.","","",""
