"trial_type","trial_index","time_elapsed","internal_node_id","condition","subject","screen_width","screen_height","attention","distraction","conscientious","prolificID","success","rt","url","view_history","test_part","final_height_px","final_width_px","scale_factor","stimulus","key_press","learningType","presentedImage","presentedLabel","button_pressed","response","responses"
"pavlovia","0","65","0.0-0.0","FL","55ovzw4068","2560","1440","0","1","0","5f830f1644cc14447b03305c","","","","","","","","","","","","","","","",""
"fullscreen","1","4235","0.0-1.0","FL","55ovzw4068","2560","1440","0","1","0","5f830f1644cc14447b03305c","true","","","","","","","","","","","","","","",""
"external-html","2","6856","0.0-2.0-0.0","FL","55ovzw4068","2560","1440","0","1","0","5f830f1644cc14447b03305c","","2603.9049999963026","text/information_english.html","","","","","","","","","","","","",""
"external-html","3","9425","0.0-2.0-1.0","FL","55ovzw4068","2560","1440","0","1","0","5f830f1644cc14447b03305c","","2540.515000000596","text/consent_english.html","","","","","","","","","","","","",""
"instructions","4","15159","0.0-3.0","FL","55ovzw4068","2560","1440","0","1","0","5f830f1644cc14447b03305c","","NA","","[{""page_index"":0,""viewing_time"":1279.0999999997439},{""page_index"":1,""viewing_time"":4439.534999997704}]","instructions","","","","","","","","","","",""
"resize","5","21890","0.0-4.0","FL","55ovzw4068","2560","1440","0","1","0","5f830f1644cc14447b03305c","","","","","","","554","3.5174603174603174","","","","","","","",""
"image-keyboard-response","6","22071","0.0-5.0-0.0","FL","55ovzw4068","2560","1440","0","1","0","5f830f1644cc14447b03305c","","null","","","","","","","learning/Slide1.JPG","null","","","","","",""
"html-keyboard-response","7","23225","0.0-5.0-1.0","FL","55ovzw4068","2560","1440","0","1","0","5f830f1644cc14447b03305c","","null","","","learningBlock1","","","","That was a tob.","null","","","","","",""
"html-keyboard-response","8","24227","0.0-5.0-2.0","FL","55ovzw4068","2560","1440","0","1","0","5f830f1644cc14447b03305c","","null","","","learningBlock1","","","","<div style=""font-size:60px;""> </div>","null","FL","learning/Slide1.JPG","That was a tob.","","",""
"image-keyboard-response","9","24404","0.0-5.0-0.1","FL","55ovzw4068","2560","1440","0","1","0","5f830f1644cc14447b03305c","","null","","","","","","","learning/Slide2.JPG","null","","","","","",""
"html-keyboard-response","10","25558","0.0-5.0-1.1","FL","55ovzw4068","2560","1440","0","1","0","5f830f1644cc14447b03305c","","null","","","learningBlock1","","","","That was a wug.","null","","","","","",""
"html-keyboard-response","11","26560","0.0-5.0-2.1","FL","55ovzw4068","2560","1440","0","1","0","5f830f1644cc14447b03305c","","null","","","learningBlock1","","","","<div style=""font-size:60px;""> </div>","null","FL","learning/Slide2.JPG","That was a wug.","","",""
"image-keyboard-response","12","26738","0.0-5.0-0.2","FL","55ovzw4068","2560","1440","0","1","0","5f830f1644cc14447b03305c","","null","","","","","","","learning/Slide3.JPG","null","","","","","",""
"html-keyboard-response","13","27891","0.0-5.0-1.2","FL","55ovzw4068","2560","1440","0","1","0","5f830f1644cc14447b03305c","","null","","","learningBlock1","","","","That was a bim.","null","","","","","",""
"html-keyboard-response","14","28894","0.0-5.0-2.2","FL","55ovzw4068","2560","1440","0","1","0","5f830f1644cc14447b03305c","","null","","","learningBlock1","","","","<div style=""font-size:60px;""> </div>","null","FL","learning/Slide3.JPG","That was a bim.","","",""
"image-keyboard-response","15","29072","0.0-5.0-0.3","FL","55ovzw4068","2560","1440","0","1","0","5f830f1644cc14447b03305c","","null","","","","","","","learning/Slide4.JPG","null","","","","","",""
"html-keyboard-response","16","30225","0.0-5.0-1.3","FL","55ovzw4068","2560","1440","0","1","0","5f830f1644cc14447b03305c","","null","","","learningBlock1","","","","That was a dep.","null","","","","","",""
"html-keyboard-response","17","31227","0.0-5.0-2.3","FL","55ovzw4068","2560","1440","0","1","0","5f830f1644cc14447b03305c","","null","","","learningBlock1","","","","<div style=""font-size:60px;""> </div>","null","FL","learning/Slide4.JPG","That was a dep.","","",""
"image-keyboard-response","18","31406","0.0-5.0-0.4","FL","55ovzw4068","2560","1440","0","1","0","5f830f1644cc14447b03305c","","null","","","","","","","learning/Slide5.JPG","null","","","","","",""
"html-keyboard-response","19","32559","0.0-5.0-1.4","FL","55ovzw4068","2560","1440","0","1","0","5f830f1644cc14447b03305c","","null","","","learningBlock1","","","","That was a wug.","null","","","","","",""
"html-keyboard-response","20","33562","0.0-5.0-2.4","FL","55ovzw4068","2560","1440","0","1","0","5f830f1644cc14447b03305c","","null","","","learningBlock1","","","","<div style=""font-size:60px;""> </div>","null","FL","learning/Slide5.JPG","That was a wug.","","",""
"image-keyboard-response","21","33740","0.0-5.0-0.5","FL","55ovzw4068","2560","1440","0","1","0","5f830f1644cc14447b03305c","","null","","","","","","","learning/Slide6.JPG","null","","","","","",""
"html-keyboard-response","22","34894","0.0-5.0-1.5","FL","55ovzw4068","2560","1440","0","1","0","5f830f1644cc14447b03305c","","null","","","learningBlock1","","","","That was a dep.","null","","","","","",""
"html-keyboard-response","23","35896","0.0-5.0-2.5","FL","55ovzw4068","2560","1440","0","1","0","5f830f1644cc14447b03305c","","null","","","learningBlock1","","","","<div style=""font-size:60px;""> </div>","null","FL","learning/Slide6.JPG","That was a dep.","","",""
"image-keyboard-response","24","36074","0.0-5.0-0.6","FL","55ovzw4068","2560","1440","0","1","0","5f830f1644cc14447b03305c","","null","","","","","","","learning/Slide7.JPG","null","","","","","",""
"html-keyboard-response","25","37226","0.0-5.0-1.6","FL","55ovzw4068","2560","1440","0","1","0","5f830f1644cc14447b03305c","","null","","","learningBlock1","","","","That was a wug.","null","","","","","",""
"html-keyboard-response","26","38227","0.0-5.0-2.6","FL","55ovzw4068","2560","1440","0","1","0","5f830f1644cc14447b03305c","","null","","","learningBlock1","","","","<div style=""font-size:60px;""> </div>","null","FL","learning/Slide7.JPG","That was a wug.","","",""
"image-keyboard-response","27","38404","0.0-5.0-0.7","FL","55ovzw4068","2560","1440","0","1","0","5f830f1644cc14447b03305c","","null","","","","","","","learning/Slide8.JPG","null","","","","","",""
"html-keyboard-response","28","39556","0.0-5.0-1.7","FL","55ovzw4068","2560","1440","0","1","0","5f830f1644cc14447b03305c","","null","","","learningBlock1","","","","That was a bim.","null","","","","","",""
"html-keyboard-response","29","40559","0.0-5.0-2.7","FL","55ovzw4068","2560","1440","0","1","0","5f830f1644cc14447b03305c","","null","","","learningBlock1","","","","<div style=""font-size:60px;""> </div>","null","FL","learning/Slide8.JPG","That was a bim.","","",""
"image-keyboard-response","30","40735","0.0-5.0-0.8","FL","55ovzw4068","2560","1440","0","1","0","5f830f1644cc14447b03305c","","null","","","","","","","learning/Slide9.JPG","null","","","","","",""
"html-keyboard-response","31","41889","0.0-5.0-1.8","FL","55ovzw4068","2560","1440","0","1","0","5f830f1644cc14447b03305c","","null","","","learningBlock1","","","","That was a wug.","null","","","","","",""
"html-keyboard-response","32","42892","0.0-5.0-2.8","FL","55ovzw4068","2560","1440","0","1","0","5f830f1644cc14447b03305c","","null","","","learningBlock1","","","","<div style=""font-size:60px;""> </div>","null","FL","learning/Slide9.JPG","That was a wug.","","",""
"image-keyboard-response","33","43071","0.0-5.0-0.9","FL","55ovzw4068","2560","1440","0","1","0","5f830f1644cc14447b03305c","","null","","","","","","","learning/Slide10.JPG","null","","","","","",""
"html-keyboard-response","34","44223","0.0-5.0-1.9","FL","55ovzw4068","2560","1440","0","1","0","5f830f1644cc14447b03305c","","null","","","learningBlock1","","","","That was a dep.","null","","","","","",""
"html-keyboard-response","35","45225","0.0-5.0-2.9","FL","55ovzw4068","2560","1440","0","1","0","5f830f1644cc14447b03305c","","null","","","learningBlock1","","","","<div style=""font-size:60px;""> </div>","null","FL","learning/Slide10.JPG","That was a dep.","","",""
"image-keyboard-response","36","45403","0.0-5.0-0.10","FL","55ovzw4068","2560","1440","0","1","0","5f830f1644cc14447b03305c","","null","","","","","","","learning/Slide11.JPG","null","","","","","",""
"html-keyboard-response","37","46555","0.0-5.0-1.10","FL","55ovzw4068","2560","1440","0","1","0","5f830f1644cc14447b03305c","","null","","","learningBlock1","","","","That was a tob.","null","","","","","",""
"html-keyboard-response","38","47557","0.0-5.0-2.10","FL","55ovzw4068","2560","1440","0","1","0","5f830f1644cc14447b03305c","","null","","","learningBlock1","","","","<div style=""font-size:60px;""> </div>","null","FL","learning/Slide11.JPG","That was a tob.","","",""
"image-keyboard-response","39","47735","0.0-5.0-0.11","FL","55ovzw4068","2560","1440","0","1","0","5f830f1644cc14447b03305c","","null","","","","","","","learning/Slide12.JPG","null","","","","","",""
"html-keyboard-response","40","48888","0.0-5.0-1.11","FL","55ovzw4068","2560","1440","0","1","0","5f830f1644cc14447b03305c","","null","","","learningBlock1","","","","That was a dep.","null","","","","","",""
"html-keyboard-response","41","49890","0.0-5.0-2.11","FL","55ovzw4068","2560","1440","0","1","0","5f830f1644cc14447b03305c","","null","","","learningBlock1","","","","<div style=""font-size:60px;""> </div>","null","FL","learning/Slide12.JPG","That was a dep.","","",""
"image-keyboard-response","42","50067","0.0-5.0-0.12","FL","55ovzw4068","2560","1440","0","1","0","5f830f1644cc14447b03305c","","null","","","","","","","learning/Slide13.JPG","null","","","","","",""
"html-keyboard-response","43","51220","0.0-5.0-1.12","FL","55ovzw4068","2560","1440","0","1","0","5f830f1644cc14447b03305c","","null","","","learningBlock1","","","","That was a bim.","null","","","","","",""
"html-keyboard-response","44","52222","0.0-5.0-2.12","FL","55ovzw4068","2560","1440","0","1","0","5f830f1644cc14447b03305c","","null","","","learningBlock1","","","","<div style=""font-size:60px;""> </div>","null","FL","learning/Slide13.JPG","That was a bim.","","",""
"image-keyboard-response","45","52399","0.0-5.0-0.13","FL","55ovzw4068","2560","1440","0","1","0","5f830f1644cc14447b03305c","","null","","","","","","","learning/Slide14.JPG","null","","","","","",""
"html-keyboard-response","46","53551","0.0-5.0-1.13","FL","55ovzw4068","2560","1440","0","1","0","5f830f1644cc14447b03305c","","null","","","learningBlock1","","","","That was a wug.","null","","","","","",""
"html-keyboard-response","47","54552","0.0-5.0-2.13","FL","55ovzw4068","2560","1440","0","1","0","5f830f1644cc14447b03305c","","null","","","learningBlock1","","","","<div style=""font-size:60px;""> </div>","null","FL","learning/Slide14.JPG","That was a wug.","","",""
"image-keyboard-response","48","54730","0.0-5.0-0.14","FL","55ovzw4068","2560","1440","0","1","0","5f830f1644cc14447b03305c","","null","","","","","","","learning/Slide15.JPG","null","","","","","",""
"html-keyboard-response","49","55882","0.0-5.0-1.14","FL","55ovzw4068","2560","1440","0","1","0","5f830f1644cc14447b03305c","","null","","","learningBlock1","","","","That was a tob.","null","","","","","",""
"html-keyboard-response","50","56884","0.0-5.0-2.14","FL","55ovzw4068","2560","1440","0","1","0","5f830f1644cc14447b03305c","","null","","","learningBlock1","","","","<div style=""font-size:60px;""> </div>","null","FL","learning/Slide15.JPG","That was a tob.","","",""
"image-keyboard-response","51","57061","0.0-5.0-0.15","FL","55ovzw4068","2560","1440","0","1","0","5f830f1644cc14447b03305c","","null","","","","","","","learning/Slide16.JPG","null","","","","","",""
"html-keyboard-response","52","58213","0.0-5.0-1.15","FL","55ovzw4068","2560","1440","0","1","0","5f830f1644cc14447b03305c","","null","","","learningBlock1","","","","That was a dep.","null","","","","","",""
"html-keyboard-response","53","59215","0.0-5.0-2.15","FL","55ovzw4068","2560","1440","0","1","0","5f830f1644cc14447b03305c","","null","","","learningBlock1","","","","<div style=""font-size:60px;""> </div>","null","FL","learning/Slide16.JPG","That was a dep.","","",""
"image-keyboard-response","54","59393","0.0-5.0-0.16","FL","55ovzw4068","2560","1440","0","1","0","5f830f1644cc14447b03305c","","null","","","","","","","learning/Slide17.JPG","null","","","","","",""
"html-keyboard-response","55","60546","0.0-5.0-1.16","FL","55ovzw4068","2560","1440","0","1","0","5f830f1644cc14447b03305c","","null","","","learningBlock1","","","","That was a bim.","null","","","","","",""
"html-keyboard-response","56","61547","0.0-5.0-2.16","FL","55ovzw4068","2560","1440","0","1","0","5f830f1644cc14447b03305c","","null","","","learningBlock1","","","","<div style=""font-size:60px;""> </div>","null","FL","learning/Slide17.JPG","That was a bim.","","",""
"image-keyboard-response","57","61724","0.0-5.0-0.17","FL","55ovzw4068","2560","1440","0","1","0","5f830f1644cc14447b03305c","","null","","","","","","","learning/Slide18.JPG","null","","","","","",""
"html-keyboard-response","58","62876","0.0-5.0-1.17","FL","55ovzw4068","2560","1440","0","1","0","5f830f1644cc14447b03305c","","null","","","learningBlock1","","","","That was a tob.","null","","","","","",""
"html-keyboard-response","59","63877","0.0-5.0-2.17","FL","55ovzw4068","2560","1440","0","1","0","5f830f1644cc14447b03305c","","null","","","learningBlock1","","","","<div style=""font-size:60px;""> </div>","null","FL","learning/Slide18.JPG","That was a tob.","","",""
"image-keyboard-response","60","64055","0.0-5.0-0.18","FL","55ovzw4068","2560","1440","0","1","0","5f830f1644cc14447b03305c","","null","","","","","","","learning/Slide19.JPG","null","","","","","",""
"html-keyboard-response","61","65207","0.0-5.0-1.18","FL","55ovzw4068","2560","1440","0","1","0","5f830f1644cc14447b03305c","","null","","","learningBlock1","","","","That was a wug.","null","","","","","",""
"html-keyboard-response","62","66209","0.0-5.0-2.18","FL","55ovzw4068","2560","1440","0","1","0","5f830f1644cc14447b03305c","","null","","","learningBlock1","","","","<div style=""font-size:60px;""> </div>","null","FL","learning/Slide19.JPG","That was a wug.","","",""
"image-keyboard-response","63","66386","0.0-5.0-0.19","FL","55ovzw4068","2560","1440","0","1","0","5f830f1644cc14447b03305c","","null","","","","","","","learning/Slide20.JPG","null","","","","","",""
"html-keyboard-response","64","67539","0.0-5.0-1.19","FL","55ovzw4068","2560","1440","0","1","0","5f830f1644cc14447b03305c","","null","","","learningBlock1","","","","That was a bim.","null","","","","","",""
"html-keyboard-response","65","68541","0.0-5.0-2.19","FL","55ovzw4068","2560","1440","0","1","0","5f830f1644cc14447b03305c","","null","","","learningBlock1","","","","<div style=""font-size:60px;""> </div>","null","FL","learning/Slide20.JPG","That was a bim.","","",""
"image-keyboard-response","66","68720","0.0-5.0-0.20","FL","55ovzw4068","2560","1440","0","1","0","5f830f1644cc14447b03305c","","null","","","","","","","learning/Slide21.JPG","null","","","","","",""
"html-keyboard-response","67","69873","0.0-5.0-1.20","FL","55ovzw4068","2560","1440","0","1","0","5f830f1644cc14447b03305c","","null","","","learningBlock1","","","","That was a dep.","null","","","","","",""
"html-keyboard-response","68","70874","0.0-5.0-2.20","FL","55ovzw4068","2560","1440","0","1","0","5f830f1644cc14447b03305c","","null","","","learningBlock1","","","","<div style=""font-size:60px;""> </div>","null","FL","learning/Slide21.JPG","That was a dep.","","",""
"image-keyboard-response","69","71051","0.0-5.0-0.21","FL","55ovzw4068","2560","1440","0","1","0","5f830f1644cc14447b03305c","","null","","","","","","","learning/Slide22.JPG","null","","","","","",""
"html-keyboard-response","70","72204","0.0-5.0-1.21","FL","55ovzw4068","2560","1440","0","1","0","5f830f1644cc14447b03305c","","null","","","learningBlock1","","","","That was a bim.","null","","","","","",""
"html-keyboard-response","71","73206","0.0-5.0-2.21","FL","55ovzw4068","2560","1440","0","1","0","5f830f1644cc14447b03305c","","null","","","learningBlock1","","","","<div style=""font-size:60px;""> </div>","null","FL","learning/Slide22.JPG","That was a bim.","","",""
"image-keyboard-response","72","73384","0.0-5.0-0.22","FL","55ovzw4068","2560","1440","0","1","0","5f830f1644cc14447b03305c","","null","","","","","","","learning/Slide23.JPG","null","","","","","",""
"html-keyboard-response","73","74536","0.0-5.0-1.22","FL","55ovzw4068","2560","1440","0","1","0","5f830f1644cc14447b03305c","","null","","","learningBlock1","","","","That was a tob.","null","","","","","",""
"html-keyboard-response","74","75538","0.0-5.0-2.22","FL","55ovzw4068","2560","1440","0","1","0","5f830f1644cc14447b03305c","","null","","","learningBlock1","","","","<div style=""font-size:60px;""> </div>","null","FL","learning/Slide23.JPG","That was a tob.","","",""
"image-keyboard-response","75","75715","0.0-5.0-0.23","FL","55ovzw4068","2560","1440","0","1","0","5f830f1644cc14447b03305c","","null","","","","","","","learning/Slide24.JPG","null","","","","","",""
"html-keyboard-response","76","76867","0.0-5.0-1.23","FL","55ovzw4068","2560","1440","0","1","0","5f830f1644cc14447b03305c","","null","","","learningBlock1","","","","That was a wug.","null","","","","","",""
"html-keyboard-response","77","77870","0.0-5.0-2.23","FL","55ovzw4068","2560","1440","0","1","0","5f830f1644cc14447b03305c","","null","","","learningBlock1","","","","<div style=""font-size:60px;""> </div>","null","FL","learning/Slide24.JPG","That was a wug.","","",""
"image-keyboard-response","78","78048","0.0-5.0-0.24","FL","55ovzw4068","2560","1440","0","1","0","5f830f1644cc14447b03305c","","null","","","","","","","learning/Slide25.JPG","null","","","","","",""
"html-keyboard-response","79","79201","0.0-5.0-1.24","FL","55ovzw4068","2560","1440","0","1","0","5f830f1644cc14447b03305c","","null","","","learningBlock1","","","","That was a dep.","null","","","","","",""
"html-keyboard-response","80","80204","0.0-5.0-2.24","FL","55ovzw4068","2560","1440","0","1","0","5f830f1644cc14447b03305c","","null","","","learningBlock1","","","","<div style=""font-size:60px;""> </div>","null","FL","learning/Slide25.JPG","That was a dep.","","",""
"image-keyboard-response","81","80382","0.0-5.0-0.25","FL","55ovzw4068","2560","1440","0","1","0","5f830f1644cc14447b03305c","","null","","","","","","","learning/Slide26.JPG","null","","","","","",""
"html-keyboard-response","82","81535","0.0-5.0-1.25","FL","55ovzw4068","2560","1440","0","1","0","5f830f1644cc14447b03305c","","null","","","learningBlock1","","","","That was a wug.","null","","","","","",""
"html-keyboard-response","83","82537","0.0-5.0-2.25","FL","55ovzw4068","2560","1440","0","1","0","5f830f1644cc14447b03305c","","null","","","learningBlock1","","","","<div style=""font-size:60px;""> </div>","null","FL","learning/Slide26.JPG","That was a wug.","","",""
"image-keyboard-response","84","82715","0.0-5.0-0.26","FL","55ovzw4068","2560","1440","0","1","0","5f830f1644cc14447b03305c","","null","","","","","","","learning/Slide27.JPG","null","","","","","",""
"html-keyboard-response","85","83866","0.0-5.0-1.26","FL","55ovzw4068","2560","1440","0","1","0","5f830f1644cc14447b03305c","","null","","","learningBlock1","","","","That was a bim.","null","","","","","",""
"html-keyboard-response","86","84868","0.0-5.0-2.26","FL","55ovzw4068","2560","1440","0","1","0","5f830f1644cc14447b03305c","","null","","","learningBlock1","","","","<div style=""font-size:60px;""> </div>","null","FL","learning/Slide27.JPG","That was a bim.","","",""
"image-keyboard-response","87","85046","0.0-5.0-0.27","FL","55ovzw4068","2560","1440","0","1","0","5f830f1644cc14447b03305c","","null","","","","","","","learning/Slide28.JPG","null","","","","","",""
"html-keyboard-response","88","86200","0.0-5.0-1.27","FL","55ovzw4068","2560","1440","0","1","0","5f830f1644cc14447b03305c","","null","","","learningBlock1","","","","That was a dep.","null","","","","","",""
"html-keyboard-response","89","87206","0.0-5.0-2.27","FL","55ovzw4068","2560","1440","0","1","0","5f830f1644cc14447b03305c","","null","","","learningBlock1","","","","<div style=""font-size:60px;""> </div>","null","FL","learning/Slide28.JPG","That was a dep.","","",""
"image-keyboard-response","90","87383","0.0-5.0-0.28","FL","55ovzw4068","2560","1440","0","1","0","5f830f1644cc14447b03305c","","null","","","","","","","learning/Slide29.JPG","null","","","","","",""
"html-keyboard-response","91","88535","0.0-5.0-1.28","FL","55ovzw4068","2560","1440","0","1","0","5f830f1644cc14447b03305c","","null","","","learningBlock1","","","","That was a tob.","null","","","","","",""
"html-keyboard-response","92","89536","0.0-5.0-2.28","FL","55ovzw4068","2560","1440","0","1","0","5f830f1644cc14447b03305c","","null","","","learningBlock1","","","","<div style=""font-size:60px;""> </div>","null","FL","learning/Slide29.JPG","That was a tob.","","",""
"image-keyboard-response","93","89714","0.0-5.0-0.29","FL","55ovzw4068","2560","1440","0","1","0","5f830f1644cc14447b03305c","","null","","","","","","","learning/Slide30.JPG","null","","","","","",""
"html-keyboard-response","94","90866","0.0-5.0-1.29","FL","55ovzw4068","2560","1440","0","1","0","5f830f1644cc14447b03305c","","null","","","learningBlock1","","","","That was a dep.","null","","","","","",""
"html-keyboard-response","95","91869","0.0-5.0-2.29","FL","55ovzw4068","2560","1440","0","1","0","5f830f1644cc14447b03305c","","null","","","learningBlock1","","","","<div style=""font-size:60px;""> </div>","null","FL","learning/Slide30.JPG","That was a dep.","","",""
"image-keyboard-response","96","92046","0.0-5.0-0.30","FL","55ovzw4068","2560","1440","0","1","0","5f830f1644cc14447b03305c","","null","","","","","","","learning/Slide31.JPG","null","","","","","",""
"html-keyboard-response","97","93199","0.0-5.0-1.30","FL","55ovzw4068","2560","1440","0","1","0","5f830f1644cc14447b03305c","","null","","","learningBlock1","","","","That was a wug.","null","","","","","",""
"html-keyboard-response","98","94200","0.0-5.0-2.30","FL","55ovzw4068","2560","1440","0","1","0","5f830f1644cc14447b03305c","","null","","","learningBlock1","","","","<div style=""font-size:60px;""> </div>","null","FL","learning/Slide31.JPG","That was a wug.","","",""
"image-keyboard-response","99","94378","0.0-5.0-0.31","FL","55ovzw4068","2560","1440","0","1","0","5f830f1644cc14447b03305c","","null","","","","","","","learning/Slide32.JPG","null","","","","","",""
"html-keyboard-response","100","95530","0.0-5.0-1.31","FL","55ovzw4068","2560","1440","0","1","0","5f830f1644cc14447b03305c","","null","","","learningBlock1","","","","That was a tob.","null","","","","","",""
"html-keyboard-response","101","96532","0.0-5.0-2.31","FL","55ovzw4068","2560","1440","0","1","0","5f830f1644cc14447b03305c","","null","","","learningBlock1","","","","<div style=""font-size:60px;""> </div>","null","FL","learning/Slide32.JPG","That was a tob.","","",""
"image-keyboard-response","102","96710","0.0-5.0-0.32","FL","55ovzw4068","2560","1440","0","1","0","5f830f1644cc14447b03305c","","null","","","","","","","learning/Slide33.JPG","null","","","","","",""
"html-keyboard-response","103","97862","0.0-5.0-1.32","FL","55ovzw4068","2560","1440","0","1","0","5f830f1644cc14447b03305c","","null","","","learningBlock1","","","","That was a bim.","null","","","","","",""
"html-keyboard-response","104","98865","0.0-5.0-2.32","FL","55ovzw4068","2560","1440","0","1","0","5f830f1644cc14447b03305c","","null","","","learningBlock1","","","","<div style=""font-size:60px;""> </div>","null","FL","learning/Slide33.JPG","That was a bim.","","",""
"image-keyboard-response","105","99042","0.0-5.0-0.33","FL","55ovzw4068","2560","1440","0","1","0","5f830f1644cc14447b03305c","","null","","","","","","","learning/Slide34.JPG","null","","","","","",""
"html-keyboard-response","106","100195","0.0-5.0-1.33","FL","55ovzw4068","2560","1440","0","1","0","5f830f1644cc14447b03305c","","null","","","learningBlock1","","","","That was a tob.","null","","","","","",""
"html-keyboard-response","107","101197","0.0-5.0-2.33","FL","55ovzw4068","2560","1440","0","1","0","5f830f1644cc14447b03305c","","null","","","learningBlock1","","","","<div style=""font-size:60px;""> </div>","null","FL","learning/Slide34.JPG","That was a tob.","","",""
"image-keyboard-response","108","101374","0.0-5.0-0.34","FL","55ovzw4068","2560","1440","0","1","0","5f830f1644cc14447b03305c","","null","","","","","","","learning/Slide35.JPG","null","","","","","",""
"html-keyboard-response","109","102527","0.0-5.0-1.34","FL","55ovzw4068","2560","1440","0","1","0","5f830f1644cc14447b03305c","","null","","","learningBlock1","","","","That was a bim.","null","","","","","",""
"html-keyboard-response","110","103529","0.0-5.0-2.34","FL","55ovzw4068","2560","1440","0","1","0","5f830f1644cc14447b03305c","","null","","","learningBlock1","","","","<div style=""font-size:60px;""> </div>","null","FL","learning/Slide35.JPG","That was a bim.","","",""
"image-keyboard-response","111","103705","0.0-5.0-0.35","FL","55ovzw4068","2560","1440","0","1","0","5f830f1644cc14447b03305c","","null","","","","","","","learning/Slide36.JPG","null","","","","","",""
"html-keyboard-response","112","104858","0.0-5.0-1.35","FL","55ovzw4068","2560","1440","0","1","0","5f830f1644cc14447b03305c","","null","","","learningBlock1","","","","That was a dep.","null","","","","","",""
"html-keyboard-response","113","105860","0.0-5.0-2.35","FL","55ovzw4068","2560","1440","0","1","0","5f830f1644cc14447b03305c","","null","","","learningBlock1","","","","<div style=""font-size:60px;""> </div>","null","FL","learning/Slide36.JPG","That was a dep.","","",""
"image-keyboard-response","114","106037","0.0-5.0-0.36","FL","55ovzw4068","2560","1440","0","1","0","5f830f1644cc14447b03305c","","null","","","","","","","learning/Slide37.JPG","null","","","","","",""
"html-keyboard-response","115","107190","0.0-5.0-1.36","FL","55ovzw4068","2560","1440","0","1","0","5f830f1644cc14447b03305c","","null","","","learningBlock1","","","","That was a tob.","null","","","","","",""
"html-keyboard-response","116","108191","0.0-5.0-2.36","FL","55ovzw4068","2560","1440","0","1","0","5f830f1644cc14447b03305c","","null","","","learningBlock1","","","","<div style=""font-size:60px;""> </div>","null","FL","learning/Slide37.JPG","That was a tob.","","",""
"image-keyboard-response","117","108369","0.0-5.0-0.37","FL","55ovzw4068","2560","1440","0","1","0","5f830f1644cc14447b03305c","","null","","","","","","","learning/Slide38.JPG","null","","","","","",""
"html-keyboard-response","118","109521","0.0-5.0-1.37","FL","55ovzw4068","2560","1440","0","1","0","5f830f1644cc14447b03305c","","null","","","learningBlock1","","","","That was a wug.","null","","","","","",""
"html-keyboard-response","119","110523","0.0-5.0-2.37","FL","55ovzw4068","2560","1440","0","1","0","5f830f1644cc14447b03305c","","null","","","learningBlock1","","","","<div style=""font-size:60px;""> </div>","null","FL","learning/Slide38.JPG","That was a wug.","","",""
"image-keyboard-response","120","110700","0.0-5.0-0.38","FL","55ovzw4068","2560","1440","0","1","0","5f830f1644cc14447b03305c","","null","","","","","","","learning/Slide39.JPG","null","","","","","",""
"html-keyboard-response","121","111852","0.0-5.0-1.38","FL","55ovzw4068","2560","1440","0","1","0","5f830f1644cc14447b03305c","","null","","","learningBlock1","","","","That was a bim.","null","","","","","",""
"html-keyboard-response","122","112854","0.0-5.0-2.38","FL","55ovzw4068","2560","1440","0","1","0","5f830f1644cc14447b03305c","","null","","","learningBlock1","","","","<div style=""font-size:60px;""> </div>","null","FL","learning/Slide39.JPG","That was a bim.","","",""
"image-keyboard-response","123","113032","0.0-5.0-0.39","FL","55ovzw4068","2560","1440","0","1","0","5f830f1644cc14447b03305c","","null","","","","","","","learning/Slide40.JPG","null","","","","","",""
"html-keyboard-response","124","114185","0.0-5.0-1.39","FL","55ovzw4068","2560","1440","0","1","0","5f830f1644cc14447b03305c","","null","","","learningBlock1","","","","That was a tob.","null","","","","","",""
"html-keyboard-response","125","115186","0.0-5.0-2.39","FL","55ovzw4068","2560","1440","0","1","0","5f830f1644cc14447b03305c","","null","","","learningBlock1","","","","<div style=""font-size:60px;""> </div>","null","FL","learning/Slide40.JPG","That was a tob.","","",""
"image-keyboard-response","126","115363","0.0-5.0-0.40","FL","55ovzw4068","2560","1440","0","1","0","5f830f1644cc14447b03305c","","null","","","","","","","learning/Slide41.JPG","null","","","","","",""
"html-keyboard-response","127","116515","0.0-5.0-1.40","FL","55ovzw4068","2560","1440","0","1","0","5f830f1644cc14447b03305c","","null","","","learningBlock1","","","","That was a bim.","null","","","","","",""
"html-keyboard-response","128","117517","0.0-5.0-2.40","FL","55ovzw4068","2560","1440","0","1","0","5f830f1644cc14447b03305c","","null","","","learningBlock1","","","","<div style=""font-size:60px;""> </div>","null","FL","learning/Slide41.JPG","That was a bim.","","",""
"image-keyboard-response","129","117695","0.0-5.0-0.41","FL","55ovzw4068","2560","1440","0","1","0","5f830f1644cc14447b03305c","","null","","","","","","","learning/Slide42.JPG","null","","","","","",""
"html-keyboard-response","130","118848","0.0-5.0-1.41","FL","55ovzw4068","2560","1440","0","1","0","5f830f1644cc14447b03305c","","null","","","learningBlock1","","","","That was a dep.","null","","","","","",""
"html-keyboard-response","131","119850","0.0-5.0-2.41","FL","55ovzw4068","2560","1440","0","1","0","5f830f1644cc14447b03305c","","null","","","learningBlock1","","","","<div style=""font-size:60px;""> </div>","null","FL","learning/Slide42.JPG","That was a dep.","","",""
"image-keyboard-response","132","120027","0.0-5.0-0.42","FL","55ovzw4068","2560","1440","0","1","0","5f830f1644cc14447b03305c","","null","","","","","","","learning/Slide43.JPG","null","","","","","",""
"html-keyboard-response","133","121179","0.0-5.0-1.42","FL","55ovzw4068","2560","1440","0","1","0","5f830f1644cc14447b03305c","","null","","","learningBlock1","","","","That was a wug.","null","","","","","",""
"html-keyboard-response","134","122181","0.0-5.0-2.42","FL","55ovzw4068","2560","1440","0","1","0","5f830f1644cc14447b03305c","","null","","","learningBlock1","","","","<div style=""font-size:60px;""> </div>","null","FL","learning/Slide43.JPG","That was a wug.","","",""
"image-keyboard-response","135","122359","0.0-5.0-0.43","FL","55ovzw4068","2560","1440","0","1","0","5f830f1644cc14447b03305c","","null","","","","","","","learning/Slide44.JPG","null","","","","","",""
"html-keyboard-response","136","123512","0.0-5.0-1.43","FL","55ovzw4068","2560","1440","0","1","0","5f830f1644cc14447b03305c","","null","","","learningBlock1","","","","That was a bim.","null","","","","","",""
"html-keyboard-response","137","124514","0.0-5.0-2.43","FL","55ovzw4068","2560","1440","0","1","0","5f830f1644cc14447b03305c","","null","","","learningBlock1","","","","<div style=""font-size:60px;""> </div>","null","FL","learning/Slide44.JPG","That was a bim.","","",""
"image-keyboard-response","138","124692","0.0-5.0-0.44","FL","55ovzw4068","2560","1440","0","1","0","5f830f1644cc14447b03305c","","null","","","","","","","learning/Slide45.JPG","null","","","","","",""
"html-keyboard-response","139","125844","0.0-5.0-1.44","FL","55ovzw4068","2560","1440","0","1","0","5f830f1644cc14447b03305c","","null","","","learningBlock1","","","","That was a wug.","null","","","","","",""
"html-keyboard-response","140","126845","0.0-5.0-2.44","FL","55ovzw4068","2560","1440","0","1","0","5f830f1644cc14447b03305c","","null","","","learningBlock1","","","","<div style=""font-size:60px;""> </div>","null","FL","learning/Slide45.JPG","That was a wug.","","",""
"image-keyboard-response","141","127022","0.0-5.0-0.45","FL","55ovzw4068","2560","1440","0","1","0","5f830f1644cc14447b03305c","","null","","","","","","","learning/Slide46.JPG","null","","","","","",""
"html-keyboard-response","142","128175","0.0-5.0-1.45","FL","55ovzw4068","2560","1440","0","1","0","5f830f1644cc14447b03305c","","null","","","learningBlock1","","","","That was a dep.","null","","","","","",""
"html-keyboard-response","143","129177","0.0-5.0-2.45","FL","55ovzw4068","2560","1440","0","1","0","5f830f1644cc14447b03305c","","null","","","learningBlock1","","","","<div style=""font-size:60px;""> </div>","null","FL","learning/Slide46.JPG","That was a dep.","","",""
"image-keyboard-response","144","129355","0.0-5.0-0.46","FL","55ovzw4068","2560","1440","0","1","0","5f830f1644cc14447b03305c","","null","","","","","","","learning/Slide47.JPG","null","","","","","",""
"html-keyboard-response","145","130507","0.0-5.0-1.46","FL","55ovzw4068","2560","1440","0","1","0","5f830f1644cc14447b03305c","","null","","","learningBlock1","","","","That was a tob.","null","","","","","",""
"html-keyboard-response","146","131508","0.0-5.0-2.46","FL","55ovzw4068","2560","1440","0","1","0","5f830f1644cc14447b03305c","","null","","","learningBlock1","","","","<div style=""font-size:60px;""> </div>","null","FL","learning/Slide47.JPG","That was a tob.","","",""
"image-keyboard-response","147","131686","0.0-5.0-0.47","FL","55ovzw4068","2560","1440","0","1","0","5f830f1644cc14447b03305c","","null","","","","","","","learning/Slide48.JPG","null","","","","","",""
"html-keyboard-response","148","132838","0.0-5.0-1.47","FL","55ovzw4068","2560","1440","0","1","0","5f830f1644cc14447b03305c","","null","","","learningBlock1","","","","That was a bim.","null","","","","","",""
"html-keyboard-response","149","133840","0.0-5.0-2.47","FL","55ovzw4068","2560","1440","0","1","0","5f830f1644cc14447b03305c","","null","","","learningBlock1","","","","<div style=""font-size:60px;""> </div>","null","FL","learning/Slide48.JPG","That was a bim.","","",""
"image-keyboard-response","150","134018","0.0-5.0-0.48","FL","55ovzw4068","2560","1440","0","1","0","5f830f1644cc14447b03305c","","null","","","","","","","learning/Slide49.JPG","null","","","","","",""
"html-keyboard-response","151","135171","0.0-5.0-1.48","FL","55ovzw4068","2560","1440","0","1","0","5f830f1644cc14447b03305c","","null","","","learningBlock1","","","","That was a dep.","null","","","","","",""
"html-keyboard-response","152","136172","0.0-5.0-2.48","FL","55ovzw4068","2560","1440","0","1","0","5f830f1644cc14447b03305c","","null","","","learningBlock1","","","","<div style=""font-size:60px;""> </div>","null","FL","learning/Slide49.JPG","That was a dep.","","",""
"image-keyboard-response","153","136349","0.0-5.0-0.49","FL","55ovzw4068","2560","1440","0","1","0","5f830f1644cc14447b03305c","","null","","","","","","","learning/Slide50.JPG","null","","","","","",""
"html-keyboard-response","154","137502","0.0-5.0-1.49","FL","55ovzw4068","2560","1440","0","1","0","5f830f1644cc14447b03305c","","null","","","learningBlock1","","","","That was a tob.","null","","","","","",""
"html-keyboard-response","155","138504","0.0-5.0-2.49","FL","55ovzw4068","2560","1440","0","1","0","5f830f1644cc14447b03305c","","null","","","learningBlock1","","","","<div style=""font-size:60px;""> </div>","null","FL","learning/Slide50.JPG","That was a tob.","","",""
"image-keyboard-response","156","138681","0.0-5.0-0.50","FL","55ovzw4068","2560","1440","0","1","0","5f830f1644cc14447b03305c","","null","","","","","","","learning/Slide51.JPG","null","","","","","",""
"html-keyboard-response","157","139834","0.0-5.0-1.50","FL","55ovzw4068","2560","1440","0","1","0","5f830f1644cc14447b03305c","","null","","","learningBlock1","","","","That was a bim.","null","","","","","",""
"html-keyboard-response","158","140836","0.0-5.0-2.50","FL","55ovzw4068","2560","1440","0","1","0","5f830f1644cc14447b03305c","","null","","","learningBlock1","","","","<div style=""font-size:60px;""> </div>","null","FL","learning/Slide51.JPG","That was a bim.","","",""
"image-keyboard-response","159","141013","0.0-5.0-0.51","FL","55ovzw4068","2560","1440","0","1","0","5f830f1644cc14447b03305c","","null","","","","","","","learning/Slide52.JPG","null","","","","","",""
"html-keyboard-response","160","142165","0.0-5.0-1.51","FL","55ovzw4068","2560","1440","0","1","0","5f830f1644cc14447b03305c","","null","","","learningBlock1","","","","That was a wug.","null","","","","","",""
"html-keyboard-response","161","143170","0.0-5.0-2.51","FL","55ovzw4068","2560","1440","0","1","0","5f830f1644cc14447b03305c","","null","","","learningBlock1","","","","<div style=""font-size:60px;""> </div>","null","FL","learning/Slide52.JPG","That was a wug.","","",""
"image-keyboard-response","162","143347","0.0-5.0-0.52","FL","55ovzw4068","2560","1440","0","1","0","5f830f1644cc14447b03305c","","null","","","","","","","learning/Slide53.JPG","null","","","","","",""
"html-keyboard-response","163","144501","0.0-5.0-1.52","FL","55ovzw4068","2560","1440","0","1","0","5f830f1644cc14447b03305c","","null","","","learningBlock1","","","","That was a tob.","null","","","","","",""
"html-keyboard-response","164","145502","0.0-5.0-2.52","FL","55ovzw4068","2560","1440","0","1","0","5f830f1644cc14447b03305c","","null","","","learningBlock1","","","","<div style=""font-size:60px;""> </div>","null","FL","learning/Slide53.JPG","That was a tob.","","",""
"image-keyboard-response","165","145680","0.0-5.0-0.53","FL","55ovzw4068","2560","1440","0","1","0","5f830f1644cc14447b03305c","","null","","","","","","","learning/Slide54.JPG","null","","","","","",""
"html-keyboard-response","166","146833","0.0-5.0-1.53","FL","55ovzw4068","2560","1440","0","1","0","5f830f1644cc14447b03305c","","null","","","learningBlock1","","","","That was a dep.","null","","","","","",""
"html-keyboard-response","167","147836","0.0-5.0-2.53","FL","55ovzw4068","2560","1440","0","1","0","5f830f1644cc14447b03305c","","null","","","learningBlock1","","","","<div style=""font-size:60px;""> </div>","null","FL","learning/Slide54.JPG","That was a dep.","","",""
"image-keyboard-response","168","148014","0.0-5.0-0.54","FL","55ovzw4068","2560","1440","0","1","0","5f830f1644cc14447b03305c","","null","","","","","","","learning/Slide55.JPG","null","","","","","",""
"html-keyboard-response","169","149167","0.0-5.0-1.54","FL","55ovzw4068","2560","1440","0","1","0","5f830f1644cc14447b03305c","","null","","","learningBlock1","","","","That was a bim.","null","","","","","",""
"html-keyboard-response","170","150168","0.0-5.0-2.54","FL","55ovzw4068","2560","1440","0","1","0","5f830f1644cc14447b03305c","","null","","","learningBlock1","","","","<div style=""font-size:60px;""> </div>","null","FL","learning/Slide55.JPG","That was a bim.","","",""
"image-keyboard-response","171","150346","0.0-5.0-0.55","FL","55ovzw4068","2560","1440","0","1","0","5f830f1644cc14447b03305c","","null","","","","","","","learning/Slide56.JPG","null","","","","","",""
"html-keyboard-response","172","151498","0.0-5.0-1.55","FL","55ovzw4068","2560","1440","0","1","0","5f830f1644cc14447b03305c","","null","","","learningBlock1","","","","That was a tob.","null","","","","","",""
"html-keyboard-response","173","152501","0.0-5.0-2.55","FL","55ovzw4068","2560","1440","0","1","0","5f830f1644cc14447b03305c","","null","","","learningBlock1","","","","<div style=""font-size:60px;""> </div>","null","FL","learning/Slide56.JPG","That was a tob.","","",""
"image-keyboard-response","174","152678","0.0-5.0-0.56","FL","55ovzw4068","2560","1440","0","1","0","5f830f1644cc14447b03305c","","null","","","","","","","learning/Slide57.JPG","null","","","","","",""
"html-keyboard-response","175","153832","0.0-5.0-1.56","FL","55ovzw4068","2560","1440","0","1","0","5f830f1644cc14447b03305c","","null","","","learningBlock1","","","","That was a dep.","null","","","","","",""
"html-keyboard-response","176","154834","0.0-5.0-2.56","FL","55ovzw4068","2560","1440","0","1","0","5f830f1644cc14447b03305c","","null","","","learningBlock1","","","","<div style=""font-size:60px;""> </div>","null","FL","learning/Slide57.JPG","That was a dep.","","",""
"image-keyboard-response","177","155011","0.0-5.0-0.57","FL","55ovzw4068","2560","1440","0","1","0","5f830f1644cc14447b03305c","","null","","","","","","","learning/Slide58.JPG","null","","","","","",""
"html-keyboard-response","178","156164","0.0-5.0-1.57","FL","55ovzw4068","2560","1440","0","1","0","5f830f1644cc14447b03305c","","null","","","learningBlock1","","","","That was a wug.","null","","","","","",""
"html-keyboard-response","179","157166","0.0-5.0-2.57","FL","55ovzw4068","2560","1440","0","1","0","5f830f1644cc14447b03305c","","null","","","learningBlock1","","","","<div style=""font-size:60px;""> </div>","null","FL","learning/Slide58.JPG","That was a wug.","","",""
"image-keyboard-response","180","157343","0.0-5.0-0.58","FL","55ovzw4068","2560","1440","0","1","0","5f830f1644cc14447b03305c","","null","","","","","","","learning/Slide59.JPG","null","","","","","",""
"html-keyboard-response","181","158497","0.0-5.0-1.58","FL","55ovzw4068","2560","1440","0","1","0","5f830f1644cc14447b03305c","","null","","","learningBlock1","","","","That was a dep.","null","","","","","",""
"html-keyboard-response","182","159500","0.0-5.0-2.58","FL","55ovzw4068","2560","1440","0","1","0","5f830f1644cc14447b03305c","","null","","","learningBlock1","","","","<div style=""font-size:60px;""> </div>","null","FL","learning/Slide59.JPG","That was a dep.","","",""
"image-keyboard-response","183","159678","0.0-5.0-0.59","FL","55ovzw4068","2560","1440","0","1","0","5f830f1644cc14447b03305c","","null","","","","","","","learning/Slide60.JPG","null","","","","","",""
"html-keyboard-response","184","160831","0.0-5.0-1.59","FL","55ovzw4068","2560","1440","0","1","0","5f830f1644cc14447b03305c","","null","","","learningBlock1","","","","That was a wug.","null","","","","","",""
"html-keyboard-response","185","161833","0.0-5.0-2.59","FL","55ovzw4068","2560","1440","0","1","0","5f830f1644cc14447b03305c","","null","","","learningBlock1","","","","<div style=""font-size:60px;""> </div>","null","FL","learning/Slide60.JPG","That was a wug.","","",""
"image-keyboard-response","186","162010","0.0-5.0-0.60","FL","55ovzw4068","2560","1440","0","1","0","5f830f1644cc14447b03305c","","null","","","","","","","learning/Slide61.JPG","null","","","","","",""
"html-keyboard-response","187","163164","0.0-5.0-1.60","FL","55ovzw4068","2560","1440","0","1","0","5f830f1644cc14447b03305c","","null","","","learningBlock1","","","","That was a bim.","null","","","","","",""
"html-keyboard-response","188","164166","0.0-5.0-2.60","FL","55ovzw4068","2560","1440","0","1","0","5f830f1644cc14447b03305c","","null","","","learningBlock1","","","","<div style=""font-size:60px;""> </div>","null","FL","learning/Slide61.JPG","That was a bim.","","",""
"image-keyboard-response","189","164344","0.0-5.0-0.61","FL","55ovzw4068","2560","1440","0","1","0","5f830f1644cc14447b03305c","","null","","","","","","","learning/Slide62.JPG","null","","","","","",""
"html-keyboard-response","190","165498","0.0-5.0-1.61","FL","55ovzw4068","2560","1440","0","1","0","5f830f1644cc14447b03305c","","null","","","learningBlock1","","","","That was a dep.","null","","","","","",""
"html-keyboard-response","191","166499","0.0-5.0-2.61","FL","55ovzw4068","2560","1440","0","1","0","5f830f1644cc14447b03305c","","null","","","learningBlock1","","","","<div style=""font-size:60px;""> </div>","null","FL","learning/Slide62.JPG","That was a dep.","","",""
"image-keyboard-response","192","166677","0.0-5.0-0.62","FL","55ovzw4068","2560","1440","0","1","0","5f830f1644cc14447b03305c","","null","","","","","","","learning/Slide63.JPG","null","","","","","",""
"html-keyboard-response","193","167829","0.0-5.0-1.62","FL","55ovzw4068","2560","1440","0","1","0","5f830f1644cc14447b03305c","","null","","","learningBlock1","","","","That was a bim.","null","","","","","",""
"html-keyboard-response","194","168831","0.0-5.0-2.62","FL","55ovzw4068","2560","1440","0","1","0","5f830f1644cc14447b03305c","","null","","","learningBlock1","","","","<div style=""font-size:60px;""> </div>","null","FL","learning/Slide63.JPG","That was a bim.","","",""
"image-keyboard-response","195","169008","0.0-5.0-0.63","FL","55ovzw4068","2560","1440","0","1","0","5f830f1644cc14447b03305c","","null","","","","","","","learning/Slide64.JPG","null","","","","","",""
"html-keyboard-response","196","170160","0.0-5.0-1.63","FL","55ovzw4068","2560","1440","0","1","0","5f830f1644cc14447b03305c","","null","","","learningBlock1","","","","That was a tob.","null","","","","","",""
"html-keyboard-response","197","171163","0.0-5.0-2.63","FL","55ovzw4068","2560","1440","0","1","0","5f830f1644cc14447b03305c","","null","","","learningBlock1","","","","<div style=""font-size:60px;""> </div>","null","FL","learning/Slide64.JPG","That was a tob.","","",""
"image-keyboard-response","198","171341","0.0-5.0-0.64","FL","55ovzw4068","2560","1440","0","1","0","5f830f1644cc14447b03305c","","null","","","","","","","learning/Slide65.JPG","null","","","","","",""
"html-keyboard-response","199","172493","0.0-5.0-1.64","FL","55ovzw4068","2560","1440","0","1","0","5f830f1644cc14447b03305c","","null","","","learningBlock1","","","","That was a wug.","null","","","","","",""
"html-keyboard-response","200","173494","0.0-5.0-2.64","FL","55ovzw4068","2560","1440","0","1","0","5f830f1644cc14447b03305c","","null","","","learningBlock1","","","","<div style=""font-size:60px;""> </div>","null","FL","learning/Slide65.JPG","That was a wug.","","",""
"image-keyboard-response","201","173671","0.0-5.0-0.65","FL","55ovzw4068","2560","1440","0","1","0","5f830f1644cc14447b03305c","","null","","","","","","","learning/Slide66.JPG","null","","","","","",""
"html-keyboard-response","202","174823","0.0-5.0-1.65","FL","55ovzw4068","2560","1440","0","1","0","5f830f1644cc14447b03305c","","null","","","learningBlock1","","","","That was a dep.","null","","","","","",""
"html-keyboard-response","203","175824","0.0-5.0-2.65","FL","55ovzw4068","2560","1440","0","1","0","5f830f1644cc14447b03305c","","null","","","learningBlock1","","","","<div style=""font-size:60px;""> </div>","null","FL","learning/Slide66.JPG","That was a dep.","","",""
"image-keyboard-response","204","176002","0.0-5.0-0.66","FL","55ovzw4068","2560","1440","0","1","0","5f830f1644cc14447b03305c","","null","","","","","","","learning/Slide67.JPG","null","","","","","",""
"html-keyboard-response","205","177156","0.0-5.0-1.66","FL","55ovzw4068","2560","1440","0","1","0","5f830f1644cc14447b03305c","","null","","","learningBlock1","","","","That was a tob.","null","","","","","",""
"html-keyboard-response","206","178158","0.0-5.0-2.66","FL","55ovzw4068","2560","1440","0","1","0","5f830f1644cc14447b03305c","","null","","","learningBlock1","","","","<div style=""font-size:60px;""> </div>","null","FL","learning/Slide67.JPG","That was a tob.","","",""
"image-keyboard-response","207","178337","0.0-5.0-0.67","FL","55ovzw4068","2560","1440","0","1","0","5f830f1644cc14447b03305c","","null","","","","","","","learning/Slide68.JPG","null","","","","","",""
"html-keyboard-response","208","179490","0.0-5.0-1.67","FL","55ovzw4068","2560","1440","0","1","0","5f830f1644cc14447b03305c","","null","","","learningBlock1","","","","That was a wug.","null","","","","","",""
"html-keyboard-response","209","180492","0.0-5.0-2.67","FL","55ovzw4068","2560","1440","0","1","0","5f830f1644cc14447b03305c","","null","","","learningBlock1","","","","<div style=""font-size:60px;""> </div>","null","FL","learning/Slide68.JPG","That was a wug.","","",""
"image-keyboard-response","210","180669","0.0-5.0-0.68","FL","55ovzw4068","2560","1440","0","1","0","5f830f1644cc14447b03305c","","null","","","","","","","learning/Slide69.JPG","null","","","","","",""
"html-keyboard-response","211","181822","0.0-5.0-1.68","FL","55ovzw4068","2560","1440","0","1","0","5f830f1644cc14447b03305c","","null","","","learningBlock1","","","","That was a tob.","null","","","","","",""
"html-keyboard-response","212","182825","0.0-5.0-2.68","FL","55ovzw4068","2560","1440","0","1","0","5f830f1644cc14447b03305c","","null","","","learningBlock1","","","","<div style=""font-size:60px;""> </div>","null","FL","learning/Slide69.JPG","That was a tob.","","",""
"image-keyboard-response","213","183003","0.0-5.0-0.69","FL","55ovzw4068","2560","1440","0","1","0","5f830f1644cc14447b03305c","","null","","","","","","","learning/Slide70.JPG","null","","","","","",""
"html-keyboard-response","214","184156","0.0-5.0-1.69","FL","55ovzw4068","2560","1440","0","1","0","5f830f1644cc14447b03305c","","null","","","learningBlock1","","","","That was a dep.","null","","","","","",""
"html-keyboard-response","215","185158","0.0-5.0-2.69","FL","55ovzw4068","2560","1440","0","1","0","5f830f1644cc14447b03305c","","null","","","learningBlock1","","","","<div style=""font-size:60px;""> </div>","null","FL","learning/Slide70.JPG","That was a dep.","","",""
"image-keyboard-response","216","185334","0.0-5.0-0.70","FL","55ovzw4068","2560","1440","0","1","0","5f830f1644cc14447b03305c","","null","","","","","","","learning/Slide71.JPG","null","","","","","",""
"html-keyboard-response","217","186488","0.0-5.0-1.70","FL","55ovzw4068","2560","1440","0","1","0","5f830f1644cc14447b03305c","","null","","","learningBlock1","","","","That was a wug.","null","","","","","",""
"html-keyboard-response","218","187490","0.0-5.0-2.70","FL","55ovzw4068","2560","1440","0","1","0","5f830f1644cc14447b03305c","","null","","","learningBlock1","","","","<div style=""font-size:60px;""> </div>","null","FL","learning/Slide71.JPG","That was a wug.","","",""
"image-keyboard-response","219","187667","0.0-5.0-0.71","FL","55ovzw4068","2560","1440","0","1","0","5f830f1644cc14447b03305c","","null","","","","","","","learning/Slide72.JPG","null","","","","","",""
"html-keyboard-response","220","188820","0.0-5.0-1.71","FL","55ovzw4068","2560","1440","0","1","0","5f830f1644cc14447b03305c","","null","","","learningBlock1","","","","That was a bim.","null","","","","","",""
"html-keyboard-response","221","189821","0.0-5.0-2.71","FL","55ovzw4068","2560","1440","0","1","0","5f830f1644cc14447b03305c","","null","","","learningBlock1","","","","<div style=""font-size:60px;""> </div>","null","FL","learning/Slide72.JPG","That was a bim.","","",""
"image-keyboard-response","222","189998","0.0-5.0-0.72","FL","55ovzw4068","2560","1440","0","1","0","5f830f1644cc14447b03305c","","null","","","","","","","learning/Slide73.JPG","null","","","","","",""
"html-keyboard-response","223","191149","0.0-5.0-1.72","FL","55ovzw4068","2560","1440","0","1","0","5f830f1644cc14447b03305c","","null","","","learningBlock1","","","","That was a wug.","null","","","","","",""
"html-keyboard-response","224","192151","0.0-5.0-2.72","FL","55ovzw4068","2560","1440","0","1","0","5f830f1644cc14447b03305c","","null","","","learningBlock1","","","","<div style=""font-size:60px;""> </div>","null","FL","learning/Slide73.JPG","That was a wug.","","",""
"image-keyboard-response","225","192329","0.0-5.0-0.73","FL","55ovzw4068","2560","1440","0","1","0","5f830f1644cc14447b03305c","","null","","","","","","","learning/Slide74.JPG","null","","","","","",""
"html-keyboard-response","226","193481","0.0-5.0-1.73","FL","55ovzw4068","2560","1440","0","1","0","5f830f1644cc14447b03305c","","null","","","learningBlock1","","","","That was a dep.","null","","","","","",""
"html-keyboard-response","227","194483","0.0-5.0-2.73","FL","55ovzw4068","2560","1440","0","1","0","5f830f1644cc14447b03305c","","null","","","learningBlock1","","","","<div style=""font-size:60px;""> </div>","null","FL","learning/Slide74.JPG","That was a dep.","","",""
"image-keyboard-response","228","194662","0.0-5.0-0.74","FL","55ovzw4068","2560","1440","0","1","0","5f830f1644cc14447b03305c","","null","","","","","","","learning/Slide75.JPG","null","","","","","",""
"html-keyboard-response","229","195817","0.0-5.0-1.74","FL","55ovzw4068","2560","1440","0","1","0","5f830f1644cc14447b03305c","","null","","","learningBlock1","","","","That was a tob.","null","","","","","",""
"html-keyboard-response","230","196819","0.0-5.0-2.74","FL","55ovzw4068","2560","1440","0","1","0","5f830f1644cc14447b03305c","","null","","","learningBlock1","","","","<div style=""font-size:60px;""> </div>","null","FL","learning/Slide75.JPG","That was a tob.","","",""
"image-keyboard-response","231","196995","0.0-5.0-0.75","FL","55ovzw4068","2560","1440","0","1","0","5f830f1644cc14447b03305c","","null","","","","","","","learning/Slide76.JPG","null","","","","","",""
"html-keyboard-response","232","198147","0.0-5.0-1.75","FL","55ovzw4068","2560","1440","0","1","0","5f830f1644cc14447b03305c","","null","","","learningBlock1","","","","That was a bim.","null","","","","","",""
"html-keyboard-response","233","199149","0.0-5.0-2.75","FL","55ovzw4068","2560","1440","0","1","0","5f830f1644cc14447b03305c","","null","","","learningBlock1","","","","<div style=""font-size:60px;""> </div>","null","FL","learning/Slide76.JPG","That was a bim.","","",""
"image-keyboard-response","234","199326","0.0-5.0-0.76","FL","55ovzw4068","2560","1440","0","1","0","5f830f1644cc14447b03305c","","null","","","","","","","learning/Slide77.JPG","null","","","","","",""
"html-keyboard-response","235","200479","0.0-5.0-1.76","FL","55ovzw4068","2560","1440","0","1","0","5f830f1644cc14447b03305c","","null","","","learningBlock1","","","","That was a tob.","null","","","","","",""
"html-keyboard-response","236","201485","0.0-5.0-2.76","FL","55ovzw4068","2560","1440","0","1","0","5f830f1644cc14447b03305c","","null","","","learningBlock1","","","","<div style=""font-size:60px;""> </div>","null","FL","learning/Slide77.JPG","That was a tob.","","",""
"image-keyboard-response","237","201663","0.0-5.0-0.77","FL","55ovzw4068","2560","1440","0","1","0","5f830f1644cc14447b03305c","","null","","","","","","","learning/Slide78.JPG","null","","","","","",""
"html-keyboard-response","238","202817","0.0-5.0-1.77","FL","55ovzw4068","2560","1440","0","1","0","5f830f1644cc14447b03305c","","null","","","learningBlock1","","","","That was a wug.","null","","","","","",""
"html-keyboard-response","239","203819","0.0-5.0-2.77","FL","55ovzw4068","2560","1440","0","1","0","5f830f1644cc14447b03305c","","null","","","learningBlock1","","","","<div style=""font-size:60px;""> </div>","null","FL","learning/Slide78.JPG","That was a wug.","","",""
"image-keyboard-response","240","203997","0.0-5.0-0.78","FL","55ovzw4068","2560","1440","0","1","0","5f830f1644cc14447b03305c","","null","","","","","","","learning/Slide79.JPG","null","","","","","",""
"html-keyboard-response","241","205150","0.0-5.0-1.78","FL","55ovzw4068","2560","1440","0","1","0","5f830f1644cc14447b03305c","","null","","","learningBlock1","","","","That was a bim.","null","","","","","",""
"html-keyboard-response","242","206154","0.0-5.0-2.78","FL","55ovzw4068","2560","1440","0","1","0","5f830f1644cc14447b03305c","","null","","","learningBlock1","","","","<div style=""font-size:60px;""> </div>","null","FL","learning/Slide79.JPG","That was a bim.","","",""
"image-keyboard-response","243","206332","0.0-5.0-0.79","FL","55ovzw4068","2560","1440","0","1","0","5f830f1644cc14447b03305c","","null","","","","","","","learning/Slide80.JPG","null","","","","","",""
"html-keyboard-response","244","207486","0.0-5.0-1.79","FL","55ovzw4068","2560","1440","0","1","0","5f830f1644cc14447b03305c","","null","","","learningBlock1","","","","That was a tob.","null","","","","","",""
"html-keyboard-response","245","208490","0.0-5.0-2.79","FL","55ovzw4068","2560","1440","0","1","0","5f830f1644cc14447b03305c","","null","","","learningBlock1","","","","<div style=""font-size:60px;""> </div>","null","FL","learning/Slide80.JPG","That was a tob.","","",""
"instructions","246","214158","0.0-6.0","FL","55ovzw4068","2560","1440","0","1","0","5f830f1644cc14447b03305c","","NA","","[{""page_index"":0,""viewing_time"":5665.599999992992}]","instructions","","","","","","","","","","",""
"image-keyboard-response","247","214338","0.0-7.0-0.0","FL","55ovzw4068","2560","1440","0","1","0","5f830f1644cc14447b03305c","","null","","","","","","","learning/Slide81.JPG","null","","","","","",""
"html-keyboard-response","248","215491","0.0-7.0-1.0","FL","55ovzw4068","2560","1440","0","1","0","5f830f1644cc14447b03305c","","null","","","learningBlock2","","","","That was a wug.","null","","","","","",""
"html-keyboard-response","249","216492","0.0-7.0-2.0","FL","55ovzw4068","2560","1440","0","1","0","5f830f1644cc14447b03305c","","null","","","learningBlock2","","","","<div style=""font-size:60px;""> </div>","null","FL","learning/Slide81.JPG","That was a wug.","","",""
"image-keyboard-response","250","216669","0.0-7.0-0.1","FL","55ovzw4068","2560","1440","0","1","0","5f830f1644cc14447b03305c","","null","","","","","","","learning/Slide82.JPG","null","","","","","",""
"html-keyboard-response","251","217821","0.0-7.0-1.1","FL","55ovzw4068","2560","1440","0","1","0","5f830f1644cc14447b03305c","","null","","","learningBlock2","","","","That was a bim.","null","","","","","",""
"html-keyboard-response","252","218823","0.0-7.0-2.1","FL","55ovzw4068","2560","1440","0","1","0","5f830f1644cc14447b03305c","","null","","","learningBlock2","","","","<div style=""font-size:60px;""> </div>","null","FL","learning/Slide82.JPG","That was a bim.","","",""
"image-keyboard-response","253","219001","0.0-7.0-0.2","FL","55ovzw4068","2560","1440","0","1","0","5f830f1644cc14447b03305c","","null","","","","","","","learning/Slide83.JPG","null","","","","","",""
"html-keyboard-response","254","220153","0.0-7.0-1.2","FL","55ovzw4068","2560","1440","0","1","0","5f830f1644cc14447b03305c","","null","","","learningBlock2","","","","That was a wug.","null","","","","","",""
"html-keyboard-response","255","221156","0.0-7.0-2.2","FL","55ovzw4068","2560","1440","0","1","0","5f830f1644cc14447b03305c","","null","","","learningBlock2","","","","<div style=""font-size:60px;""> </div>","null","FL","learning/Slide83.JPG","That was a wug.","","",""
"image-keyboard-response","256","221333","0.0-7.0-0.3","FL","55ovzw4068","2560","1440","0","1","0","5f830f1644cc14447b03305c","","null","","","","","","","learning/Slide84.JPG","null","","","","","",""
"html-keyboard-response","257","222487","0.0-7.0-1.3","FL","55ovzw4068","2560","1440","0","1","0","5f830f1644cc14447b03305c","","null","","","learningBlock2","","","","That was a dep.","null","","","","","",""
"html-keyboard-response","258","223490","0.0-7.0-2.3","FL","55ovzw4068","2560","1440","0","1","0","5f830f1644cc14447b03305c","","null","","","learningBlock2","","","","<div style=""font-size:60px;""> </div>","null","FL","learning/Slide84.JPG","That was a dep.","","",""
"image-keyboard-response","259","223668","0.0-7.0-0.4","FL","55ovzw4068","2560","1440","0","1","0","5f830f1644cc14447b03305c","","null","","","","","","","learning/Slide85.JPG","null","","","","","",""
"html-keyboard-response","260","224822","0.0-7.0-1.4","FL","55ovzw4068","2560","1440","0","1","0","5f830f1644cc14447b03305c","","null","","","learningBlock2","","","","That was a bim.","null","","","","","",""
"html-keyboard-response","261","225824","0.0-7.0-2.4","FL","55ovzw4068","2560","1440","0","1","0","5f830f1644cc14447b03305c","","null","","","learningBlock2","","","","<div style=""font-size:60px;""> </div>","null","FL","learning/Slide85.JPG","That was a bim.","","",""
"image-keyboard-response","262","226002","0.0-7.0-0.5","FL","55ovzw4068","2560","1440","0","1","0","5f830f1644cc14447b03305c","","null","","","","","","","learning/Slide86.JPG","null","","","","","",""
"html-keyboard-response","263","227155","0.0-7.0-1.5","FL","55ovzw4068","2560","1440","0","1","0","5f830f1644cc14447b03305c","","null","","","learningBlock2","","","","That was a tob.","null","","","","","",""
"html-keyboard-response","264","228156","0.0-7.0-2.5","FL","55ovzw4068","2560","1440","0","1","0","5f830f1644cc14447b03305c","","null","","","learningBlock2","","","","<div style=""font-size:60px;""> </div>","null","FL","learning/Slide86.JPG","That was a tob.","","",""
"image-keyboard-response","265","228333","0.0-7.0-0.6","FL","55ovzw4068","2560","1440","0","1","0","5f830f1644cc14447b03305c","","null","","","","","","","learning/Slide87.JPG","null","","","","","",""
"html-keyboard-response","266","229486","0.0-7.0-1.6","FL","55ovzw4068","2560","1440","0","1","0","5f830f1644cc14447b03305c","","null","","","learningBlock2","","","","That was a wug.","null","","","","","",""
"html-keyboard-response","267","230488","0.0-7.0-2.6","FL","55ovzw4068","2560","1440","0","1","0","5f830f1644cc14447b03305c","","null","","","learningBlock2","","","","<div style=""font-size:60px;""> </div>","null","FL","learning/Slide87.JPG","That was a wug.","","",""
"image-keyboard-response","268","230665","0.0-7.0-0.7","FL","55ovzw4068","2560","1440","0","1","0","5f830f1644cc14447b03305c","","null","","","","","","","learning/Slide88.JPG","null","","","","","",""
"html-keyboard-response","269","231818","0.0-7.0-1.7","FL","55ovzw4068","2560","1440","0","1","0","5f830f1644cc14447b03305c","","null","","","learningBlock2","","","","That was a tob.","null","","","","","",""
"html-keyboard-response","270","232820","0.0-7.0-2.7","FL","55ovzw4068","2560","1440","0","1","0","5f830f1644cc14447b03305c","","null","","","learningBlock2","","","","<div style=""font-size:60px;""> </div>","null","FL","learning/Slide88.JPG","That was a tob.","","",""
"image-keyboard-response","271","232998","0.0-7.0-0.8","FL","55ovzw4068","2560","1440","0","1","0","5f830f1644cc14447b03305c","","null","","","","","","","learning/Slide89.JPG","null","","","","","",""
"html-keyboard-response","272","234151","0.0-7.0-1.8","FL","55ovzw4068","2560","1440","0","1","0","5f830f1644cc14447b03305c","","null","","","learningBlock2","","","","That was a bim.","null","","","","","",""
"html-keyboard-response","273","235153","0.0-7.0-2.8","FL","55ovzw4068","2560","1440","0","1","0","5f830f1644cc14447b03305c","","null","","","learningBlock2","","","","<div style=""font-size:60px;""> </div>","null","FL","learning/Slide89.JPG","That was a bim.","","",""
"image-keyboard-response","274","235331","0.0-7.0-0.9","FL","55ovzw4068","2560","1440","0","1","0","5f830f1644cc14447b03305c","","null","","","","","","","learning/Slide90.JPG","null","","","","","",""
"html-keyboard-response","275","236485","0.0-7.0-1.9","FL","55ovzw4068","2560","1440","0","1","0","5f830f1644cc14447b03305c","","null","","","learningBlock2","","","","That was a dep.","null","","","","","",""
"html-keyboard-response","276","237487","0.0-7.0-2.9","FL","55ovzw4068","2560","1440","0","1","0","5f830f1644cc14447b03305c","","null","","","learningBlock2","","","","<div style=""font-size:60px;""> </div>","null","FL","learning/Slide90.JPG","That was a dep.","","",""
"image-keyboard-response","277","237665","0.0-7.0-0.10","FL","55ovzw4068","2560","1440","0","1","0","5f830f1644cc14447b03305c","","null","","","","","","","learning/Slide91.JPG","null","","","","","",""
"html-keyboard-response","278","238817","0.0-7.0-1.10","FL","55ovzw4068","2560","1440","0","1","0","5f830f1644cc14447b03305c","","null","","","learningBlock2","","","","That was a wug.","null","","","","","",""
"html-keyboard-response","279","239819","0.0-7.0-2.10","FL","55ovzw4068","2560","1440","0","1","0","5f830f1644cc14447b03305c","","null","","","learningBlock2","","","","<div style=""font-size:60px;""> </div>","null","FL","learning/Slide91.JPG","That was a wug.","","",""
"image-keyboard-response","280","239996","0.0-7.0-0.11","FL","55ovzw4068","2560","1440","0","1","0","5f830f1644cc14447b03305c","","null","","","","","","","learning/Slide92.JPG","null","","","","","",""
"html-keyboard-response","281","241148","0.0-7.0-1.11","FL","55ovzw4068","2560","1440","0","1","0","5f830f1644cc14447b03305c","","null","","","learningBlock2","","","","That was a tob.","null","","","","","",""
"html-keyboard-response","282","242150","0.0-7.0-2.11","FL","55ovzw4068","2560","1440","0","1","0","5f830f1644cc14447b03305c","","null","","","learningBlock2","","","","<div style=""font-size:60px;""> </div>","null","FL","learning/Slide92.JPG","That was a tob.","","",""
"image-keyboard-response","283","242328","0.0-7.0-0.12","FL","55ovzw4068","2560","1440","0","1","0","5f830f1644cc14447b03305c","","null","","","","","","","learning/Slide93.JPG","null","","","","","",""
"html-keyboard-response","284","243480","0.0-7.0-1.12","FL","55ovzw4068","2560","1440","0","1","0","5f830f1644cc14447b03305c","","null","","","learningBlock2","","","","That was a bim.","null","","","","","",""
"html-keyboard-response","285","244483","0.0-7.0-2.12","FL","55ovzw4068","2560","1440","0","1","0","5f830f1644cc14447b03305c","","null","","","learningBlock2","","","","<div style=""font-size:60px;""> </div>","null","FL","learning/Slide93.JPG","That was a bim.","","",""
"image-keyboard-response","286","244660","0.0-7.0-0.13","FL","55ovzw4068","2560","1440","0","1","0","5f830f1644cc14447b03305c","","null","","","","","","","learning/Slide94.JPG","null","","","","","",""
"html-keyboard-response","287","245814","0.0-7.0-1.13","FL","55ovzw4068","2560","1440","0","1","0","5f830f1644cc14447b03305c","","null","","","learningBlock2","","","","That was a tob.","null","","","","","",""
"html-keyboard-response","288","246816","0.0-7.0-2.13","FL","55ovzw4068","2560","1440","0","1","0","5f830f1644cc14447b03305c","","null","","","learningBlock2","","","","<div style=""font-size:60px;""> </div>","null","FL","learning/Slide94.JPG","That was a tob.","","",""
"image-keyboard-response","289","246993","0.0-7.0-0.14","FL","55ovzw4068","2560","1440","0","1","0","5f830f1644cc14447b03305c","","null","","","","","","","learning/Slide95.JPG","null","","","","","",""
"html-keyboard-response","290","248146","0.0-7.0-1.14","FL","55ovzw4068","2560","1440","0","1","0","5f830f1644cc14447b03305c","","null","","","learningBlock2","","","","That was a wug.","null","","","","","",""
"html-keyboard-response","291","249147","0.0-7.0-2.14","FL","55ovzw4068","2560","1440","0","1","0","5f830f1644cc14447b03305c","","null","","","learningBlock2","","","","<div style=""font-size:60px;""> </div>","null","FL","learning/Slide95.JPG","That was a wug.","","",""
"image-keyboard-response","292","249325","0.0-7.0-0.15","FL","55ovzw4068","2560","1440","0","1","0","5f830f1644cc14447b03305c","","null","","","","","","","learning/Slide96.JPG","null","","","","","",""
"html-keyboard-response","293","250478","0.0-7.0-1.15","FL","55ovzw4068","2560","1440","0","1","0","5f830f1644cc14447b03305c","","null","","","learningBlock2","","","","That was a tob.","null","","","","","",""
"html-keyboard-response","294","251479","0.0-7.0-2.15","FL","55ovzw4068","2560","1440","0","1","0","5f830f1644cc14447b03305c","","null","","","learningBlock2","","","","<div style=""font-size:60px;""> </div>","null","FL","learning/Slide96.JPG","That was a tob.","","",""
"image-keyboard-response","295","251657","0.0-7.0-0.16","FL","55ovzw4068","2560","1440","0","1","0","5f830f1644cc14447b03305c","","null","","","","","","","learning/Slide97.JPG","null","","","","","",""
"html-keyboard-response","296","252810","0.0-7.0-1.16","FL","55ovzw4068","2560","1440","0","1","0","5f830f1644cc14447b03305c","","null","","","learningBlock2","","","","That was a dep.","null","","","","","",""
"html-keyboard-response","297","253813","0.0-7.0-2.16","FL","55ovzw4068","2560","1440","0","1","0","5f830f1644cc14447b03305c","","null","","","learningBlock2","","","","<div style=""font-size:60px;""> </div>","null","FL","learning/Slide97.JPG","That was a dep.","","",""
"image-keyboard-response","298","253990","0.0-7.0-0.17","FL","55ovzw4068","2560","1440","0","1","0","5f830f1644cc14447b03305c","","null","","","","","","","learning/Slide98.JPG","null","","","","","",""
"html-keyboard-response","299","255142","0.0-7.0-1.17","FL","55ovzw4068","2560","1440","0","1","0","5f830f1644cc14447b03305c","","null","","","learningBlock2","","","","That was a bim.","null","","","","","",""
"html-keyboard-response","300","256145","0.0-7.0-2.17","FL","55ovzw4068","2560","1440","0","1","0","5f830f1644cc14447b03305c","","null","","","learningBlock2","","","","<div style=""font-size:60px;""> </div>","null","FL","learning/Slide98.JPG","That was a bim.","","",""
"image-keyboard-response","301","256322","0.0-7.0-0.18","FL","55ovzw4068","2560","1440","0","1","0","5f830f1644cc14447b03305c","","null","","","","","","","learning/Slide99.JPG","null","","","","","",""
"html-keyboard-response","302","257476","0.0-7.0-1.18","FL","55ovzw4068","2560","1440","0","1","0","5f830f1644cc14447b03305c","","null","","","learningBlock2","","","","That was a dep.","null","","","","","",""
"html-keyboard-response","303","258479","0.0-7.0-2.18","FL","55ovzw4068","2560","1440","0","1","0","5f830f1644cc14447b03305c","","null","","","learningBlock2","","","","<div style=""font-size:60px;""> </div>","null","FL","learning/Slide99.JPG","That was a dep.","","",""
"image-keyboard-response","304","258656","0.0-7.0-0.19","FL","55ovzw4068","2560","1440","0","1","0","5f830f1644cc14447b03305c","","null","","","","","","","learning/Slide100.JPG","null","","","","","",""
"html-keyboard-response","305","259808","0.0-7.0-1.19","FL","55ovzw4068","2560","1440","0","1","0","5f830f1644cc14447b03305c","","null","","","learningBlock2","","","","That was a bim.","null","","","","","",""
"html-keyboard-response","306","260811","0.0-7.0-2.19","FL","55ovzw4068","2560","1440","0","1","0","5f830f1644cc14447b03305c","","null","","","learningBlock2","","","","<div style=""font-size:60px;""> </div>","null","FL","learning/Slide100.JPG","That was a bim.","","",""
"image-keyboard-response","307","260988","0.0-7.0-0.20","FL","55ovzw4068","2560","1440","0","1","0","5f830f1644cc14447b03305c","","null","","","","","","","learning/Slide101.JPG","null","","","","","",""
"html-keyboard-response","308","262141","0.0-7.0-1.20","FL","55ovzw4068","2560","1440","0","1","0","5f830f1644cc14447b03305c","","null","","","learningBlock2","","","","That was a tob.","null","","","","","",""
"html-keyboard-response","309","263143","0.0-7.0-2.20","FL","55ovzw4068","2560","1440","0","1","0","5f830f1644cc14447b03305c","","null","","","learningBlock2","","","","<div style=""font-size:60px;""> </div>","null","FL","learning/Slide101.JPG","That was a tob.","","",""
"image-keyboard-response","310","263321","0.0-7.0-0.21","FL","55ovzw4068","2560","1440","0","1","0","5f830f1644cc14447b03305c","","null","","","","","","","learning/Slide102.JPG","null","","","","","",""
"html-keyboard-response","311","264474","0.0-7.0-1.21","FL","55ovzw4068","2560","1440","0","1","0","5f830f1644cc14447b03305c","","null","","","learningBlock2","","","","That was a bim.","null","","","","","",""
"html-keyboard-response","312","265475","0.0-7.0-2.21","FL","55ovzw4068","2560","1440","0","1","0","5f830f1644cc14447b03305c","","null","","","learningBlock2","","","","<div style=""font-size:60px;""> </div>","null","FL","learning/Slide102.JPG","That was a bim.","","",""
"image-keyboard-response","313","265653","0.0-7.0-0.22","FL","55ovzw4068","2560","1440","0","1","0","5f830f1644cc14447b03305c","","null","","","","","","","learning/Slide103.JPG","null","","","","","",""
"html-keyboard-response","314","266807","0.0-7.0-1.22","FL","55ovzw4068","2560","1440","0","1","0","5f830f1644cc14447b03305c","","null","","","learningBlock2","","","","That was a dep.","null","","","","","",""
"html-keyboard-response","315","267834","0.0-7.0-2.22","FL","55ovzw4068","2560","1440","0","1","0","5f830f1644cc14447b03305c","","null","","","learningBlock2","","","","<div style=""font-size:60px;""> </div>","null","FL","learning/Slide103.JPG","That was a dep.","","",""
"image-keyboard-response","316","268013","0.0-7.0-0.23","FL","55ovzw4068","2560","1440","0","1","0","5f830f1644cc14447b03305c","","null","","","","","","","learning/Slide104.JPG","null","","","","","",""
"html-keyboard-response","317","269166","0.0-7.0-1.23","FL","55ovzw4068","2560","1440","0","1","0","5f830f1644cc14447b03305c","","null","","","learningBlock2","","","","That was a tob.","null","","","","","",""
"html-keyboard-response","318","270168","0.0-7.0-2.23","FL","55ovzw4068","2560","1440","0","1","0","5f830f1644cc14447b03305c","","null","","","learningBlock2","","","","<div style=""font-size:60px;""> </div>","null","FL","learning/Slide104.JPG","That was a tob.","","",""
"image-keyboard-response","319","270345","0.0-7.0-0.24","FL","55ovzw4068","2560","1440","0","1","0","5f830f1644cc14447b03305c","","null","","","","","","","learning/Slide105.JPG","null","","","","","",""
"html-keyboard-response","320","271498","0.0-7.0-1.24","FL","55ovzw4068","2560","1440","0","1","0","5f830f1644cc14447b03305c","","null","","","learningBlock2","","","","That was a dep.","null","","","","","",""
"html-keyboard-response","321","272501","0.0-7.0-2.24","FL","55ovzw4068","2560","1440","0","1","0","5f830f1644cc14447b03305c","","null","","","learningBlock2","","","","<div style=""font-size:60px;""> </div>","null","FL","learning/Slide105.JPG","That was a dep.","","",""
"image-keyboard-response","322","272679","0.0-7.0-0.25","FL","55ovzw4068","2560","1440","0","1","0","5f830f1644cc14447b03305c","","null","","","","","","","learning/Slide106.JPG","null","","","","","",""
"html-keyboard-response","323","273835","0.0-7.0-1.25","FL","55ovzw4068","2560","1440","0","1","0","5f830f1644cc14447b03305c","","null","","","learningBlock2","","","","That was a wug.","null","","","","","",""
"html-keyboard-response","324","274838","0.0-7.0-2.25","FL","55ovzw4068","2560","1440","0","1","0","5f830f1644cc14447b03305c","","null","","","learningBlock2","","","","<div style=""font-size:60px;""> </div>","null","FL","learning/Slide106.JPG","That was a wug.","","",""
"image-keyboard-response","325","275015","0.0-7.0-0.26","FL","55ovzw4068","2560","1440","0","1","0","5f830f1644cc14447b03305c","","null","","","","","","","learning/Slide107.JPG","null","","","","","",""
"html-keyboard-response","326","276170","0.0-7.0-1.26","FL","55ovzw4068","2560","1440","0","1","0","5f830f1644cc14447b03305c","","null","","","learningBlock2","","","","That was a bim.","null","","","","","",""
"html-keyboard-response","327","277174","0.0-7.0-2.26","FL","55ovzw4068","2560","1440","0","1","0","5f830f1644cc14447b03305c","","null","","","learningBlock2","","","","<div style=""font-size:60px;""> </div>","null","FL","learning/Slide107.JPG","That was a bim.","","",""
"image-keyboard-response","328","277352","0.0-7.0-0.27","FL","55ovzw4068","2560","1440","0","1","0","5f830f1644cc14447b03305c","","null","","","","","","","learning/Slide108.JPG","null","","","","","",""
"html-keyboard-response","329","278505","0.0-7.0-1.27","FL","55ovzw4068","2560","1440","0","1","0","5f830f1644cc14447b03305c","","null","","","learningBlock2","","","","That was a dep.","null","","","","","",""
"html-keyboard-response","330","279508","0.0-7.0-2.27","FL","55ovzw4068","2560","1440","0","1","0","5f830f1644cc14447b03305c","","null","","","learningBlock2","","","","<div style=""font-size:60px;""> </div>","null","FL","learning/Slide108.JPG","That was a dep.","","",""
"image-keyboard-response","331","279685","0.0-7.0-0.28","FL","55ovzw4068","2560","1440","0","1","0","5f830f1644cc14447b03305c","","null","","","","","","","learning/Slide109.JPG","null","","","","","",""
"html-keyboard-response","332","280839","0.0-7.0-1.28","FL","55ovzw4068","2560","1440","0","1","0","5f830f1644cc14447b03305c","","null","","","learningBlock2","","","","That was a wug.","null","","","","","",""
"html-keyboard-response","333","281842","0.0-7.0-2.28","FL","55ovzw4068","2560","1440","0","1","0","5f830f1644cc14447b03305c","","null","","","learningBlock2","","","","<div style=""font-size:60px;""> </div>","null","FL","learning/Slide109.JPG","That was a wug.","","",""
"image-keyboard-response","334","282019","0.0-7.0-0.29","FL","55ovzw4068","2560","1440","0","1","0","5f830f1644cc14447b03305c","","null","","","","","","","learning/Slide110.JPG","null","","","","","",""
"html-keyboard-response","335","283173","0.0-7.0-1.29","FL","55ovzw4068","2560","1440","0","1","0","5f830f1644cc14447b03305c","","null","","","learningBlock2","","","","That was a bim.","null","","","","","",""
"html-keyboard-response","336","284175","0.0-7.0-2.29","FL","55ovzw4068","2560","1440","0","1","0","5f830f1644cc14447b03305c","","null","","","learningBlock2","","","","<div style=""font-size:60px;""> </div>","null","FL","learning/Slide110.JPG","That was a bim.","","",""
"image-keyboard-response","337","284353","0.0-7.0-0.30","FL","55ovzw4068","2560","1440","0","1","0","5f830f1644cc14447b03305c","","null","","","","","","","learning/Slide111.JPG","null","","","","","",""
"html-keyboard-response","338","285505","0.0-7.0-1.30","FL","55ovzw4068","2560","1440","0","1","0","5f830f1644cc14447b03305c","","null","","","learningBlock2","","","","That was a tob.","null","","","","","",""
"html-keyboard-response","339","286508","0.0-7.0-2.30","FL","55ovzw4068","2560","1440","0","1","0","5f830f1644cc14447b03305c","","null","","","learningBlock2","","","","<div style=""font-size:60px;""> </div>","null","FL","learning/Slide111.JPG","That was a tob.","","",""
"image-keyboard-response","340","286687","0.0-7.0-0.31","FL","55ovzw4068","2560","1440","0","1","0","5f830f1644cc14447b03305c","","null","","","","","","","learning/Slide112.JPG","null","","","","","",""
"html-keyboard-response","341","287840","0.0-7.0-1.31","FL","55ovzw4068","2560","1440","0","1","0","5f830f1644cc14447b03305c","","null","","","learningBlock2","","","","That was a wug.","null","","","","","",""
"html-keyboard-response","342","288842","0.0-7.0-2.31","FL","55ovzw4068","2560","1440","0","1","0","5f830f1644cc14447b03305c","","null","","","learningBlock2","","","","<div style=""font-size:60px;""> </div>","null","FL","learning/Slide112.JPG","That was a wug.","","",""
"image-keyboard-response","343","289020","0.0-7.0-0.32","FL","55ovzw4068","2560","1440","0","1","0","5f830f1644cc14447b03305c","","null","","","","","","","learning/Slide113.JPG","null","","","","","",""
"html-keyboard-response","344","290173","0.0-7.0-1.32","FL","55ovzw4068","2560","1440","0","1","0","5f830f1644cc14447b03305c","","null","","","learningBlock2","","","","That was a tob.","null","","","","","",""
"html-keyboard-response","345","291174","0.0-7.0-2.32","FL","55ovzw4068","2560","1440","0","1","0","5f830f1644cc14447b03305c","","null","","","learningBlock2","","","","<div style=""font-size:60px;""> </div>","null","FL","learning/Slide113.JPG","That was a tob.","","",""
"image-keyboard-response","346","291353","0.0-7.0-0.33","FL","55ovzw4068","2560","1440","0","1","0","5f830f1644cc14447b03305c","","null","","","","","","","learning/Slide114.JPG","null","","","","","",""
"html-keyboard-response","347","292506","0.0-7.0-1.33","FL","55ovzw4068","2560","1440","0","1","0","5f830f1644cc14447b03305c","","null","","","learningBlock2","","","","That was a wug.","null","","","","","",""
"html-keyboard-response","348","293509","0.0-7.0-2.33","FL","55ovzw4068","2560","1440","0","1","0","5f830f1644cc14447b03305c","","null","","","learningBlock2","","","","<div style=""font-size:60px;""> </div>","null","FL","learning/Slide114.JPG","That was a wug.","","",""
"image-keyboard-response","349","293686","0.0-7.0-0.34","FL","55ovzw4068","2560","1440","0","1","0","5f830f1644cc14447b03305c","","null","","","","","","","learning/Slide115.JPG","null","","","","","",""
"html-keyboard-response","350","294841","0.0-7.0-1.34","FL","55ovzw4068","2560","1440","0","1","0","5f830f1644cc14447b03305c","","null","","","learningBlock2","","","","That was a bim.","null","","","","","",""
"html-keyboard-response","351","295843","0.0-7.0-2.34","FL","55ovzw4068","2560","1440","0","1","0","5f830f1644cc14447b03305c","","null","","","learningBlock2","","","","<div style=""font-size:60px;""> </div>","null","FL","learning/Slide115.JPG","That was a bim.","","",""
"image-keyboard-response","352","296020","0.0-7.0-0.35","FL","55ovzw4068","2560","1440","0","1","0","5f830f1644cc14447b03305c","","null","","","","","","","learning/Slide116.JPG","null","","","","","",""
"html-keyboard-response","353","297174","0.0-7.0-1.35","FL","55ovzw4068","2560","1440","0","1","0","5f830f1644cc14447b03305c","","null","","","learningBlock2","","","","That was a dep.","null","","","","","",""
"html-keyboard-response","354","298176","0.0-7.0-2.35","FL","55ovzw4068","2560","1440","0","1","0","5f830f1644cc14447b03305c","","null","","","learningBlock2","","","","<div style=""font-size:60px;""> </div>","null","FL","learning/Slide116.JPG","That was a dep.","","",""
"image-keyboard-response","355","298353","0.0-7.0-0.36","FL","55ovzw4068","2560","1440","0","1","0","5f830f1644cc14447b03305c","","null","","","","","","","learning/Slide117.JPG","null","","","","","",""
"html-keyboard-response","356","299507","0.0-7.0-1.36","FL","55ovzw4068","2560","1440","0","1","0","5f830f1644cc14447b03305c","","null","","","learningBlock2","","","","That was a tob.","null","","","","","",""
"html-keyboard-response","357","300509","0.0-7.0-2.36","FL","55ovzw4068","2560","1440","0","1","0","5f830f1644cc14447b03305c","","null","","","learningBlock2","","","","<div style=""font-size:60px;""> </div>","null","FL","learning/Slide117.JPG","That was a tob.","","",""
"image-keyboard-response","358","300687","0.0-7.0-0.37","FL","55ovzw4068","2560","1440","0","1","0","5f830f1644cc14447b03305c","","null","","","","","","","learning/Slide118.JPG","null","","","","","",""
"html-keyboard-response","359","301839","0.0-7.0-1.37","FL","55ovzw4068","2560","1440","0","1","0","5f830f1644cc14447b03305c","","null","","","learningBlock2","","","","That was a dep.","null","","","","","",""
"html-keyboard-response","360","302841","0.0-7.0-2.37","FL","55ovzw4068","2560","1440","0","1","0","5f830f1644cc14447b03305c","","null","","","learningBlock2","","","","<div style=""font-size:60px;""> </div>","null","FL","learning/Slide118.JPG","That was a dep.","","",""
"image-keyboard-response","361","303019","0.0-7.0-0.38","FL","55ovzw4068","2560","1440","0","1","0","5f830f1644cc14447b03305c","","null","","","","","","","learning/Slide119.JPG","null","","","","","",""
"html-keyboard-response","362","304172","0.0-7.0-1.38","FL","55ovzw4068","2560","1440","0","1","0","5f830f1644cc14447b03305c","","null","","","learningBlock2","","","","That was a wug.","null","","","","","",""
"html-keyboard-response","363","305175","0.0-7.0-2.38","FL","55ovzw4068","2560","1440","0","1","0","5f830f1644cc14447b03305c","","null","","","learningBlock2","","","","<div style=""font-size:60px;""> </div>","null","FL","learning/Slide119.JPG","That was a wug.","","",""
"image-keyboard-response","364","305352","0.0-7.0-0.39","FL","55ovzw4068","2560","1440","0","1","0","5f830f1644cc14447b03305c","","null","","","","","","","learning/Slide120.JPG","null","","","","","",""
"html-keyboard-response","365","306505","0.0-7.0-1.39","FL","55ovzw4068","2560","1440","0","1","0","5f830f1644cc14447b03305c","","null","","","learningBlock2","","","","That was a dep.","null","","","","","",""
"html-keyboard-response","366","307508","0.0-7.0-2.39","FL","55ovzw4068","2560","1440","0","1","0","5f830f1644cc14447b03305c","","null","","","learningBlock2","","","","<div style=""font-size:60px;""> </div>","null","FL","learning/Slide120.JPG","That was a dep.","","",""
"image-keyboard-response","367","307685","0.0-7.0-0.40","FL","55ovzw4068","2560","1440","0","1","0","5f830f1644cc14447b03305c","","null","","","","","","","learning/Slide121.JPG","null","","","","","",""
"html-keyboard-response","368","308837","0.0-7.0-1.40","FL","55ovzw4068","2560","1440","0","1","0","5f830f1644cc14447b03305c","","null","","","learningBlock2","","","","That was a bim.","null","","","","","",""
"html-keyboard-response","369","309840","0.0-7.0-2.40","FL","55ovzw4068","2560","1440","0","1","0","5f830f1644cc14447b03305c","","null","","","learningBlock2","","","","<div style=""font-size:60px;""> </div>","null","FL","learning/Slide121.JPG","That was a bim.","","",""
"image-keyboard-response","370","310017","0.0-7.0-0.41","FL","55ovzw4068","2560","1440","0","1","0","5f830f1644cc14447b03305c","","null","","","","","","","learning/Slide122.JPG","null","","","","","",""
"html-keyboard-response","371","311171","0.0-7.0-1.41","FL","55ovzw4068","2560","1440","0","1","0","5f830f1644cc14447b03305c","","null","","","learningBlock2","","","","That was a wug.","null","","","","","",""
"html-keyboard-response","372","312173","0.0-7.0-2.41","FL","55ovzw4068","2560","1440","0","1","0","5f830f1644cc14447b03305c","","null","","","learningBlock2","","","","<div style=""font-size:60px;""> </div>","null","FL","learning/Slide122.JPG","That was a wug.","","",""
"image-keyboard-response","373","312351","0.0-7.0-0.42","FL","55ovzw4068","2560","1440","0","1","0","5f830f1644cc14447b03305c","","null","","","","","","","learning/Slide123.JPG","null","","","","","",""
"html-keyboard-response","374","313504","0.0-7.0-1.42","FL","55ovzw4068","2560","1440","0","1","0","5f830f1644cc14447b03305c","","null","","","learningBlock2","","","","That was a bim.","null","","","","","",""
"html-keyboard-response","375","314506","0.0-7.0-2.42","FL","55ovzw4068","2560","1440","0","1","0","5f830f1644cc14447b03305c","","null","","","learningBlock2","","","","<div style=""font-size:60px;""> </div>","null","FL","learning/Slide123.JPG","That was a bim.","","",""
"image-keyboard-response","376","314684","0.0-7.0-0.43","FL","55ovzw4068","2560","1440","0","1","0","5f830f1644cc14447b03305c","","null","","","","","","","learning/Slide124.JPG","null","","","","","",""
"html-keyboard-response","377","315838","0.0-7.0-1.43","FL","55ovzw4068","2560","1440","0","1","0","5f830f1644cc14447b03305c","","null","","","learningBlock2","","","","That was a tob.","null","","","","","",""
"html-keyboard-response","378","316840","0.0-7.0-2.43","FL","55ovzw4068","2560","1440","0","1","0","5f830f1644cc14447b03305c","","null","","","learningBlock2","","","","<div style=""font-size:60px;""> </div>","null","FL","learning/Slide124.JPG","That was a tob.","","",""
"image-keyboard-response","379","317018","0.0-7.0-0.44","FL","55ovzw4068","2560","1440","0","1","0","5f830f1644cc14447b03305c","","null","","","","","","","learning/Slide125.JPG","null","","","","","",""
"html-keyboard-response","380","318171","0.0-7.0-1.44","FL","55ovzw4068","2560","1440","0","1","0","5f830f1644cc14447b03305c","","null","","","learningBlock2","","","","That was a bim.","null","","","","","",""
"html-keyboard-response","381","319175","0.0-7.0-2.44","FL","55ovzw4068","2560","1440","0","1","0","5f830f1644cc14447b03305c","","null","","","learningBlock2","","","","<div style=""font-size:60px;""> </div>","null","FL","learning/Slide125.JPG","That was a bim.","","",""
"image-keyboard-response","382","319354","0.0-7.0-0.45","FL","55ovzw4068","2560","1440","0","1","0","5f830f1644cc14447b03305c","","null","","","","","","","learning/Slide126.JPG","null","","","","","",""
"html-keyboard-response","383","320506","0.0-7.0-1.45","FL","55ovzw4068","2560","1440","0","1","0","5f830f1644cc14447b03305c","","null","","","learningBlock2","","","","That was a tob.","null","","","","","",""
"html-keyboard-response","384","321509","0.0-7.0-2.45","FL","55ovzw4068","2560","1440","0","1","0","5f830f1644cc14447b03305c","","null","","","learningBlock2","","","","<div style=""font-size:60px;""> </div>","null","FL","learning/Slide126.JPG","That was a tob.","","",""
"image-keyboard-response","385","321686","0.0-7.0-0.46","FL","55ovzw4068","2560","1440","0","1","0","5f830f1644cc14447b03305c","","null","","","","","","","learning/Slide127.JPG","null","","","","","",""
"html-keyboard-response","386","322840","0.0-7.0-1.46","FL","55ovzw4068","2560","1440","0","1","0","5f830f1644cc14447b03305c","","null","","","learningBlock2","","","","That was a dep.","null","","","","","",""
"html-keyboard-response","387","323841","0.0-7.0-2.46","FL","55ovzw4068","2560","1440","0","1","0","5f830f1644cc14447b03305c","","null","","","learningBlock2","","","","<div style=""font-size:60px;""> </div>","null","FL","learning/Slide127.JPG","That was a dep.","","",""
"image-keyboard-response","388","324020","0.0-7.0-0.47","FL","55ovzw4068","2560","1440","0","1","0","5f830f1644cc14447b03305c","","null","","","","","","","learning/Slide128.JPG","null","","","","","",""
"html-keyboard-response","389","325171","0.0-7.0-1.47","FL","55ovzw4068","2560","1440","0","1","0","5f830f1644cc14447b03305c","","null","","","learningBlock2","","","","That was a wug.","null","","","","","",""
"html-keyboard-response","390","326173","0.0-7.0-2.47","FL","55ovzw4068","2560","1440","0","1","0","5f830f1644cc14447b03305c","","null","","","learningBlock2","","","","<div style=""font-size:60px;""> </div>","null","FL","learning/Slide128.JPG","That was a wug.","","",""
"image-keyboard-response","391","326350","0.0-7.0-0.48","FL","55ovzw4068","2560","1440","0","1","0","5f830f1644cc14447b03305c","","null","","","","","","","learning/Slide129.JPG","null","","","","","",""
"html-keyboard-response","392","327503","0.0-7.0-1.48","FL","55ovzw4068","2560","1440","0","1","0","5f830f1644cc14447b03305c","","null","","","learningBlock2","","","","That was a tob.","null","","","","","",""
"html-keyboard-response","393","328506","0.0-7.0-2.48","FL","55ovzw4068","2560","1440","0","1","0","5f830f1644cc14447b03305c","","null","","","learningBlock2","","","","<div style=""font-size:60px;""> </div>","null","FL","learning/Slide129.JPG","That was a tob.","","",""
"image-keyboard-response","394","328684","0.0-7.0-0.49","FL","55ovzw4068","2560","1440","0","1","0","5f830f1644cc14447b03305c","","null","","","","","","","learning/Slide130.JPG","null","","","","","",""
"html-keyboard-response","395","329842","0.0-7.0-1.49","FL","55ovzw4068","2560","1440","0","1","0","5f830f1644cc14447b03305c","","null","","","learningBlock2","","","","That was a wug.","null","","","","","",""
"html-keyboard-response","396","330846","0.0-7.0-2.49","FL","55ovzw4068","2560","1440","0","1","0","5f830f1644cc14447b03305c","","null","","","learningBlock2","","","","<div style=""font-size:60px;""> </div>","null","FL","learning/Slide130.JPG","That was a wug.","","",""
"image-keyboard-response","397","331025","0.0-7.0-0.50","FL","55ovzw4068","2560","1440","0","1","0","5f830f1644cc14447b03305c","","null","","","","","","","learning/Slide131.JPG","null","","","","","",""
"html-keyboard-response","398","332177","0.0-7.0-1.50","FL","55ovzw4068","2560","1440","0","1","0","5f830f1644cc14447b03305c","","null","","","learningBlock2","","","","That was a bim.","null","","","","","",""
"html-keyboard-response","399","333179","0.0-7.0-2.50","FL","55ovzw4068","2560","1440","0","1","0","5f830f1644cc14447b03305c","","null","","","learningBlock2","","","","<div style=""font-size:60px;""> </div>","null","FL","learning/Slide131.JPG","That was a bim.","","",""
"image-keyboard-response","400","333356","0.0-7.0-0.51","FL","55ovzw4068","2560","1440","0","1","0","5f830f1644cc14447b03305c","","null","","","","","","","learning/Slide132.JPG","null","","","","","",""
"html-keyboard-response","401","334509","0.0-7.0-1.51","FL","55ovzw4068","2560","1440","0","1","0","5f830f1644cc14447b03305c","","null","","","learningBlock2","","","","That was a dep.","null","","","","","",""
"html-keyboard-response","402","335511","0.0-7.0-2.51","FL","55ovzw4068","2560","1440","0","1","0","5f830f1644cc14447b03305c","","null","","","learningBlock2","","","","<div style=""font-size:60px;""> </div>","null","FL","learning/Slide132.JPG","That was a dep.","","",""
"image-keyboard-response","403","335688","0.0-7.0-0.52","FL","55ovzw4068","2560","1440","0","1","0","5f830f1644cc14447b03305c","","null","","","","","","","learning/Slide133.JPG","null","","","","","",""
"html-keyboard-response","404","336848","0.0-7.0-1.52","FL","55ovzw4068","2560","1440","0","1","0","5f830f1644cc14447b03305c","","null","","","learningBlock2","","","","That was a tob.","null","","","","","",""
"html-keyboard-response","405","337850","0.0-7.0-2.52","FL","55ovzw4068","2560","1440","0","1","0","5f830f1644cc14447b03305c","","null","","","learningBlock2","","","","<div style=""font-size:60px;""> </div>","null","FL","learning/Slide133.JPG","That was a tob.","","",""
"image-keyboard-response","406","338027","0.0-7.0-0.53","FL","55ovzw4068","2560","1440","0","1","0","5f830f1644cc14447b03305c","","null","","","","","","","learning/Slide134.JPG","null","","","","","",""
"html-keyboard-response","407","339180","0.0-7.0-1.53","FL","55ovzw4068","2560","1440","0","1","0","5f830f1644cc14447b03305c","","null","","","learningBlock2","","","","That was a dep.","null","","","","","",""
"html-keyboard-response","408","340182","0.0-7.0-2.53","FL","55ovzw4068","2560","1440","0","1","0","5f830f1644cc14447b03305c","","null","","","learningBlock2","","","","<div style=""font-size:60px;""> </div>","null","FL","learning/Slide134.JPG","That was a dep.","","",""
"image-keyboard-response","409","340360","0.0-7.0-0.54","FL","55ovzw4068","2560","1440","0","1","0","5f830f1644cc14447b03305c","","null","","","","","","","learning/Slide135.JPG","null","","","","","",""
"html-keyboard-response","410","341513","0.0-7.0-1.54","FL","55ovzw4068","2560","1440","0","1","0","5f830f1644cc14447b03305c","","null","","","learningBlock2","","","","That was a tob.","null","","","","","",""
"html-keyboard-response","411","342515","0.0-7.0-2.54","FL","55ovzw4068","2560","1440","0","1","0","5f830f1644cc14447b03305c","","null","","","learningBlock2","","","","<div style=""font-size:60px;""> </div>","null","FL","learning/Slide135.JPG","That was a tob.","","",""
"image-keyboard-response","412","342693","0.0-7.0-0.55","FL","55ovzw4068","2560","1440","0","1","0","5f830f1644cc14447b03305c","","null","","","","","","","learning/Slide136.JPG","null","","","","","",""
"html-keyboard-response","413","343847","0.0-7.0-1.55","FL","55ovzw4068","2560","1440","0","1","0","5f830f1644cc14447b03305c","","null","","","learningBlock2","","","","That was a wug.","null","","","","","",""
"html-keyboard-response","414","344849","0.0-7.0-2.55","FL","55ovzw4068","2560","1440","0","1","0","5f830f1644cc14447b03305c","","null","","","learningBlock2","","","","<div style=""font-size:60px;""> </div>","null","FL","learning/Slide136.JPG","That was a wug.","","",""
"image-keyboard-response","415","345027","0.0-7.0-0.56","FL","55ovzw4068","2560","1440","0","1","0","5f830f1644cc14447b03305c","","null","","","","","","","learning/Slide137.JPG","null","","","","","",""
"html-keyboard-response","416","346180","0.0-7.0-1.56","FL","55ovzw4068","2560","1440","0","1","0","5f830f1644cc14447b03305c","","null","","","learningBlock2","","","","That was a tob.","null","","","","","",""
"html-keyboard-response","417","347182","0.0-7.0-2.56","FL","55ovzw4068","2560","1440","0","1","0","5f830f1644cc14447b03305c","","null","","","learningBlock2","","","","<div style=""font-size:60px;""> </div>","null","FL","learning/Slide137.JPG","That was a tob.","","",""
"image-keyboard-response","418","347361","0.0-7.0-0.57","FL","55ovzw4068","2560","1440","0","1","0","5f830f1644cc14447b03305c","","null","","","","","","","learning/Slide138.JPG","null","","","","","",""
"html-keyboard-response","419","348514","0.0-7.0-1.57","FL","55ovzw4068","2560","1440","0","1","0","5f830f1644cc14447b03305c","","null","","","learningBlock2","","","","That was a bim.","null","","","","","",""
"html-keyboard-response","420","349515","0.0-7.0-2.57","FL","55ovzw4068","2560","1440","0","1","0","5f830f1644cc14447b03305c","","null","","","learningBlock2","","","","<div style=""font-size:60px;""> </div>","null","FL","learning/Slide138.JPG","That was a bim.","","",""
"image-keyboard-response","421","349693","0.0-7.0-0.58","FL","55ovzw4068","2560","1440","0","1","0","5f830f1644cc14447b03305c","","null","","","","","","","learning/Slide139.JPG","null","","","","","",""
"html-keyboard-response","422","350846","0.0-7.0-1.58","FL","55ovzw4068","2560","1440","0","1","0","5f830f1644cc14447b03305c","","null","","","learningBlock2","","","","That was a wug.","null","","","","","",""
"html-keyboard-response","423","351849","0.0-7.0-2.58","FL","55ovzw4068","2560","1440","0","1","0","5f830f1644cc14447b03305c","","null","","","learningBlock2","","","","<div style=""font-size:60px;""> </div>","null","FL","learning/Slide139.JPG","That was a wug.","","",""
"image-keyboard-response","424","352027","0.0-7.0-0.59","FL","55ovzw4068","2560","1440","0","1","0","5f830f1644cc14447b03305c","","null","","","","","","","learning/Slide140.JPG","null","","","","","",""
"html-keyboard-response","425","353180","0.0-7.0-1.59","FL","55ovzw4068","2560","1440","0","1","0","5f830f1644cc14447b03305c","","null","","","learningBlock2","","","","That was a dep.","null","","","","","",""
"html-keyboard-response","426","354183","0.0-7.0-2.59","FL","55ovzw4068","2560","1440","0","1","0","5f830f1644cc14447b03305c","","null","","","learningBlock2","","","","<div style=""font-size:60px;""> </div>","null","FL","learning/Slide140.JPG","That was a dep.","","",""
"image-keyboard-response","427","354361","0.0-7.0-0.60","FL","55ovzw4068","2560","1440","0","1","0","5f830f1644cc14447b03305c","","null","","","","","","","learning/Slide141.JPG","null","","","","","",""
"html-keyboard-response","428","355513","0.0-7.0-1.60","FL","55ovzw4068","2560","1440","0","1","0","5f830f1644cc14447b03305c","","null","","","learningBlock2","","","","That was a tob.","null","","","","","",""
"html-keyboard-response","429","356516","0.0-7.0-2.60","FL","55ovzw4068","2560","1440","0","1","0","5f830f1644cc14447b03305c","","null","","","learningBlock2","","","","<div style=""font-size:60px;""> </div>","null","FL","learning/Slide141.JPG","That was a tob.","","",""
"image-keyboard-response","430","356693","0.0-7.0-0.61","FL","55ovzw4068","2560","1440","0","1","0","5f830f1644cc14447b03305c","","null","","","","","","","learning/Slide142.JPG","null","","","","","",""
"html-keyboard-response","431","357847","0.0-7.0-1.61","FL","55ovzw4068","2560","1440","0","1","0","5f830f1644cc14447b03305c","","null","","","learningBlock2","","","","That was a wug.","null","","","","","",""
"html-keyboard-response","432","358850","0.0-7.0-2.61","FL","55ovzw4068","2560","1440","0","1","0","5f830f1644cc14447b03305c","","null","","","learningBlock2","","","","<div style=""font-size:60px;""> </div>","null","FL","learning/Slide142.JPG","That was a wug.","","",""
"image-keyboard-response","433","359028","0.0-7.0-0.62","FL","55ovzw4068","2560","1440","0","1","0","5f830f1644cc14447b03305c","","null","","","","","","","learning/Slide143.JPG","null","","","","","",""
"html-keyboard-response","434","360181","0.0-7.0-1.62","FL","55ovzw4068","2560","1440","0","1","0","5f830f1644cc14447b03305c","","null","","","learningBlock2","","","","That was a bim.","null","","","","","",""
"html-keyboard-response","435","361183","0.0-7.0-2.62","FL","55ovzw4068","2560","1440","0","1","0","5f830f1644cc14447b03305c","","null","","","learningBlock2","","","","<div style=""font-size:60px;""> </div>","null","FL","learning/Slide143.JPG","That was a bim.","","",""
