"trial_type","trial_index","time_elapsed","internal_node_id","condition","subject","screen_width","screen_height","attention","distraction","conscientious","prolificID","success","rt","url","view_history","test_part","final_height_px","final_width_px","scale_factor","stimulus","key_press","learningType","presentedImage","presentedLabel","button_pressed","response","responses"
"pavlovia","0","43","0.0-0.0","LF","yhakp9pfe9","1600","900","0","1","0","5f57a42b46df8927414990fc","","","","","","","","","","","","","","","",""
"fullscreen","1","14729","0.0-1.0","LF","yhakp9pfe9","1600","900","0","1","0","5f57a42b46df8927414990fc","true","","","","","","","","","","","","","","",""
"external-html","2","26531","0.0-2.0-0.0","LF","yhakp9pfe9","1600","900","0","1","0","5f57a42b46df8927414990fc","","11384.869999994407","text/information_english.html","","","","","","","","","","","","",""
"external-html","3","60802","0.0-2.0-1.0","LF","yhakp9pfe9","1600","900","0","1","0","5f57a42b46df8927414990fc","","33781.05499999947","text/consent_english.html","","","","","","","","","","","","",""
"instructions","4","116102","0.0-3.0","LF","yhakp9pfe9","1600","900","0","1","0","5f57a42b46df8927414990fc","","NA","","[{""page_index"":0,""viewing_time"":3650.5250000045635},{""page_index"":1,""viewing_time"":51646.85000000463}]","instructions","","","","","","","","","","",""
"resize","5","298012","0.0-4.0","LF","yhakp9pfe9","1600","900","0","1","0","5f57a42b46df8927414990fc","","","","","","","133","0.8444444444444444","","","","","","","",""
"html-keyboard-response","6","299026","0.0-5.0-0.0","LF","yhakp9pfe9","1600","900","0","1","0","5f57a42b46df8927414990fc","","null","","","learningBlock1","","","","This is a tob:","null","","","","","",""
"image-keyboard-response","7","299380","0.0-5.0-1.0","LF","yhakp9pfe9","1600","900","0","1","0","5f57a42b46df8927414990fc","","null","","","","","","","learning/Slide1.JPG","null","","","","","",""
"html-keyboard-response","8","300385","0.0-5.0-2.0","LF","yhakp9pfe9","1600","900","0","1","0","5f57a42b46df8927414990fc","","null","","","learningBlock1","","","","<div style=""font-size:60px;""> </div>","null","LF","learning/Slide1.JPG","This is a tob:","","",""
"html-keyboard-response","9","301389","0.0-5.0-0.1","LF","yhakp9pfe9","1600","900","0","1","0","5f57a42b46df8927414990fc","","null","","","learningBlock1","","","","This is a wug:","null","","","","","",""
"image-keyboard-response","10","301726","0.0-5.0-1.1","LF","yhakp9pfe9","1600","900","0","1","0","5f57a42b46df8927414990fc","","null","","","","","","","learning/Slide2.JPG","null","","","","","",""
"html-keyboard-response","11","302731","0.0-5.0-2.1","LF","yhakp9pfe9","1600","900","0","1","0","5f57a42b46df8927414990fc","","null","","","learningBlock1","","","","<div style=""font-size:60px;""> </div>","null","LF","learning/Slide2.JPG","This is a wug:","","",""
"html-keyboard-response","12","303733","0.0-5.0-0.2","LF","yhakp9pfe9","1600","900","0","1","0","5f57a42b46df8927414990fc","","null","","","learningBlock1","","","","This is a bim:","null","","","","","",""
"image-keyboard-response","13","304081","0.0-5.0-1.2","LF","yhakp9pfe9","1600","900","0","1","0","5f57a42b46df8927414990fc","","null","","","","","","","learning/Slide3.JPG","null","","","","","",""
"html-keyboard-response","14","305098","0.0-5.0-2.2","LF","yhakp9pfe9","1600","900","0","1","0","5f57a42b46df8927414990fc","","null","","","learningBlock1","","","","<div style=""font-size:60px;""> </div>","null","LF","learning/Slide3.JPG","This is a bim:","","",""
"html-keyboard-response","15","306104","0.0-5.0-0.3","LF","yhakp9pfe9","1600","900","0","1","0","5f57a42b46df8927414990fc","","null","","","learningBlock1","","","","This is a dep:","null","","","","","",""
"image-keyboard-response","16","306434","0.0-5.0-1.3","LF","yhakp9pfe9","1600","900","0","1","0","5f57a42b46df8927414990fc","","null","","","","","","","learning/Slide4.JPG","null","","","","","",""
"html-keyboard-response","17","307456","0.0-5.0-2.3","LF","yhakp9pfe9","1600","900","0","1","0","5f57a42b46df8927414990fc","","null","","","learningBlock1","","","","<div style=""font-size:60px;""> </div>","null","LF","learning/Slide4.JPG","This is a dep:","","",""
"html-keyboard-response","18","308457","0.0-5.0-0.4","LF","yhakp9pfe9","1600","900","0","1","0","5f57a42b46df8927414990fc","","null","","","learningBlock1","","","","This is a wug:","null","","","","","",""
"image-keyboard-response","19","308786","0.0-5.0-1.4","LF","yhakp9pfe9","1600","900","0","1","0","5f57a42b46df8927414990fc","","null","","","","","","","learning/Slide5.JPG","null","","","","","",""
"html-keyboard-response","20","309801","0.0-5.0-2.4","LF","yhakp9pfe9","1600","900","0","1","0","5f57a42b46df8927414990fc","","null","","","learningBlock1","","","","<div style=""font-size:60px;""> </div>","null","LF","learning/Slide5.JPG","This is a wug:","","",""
"html-keyboard-response","21","310804","0.0-5.0-0.5","LF","yhakp9pfe9","1600","900","0","1","0","5f57a42b46df8927414990fc","","null","","","learningBlock1","","","","This is a dep:","null","","","","","",""
"image-keyboard-response","22","311134","0.0-5.0-1.5","LF","yhakp9pfe9","1600","900","0","1","0","5f57a42b46df8927414990fc","","null","","","","","","","learning/Slide6.JPG","null","","","","","",""
"html-keyboard-response","23","312140","0.0-5.0-2.5","LF","yhakp9pfe9","1600","900","0","1","0","5f57a42b46df8927414990fc","","null","","","learningBlock1","","","","<div style=""font-size:60px;""> </div>","null","LF","learning/Slide6.JPG","This is a dep:","","",""
"html-keyboard-response","24","313143","0.0-5.0-0.6","LF","yhakp9pfe9","1600","900","0","1","0","5f57a42b46df8927414990fc","","null","","","learningBlock1","","","","This is a wug:","null","","","","","",""
"image-keyboard-response","25","313481","0.0-5.0-1.6","LF","yhakp9pfe9","1600","900","0","1","0","5f57a42b46df8927414990fc","","null","","","","","","","learning/Slide7.JPG","null","","","","","",""
"html-keyboard-response","26","314483","0.0-5.0-2.6","LF","yhakp9pfe9","1600","900","0","1","0","5f57a42b46df8927414990fc","","null","","","learningBlock1","","","","<div style=""font-size:60px;""> </div>","null","LF","learning/Slide7.JPG","This is a wug:","","",""
"html-keyboard-response","27","315485","0.0-5.0-0.7","LF","yhakp9pfe9","1600","900","0","1","0","5f57a42b46df8927414990fc","","null","","","learningBlock1","","","","This is a bim:","null","","","","","",""
"image-keyboard-response","28","315814","0.0-5.0-1.7","LF","yhakp9pfe9","1600","900","0","1","0","5f57a42b46df8927414990fc","","null","","","","","","","learning/Slide8.JPG","null","","","","","",""
"html-keyboard-response","29","316817","0.0-5.0-2.7","LF","yhakp9pfe9","1600","900","0","1","0","5f57a42b46df8927414990fc","","null","","","learningBlock1","","","","<div style=""font-size:60px;""> </div>","null","LF","learning/Slide8.JPG","This is a bim:","","",""
"html-keyboard-response","30","317818","0.0-5.0-0.8","LF","yhakp9pfe9","1600","900","0","1","0","5f57a42b46df8927414990fc","","null","","","learningBlock1","","","","This is a wug:","null","","","","","",""
"image-keyboard-response","31","318146","0.0-5.0-1.8","LF","yhakp9pfe9","1600","900","0","1","0","5f57a42b46df8927414990fc","","null","","","","","","","learning/Slide9.JPG","null","","","","","",""
"html-keyboard-response","32","319149","0.0-5.0-2.8","LF","yhakp9pfe9","1600","900","0","1","0","5f57a42b46df8927414990fc","","null","","","learningBlock1","","","","<div style=""font-size:60px;""> </div>","null","LF","learning/Slide9.JPG","This is a wug:","","",""
"html-keyboard-response","33","320152","0.0-5.0-0.9","LF","yhakp9pfe9","1600","900","0","1","0","5f57a42b46df8927414990fc","","null","","","learningBlock1","","","","This is a dep:","null","","","","","",""
"image-keyboard-response","34","320481","0.0-5.0-1.9","LF","yhakp9pfe9","1600","900","0","1","0","5f57a42b46df8927414990fc","","null","","","","","","","learning/Slide10.JPG","null","","","","","",""
"html-keyboard-response","35","321484","0.0-5.0-2.9","LF","yhakp9pfe9","1600","900","0","1","0","5f57a42b46df8927414990fc","","null","","","learningBlock1","","","","<div style=""font-size:60px;""> </div>","null","LF","learning/Slide10.JPG","This is a dep:","","",""
"html-keyboard-response","36","322486","0.0-5.0-0.10","LF","yhakp9pfe9","1600","900","0","1","0","5f57a42b46df8927414990fc","","null","","","learningBlock1","","","","This is a tob:","null","","","","","",""
"image-keyboard-response","37","322814","0.0-5.0-1.10","LF","yhakp9pfe9","1600","900","0","1","0","5f57a42b46df8927414990fc","","null","","","","","","","learning/Slide11.JPG","null","","","","","",""
"html-keyboard-response","38","323817","0.0-5.0-2.10","LF","yhakp9pfe9","1600","900","0","1","0","5f57a42b46df8927414990fc","","null","","","learningBlock1","","","","<div style=""font-size:60px;""> </div>","null","LF","learning/Slide11.JPG","This is a tob:","","",""
"html-keyboard-response","39","324820","0.0-5.0-0.11","LF","yhakp9pfe9","1600","900","0","1","0","5f57a42b46df8927414990fc","","null","","","learningBlock1","","","","This is a dep:","null","","","","","",""
"image-keyboard-response","40","325151","0.0-5.0-1.11","LF","yhakp9pfe9","1600","900","0","1","0","5f57a42b46df8927414990fc","","null","","","","","","","learning/Slide12.JPG","null","","","","","",""
"html-keyboard-response","41","326153","0.0-5.0-2.11","LF","yhakp9pfe9","1600","900","0","1","0","5f57a42b46df8927414990fc","","null","","","learningBlock1","","","","<div style=""font-size:60px;""> </div>","null","LF","learning/Slide12.JPG","This is a dep:","","",""
"html-keyboard-response","42","327156","0.0-5.0-0.12","LF","yhakp9pfe9","1600","900","0","1","0","5f57a42b46df8927414990fc","","null","","","learningBlock1","","","","This is a bim:","null","","","","","",""
"image-keyboard-response","43","327485","0.0-5.0-1.12","LF","yhakp9pfe9","1600","900","0","1","0","5f57a42b46df8927414990fc","","null","","","","","","","learning/Slide13.JPG","null","","","","","",""
"html-keyboard-response","44","328489","0.0-5.0-2.12","LF","yhakp9pfe9","1600","900","0","1","0","5f57a42b46df8927414990fc","","null","","","learningBlock1","","","","<div style=""font-size:60px;""> </div>","null","LF","learning/Slide13.JPG","This is a bim:","","",""
"html-keyboard-response","45","329491","0.0-5.0-0.13","LF","yhakp9pfe9","1600","900","0","1","0","5f57a42b46df8927414990fc","","null","","","learningBlock1","","","","This is a wug:","null","","","","","",""
"image-keyboard-response","46","329821","0.0-5.0-1.13","LF","yhakp9pfe9","1600","900","0","1","0","5f57a42b46df8927414990fc","","null","","","","","","","learning/Slide14.JPG","null","","","","","",""
"html-keyboard-response","47","330823","0.0-5.0-2.13","LF","yhakp9pfe9","1600","900","0","1","0","5f57a42b46df8927414990fc","","null","","","learningBlock1","","","","<div style=""font-size:60px;""> </div>","null","LF","learning/Slide14.JPG","This is a wug:","","",""
"html-keyboard-response","48","331825","0.0-5.0-0.14","LF","yhakp9pfe9","1600","900","0","1","0","5f57a42b46df8927414990fc","","null","","","learningBlock1","","","","This is a tob:","null","","","","","",""
"image-keyboard-response","49","332155","0.0-5.0-1.14","LF","yhakp9pfe9","1600","900","0","1","0","5f57a42b46df8927414990fc","","null","","","","","","","learning/Slide15.JPG","null","","","","","",""
"html-keyboard-response","50","333157","0.0-5.0-2.14","LF","yhakp9pfe9","1600","900","0","1","0","5f57a42b46df8927414990fc","","null","","","learningBlock1","","","","<div style=""font-size:60px;""> </div>","null","LF","learning/Slide15.JPG","This is a tob:","","",""
"html-keyboard-response","51","334159","0.0-5.0-0.15","LF","yhakp9pfe9","1600","900","0","1","0","5f57a42b46df8927414990fc","","null","","","learningBlock1","","","","This is a dep:","null","","","","","",""
"image-keyboard-response","52","334488","0.0-5.0-1.15","LF","yhakp9pfe9","1600","900","0","1","0","5f57a42b46df8927414990fc","","null","","","","","","","learning/Slide16.JPG","null","","","","","",""
"html-keyboard-response","53","335490","0.0-5.0-2.15","LF","yhakp9pfe9","1600","900","0","1","0","5f57a42b46df8927414990fc","","null","","","learningBlock1","","","","<div style=""font-size:60px;""> </div>","null","LF","learning/Slide16.JPG","This is a dep:","","",""
"html-keyboard-response","54","336493","0.0-5.0-0.16","LF","yhakp9pfe9","1600","900","0","1","0","5f57a42b46df8927414990fc","","null","","","learningBlock1","","","","This is a bim:","null","","","","","",""
"image-keyboard-response","55","336821","0.0-5.0-1.16","LF","yhakp9pfe9","1600","900","0","1","0","5f57a42b46df8927414990fc","","null","","","","","","","learning/Slide17.JPG","null","","","","","",""
"html-keyboard-response","56","337824","0.0-5.0-2.16","LF","yhakp9pfe9","1600","900","0","1","0","5f57a42b46df8927414990fc","","null","","","learningBlock1","","","","<div style=""font-size:60px;""> </div>","null","LF","learning/Slide17.JPG","This is a bim:","","",""
"html-keyboard-response","57","338827","0.0-5.0-0.17","LF","yhakp9pfe9","1600","900","0","1","0","5f57a42b46df8927414990fc","","null","","","learningBlock1","","","","This is a tob:","null","","","","","",""
"image-keyboard-response","58","339155","0.0-5.0-1.17","LF","yhakp9pfe9","1600","900","0","1","0","5f57a42b46df8927414990fc","","null","","","","","","","learning/Slide18.JPG","null","","","","","",""
"html-keyboard-response","59","340159","0.0-5.0-2.17","LF","yhakp9pfe9","1600","900","0","1","0","5f57a42b46df8927414990fc","","null","","","learningBlock1","","","","<div style=""font-size:60px;""> </div>","null","LF","learning/Slide18.JPG","This is a tob:","","",""
"html-keyboard-response","60","341161","0.0-5.0-0.18","LF","yhakp9pfe9","1600","900","0","1","0","5f57a42b46df8927414990fc","","null","","","learningBlock1","","","","This is a wug:","null","","","","","",""
"image-keyboard-response","61","341492","0.0-5.0-1.18","LF","yhakp9pfe9","1600","900","0","1","0","5f57a42b46df8927414990fc","","null","","","","","","","learning/Slide19.JPG","null","","","","","",""
"html-keyboard-response","62","342494","0.0-5.0-2.18","LF","yhakp9pfe9","1600","900","0","1","0","5f57a42b46df8927414990fc","","null","","","learningBlock1","","","","<div style=""font-size:60px;""> </div>","null","LF","learning/Slide19.JPG","This is a wug:","","",""
"html-keyboard-response","63","343497","0.0-5.0-0.19","LF","yhakp9pfe9","1600","900","0","1","0","5f57a42b46df8927414990fc","","null","","","learningBlock1","","","","This is a bim:","null","","","","","",""
"image-keyboard-response","64","343826","0.0-5.0-1.19","LF","yhakp9pfe9","1600","900","0","1","0","5f57a42b46df8927414990fc","","null","","","","","","","learning/Slide20.JPG","null","","","","","",""
"html-keyboard-response","65","344828","0.0-5.0-2.19","LF","yhakp9pfe9","1600","900","0","1","0","5f57a42b46df8927414990fc","","null","","","learningBlock1","","","","<div style=""font-size:60px;""> </div>","null","LF","learning/Slide20.JPG","This is a bim:","","",""
"html-keyboard-response","66","345830","0.0-5.0-0.20","LF","yhakp9pfe9","1600","900","0","1","0","5f57a42b46df8927414990fc","","null","","","learningBlock1","","","","This is a dep:","null","","","","","",""
"image-keyboard-response","67","346158","0.0-5.0-1.20","LF","yhakp9pfe9","1600","900","0","1","0","5f57a42b46df8927414990fc","","null","","","","","","","learning/Slide21.JPG","null","","","","","",""
"html-keyboard-response","68","347162","0.0-5.0-2.20","LF","yhakp9pfe9","1600","900","0","1","0","5f57a42b46df8927414990fc","","null","","","learningBlock1","","","","<div style=""font-size:60px;""> </div>","null","LF","learning/Slide21.JPG","This is a dep:","","",""
"html-keyboard-response","69","348170","0.0-5.0-0.21","LF","yhakp9pfe9","1600","900","0","1","0","5f57a42b46df8927414990fc","","null","","","learningBlock1","","","","This is a bim:","null","","","","","",""
"image-keyboard-response","70","348500","0.0-5.0-1.21","LF","yhakp9pfe9","1600","900","0","1","0","5f57a42b46df8927414990fc","","null","","","","","","","learning/Slide22.JPG","null","","","","","",""
"html-keyboard-response","71","349502","0.0-5.0-2.21","LF","yhakp9pfe9","1600","900","0","1","0","5f57a42b46df8927414990fc","","null","","","learningBlock1","","","","<div style=""font-size:60px;""> </div>","null","LF","learning/Slide22.JPG","This is a bim:","","",""
"html-keyboard-response","72","350504","0.0-5.0-0.22","LF","yhakp9pfe9","1600","900","0","1","0","5f57a42b46df8927414990fc","","null","","","learningBlock1","","","","This is a tob:","null","","","","","",""
"image-keyboard-response","73","350832","0.0-5.0-1.22","LF","yhakp9pfe9","1600","900","0","1","0","5f57a42b46df8927414990fc","","null","","","","","","","learning/Slide23.JPG","null","","","","","",""
"html-keyboard-response","74","351835","0.0-5.0-2.22","LF","yhakp9pfe9","1600","900","0","1","0","5f57a42b46df8927414990fc","","null","","","learningBlock1","","","","<div style=""font-size:60px;""> </div>","null","LF","learning/Slide23.JPG","This is a tob:","","",""
"html-keyboard-response","75","352838","0.0-5.0-0.23","LF","yhakp9pfe9","1600","900","0","1","0","5f57a42b46df8927414990fc","","null","","","learningBlock1","","","","This is a wug:","null","","","","","",""
"image-keyboard-response","76","353165","0.0-5.0-1.23","LF","yhakp9pfe9","1600","900","0","1","0","5f57a42b46df8927414990fc","","null","","","","","","","learning/Slide24.JPG","null","","","","","",""
"html-keyboard-response","77","354168","0.0-5.0-2.23","LF","yhakp9pfe9","1600","900","0","1","0","5f57a42b46df8927414990fc","","null","","","learningBlock1","","","","<div style=""font-size:60px;""> </div>","null","LF","learning/Slide24.JPG","This is a wug:","","",""
"html-keyboard-response","78","355170","0.0-5.0-0.24","LF","yhakp9pfe9","1600","900","0","1","0","5f57a42b46df8927414990fc","","null","","","learningBlock1","","","","This is a dep:","null","","","","","",""
"image-keyboard-response","79","355497","0.0-5.0-1.24","LF","yhakp9pfe9","1600","900","0","1","0","5f57a42b46df8927414990fc","","null","","","","","","","learning/Slide25.JPG","null","","","","","",""
"html-keyboard-response","80","356500","0.0-5.0-2.24","LF","yhakp9pfe9","1600","900","0","1","0","5f57a42b46df8927414990fc","","null","","","learningBlock1","","","","<div style=""font-size:60px;""> </div>","null","LF","learning/Slide25.JPG","This is a dep:","","",""
"html-keyboard-response","81","357502","0.0-5.0-0.25","LF","yhakp9pfe9","1600","900","0","1","0","5f57a42b46df8927414990fc","","null","","","learningBlock1","","","","This is a wug:","null","","","","","",""
"image-keyboard-response","82","357831","0.0-5.0-1.25","LF","yhakp9pfe9","1600","900","0","1","0","5f57a42b46df8927414990fc","","null","","","","","","","learning/Slide26.JPG","null","","","","","",""
"html-keyboard-response","83","358833","0.0-5.0-2.25","LF","yhakp9pfe9","1600","900","0","1","0","5f57a42b46df8927414990fc","","null","","","learningBlock1","","","","<div style=""font-size:60px;""> </div>","null","LF","learning/Slide26.JPG","This is a wug:","","",""
"html-keyboard-response","84","359835","0.0-5.0-0.26","LF","yhakp9pfe9","1600","900","0","1","0","5f57a42b46df8927414990fc","","null","","","learningBlock1","","","","This is a bim:","null","","","","","",""
"image-keyboard-response","85","360163","0.0-5.0-1.26","LF","yhakp9pfe9","1600","900","0","1","0","5f57a42b46df8927414990fc","","null","","","","","","","learning/Slide27.JPG","null","","","","","",""
"html-keyboard-response","86","361166","0.0-5.0-2.26","LF","yhakp9pfe9","1600","900","0","1","0","5f57a42b46df8927414990fc","","null","","","learningBlock1","","","","<div style=""font-size:60px;""> </div>","null","LF","learning/Slide27.JPG","This is a bim:","","",""
"html-keyboard-response","87","362169","0.0-5.0-0.27","LF","yhakp9pfe9","1600","900","0","1","0","5f57a42b46df8927414990fc","","null","","","learningBlock1","","","","This is a dep:","null","","","","","",""
"image-keyboard-response","88","362498","0.0-5.0-1.27","LF","yhakp9pfe9","1600","900","0","1","0","5f57a42b46df8927414990fc","","null","","","","","","","learning/Slide28.JPG","null","","","","","",""
"html-keyboard-response","89","363501","0.0-5.0-2.27","LF","yhakp9pfe9","1600","900","0","1","0","5f57a42b46df8927414990fc","","null","","","learningBlock1","","","","<div style=""font-size:60px;""> </div>","null","LF","learning/Slide28.JPG","This is a dep:","","",""
"html-keyboard-response","90","364503","0.0-5.0-0.28","LF","yhakp9pfe9","1600","900","0","1","0","5f57a42b46df8927414990fc","","null","","","learningBlock1","","","","This is a tob:","null","","","","","",""
"image-keyboard-response","91","364830","0.0-5.0-1.28","LF","yhakp9pfe9","1600","900","0","1","0","5f57a42b46df8927414990fc","","null","","","","","","","learning/Slide29.JPG","null","","","","","",""
"html-keyboard-response","92","365832","0.0-5.0-2.28","LF","yhakp9pfe9","1600","900","0","1","0","5f57a42b46df8927414990fc","","null","","","learningBlock1","","","","<div style=""font-size:60px;""> </div>","null","LF","learning/Slide29.JPG","This is a tob:","","",""
"html-keyboard-response","93","366834","0.0-5.0-0.29","LF","yhakp9pfe9","1600","900","0","1","0","5f57a42b46df8927414990fc","","null","","","learningBlock1","","","","This is a dep:","null","","","","","",""
"image-keyboard-response","94","367162","0.0-5.0-1.29","LF","yhakp9pfe9","1600","900","0","1","0","5f57a42b46df8927414990fc","","null","","","","","","","learning/Slide30.JPG","null","","","","","",""
"html-keyboard-response","95","368165","0.0-5.0-2.29","LF","yhakp9pfe9","1600","900","0","1","0","5f57a42b46df8927414990fc","","null","","","learningBlock1","","","","<div style=""font-size:60px;""> </div>","null","LF","learning/Slide30.JPG","This is a dep:","","",""
"html-keyboard-response","96","369168","0.0-5.0-0.30","LF","yhakp9pfe9","1600","900","0","1","0","5f57a42b46df8927414990fc","","null","","","learningBlock1","","","","This is a wug:","null","","","","","",""
"image-keyboard-response","97","369497","0.0-5.0-1.30","LF","yhakp9pfe9","1600","900","0","1","0","5f57a42b46df8927414990fc","","null","","","","","","","learning/Slide31.JPG","null","","","","","",""
"html-keyboard-response","98","370499","0.0-5.0-2.30","LF","yhakp9pfe9","1600","900","0","1","0","5f57a42b46df8927414990fc","","null","","","learningBlock1","","","","<div style=""font-size:60px;""> </div>","null","LF","learning/Slide31.JPG","This is a wug:","","",""
"html-keyboard-response","99","371502","0.0-5.0-0.31","LF","yhakp9pfe9","1600","900","0","1","0","5f57a42b46df8927414990fc","","null","","","learningBlock1","","","","This is a tob:","null","","","","","",""
"image-keyboard-response","100","371830","0.0-5.0-1.31","LF","yhakp9pfe9","1600","900","0","1","0","5f57a42b46df8927414990fc","","null","","","","","","","learning/Slide32.JPG","null","","","","","",""
"html-keyboard-response","101","372833","0.0-5.0-2.31","LF","yhakp9pfe9","1600","900","0","1","0","5f57a42b46df8927414990fc","","null","","","learningBlock1","","","","<div style=""font-size:60px;""> </div>","null","LF","learning/Slide32.JPG","This is a tob:","","",""
"html-keyboard-response","102","373835","0.0-5.0-0.32","LF","yhakp9pfe9","1600","900","0","1","0","5f57a42b46df8927414990fc","","null","","","learningBlock1","","","","This is a bim:","null","","","","","",""
"image-keyboard-response","103","374164","0.0-5.0-1.32","LF","yhakp9pfe9","1600","900","0","1","0","5f57a42b46df8927414990fc","","null","","","","","","","learning/Slide33.JPG","null","","","","","",""
"html-keyboard-response","104","375167","0.0-5.0-2.32","LF","yhakp9pfe9","1600","900","0","1","0","5f57a42b46df8927414990fc","","null","","","learningBlock1","","","","<div style=""font-size:60px;""> </div>","null","LF","learning/Slide33.JPG","This is a bim:","","",""
"html-keyboard-response","105","376169","0.0-5.0-0.33","LF","yhakp9pfe9","1600","900","0","1","0","5f57a42b46df8927414990fc","","null","","","learningBlock1","","","","This is a tob:","null","","","","","",""
"image-keyboard-response","106","376498","0.0-5.0-1.33","LF","yhakp9pfe9","1600","900","0","1","0","5f57a42b46df8927414990fc","","null","","","","","","","learning/Slide34.JPG","null","","","","","",""
"html-keyboard-response","107","377500","0.0-5.0-2.33","LF","yhakp9pfe9","1600","900","0","1","0","5f57a42b46df8927414990fc","","null","","","learningBlock1","","","","<div style=""font-size:60px;""> </div>","null","LF","learning/Slide34.JPG","This is a tob:","","",""
"html-keyboard-response","108","378503","0.0-5.0-0.34","LF","yhakp9pfe9","1600","900","0","1","0","5f57a42b46df8927414990fc","","null","","","learningBlock1","","","","This is a bim:","null","","","","","",""
"image-keyboard-response","109","378831","0.0-5.0-1.34","LF","yhakp9pfe9","1600","900","0","1","0","5f57a42b46df8927414990fc","","null","","","","","","","learning/Slide35.JPG","null","","","","","",""
"html-keyboard-response","110","379833","0.0-5.0-2.34","LF","yhakp9pfe9","1600","900","0","1","0","5f57a42b46df8927414990fc","","null","","","learningBlock1","","","","<div style=""font-size:60px;""> </div>","null","LF","learning/Slide35.JPG","This is a bim:","","",""
"html-keyboard-response","111","380836","0.0-5.0-0.35","LF","yhakp9pfe9","1600","900","0","1","0","5f57a42b46df8927414990fc","","null","","","learningBlock1","","","","This is a dep:","null","","","","","",""
"image-keyboard-response","112","381165","0.0-5.0-1.35","LF","yhakp9pfe9","1600","900","0","1","0","5f57a42b46df8927414990fc","","null","","","","","","","learning/Slide36.JPG","null","","","","","",""
"html-keyboard-response","113","382168","0.0-5.0-2.35","LF","yhakp9pfe9","1600","900","0","1","0","5f57a42b46df8927414990fc","","null","","","learningBlock1","","","","<div style=""font-size:60px;""> </div>","null","LF","learning/Slide36.JPG","This is a dep:","","",""
"html-keyboard-response","114","383170","0.0-5.0-0.36","LF","yhakp9pfe9","1600","900","0","1","0","5f57a42b46df8927414990fc","","null","","","learningBlock1","","","","This is a tob:","null","","","","","",""
"image-keyboard-response","115","383499","0.0-5.0-1.36","LF","yhakp9pfe9","1600","900","0","1","0","5f57a42b46df8927414990fc","","null","","","","","","","learning/Slide37.JPG","null","","","","","",""
"html-keyboard-response","116","384502","0.0-5.0-2.36","LF","yhakp9pfe9","1600","900","0","1","0","5f57a42b46df8927414990fc","","null","","","learningBlock1","","","","<div style=""font-size:60px;""> </div>","null","LF","learning/Slide37.JPG","This is a tob:","","",""
"html-keyboard-response","117","385504","0.0-5.0-0.37","LF","yhakp9pfe9","1600","900","0","1","0","5f57a42b46df8927414990fc","","null","","","learningBlock1","","","","This is a wug:","null","","","","","",""
"image-keyboard-response","118","385832","0.0-5.0-1.37","LF","yhakp9pfe9","1600","900","0","1","0","5f57a42b46df8927414990fc","","null","","","","","","","learning/Slide38.JPG","null","","","","","",""
"html-keyboard-response","119","386835","0.0-5.0-2.37","LF","yhakp9pfe9","1600","900","0","1","0","5f57a42b46df8927414990fc","","null","","","learningBlock1","","","","<div style=""font-size:60px;""> </div>","null","LF","learning/Slide38.JPG","This is a wug:","","",""
"html-keyboard-response","120","387837","0.0-5.0-0.38","LF","yhakp9pfe9","1600","900","0","1","0","5f57a42b46df8927414990fc","","null","","","learningBlock1","","","","This is a bim:","null","","","","","",""
"image-keyboard-response","121","388164","0.0-5.0-1.38","LF","yhakp9pfe9","1600","900","0","1","0","5f57a42b46df8927414990fc","","null","","","","","","","learning/Slide39.JPG","null","","","","","",""
"html-keyboard-response","122","389166","0.0-5.0-2.38","LF","yhakp9pfe9","1600","900","0","1","0","5f57a42b46df8927414990fc","","null","","","learningBlock1","","","","<div style=""font-size:60px;""> </div>","null","LF","learning/Slide39.JPG","This is a bim:","","",""
"html-keyboard-response","123","390168","0.0-5.0-0.39","LF","yhakp9pfe9","1600","900","0","1","0","5f57a42b46df8927414990fc","","null","","","learningBlock1","","","","This is a tob:","null","","","","","",""
"image-keyboard-response","124","390498","0.0-5.0-1.39","LF","yhakp9pfe9","1600","900","0","1","0","5f57a42b46df8927414990fc","","null","","","","","","","learning/Slide40.JPG","null","","","","","",""
"html-keyboard-response","125","391501","0.0-5.0-2.39","LF","yhakp9pfe9","1600","900","0","1","0","5f57a42b46df8927414990fc","","null","","","learningBlock1","","","","<div style=""font-size:60px;""> </div>","null","LF","learning/Slide40.JPG","This is a tob:","","",""
"html-keyboard-response","126","392503","0.0-5.0-0.40","LF","yhakp9pfe9","1600","900","0","1","0","5f57a42b46df8927414990fc","","null","","","learningBlock1","","","","This is a bim:","null","","","","","",""
"image-keyboard-response","127","392832","0.0-5.0-1.40","LF","yhakp9pfe9","1600","900","0","1","0","5f57a42b46df8927414990fc","","null","","","","","","","learning/Slide41.JPG","null","","","","","",""
"html-keyboard-response","128","393836","0.0-5.0-2.40","LF","yhakp9pfe9","1600","900","0","1","0","5f57a42b46df8927414990fc","","null","","","learningBlock1","","","","<div style=""font-size:60px;""> </div>","null","LF","learning/Slide41.JPG","This is a bim:","","",""
"html-keyboard-response","129","394837","0.0-5.0-0.41","LF","yhakp9pfe9","1600","900","0","1","0","5f57a42b46df8927414990fc","","null","","","learningBlock1","","","","This is a dep:","null","","","","","",""
"image-keyboard-response","130","395167","0.0-5.0-1.41","LF","yhakp9pfe9","1600","900","0","1","0","5f57a42b46df8927414990fc","","null","","","","","","","learning/Slide42.JPG","null","","","","","",""
"html-keyboard-response","131","396169","0.0-5.0-2.41","LF","yhakp9pfe9","1600","900","0","1","0","5f57a42b46df8927414990fc","","null","","","learningBlock1","","","","<div style=""font-size:60px;""> </div>","null","LF","learning/Slide42.JPG","This is a dep:","","",""
"html-keyboard-response","132","397171","0.0-5.0-0.42","LF","yhakp9pfe9","1600","900","0","1","0","5f57a42b46df8927414990fc","","null","","","learningBlock1","","","","This is a wug:","null","","","","","",""
"image-keyboard-response","133","397500","0.0-5.0-1.42","LF","yhakp9pfe9","1600","900","0","1","0","5f57a42b46df8927414990fc","","null","","","","","","","learning/Slide43.JPG","null","","","","","",""
"html-keyboard-response","134","398501","0.0-5.0-2.42","LF","yhakp9pfe9","1600","900","0","1","0","5f57a42b46df8927414990fc","","null","","","learningBlock1","","","","<div style=""font-size:60px;""> </div>","null","LF","learning/Slide43.JPG","This is a wug:","","",""
"html-keyboard-response","135","399503","0.0-5.0-0.43","LF","yhakp9pfe9","1600","900","0","1","0","5f57a42b46df8927414990fc","","null","","","learningBlock1","","","","This is a bim:","null","","","","","",""
"image-keyboard-response","136","399834","0.0-5.0-1.43","LF","yhakp9pfe9","1600","900","0","1","0","5f57a42b46df8927414990fc","","null","","","","","","","learning/Slide44.JPG","null","","","","","",""
"html-keyboard-response","137","400836","0.0-5.0-2.43","LF","yhakp9pfe9","1600","900","0","1","0","5f57a42b46df8927414990fc","","null","","","learningBlock1","","","","<div style=""font-size:60px;""> </div>","null","LF","learning/Slide44.JPG","This is a bim:","","",""
"html-keyboard-response","138","401838","0.0-5.0-0.44","LF","yhakp9pfe9","1600","900","0","1","0","5f57a42b46df8927414990fc","","null","","","learningBlock1","","","","This is a wug:","null","","","","","",""
"image-keyboard-response","139","402168","0.0-5.0-1.44","LF","yhakp9pfe9","1600","900","0","1","0","5f57a42b46df8927414990fc","","null","","","","","","","learning/Slide45.JPG","null","","","","","",""
"html-keyboard-response","140","403171","0.0-5.0-2.44","LF","yhakp9pfe9","1600","900","0","1","0","5f57a42b46df8927414990fc","","null","","","learningBlock1","","","","<div style=""font-size:60px;""> </div>","null","LF","learning/Slide45.JPG","This is a wug:","","",""
"html-keyboard-response","141","404173","0.0-5.0-0.45","LF","yhakp9pfe9","1600","900","0","1","0","5f57a42b46df8927414990fc","","null","","","learningBlock1","","","","This is a dep:","null","","","","","",""
"image-keyboard-response","142","404502","0.0-5.0-1.45","LF","yhakp9pfe9","1600","900","0","1","0","5f57a42b46df8927414990fc","","null","","","","","","","learning/Slide46.JPG","null","","","","","",""
"html-keyboard-response","143","405505","0.0-5.0-2.45","LF","yhakp9pfe9","1600","900","0","1","0","5f57a42b46df8927414990fc","","null","","","learningBlock1","","","","<div style=""font-size:60px;""> </div>","null","LF","learning/Slide46.JPG","This is a dep:","","",""
"html-keyboard-response","144","406507","0.0-5.0-0.46","LF","yhakp9pfe9","1600","900","0","1","0","5f57a42b46df8927414990fc","","null","","","learningBlock1","","","","This is a tob:","null","","","","","",""
"image-keyboard-response","145","406836","0.0-5.0-1.46","LF","yhakp9pfe9","1600","900","0","1","0","5f57a42b46df8927414990fc","","null","","","","","","","learning/Slide47.JPG","null","","","","","",""
"html-keyboard-response","146","407838","0.0-5.0-2.46","LF","yhakp9pfe9","1600","900","0","1","0","5f57a42b46df8927414990fc","","null","","","learningBlock1","","","","<div style=""font-size:60px;""> </div>","null","LF","learning/Slide47.JPG","This is a tob:","","",""
"html-keyboard-response","147","408842","0.0-5.0-0.47","LF","yhakp9pfe9","1600","900","0","1","0","5f57a42b46df8927414990fc","","null","","","learningBlock1","","","","This is a bim:","null","","","","","",""
"image-keyboard-response","148","409169","0.0-5.0-1.47","LF","yhakp9pfe9","1600","900","0","1","0","5f57a42b46df8927414990fc","","null","","","","","","","learning/Slide48.JPG","null","","","","","",""
"html-keyboard-response","149","410171","0.0-5.0-2.47","LF","yhakp9pfe9","1600","900","0","1","0","5f57a42b46df8927414990fc","","null","","","learningBlock1","","","","<div style=""font-size:60px;""> </div>","null","LF","learning/Slide48.JPG","This is a bim:","","",""
"html-keyboard-response","150","411174","0.0-5.0-0.48","LF","yhakp9pfe9","1600","900","0","1","0","5f57a42b46df8927414990fc","","null","","","learningBlock1","","","","This is a dep:","null","","","","","",""
"image-keyboard-response","151","411504","0.0-5.0-1.48","LF","yhakp9pfe9","1600","900","0","1","0","5f57a42b46df8927414990fc","","null","","","","","","","learning/Slide49.JPG","null","","","","","",""
"html-keyboard-response","152","412507","0.0-5.0-2.48","LF","yhakp9pfe9","1600","900","0","1","0","5f57a42b46df8927414990fc","","null","","","learningBlock1","","","","<div style=""font-size:60px;""> </div>","null","LF","learning/Slide49.JPG","This is a dep:","","",""
"html-keyboard-response","153","413510","0.0-5.0-0.49","LF","yhakp9pfe9","1600","900","0","1","0","5f57a42b46df8927414990fc","","null","","","learningBlock1","","","","This is a tob:","null","","","","","",""
"image-keyboard-response","154","413838","0.0-5.0-1.49","LF","yhakp9pfe9","1600","900","0","1","0","5f57a42b46df8927414990fc","","null","","","","","","","learning/Slide50.JPG","null","","","","","",""
"html-keyboard-response","155","414840","0.0-5.0-2.49","LF","yhakp9pfe9","1600","900","0","1","0","5f57a42b46df8927414990fc","","null","","","learningBlock1","","","","<div style=""font-size:60px;""> </div>","null","LF","learning/Slide50.JPG","This is a tob:","","",""
"html-keyboard-response","156","415841","0.0-5.0-0.50","LF","yhakp9pfe9","1600","900","0","1","0","5f57a42b46df8927414990fc","","null","","","learningBlock1","","","","This is a bim:","null","","","","","",""
"image-keyboard-response","157","416170","0.0-5.0-1.50","LF","yhakp9pfe9","1600","900","0","1","0","5f57a42b46df8927414990fc","","null","","","","","","","learning/Slide51.JPG","null","","","","","",""
"html-keyboard-response","158","417172","0.0-5.0-2.50","LF","yhakp9pfe9","1600","900","0","1","0","5f57a42b46df8927414990fc","","null","","","learningBlock1","","","","<div style=""font-size:60px;""> </div>","null","LF","learning/Slide51.JPG","This is a bim:","","",""
"html-keyboard-response","159","418174","0.0-5.0-0.51","LF","yhakp9pfe9","1600","900","0","1","0","5f57a42b46df8927414990fc","","null","","","learningBlock1","","","","This is a wug:","null","","","","","",""
"image-keyboard-response","160","418502","0.0-5.0-1.51","LF","yhakp9pfe9","1600","900","0","1","0","5f57a42b46df8927414990fc","","null","","","","","","","learning/Slide52.JPG","null","","","","","",""
"html-keyboard-response","161","419507","0.0-5.0-2.51","LF","yhakp9pfe9","1600","900","0","1","0","5f57a42b46df8927414990fc","","null","","","learningBlock1","","","","<div style=""font-size:60px;""> </div>","null","LF","learning/Slide52.JPG","This is a wug:","","",""
"html-keyboard-response","162","420510","0.0-5.0-0.52","LF","yhakp9pfe9","1600","900","0","1","0","5f57a42b46df8927414990fc","","null","","","learningBlock1","","","","This is a tob:","null","","","","","",""
"image-keyboard-response","163","420838","0.0-5.0-1.52","LF","yhakp9pfe9","1600","900","0","1","0","5f57a42b46df8927414990fc","","null","","","","","","","learning/Slide53.JPG","null","","","","","",""
"html-keyboard-response","164","421841","0.0-5.0-2.52","LF","yhakp9pfe9","1600","900","0","1","0","5f57a42b46df8927414990fc","","null","","","learningBlock1","","","","<div style=""font-size:60px;""> </div>","null","LF","learning/Slide53.JPG","This is a tob:","","",""
"html-keyboard-response","165","422844","0.0-5.0-0.53","LF","yhakp9pfe9","1600","900","0","1","0","5f57a42b46df8927414990fc","","null","","","learningBlock1","","","","This is a dep:","null","","","","","",""
"image-keyboard-response","166","423174","0.0-5.0-1.53","LF","yhakp9pfe9","1600","900","0","1","0","5f57a42b46df8927414990fc","","null","","","","","","","learning/Slide54.JPG","null","","","","","",""
"html-keyboard-response","167","424178","0.0-5.0-2.53","LF","yhakp9pfe9","1600","900","0","1","0","5f57a42b46df8927414990fc","","null","","","learningBlock1","","","","<div style=""font-size:60px;""> </div>","null","LF","learning/Slide54.JPG","This is a dep:","","",""
"html-keyboard-response","168","425180","0.0-5.0-0.54","LF","yhakp9pfe9","1600","900","0","1","0","5f57a42b46df8927414990fc","","null","","","learningBlock1","","","","This is a bim:","null","","","","","",""
"image-keyboard-response","169","425508","0.0-5.0-1.54","LF","yhakp9pfe9","1600","900","0","1","0","5f57a42b46df8927414990fc","","null","","","","","","","learning/Slide55.JPG","null","","","","","",""
"html-keyboard-response","170","426511","0.0-5.0-2.54","LF","yhakp9pfe9","1600","900","0","1","0","5f57a42b46df8927414990fc","","null","","","learningBlock1","","","","<div style=""font-size:60px;""> </div>","null","LF","learning/Slide55.JPG","This is a bim:","","",""
"html-keyboard-response","171","427514","0.0-5.0-0.55","LF","yhakp9pfe9","1600","900","0","1","0","5f57a42b46df8927414990fc","","null","","","learningBlock1","","","","This is a tob:","null","","","","","",""
"image-keyboard-response","172","427841","0.0-5.0-1.55","LF","yhakp9pfe9","1600","900","0","1","0","5f57a42b46df8927414990fc","","null","","","","","","","learning/Slide56.JPG","null","","","","","",""
"html-keyboard-response","173","428844","0.0-5.0-2.55","LF","yhakp9pfe9","1600","900","0","1","0","5f57a42b46df8927414990fc","","null","","","learningBlock1","","","","<div style=""font-size:60px;""> </div>","null","LF","learning/Slide56.JPG","This is a tob:","","",""
"html-keyboard-response","174","429847","0.0-5.0-0.56","LF","yhakp9pfe9","1600","900","0","1","0","5f57a42b46df8927414990fc","","null","","","learningBlock1","","","","This is a dep:","null","","","","","",""
"image-keyboard-response","175","430176","0.0-5.0-1.56","LF","yhakp9pfe9","1600","900","0","1","0","5f57a42b46df8927414990fc","","null","","","","","","","learning/Slide57.JPG","null","","","","","",""
"html-keyboard-response","176","431179","0.0-5.0-2.56","LF","yhakp9pfe9","1600","900","0","1","0","5f57a42b46df8927414990fc","","null","","","learningBlock1","","","","<div style=""font-size:60px;""> </div>","null","LF","learning/Slide57.JPG","This is a dep:","","",""
"html-keyboard-response","177","432181","0.0-5.0-0.57","LF","yhakp9pfe9","1600","900","0","1","0","5f57a42b46df8927414990fc","","null","","","learningBlock1","","","","This is a wug:","null","","","","","",""
"image-keyboard-response","178","432509","0.0-5.0-1.57","LF","yhakp9pfe9","1600","900","0","1","0","5f57a42b46df8927414990fc","","null","","","","","","","learning/Slide58.JPG","null","","","","","",""
"html-keyboard-response","179","433511","0.0-5.0-2.57","LF","yhakp9pfe9","1600","900","0","1","0","5f57a42b46df8927414990fc","","null","","","learningBlock1","","","","<div style=""font-size:60px;""> </div>","null","LF","learning/Slide58.JPG","This is a wug:","","",""
"html-keyboard-response","180","434513","0.0-5.0-0.58","LF","yhakp9pfe9","1600","900","0","1","0","5f57a42b46df8927414990fc","","null","","","learningBlock1","","","","This is a dep:","null","","","","","",""
"image-keyboard-response","181","434841","0.0-5.0-1.58","LF","yhakp9pfe9","1600","900","0","1","0","5f57a42b46df8927414990fc","","null","","","","","","","learning/Slide59.JPG","null","","","","","",""
"html-keyboard-response","182","435845","0.0-5.0-2.58","LF","yhakp9pfe9","1600","900","0","1","0","5f57a42b46df8927414990fc","","null","","","learningBlock1","","","","<div style=""font-size:60px;""> </div>","null","LF","learning/Slide59.JPG","This is a dep:","","",""
"html-keyboard-response","183","436848","0.0-5.0-0.59","LF","yhakp9pfe9","1600","900","0","1","0","5f57a42b46df8927414990fc","","null","","","learningBlock1","","","","This is a wug:","null","","","","","",""
"image-keyboard-response","184","437177","0.0-5.0-1.59","LF","yhakp9pfe9","1600","900","0","1","0","5f57a42b46df8927414990fc","","null","","","","","","","learning/Slide60.JPG","null","","","","","",""
"html-keyboard-response","185","438180","0.0-5.0-2.59","LF","yhakp9pfe9","1600","900","0","1","0","5f57a42b46df8927414990fc","","null","","","learningBlock1","","","","<div style=""font-size:60px;""> </div>","null","LF","learning/Slide60.JPG","This is a wug:","","",""
"html-keyboard-response","186","439182","0.0-5.0-0.60","LF","yhakp9pfe9","1600","900","0","1","0","5f57a42b46df8927414990fc","","null","","","learningBlock1","","","","This is a bim:","null","","","","","",""
"image-keyboard-response","187","439511","0.0-5.0-1.60","LF","yhakp9pfe9","1600","900","0","1","0","5f57a42b46df8927414990fc","","null","","","","","","","learning/Slide61.JPG","null","","","","","",""
"html-keyboard-response","188","440514","0.0-5.0-2.60","LF","yhakp9pfe9","1600","900","0","1","0","5f57a42b46df8927414990fc","","null","","","learningBlock1","","","","<div style=""font-size:60px;""> </div>","null","LF","learning/Slide61.JPG","This is a bim:","","",""
"html-keyboard-response","189","441516","0.0-5.0-0.61","LF","yhakp9pfe9","1600","900","0","1","0","5f57a42b46df8927414990fc","","null","","","learningBlock1","","","","This is a dep:","null","","","","","",""
"image-keyboard-response","190","441844","0.0-5.0-1.61","LF","yhakp9pfe9","1600","900","0","1","0","5f57a42b46df8927414990fc","","null","","","","","","","learning/Slide62.JPG","null","","","","","",""
"html-keyboard-response","191","442846","0.0-5.0-2.61","LF","yhakp9pfe9","1600","900","0","1","0","5f57a42b46df8927414990fc","","null","","","learningBlock1","","","","<div style=""font-size:60px;""> </div>","null","LF","learning/Slide62.JPG","This is a dep:","","",""
"html-keyboard-response","192","443849","0.0-5.0-0.62","LF","yhakp9pfe9","1600","900","0","1","0","5f57a42b46df8927414990fc","","null","","","learningBlock1","","","","This is a bim:","null","","","","","",""
"image-keyboard-response","193","444179","0.0-5.0-1.62","LF","yhakp9pfe9","1600","900","0","1","0","5f57a42b46df8927414990fc","","null","","","","","","","learning/Slide63.JPG","null","","","","","",""
"html-keyboard-response","194","445182","0.0-5.0-2.62","LF","yhakp9pfe9","1600","900","0","1","0","5f57a42b46df8927414990fc","","null","","","learningBlock1","","","","<div style=""font-size:60px;""> </div>","null","LF","learning/Slide63.JPG","This is a bim:","","",""
"html-keyboard-response","195","446184","0.0-5.0-0.63","LF","yhakp9pfe9","1600","900","0","1","0","5f57a42b46df8927414990fc","","null","","","learningBlock1","","","","This is a tob:","null","","","","","",""
"image-keyboard-response","196","446514","0.0-5.0-1.63","LF","yhakp9pfe9","1600","900","0","1","0","5f57a42b46df8927414990fc","","null","","","","","","","learning/Slide64.JPG","null","","","","","",""
"html-keyboard-response","197","447516","0.0-5.0-2.63","LF","yhakp9pfe9","1600","900","0","1","0","5f57a42b46df8927414990fc","","null","","","learningBlock1","","","","<div style=""font-size:60px;""> </div>","null","LF","learning/Slide64.JPG","This is a tob:","","",""
"html-keyboard-response","198","448519","0.0-5.0-0.64","LF","yhakp9pfe9","1600","900","0","1","0","5f57a42b46df8927414990fc","","null","","","learningBlock1","","","","This is a wug:","null","","","","","",""
"image-keyboard-response","199","448848","0.0-5.0-1.64","LF","yhakp9pfe9","1600","900","0","1","0","5f57a42b46df8927414990fc","","null","","","","","","","learning/Slide65.JPG","null","","","","","",""
"html-keyboard-response","200","449850","0.0-5.0-2.64","LF","yhakp9pfe9","1600","900","0","1","0","5f57a42b46df8927414990fc","","null","","","learningBlock1","","","","<div style=""font-size:60px;""> </div>","null","LF","learning/Slide65.JPG","This is a wug:","","",""
"html-keyboard-response","201","450853","0.0-5.0-0.65","LF","yhakp9pfe9","1600","900","0","1","0","5f57a42b46df8927414990fc","","null","","","learningBlock1","","","","This is a dep:","null","","","","","",""
"image-keyboard-response","202","451182","0.0-5.0-1.65","LF","yhakp9pfe9","1600","900","0","1","0","5f57a42b46df8927414990fc","","null","","","","","","","learning/Slide66.JPG","null","","","","","",""
"html-keyboard-response","203","452185","0.0-5.0-2.65","LF","yhakp9pfe9","1600","900","0","1","0","5f57a42b46df8927414990fc","","null","","","learningBlock1","","","","<div style=""font-size:60px;""> </div>","null","LF","learning/Slide66.JPG","This is a dep:","","",""
"html-keyboard-response","204","453187","0.0-5.0-0.66","LF","yhakp9pfe9","1600","900","0","1","0","5f57a42b46df8927414990fc","","null","","","learningBlock1","","","","This is a tob:","null","","","","","",""
"image-keyboard-response","205","453515","0.0-5.0-1.66","LF","yhakp9pfe9","1600","900","0","1","0","5f57a42b46df8927414990fc","","null","","","","","","","learning/Slide67.JPG","null","","","","","",""
"html-keyboard-response","206","454518","0.0-5.0-2.66","LF","yhakp9pfe9","1600","900","0","1","0","5f57a42b46df8927414990fc","","null","","","learningBlock1","","","","<div style=""font-size:60px;""> </div>","null","LF","learning/Slide67.JPG","This is a tob:","","",""
"html-keyboard-response","207","455521","0.0-5.0-0.67","LF","yhakp9pfe9","1600","900","0","1","0","5f57a42b46df8927414990fc","","null","","","learningBlock1","","","","This is a wug:","null","","","","","",""
"image-keyboard-response","208","455850","0.0-5.0-1.67","LF","yhakp9pfe9","1600","900","0","1","0","5f57a42b46df8927414990fc","","null","","","","","","","learning/Slide68.JPG","null","","","","","",""
"html-keyboard-response","209","456853","0.0-5.0-2.67","LF","yhakp9pfe9","1600","900","0","1","0","5f57a42b46df8927414990fc","","null","","","learningBlock1","","","","<div style=""font-size:60px;""> </div>","null","LF","learning/Slide68.JPG","This is a wug:","","",""
"html-keyboard-response","210","457855","0.0-5.0-0.68","LF","yhakp9pfe9","1600","900","0","1","0","5f57a42b46df8927414990fc","","null","","","learningBlock1","","","","This is a tob:","null","","","","","",""
"image-keyboard-response","211","458184","0.0-5.0-1.68","LF","yhakp9pfe9","1600","900","0","1","0","5f57a42b46df8927414990fc","","null","","","","","","","learning/Slide69.JPG","null","","","","","",""
"html-keyboard-response","212","459186","0.0-5.0-2.68","LF","yhakp9pfe9","1600","900","0","1","0","5f57a42b46df8927414990fc","","null","","","learningBlock1","","","","<div style=""font-size:60px;""> </div>","null","LF","learning/Slide69.JPG","This is a tob:","","",""
"html-keyboard-response","213","460189","0.0-5.0-0.69","LF","yhakp9pfe9","1600","900","0","1","0","5f57a42b46df8927414990fc","","null","","","learningBlock1","","","","This is a dep:","null","","","","","",""
"image-keyboard-response","214","460518","0.0-5.0-1.69","LF","yhakp9pfe9","1600","900","0","1","0","5f57a42b46df8927414990fc","","null","","","","","","","learning/Slide70.JPG","null","","","","","",""
"html-keyboard-response","215","461521","0.0-5.0-2.69","LF","yhakp9pfe9","1600","900","0","1","0","5f57a42b46df8927414990fc","","null","","","learningBlock1","","","","<div style=""font-size:60px;""> </div>","null","LF","learning/Slide70.JPG","This is a dep:","","",""
"html-keyboard-response","216","462522","0.0-5.0-0.70","LF","yhakp9pfe9","1600","900","0","1","0","5f57a42b46df8927414990fc","","null","","","learningBlock1","","","","This is a wug:","null","","","","","",""
"image-keyboard-response","217","462851","0.0-5.0-1.70","LF","yhakp9pfe9","1600","900","0","1","0","5f57a42b46df8927414990fc","","null","","","","","","","learning/Slide71.JPG","null","","","","","",""
"html-keyboard-response","218","463854","0.0-5.0-2.70","LF","yhakp9pfe9","1600","900","0","1","0","5f57a42b46df8927414990fc","","null","","","learningBlock1","","","","<div style=""font-size:60px;""> </div>","null","LF","learning/Slide71.JPG","This is a wug:","","",""
"html-keyboard-response","219","464856","0.0-5.0-0.71","LF","yhakp9pfe9","1600","900","0","1","0","5f57a42b46df8927414990fc","","null","","","learningBlock1","","","","This is a bim:","null","","","","","",""
"image-keyboard-response","220","465183","0.0-5.0-1.71","LF","yhakp9pfe9","1600","900","0","1","0","5f57a42b46df8927414990fc","","null","","","","","","","learning/Slide72.JPG","null","","","","","",""
"html-keyboard-response","221","466186","0.0-5.0-2.71","LF","yhakp9pfe9","1600","900","0","1","0","5f57a42b46df8927414990fc","","null","","","learningBlock1","","","","<div style=""font-size:60px;""> </div>","null","LF","learning/Slide72.JPG","This is a bim:","","",""
"html-keyboard-response","222","467188","0.0-5.0-0.72","LF","yhakp9pfe9","1600","900","0","1","0","5f57a42b46df8927414990fc","","null","","","learningBlock1","","","","This is a wug:","null","","","","","",""
"image-keyboard-response","223","467516","0.0-5.0-1.72","LF","yhakp9pfe9","1600","900","0","1","0","5f57a42b46df8927414990fc","","null","","","","","","","learning/Slide73.JPG","null","","","","","",""
"html-keyboard-response","224","468519","0.0-5.0-2.72","LF","yhakp9pfe9","1600","900","0","1","0","5f57a42b46df8927414990fc","","null","","","learningBlock1","","","","<div style=""font-size:60px;""> </div>","null","LF","learning/Slide73.JPG","This is a wug:","","",""
"html-keyboard-response","225","469521","0.0-5.0-0.73","LF","yhakp9pfe9","1600","900","0","1","0","5f57a42b46df8927414990fc","","null","","","learningBlock1","","","","This is a dep:","null","","","","","",""
"image-keyboard-response","226","469849","0.0-5.0-1.73","LF","yhakp9pfe9","1600","900","0","1","0","5f57a42b46df8927414990fc","","null","","","","","","","learning/Slide74.JPG","null","","","","","",""
"html-keyboard-response","227","470852","0.0-5.0-2.73","LF","yhakp9pfe9","1600","900","0","1","0","5f57a42b46df8927414990fc","","null","","","learningBlock1","","","","<div style=""font-size:60px;""> </div>","null","LF","learning/Slide74.JPG","This is a dep:","","",""
"html-keyboard-response","228","471855","0.0-5.0-0.74","LF","yhakp9pfe9","1600","900","0","1","0","5f57a42b46df8927414990fc","","null","","","learningBlock1","","","","This is a tob:","null","","","","","",""
"image-keyboard-response","229","472183","0.0-5.0-1.74","LF","yhakp9pfe9","1600","900","0","1","0","5f57a42b46df8927414990fc","","null","","","","","","","learning/Slide75.JPG","null","","","","","",""
"html-keyboard-response","230","473186","0.0-5.0-2.74","LF","yhakp9pfe9","1600","900","0","1","0","5f57a42b46df8927414990fc","","null","","","learningBlock1","","","","<div style=""font-size:60px;""> </div>","null","LF","learning/Slide75.JPG","This is a tob:","","",""
"html-keyboard-response","231","474188","0.0-5.0-0.75","LF","yhakp9pfe9","1600","900","0","1","0","5f57a42b46df8927414990fc","","null","","","learningBlock1","","","","This is a bim:","null","","","","","",""
"image-keyboard-response","232","474517","0.0-5.0-1.75","LF","yhakp9pfe9","1600","900","0","1","0","5f57a42b46df8927414990fc","","null","","","","","","","learning/Slide76.JPG","null","","","","","",""
"html-keyboard-response","233","475519","0.0-5.0-2.75","LF","yhakp9pfe9","1600","900","0","1","0","5f57a42b46df8927414990fc","","null","","","learningBlock1","","","","<div style=""font-size:60px;""> </div>","null","LF","learning/Slide76.JPG","This is a bim:","","",""
"html-keyboard-response","234","476522","0.0-5.0-0.76","LF","yhakp9pfe9","1600","900","0","1","0","5f57a42b46df8927414990fc","","null","","","learningBlock1","","","","This is a tob:","null","","","","","",""
"image-keyboard-response","235","476850","0.0-5.0-1.76","LF","yhakp9pfe9","1600","900","0","1","0","5f57a42b46df8927414990fc","","null","","","","","","","learning/Slide77.JPG","null","","","","","",""
"html-keyboard-response","236","477852","0.0-5.0-2.76","LF","yhakp9pfe9","1600","900","0","1","0","5f57a42b46df8927414990fc","","null","","","learningBlock1","","","","<div style=""font-size:60px;""> </div>","null","LF","learning/Slide77.JPG","This is a tob:","","",""
"html-keyboard-response","237","478855","0.0-5.0-0.77","LF","yhakp9pfe9","1600","900","0","1","0","5f57a42b46df8927414990fc","","null","","","learningBlock1","","","","This is a wug:","null","","","","","",""
"image-keyboard-response","238","479183","0.0-5.0-1.77","LF","yhakp9pfe9","1600","900","0","1","0","5f57a42b46df8927414990fc","","null","","","","","","","learning/Slide78.JPG","null","","","","","",""
"html-keyboard-response","239","480185","0.0-5.0-2.77","LF","yhakp9pfe9","1600","900","0","1","0","5f57a42b46df8927414990fc","","null","","","learningBlock1","","","","<div style=""font-size:60px;""> </div>","null","LF","learning/Slide78.JPG","This is a wug:","","",""
"html-keyboard-response","240","481187","0.0-5.0-0.78","LF","yhakp9pfe9","1600","900","0","1","0","5f57a42b46df8927414990fc","","null","","","learningBlock1","","","","This is a bim:","null","","","","","",""
"image-keyboard-response","241","481517","0.0-5.0-1.78","LF","yhakp9pfe9","1600","900","0","1","0","5f57a42b46df8927414990fc","","null","","","","","","","learning/Slide79.JPG","null","","","","","",""
"html-keyboard-response","242","482519","0.0-5.0-2.78","LF","yhakp9pfe9","1600","900","0","1","0","5f57a42b46df8927414990fc","","null","","","learningBlock1","","","","<div style=""font-size:60px;""> </div>","null","LF","learning/Slide79.JPG","This is a bim:","","",""
"html-keyboard-response","243","483521","0.0-5.0-0.79","LF","yhakp9pfe9","1600","900","0","1","0","5f57a42b46df8927414990fc","","null","","","learningBlock1","","","","This is a tob:","null","","","","","",""
"image-keyboard-response","244","483850","0.0-5.0-1.79","LF","yhakp9pfe9","1600","900","0","1","0","5f57a42b46df8927414990fc","","null","","","","","","","learning/Slide80.JPG","null","","","","","",""
"html-keyboard-response","245","484852","0.0-5.0-2.79","LF","yhakp9pfe9","1600","900","0","1","0","5f57a42b46df8927414990fc","","null","","","learningBlock1","","","","<div style=""font-size:60px;""> </div>","null","LF","learning/Slide80.JPG","This is a tob:","","",""
"instructions","246","488389","0.0-6.0","LF","yhakp9pfe9","1600","900","0","1","0","5f57a42b46df8927414990fc","","NA","","[{""page_index"":0,""viewing_time"":3535.02500000468}]","instructions","","","","","","","","","","",""
"html-keyboard-response","247","489391","0.0-7.0-0.0","LF","yhakp9pfe9","1600","900","0","1","0","5f57a42b46df8927414990fc","","null","","","learningBlock2","","","","This is a wug:","null","","","","","",""
"image-keyboard-response","248","489721","0.0-7.0-1.0","LF","yhakp9pfe9","1600","900","0","1","0","5f57a42b46df8927414990fc","","null","","","","","","","learning/Slide81.JPG","null","","","","","",""
"html-keyboard-response","249","490724","0.0-7.0-2.0","LF","yhakp9pfe9","1600","900","0","1","0","5f57a42b46df8927414990fc","","null","","","learningBlock2","","","","<div style=""font-size:60px;""> </div>","null","LF","learning/Slide81.JPG","This is a wug:","","",""
"html-keyboard-response","250","491726","0.0-7.0-0.1","LF","yhakp9pfe9","1600","900","0","1","0","5f57a42b46df8927414990fc","","null","","","learningBlock2","","","","This is a bim:","null","","","","","",""
"image-keyboard-response","251","492055","0.0-7.0-1.1","LF","yhakp9pfe9","1600","900","0","1","0","5f57a42b46df8927414990fc","","null","","","","","","","learning/Slide82.JPG","null","","","","","",""
"html-keyboard-response","252","493058","0.0-7.0-2.1","LF","yhakp9pfe9","1600","900","0","1","0","5f57a42b46df8927414990fc","","null","","","learningBlock2","","","","<div style=""font-size:60px;""> </div>","null","LF","learning/Slide82.JPG","This is a bim:","","",""
"html-keyboard-response","253","494061","0.0-7.0-0.2","LF","yhakp9pfe9","1600","900","0","1","0","5f57a42b46df8927414990fc","","null","","","learningBlock2","","","","This is a wug:","null","","","","","",""
"image-keyboard-response","254","494390","0.0-7.0-1.2","LF","yhakp9pfe9","1600","900","0","1","0","5f57a42b46df8927414990fc","","null","","","","","","","learning/Slide83.JPG","null","","","","","",""
"html-keyboard-response","255","495393","0.0-7.0-2.2","LF","yhakp9pfe9","1600","900","0","1","0","5f57a42b46df8927414990fc","","null","","","learningBlock2","","","","<div style=""font-size:60px;""> </div>","null","LF","learning/Slide83.JPG","This is a wug:","","",""
"html-keyboard-response","256","496395","0.0-7.0-0.3","LF","yhakp9pfe9","1600","900","0","1","0","5f57a42b46df8927414990fc","","null","","","learningBlock2","","","","This is a dep:","null","","","","","",""
"image-keyboard-response","257","496724","0.0-7.0-1.3","LF","yhakp9pfe9","1600","900","0","1","0","5f57a42b46df8927414990fc","","null","","","","","","","learning/Slide84.JPG","null","","","","","",""
"html-keyboard-response","258","497726","0.0-7.0-2.3","LF","yhakp9pfe9","1600","900","0","1","0","5f57a42b46df8927414990fc","","null","","","learningBlock2","","","","<div style=""font-size:60px;""> </div>","null","LF","learning/Slide84.JPG","This is a dep:","","",""
"html-keyboard-response","259","498729","0.0-7.0-0.4","LF","yhakp9pfe9","1600","900","0","1","0","5f57a42b46df8927414990fc","","null","","","learningBlock2","","","","This is a bim:","null","","","","","",""
"image-keyboard-response","260","499057","0.0-7.0-1.4","LF","yhakp9pfe9","1600","900","0","1","0","5f57a42b46df8927414990fc","","null","","","","","","","learning/Slide85.JPG","null","","","","","",""
"html-keyboard-response","261","500060","0.0-7.0-2.4","LF","yhakp9pfe9","1600","900","0","1","0","5f57a42b46df8927414990fc","","null","","","learningBlock2","","","","<div style=""font-size:60px;""> </div>","null","LF","learning/Slide85.JPG","This is a bim:","","",""
"html-keyboard-response","262","501063","0.0-7.0-0.5","LF","yhakp9pfe9","1600","900","0","1","0","5f57a42b46df8927414990fc","","null","","","learningBlock2","","","","This is a tob:","null","","","","","",""
"image-keyboard-response","263","501391","0.0-7.0-1.5","LF","yhakp9pfe9","1600","900","0","1","0","5f57a42b46df8927414990fc","","null","","","","","","","learning/Slide86.JPG","null","","","","","",""
"html-keyboard-response","264","502394","0.0-7.0-2.5","LF","yhakp9pfe9","1600","900","0","1","0","5f57a42b46df8927414990fc","","null","","","learningBlock2","","","","<div style=""font-size:60px;""> </div>","null","LF","learning/Slide86.JPG","This is a tob:","","",""
"html-keyboard-response","265","503400","0.0-7.0-0.6","LF","yhakp9pfe9","1600","900","0","1","0","5f57a42b46df8927414990fc","","null","","","learningBlock2","","","","This is a wug:","null","","","","","",""
"image-keyboard-response","266","503728","0.0-7.0-1.6","LF","yhakp9pfe9","1600","900","0","1","0","5f57a42b46df8927414990fc","","null","","","","","","","learning/Slide87.JPG","null","","","","","",""
"html-keyboard-response","267","504730","0.0-7.0-2.6","LF","yhakp9pfe9","1600","900","0","1","0","5f57a42b46df8927414990fc","","null","","","learningBlock2","","","","<div style=""font-size:60px;""> </div>","null","LF","learning/Slide87.JPG","This is a wug:","","",""
"html-keyboard-response","268","505733","0.0-7.0-0.7","LF","yhakp9pfe9","1600","900","0","1","0","5f57a42b46df8927414990fc","","null","","","learningBlock2","","","","This is a tob:","null","","","","","",""
"image-keyboard-response","269","506061","0.0-7.0-1.7","LF","yhakp9pfe9","1600","900","0","1","0","5f57a42b46df8927414990fc","","null","","","","","","","learning/Slide88.JPG","null","","","","","",""
"html-keyboard-response","270","507064","0.0-7.0-2.7","LF","yhakp9pfe9","1600","900","0","1","0","5f57a42b46df8927414990fc","","null","","","learningBlock2","","","","<div style=""font-size:60px;""> </div>","null","LF","learning/Slide88.JPG","This is a tob:","","",""
"html-keyboard-response","271","508067","0.0-7.0-0.8","LF","yhakp9pfe9","1600","900","0","1","0","5f57a42b46df8927414990fc","","null","","","learningBlock2","","","","This is a bim:","null","","","","","",""
"image-keyboard-response","272","508396","0.0-7.0-1.8","LF","yhakp9pfe9","1600","900","0","1","0","5f57a42b46df8927414990fc","","null","","","","","","","learning/Slide89.JPG","null","","","","","",""
"html-keyboard-response","273","509399","0.0-7.0-2.8","LF","yhakp9pfe9","1600","900","0","1","0","5f57a42b46df8927414990fc","","null","","","learningBlock2","","","","<div style=""font-size:60px;""> </div>","null","LF","learning/Slide89.JPG","This is a bim:","","",""
"html-keyboard-response","274","510401","0.0-7.0-0.9","LF","yhakp9pfe9","1600","900","0","1","0","5f57a42b46df8927414990fc","","null","","","learningBlock2","","","","This is a dep:","null","","","","","",""
"image-keyboard-response","275","510729","0.0-7.0-1.9","LF","yhakp9pfe9","1600","900","0","1","0","5f57a42b46df8927414990fc","","null","","","","","","","learning/Slide90.JPG","null","","","","","",""
"html-keyboard-response","276","511732","0.0-7.0-2.9","LF","yhakp9pfe9","1600","900","0","1","0","5f57a42b46df8927414990fc","","null","","","learningBlock2","","","","<div style=""font-size:60px;""> </div>","null","LF","learning/Slide90.JPG","This is a dep:","","",""
"html-keyboard-response","277","512735","0.0-7.0-0.10","LF","yhakp9pfe9","1600","900","0","1","0","5f57a42b46df8927414990fc","","null","","","learningBlock2","","","","This is a wug:","null","","","","","",""
"image-keyboard-response","278","513063","0.0-7.0-1.10","LF","yhakp9pfe9","1600","900","0","1","0","5f57a42b46df8927414990fc","","null","","","","","","","learning/Slide91.JPG","null","","","","","",""
"html-keyboard-response","279","514067","0.0-7.0-2.10","LF","yhakp9pfe9","1600","900","0","1","0","5f57a42b46df8927414990fc","","null","","","learningBlock2","","","","<div style=""font-size:60px;""> </div>","null","LF","learning/Slide91.JPG","This is a wug:","","",""
"html-keyboard-response","280","515069","0.0-7.0-0.11","LF","yhakp9pfe9","1600","900","0","1","0","5f57a42b46df8927414990fc","","null","","","learningBlock2","","","","This is a tob:","null","","","","","",""
"image-keyboard-response","281","515398","0.0-7.0-1.11","LF","yhakp9pfe9","1600","900","0","1","0","5f57a42b46df8927414990fc","","null","","","","","","","learning/Slide92.JPG","null","","","","","",""
"html-keyboard-response","282","516400","0.0-7.0-2.11","LF","yhakp9pfe9","1600","900","0","1","0","5f57a42b46df8927414990fc","","null","","","learningBlock2","","","","<div style=""font-size:60px;""> </div>","null","LF","learning/Slide92.JPG","This is a tob:","","",""
"html-keyboard-response","283","517403","0.0-7.0-0.12","LF","yhakp9pfe9","1600","900","0","1","0","5f57a42b46df8927414990fc","","null","","","learningBlock2","","","","This is a bim:","null","","","","","",""
"image-keyboard-response","284","517731","0.0-7.0-1.12","LF","yhakp9pfe9","1600","900","0","1","0","5f57a42b46df8927414990fc","","null","","","","","","","learning/Slide93.JPG","null","","","","","",""
"html-keyboard-response","285","518733","0.0-7.0-2.12","LF","yhakp9pfe9","1600","900","0","1","0","5f57a42b46df8927414990fc","","null","","","learningBlock2","","","","<div style=""font-size:60px;""> </div>","null","LF","learning/Slide93.JPG","This is a bim:","","",""
"html-keyboard-response","286","519735","0.0-7.0-0.13","LF","yhakp9pfe9","1600","900","0","1","0","5f57a42b46df8927414990fc","","null","","","learningBlock2","","","","This is a tob:","null","","","","","",""
"image-keyboard-response","287","520064","0.0-7.0-1.13","LF","yhakp9pfe9","1600","900","0","1","0","5f57a42b46df8927414990fc","","null","","","","","","","learning/Slide94.JPG","null","","","","","",""
"html-keyboard-response","288","521066","0.0-7.0-2.13","LF","yhakp9pfe9","1600","900","0","1","0","5f57a42b46df8927414990fc","","null","","","learningBlock2","","","","<div style=""font-size:60px;""> </div>","null","LF","learning/Slide94.JPG","This is a tob:","","",""
"html-keyboard-response","289","522069","0.0-7.0-0.14","LF","yhakp9pfe9","1600","900","0","1","0","5f57a42b46df8927414990fc","","null","","","learningBlock2","","","","This is a wug:","null","","","","","",""
"image-keyboard-response","290","522398","0.0-7.0-1.14","LF","yhakp9pfe9","1600","900","0","1","0","5f57a42b46df8927414990fc","","null","","","","","","","learning/Slide95.JPG","null","","","","","",""
"html-keyboard-response","291","523400","0.0-7.0-2.14","LF","yhakp9pfe9","1600","900","0","1","0","5f57a42b46df8927414990fc","","null","","","learningBlock2","","","","<div style=""font-size:60px;""> </div>","null","LF","learning/Slide95.JPG","This is a wug:","","",""
"html-keyboard-response","292","524403","0.0-7.0-0.15","LF","yhakp9pfe9","1600","900","0","1","0","5f57a42b46df8927414990fc","","null","","","learningBlock2","","","","This is a tob:","null","","","","","",""
"image-keyboard-response","293","524731","0.0-7.0-1.15","LF","yhakp9pfe9","1600","900","0","1","0","5f57a42b46df8927414990fc","","null","","","","","","","learning/Slide96.JPG","null","","","","","",""
"html-keyboard-response","294","525734","0.0-7.0-2.15","LF","yhakp9pfe9","1600","900","0","1","0","5f57a42b46df8927414990fc","","null","","","learningBlock2","","","","<div style=""font-size:60px;""> </div>","null","LF","learning/Slide96.JPG","This is a tob:","","",""
"html-keyboard-response","295","526736","0.0-7.0-0.16","LF","yhakp9pfe9","1600","900","0","1","0","5f57a42b46df8927414990fc","","null","","","learningBlock2","","","","This is a dep:","null","","","","","",""
"image-keyboard-response","296","527065","0.0-7.0-1.16","LF","yhakp9pfe9","1600","900","0","1","0","5f57a42b46df8927414990fc","","null","","","","","","","learning/Slide97.JPG","null","","","","","",""
"html-keyboard-response","297","528068","0.0-7.0-2.16","LF","yhakp9pfe9","1600","900","0","1","0","5f57a42b46df8927414990fc","","null","","","learningBlock2","","","","<div style=""font-size:60px;""> </div>","null","LF","learning/Slide97.JPG","This is a dep:","","",""
"html-keyboard-response","298","529071","0.0-7.0-0.17","LF","yhakp9pfe9","1600","900","0","1","0","5f57a42b46df8927414990fc","","null","","","learningBlock2","","","","This is a bim:","null","","","","","",""
"image-keyboard-response","299","529400","0.0-7.0-1.17","LF","yhakp9pfe9","1600","900","0","1","0","5f57a42b46df8927414990fc","","null","","","","","","","learning/Slide98.JPG","null","","","","","",""
"html-keyboard-response","300","530402","0.0-7.0-2.17","LF","yhakp9pfe9","1600","900","0","1","0","5f57a42b46df8927414990fc","","null","","","learningBlock2","","","","<div style=""font-size:60px;""> </div>","null","LF","learning/Slide98.JPG","This is a bim:","","",""
"html-keyboard-response","301","531405","0.0-7.0-0.18","LF","yhakp9pfe9","1600","900","0","1","0","5f57a42b46df8927414990fc","","null","","","learningBlock2","","","","This is a dep:","null","","","","","",""
"image-keyboard-response","302","531732","0.0-7.0-1.18","LF","yhakp9pfe9","1600","900","0","1","0","5f57a42b46df8927414990fc","","null","","","","","","","learning/Slide99.JPG","null","","","","","",""
"html-keyboard-response","303","532735","0.0-7.0-2.18","LF","yhakp9pfe9","1600","900","0","1","0","5f57a42b46df8927414990fc","","null","","","learningBlock2","","","","<div style=""font-size:60px;""> </div>","null","LF","learning/Slide99.JPG","This is a dep:","","",""
"html-keyboard-response","304","533737","0.0-7.0-0.19","LF","yhakp9pfe9","1600","900","0","1","0","5f57a42b46df8927414990fc","","null","","","learningBlock2","","","","This is a bim:","null","","","","","",""
"image-keyboard-response","305","534067","0.0-7.0-1.19","LF","yhakp9pfe9","1600","900","0","1","0","5f57a42b46df8927414990fc","","null","","","","","","","learning/Slide100.JPG","null","","","","","",""
"html-keyboard-response","306","535070","0.0-7.0-2.19","LF","yhakp9pfe9","1600","900","0","1","0","5f57a42b46df8927414990fc","","null","","","learningBlock2","","","","<div style=""font-size:60px;""> </div>","null","LF","learning/Slide100.JPG","This is a bim:","","",""
"html-keyboard-response","307","536072","0.0-7.0-0.20","LF","yhakp9pfe9","1600","900","0","1","0","5f57a42b46df8927414990fc","","null","","","learningBlock2","","","","This is a tob:","null","","","","","",""
"image-keyboard-response","308","536400","0.0-7.0-1.20","LF","yhakp9pfe9","1600","900","0","1","0","5f57a42b46df8927414990fc","","null","","","","","","","learning/Slide101.JPG","null","","","","","",""
"html-keyboard-response","309","537402","0.0-7.0-2.20","LF","yhakp9pfe9","1600","900","0","1","0","5f57a42b46df8927414990fc","","null","","","learningBlock2","","","","<div style=""font-size:60px;""> </div>","null","LF","learning/Slide101.JPG","This is a tob:","","",""
"html-keyboard-response","310","538405","0.0-7.0-0.21","LF","yhakp9pfe9","1600","900","0","1","0","5f57a42b46df8927414990fc","","null","","","learningBlock2","","","","This is a bim:","null","","","","","",""
"image-keyboard-response","311","538733","0.0-7.0-1.21","LF","yhakp9pfe9","1600","900","0","1","0","5f57a42b46df8927414990fc","","null","","","","","","","learning/Slide102.JPG","null","","","","","",""
"html-keyboard-response","312","539736","0.0-7.0-2.21","LF","yhakp9pfe9","1600","900","0","1","0","5f57a42b46df8927414990fc","","null","","","learningBlock2","","","","<div style=""font-size:60px;""> </div>","null","LF","learning/Slide102.JPG","This is a bim:","","",""
"html-keyboard-response","313","540738","0.0-7.0-0.22","LF","yhakp9pfe9","1600","900","0","1","0","5f57a42b46df8927414990fc","","null","","","learningBlock2","","","","This is a dep:","null","","","","","",""
"image-keyboard-response","314","541066","0.0-7.0-1.22","LF","yhakp9pfe9","1600","900","0","1","0","5f57a42b46df8927414990fc","","null","","","","","","","learning/Slide103.JPG","null","","","","","",""
"html-keyboard-response","315","542069","0.0-7.0-2.22","LF","yhakp9pfe9","1600","900","0","1","0","5f57a42b46df8927414990fc","","null","","","learningBlock2","","","","<div style=""font-size:60px;""> </div>","null","LF","learning/Slide103.JPG","This is a dep:","","",""
"html-keyboard-response","316","543073","0.0-7.0-0.23","LF","yhakp9pfe9","1600","900","0","1","0","5f57a42b46df8927414990fc","","null","","","learningBlock2","","","","This is a tob:","null","","","","","",""
"image-keyboard-response","317","543401","0.0-7.0-1.23","LF","yhakp9pfe9","1600","900","0","1","0","5f57a42b46df8927414990fc","","null","","","","","","","learning/Slide104.JPG","null","","","","","",""
"html-keyboard-response","318","544403","0.0-7.0-2.23","LF","yhakp9pfe9","1600","900","0","1","0","5f57a42b46df8927414990fc","","null","","","learningBlock2","","","","<div style=""font-size:60px;""> </div>","null","LF","learning/Slide104.JPG","This is a tob:","","",""
"html-keyboard-response","319","545406","0.0-7.0-0.24","LF","yhakp9pfe9","1600","900","0","1","0","5f57a42b46df8927414990fc","","null","","","learningBlock2","","","","This is a dep:","null","","","","","",""
"image-keyboard-response","320","545734","0.0-7.0-1.24","LF","yhakp9pfe9","1600","900","0","1","0","5f57a42b46df8927414990fc","","null","","","","","","","learning/Slide105.JPG","null","","","","","",""
"html-keyboard-response","321","546737","0.0-7.0-2.24","LF","yhakp9pfe9","1600","900","0","1","0","5f57a42b46df8927414990fc","","null","","","learningBlock2","","","","<div style=""font-size:60px;""> </div>","null","LF","learning/Slide105.JPG","This is a dep:","","",""
"html-keyboard-response","322","547740","0.0-7.0-0.25","LF","yhakp9pfe9","1600","900","0","1","0","5f57a42b46df8927414990fc","","null","","","learningBlock2","","","","This is a wug:","null","","","","","",""
"image-keyboard-response","323","548068","0.0-7.0-1.25","LF","yhakp9pfe9","1600","900","0","1","0","5f57a42b46df8927414990fc","","null","","","","","","","learning/Slide106.JPG","null","","","","","",""
"html-keyboard-response","324","549070","0.0-7.0-2.25","LF","yhakp9pfe9","1600","900","0","1","0","5f57a42b46df8927414990fc","","null","","","learningBlock2","","","","<div style=""font-size:60px;""> </div>","null","LF","learning/Slide106.JPG","This is a wug:","","",""
"html-keyboard-response","325","550073","0.0-7.0-0.26","LF","yhakp9pfe9","1600","900","0","1","0","5f57a42b46df8927414990fc","","null","","","learningBlock2","","","","This is a bim:","null","","","","","",""
"image-keyboard-response","326","550402","0.0-7.0-1.26","LF","yhakp9pfe9","1600","900","0","1","0","5f57a42b46df8927414990fc","","null","","","","","","","learning/Slide107.JPG","null","","","","","",""
"html-keyboard-response","327","551405","0.0-7.0-2.26","LF","yhakp9pfe9","1600","900","0","1","0","5f57a42b46df8927414990fc","","null","","","learningBlock2","","","","<div style=""font-size:60px;""> </div>","null","LF","learning/Slide107.JPG","This is a bim:","","",""
"html-keyboard-response","328","552408","0.0-7.0-0.27","LF","yhakp9pfe9","1600","900","0","1","0","5f57a42b46df8927414990fc","","null","","","learningBlock2","","","","This is a dep:","null","","","","","",""
"image-keyboard-response","329","552737","0.0-7.0-1.27","LF","yhakp9pfe9","1600","900","0","1","0","5f57a42b46df8927414990fc","","null","","","","","","","learning/Slide108.JPG","null","","","","","",""
"html-keyboard-response","330","553739","0.0-7.0-2.27","LF","yhakp9pfe9","1600","900","0","1","0","5f57a42b46df8927414990fc","","null","","","learningBlock2","","","","<div style=""font-size:60px;""> </div>","null","LF","learning/Slide108.JPG","This is a dep:","","",""
"html-keyboard-response","331","554741","0.0-7.0-0.28","LF","yhakp9pfe9","1600","900","0","1","0","5f57a42b46df8927414990fc","","null","","","learningBlock2","","","","This is a wug:","null","","","","","",""
"image-keyboard-response","332","555070","0.0-7.0-1.28","LF","yhakp9pfe9","1600","900","0","1","0","5f57a42b46df8927414990fc","","null","","","","","","","learning/Slide109.JPG","null","","","","","",""
"html-keyboard-response","333","556074","0.0-7.0-2.28","LF","yhakp9pfe9","1600","900","0","1","0","5f57a42b46df8927414990fc","","null","","","learningBlock2","","","","<div style=""font-size:60px;""> </div>","null","LF","learning/Slide109.JPG","This is a wug:","","",""
"html-keyboard-response","334","557076","0.0-7.0-0.29","LF","yhakp9pfe9","1600","900","0","1","0","5f57a42b46df8927414990fc","","null","","","learningBlock2","","","","This is a bim:","null","","","","","",""
"image-keyboard-response","335","557405","0.0-7.0-1.29","LF","yhakp9pfe9","1600","900","0","1","0","5f57a42b46df8927414990fc","","null","","","","","","","learning/Slide110.JPG","null","","","","","",""
"html-keyboard-response","336","558408","0.0-7.0-2.29","LF","yhakp9pfe9","1600","900","0","1","0","5f57a42b46df8927414990fc","","null","","","learningBlock2","","","","<div style=""font-size:60px;""> </div>","null","LF","learning/Slide110.JPG","This is a bim:","","",""
"html-keyboard-response","337","559411","0.0-7.0-0.30","LF","yhakp9pfe9","1600","900","0","1","0","5f57a42b46df8927414990fc","","null","","","learningBlock2","","","","This is a tob:","null","","","","","",""
"image-keyboard-response","338","559740","0.0-7.0-1.30","LF","yhakp9pfe9","1600","900","0","1","0","5f57a42b46df8927414990fc","","null","","","","","","","learning/Slide111.JPG","null","","","","","",""
"html-keyboard-response","339","560742","0.0-7.0-2.30","LF","yhakp9pfe9","1600","900","0","1","0","5f57a42b46df8927414990fc","","null","","","learningBlock2","","","","<div style=""font-size:60px;""> </div>","null","LF","learning/Slide111.JPG","This is a tob:","","",""
"html-keyboard-response","340","561744","0.0-7.0-0.31","LF","yhakp9pfe9","1600","900","0","1","0","5f57a42b46df8927414990fc","","null","","","learningBlock2","","","","This is a wug:","null","","","","","",""
"image-keyboard-response","341","562074","0.0-7.0-1.31","LF","yhakp9pfe9","1600","900","0","1","0","5f57a42b46df8927414990fc","","null","","","","","","","learning/Slide112.JPG","null","","","","","",""
"html-keyboard-response","342","563076","0.0-7.0-2.31","LF","yhakp9pfe9","1600","900","0","1","0","5f57a42b46df8927414990fc","","null","","","learningBlock2","","","","<div style=""font-size:60px;""> </div>","null","LF","learning/Slide112.JPG","This is a wug:","","",""
"html-keyboard-response","343","564078","0.0-7.0-0.32","LF","yhakp9pfe9","1600","900","0","1","0","5f57a42b46df8927414990fc","","null","","","learningBlock2","","","","This is a tob:","null","","","","","",""
"image-keyboard-response","344","564407","0.0-7.0-1.32","LF","yhakp9pfe9","1600","900","0","1","0","5f57a42b46df8927414990fc","","null","","","","","","","learning/Slide113.JPG","null","","","","","",""
"html-keyboard-response","345","565410","0.0-7.0-2.32","LF","yhakp9pfe9","1600","900","0","1","0","5f57a42b46df8927414990fc","","null","","","learningBlock2","","","","<div style=""font-size:60px;""> </div>","null","LF","learning/Slide113.JPG","This is a tob:","","",""
"html-keyboard-response","346","566412","0.0-7.0-0.33","LF","yhakp9pfe9","1600","900","0","1","0","5f57a42b46df8927414990fc","","null","","","learningBlock2","","","","This is a wug:","null","","","","","",""
"image-keyboard-response","347","566741","0.0-7.0-1.33","LF","yhakp9pfe9","1600","900","0","1","0","5f57a42b46df8927414990fc","","null","","","","","","","learning/Slide114.JPG","null","","","","","",""
"html-keyboard-response","348","567743","0.0-7.0-2.33","LF","yhakp9pfe9","1600","900","0","1","0","5f57a42b46df8927414990fc","","null","","","learningBlock2","","","","<div style=""font-size:60px;""> </div>","null","LF","learning/Slide114.JPG","This is a wug:","","",""
"html-keyboard-response","349","568745","0.0-7.0-0.34","LF","yhakp9pfe9","1600","900","0","1","0","5f57a42b46df8927414990fc","","null","","","learningBlock2","","","","This is a bim:","null","","","","","",""
"image-keyboard-response","350","569075","0.0-7.0-1.34","LF","yhakp9pfe9","1600","900","0","1","0","5f57a42b46df8927414990fc","","null","","","","","","","learning/Slide115.JPG","null","","","","","",""
"html-keyboard-response","351","570077","0.0-7.0-2.34","LF","yhakp9pfe9","1600","900","0","1","0","5f57a42b46df8927414990fc","","null","","","learningBlock2","","","","<div style=""font-size:60px;""> </div>","null","LF","learning/Slide115.JPG","This is a bim:","","",""
"html-keyboard-response","352","571079","0.0-7.0-0.35","LF","yhakp9pfe9","1600","900","0","1","0","5f57a42b46df8927414990fc","","null","","","learningBlock2","","","","This is a dep:","null","","","","","",""
"image-keyboard-response","353","571408","0.0-7.0-1.35","LF","yhakp9pfe9","1600","900","0","1","0","5f57a42b46df8927414990fc","","null","","","","","","","learning/Slide116.JPG","null","","","","","",""
"html-keyboard-response","354","572410","0.0-7.0-2.35","LF","yhakp9pfe9","1600","900","0","1","0","5f57a42b46df8927414990fc","","null","","","learningBlock2","","","","<div style=""font-size:60px;""> </div>","null","LF","learning/Slide116.JPG","This is a dep:","","",""
"html-keyboard-response","355","573413","0.0-7.0-0.36","LF","yhakp9pfe9","1600","900","0","1","0","5f57a42b46df8927414990fc","","null","","","learningBlock2","","","","This is a tob:","null","","","","","",""
"image-keyboard-response","356","573742","0.0-7.0-1.36","LF","yhakp9pfe9","1600","900","0","1","0","5f57a42b46df8927414990fc","","null","","","","","","","learning/Slide117.JPG","null","","","","","",""
"html-keyboard-response","357","574745","0.0-7.0-2.36","LF","yhakp9pfe9","1600","900","0","1","0","5f57a42b46df8927414990fc","","null","","","learningBlock2","","","","<div style=""font-size:60px;""> </div>","null","LF","learning/Slide117.JPG","This is a tob:","","",""
"html-keyboard-response","358","575748","0.0-7.0-0.37","LF","yhakp9pfe9","1600","900","0","1","0","5f57a42b46df8927414990fc","","null","","","learningBlock2","","","","This is a dep:","null","","","","","",""
"image-keyboard-response","359","576078","0.0-7.0-1.37","LF","yhakp9pfe9","1600","900","0","1","0","5f57a42b46df8927414990fc","","null","","","","","","","learning/Slide118.JPG","null","","","","","",""
"html-keyboard-response","360","577081","0.0-7.0-2.37","LF","yhakp9pfe9","1600","900","0","1","0","5f57a42b46df8927414990fc","","null","","","learningBlock2","","","","<div style=""font-size:60px;""> </div>","null","LF","learning/Slide118.JPG","This is a dep:","","",""
"html-keyboard-response","361","578084","0.0-7.0-0.38","LF","yhakp9pfe9","1600","900","0","1","0","5f57a42b46df8927414990fc","","null","","","learningBlock2","","","","This is a wug:","null","","","","","",""
"image-keyboard-response","362","578411","0.0-7.0-1.38","LF","yhakp9pfe9","1600","900","0","1","0","5f57a42b46df8927414990fc","","null","","","","","","","learning/Slide119.JPG","null","","","","","",""
"html-keyboard-response","363","579414","0.0-7.0-2.38","LF","yhakp9pfe9","1600","900","0","1","0","5f57a42b46df8927414990fc","","null","","","learningBlock2","","","","<div style=""font-size:60px;""> </div>","null","LF","learning/Slide119.JPG","This is a wug:","","",""
"html-keyboard-response","364","580417","0.0-7.0-0.39","LF","yhakp9pfe9","1600","900","0","1","0","5f57a42b46df8927414990fc","","null","","","learningBlock2","","","","This is a dep:","null","","","","","",""
"image-keyboard-response","365","580746","0.0-7.0-1.39","LF","yhakp9pfe9","1600","900","0","1","0","5f57a42b46df8927414990fc","","null","","","","","","","learning/Slide120.JPG","null","","","","","",""
"html-keyboard-response","366","581749","0.0-7.0-2.39","LF","yhakp9pfe9","1600","900","0","1","0","5f57a42b46df8927414990fc","","null","","","learningBlock2","","","","<div style=""font-size:60px;""> </div>","null","LF","learning/Slide120.JPG","This is a dep:","","",""
"html-keyboard-response","367","582753","0.0-7.0-0.40","LF","yhakp9pfe9","1600","900","0","1","0","5f57a42b46df8927414990fc","","null","","","learningBlock2","","","","This is a bim:","null","","","","","",""
"image-keyboard-response","368","583081","0.0-7.0-1.40","LF","yhakp9pfe9","1600","900","0","1","0","5f57a42b46df8927414990fc","","null","","","","","","","learning/Slide121.JPG","null","","","","","",""
"html-keyboard-response","369","584083","0.0-7.0-2.40","LF","yhakp9pfe9","1600","900","0","1","0","5f57a42b46df8927414990fc","","null","","","learningBlock2","","","","<div style=""font-size:60px;""> </div>","null","LF","learning/Slide121.JPG","This is a bim:","","",""
"html-keyboard-response","370","585086","0.0-7.0-0.41","LF","yhakp9pfe9","1600","900","0","1","0","5f57a42b46df8927414990fc","","null","","","learningBlock2","","","","This is a wug:","null","","","","","",""
"image-keyboard-response","371","585415","0.0-7.0-1.41","LF","yhakp9pfe9","1600","900","0","1","0","5f57a42b46df8927414990fc","","null","","","","","","","learning/Slide122.JPG","null","","","","","",""
"html-keyboard-response","372","586418","0.0-7.0-2.41","LF","yhakp9pfe9","1600","900","0","1","0","5f57a42b46df8927414990fc","","null","","","learningBlock2","","","","<div style=""font-size:60px;""> </div>","null","LF","learning/Slide122.JPG","This is a wug:","","",""
"html-keyboard-response","373","587420","0.0-7.0-0.42","LF","yhakp9pfe9","1600","900","0","1","0","5f57a42b46df8927414990fc","","null","","","learningBlock2","","","","This is a bim:","null","","","","","",""
"image-keyboard-response","374","587749","0.0-7.0-1.42","LF","yhakp9pfe9","1600","900","0","1","0","5f57a42b46df8927414990fc","","null","","","","","","","learning/Slide123.JPG","null","","","","","",""
"html-keyboard-response","375","588752","0.0-7.0-2.42","LF","yhakp9pfe9","1600","900","0","1","0","5f57a42b46df8927414990fc","","null","","","learningBlock2","","","","<div style=""font-size:60px;""> </div>","null","LF","learning/Slide123.JPG","This is a bim:","","",""
"html-keyboard-response","376","589754","0.0-7.0-0.43","LF","yhakp9pfe9","1600","900","0","1","0","5f57a42b46df8927414990fc","","null","","","learningBlock2","","","","This is a tob:","null","","","","","",""
"image-keyboard-response","377","590082","0.0-7.0-1.43","LF","yhakp9pfe9","1600","900","0","1","0","5f57a42b46df8927414990fc","","null","","","","","","","learning/Slide124.JPG","null","","","","","",""
"html-keyboard-response","378","591084","0.0-7.0-2.43","LF","yhakp9pfe9","1600","900","0","1","0","5f57a42b46df8927414990fc","","null","","","learningBlock2","","","","<div style=""font-size:60px;""> </div>","null","LF","learning/Slide124.JPG","This is a tob:","","",""
"html-keyboard-response","379","592086","0.0-7.0-0.44","LF","yhakp9pfe9","1600","900","0","1","0","5f57a42b46df8927414990fc","","null","","","learningBlock2","","","","This is a bim:","null","","","","","",""
"image-keyboard-response","380","592415","0.0-7.0-1.44","LF","yhakp9pfe9","1600","900","0","1","0","5f57a42b46df8927414990fc","","null","","","","","","","learning/Slide125.JPG","null","","","","","",""
"html-keyboard-response","381","593417","0.0-7.0-2.44","LF","yhakp9pfe9","1600","900","0","1","0","5f57a42b46df8927414990fc","","null","","","learningBlock2","","","","<div style=""font-size:60px;""> </div>","null","LF","learning/Slide125.JPG","This is a bim:","","",""
"html-keyboard-response","382","594420","0.0-7.0-0.45","LF","yhakp9pfe9","1600","900","0","1","0","5f57a42b46df8927414990fc","","null","","","learningBlock2","","","","This is a tob:","null","","","","","",""
"image-keyboard-response","383","594749","0.0-7.0-1.45","LF","yhakp9pfe9","1600","900","0","1","0","5f57a42b46df8927414990fc","","null","","","","","","","learning/Slide126.JPG","null","","","","","",""
"html-keyboard-response","384","595752","0.0-7.0-2.45","LF","yhakp9pfe9","1600","900","0","1","0","5f57a42b46df8927414990fc","","null","","","learningBlock2","","","","<div style=""font-size:60px;""> </div>","null","LF","learning/Slide126.JPG","This is a tob:","","",""
"html-keyboard-response","385","596755","0.0-7.0-0.46","LF","yhakp9pfe9","1600","900","0","1","0","5f57a42b46df8927414990fc","","null","","","learningBlock2","","","","This is a dep:","null","","","","","",""
"image-keyboard-response","386","597084","0.0-7.0-1.46","LF","yhakp9pfe9","1600","900","0","1","0","5f57a42b46df8927414990fc","","null","","","","","","","learning/Slide127.JPG","null","","","","","",""
"html-keyboard-response","387","598086","0.0-7.0-2.46","LF","yhakp9pfe9","1600","900","0","1","0","5f57a42b46df8927414990fc","","null","","","learningBlock2","","","","<div style=""font-size:60px;""> </div>","null","LF","learning/Slide127.JPG","This is a dep:","","",""
"html-keyboard-response","388","599089","0.0-7.0-0.47","LF","yhakp9pfe9","1600","900","0","1","0","5f57a42b46df8927414990fc","","null","","","learningBlock2","","","","This is a wug:","null","","","","","",""
"image-keyboard-response","389","599418","0.0-7.0-1.47","LF","yhakp9pfe9","1600","900","0","1","0","5f57a42b46df8927414990fc","","null","","","","","","","learning/Slide128.JPG","null","","","","","",""
"html-keyboard-response","390","600420","0.0-7.0-2.47","LF","yhakp9pfe9","1600","900","0","1","0","5f57a42b46df8927414990fc","","null","","","learningBlock2","","","","<div style=""font-size:60px;""> </div>","null","LF","learning/Slide128.JPG","This is a wug:","","",""
"html-keyboard-response","391","601423","0.0-7.0-0.48","LF","yhakp9pfe9","1600","900","0","1","0","5f57a42b46df8927414990fc","","null","","","learningBlock2","","","","This is a tob:","null","","","","","",""
"image-keyboard-response","392","601752","0.0-7.0-1.48","LF","yhakp9pfe9","1600","900","0","1","0","5f57a42b46df8927414990fc","","null","","","","","","","learning/Slide129.JPG","null","","","","","",""
"html-keyboard-response","393","602755","0.0-7.0-2.48","LF","yhakp9pfe9","1600","900","0","1","0","5f57a42b46df8927414990fc","","null","","","learningBlock2","","","","<div style=""font-size:60px;""> </div>","null","LF","learning/Slide129.JPG","This is a tob:","","",""
"html-keyboard-response","394","603758","0.0-7.0-0.49","LF","yhakp9pfe9","1600","900","0","1","0","5f57a42b46df8927414990fc","","null","","","learningBlock2","","","","This is a wug:","null","","","","","",""
"image-keyboard-response","395","604086","0.0-7.0-1.49","LF","yhakp9pfe9","1600","900","0","1","0","5f57a42b46df8927414990fc","","null","","","","","","","learning/Slide130.JPG","null","","","","","",""
"html-keyboard-response","396","605089","0.0-7.0-2.49","LF","yhakp9pfe9","1600","900","0","1","0","5f57a42b46df8927414990fc","","null","","","learningBlock2","","","","<div style=""font-size:60px;""> </div>","null","LF","learning/Slide130.JPG","This is a wug:","","",""
"html-keyboard-response","397","606091","0.0-7.0-0.50","LF","yhakp9pfe9","1600","900","0","1","0","5f57a42b46df8927414990fc","","null","","","learningBlock2","","","","This is a bim:","null","","","","","",""
"image-keyboard-response","398","606419","0.0-7.0-1.50","LF","yhakp9pfe9","1600","900","0","1","0","5f57a42b46df8927414990fc","","null","","","","","","","learning/Slide131.JPG","null","","","","","",""
"html-keyboard-response","399","607422","0.0-7.0-2.50","LF","yhakp9pfe9","1600","900","0","1","0","5f57a42b46df8927414990fc","","null","","","learningBlock2","","","","<div style=""font-size:60px;""> </div>","null","LF","learning/Slide131.JPG","This is a bim:","","",""
"html-keyboard-response","400","608426","0.0-7.0-0.51","LF","yhakp9pfe9","1600","900","0","1","0","5f57a42b46df8927414990fc","","null","","","learningBlock2","","","","This is a dep:","null","","","","","",""
"image-keyboard-response","401","608755","0.0-7.0-1.51","LF","yhakp9pfe9","1600","900","0","1","0","5f57a42b46df8927414990fc","","null","","","","","","","learning/Slide132.JPG","null","","","","","",""
"html-keyboard-response","402","609758","0.0-7.0-2.51","LF","yhakp9pfe9","1600","900","0","1","0","5f57a42b46df8927414990fc","","null","","","learningBlock2","","","","<div style=""font-size:60px;""> </div>","null","LF","learning/Slide132.JPG","This is a dep:","","",""
"html-keyboard-response","403","610760","0.0-7.0-0.52","LF","yhakp9pfe9","1600","900","0","1","0","5f57a42b46df8927414990fc","","null","","","learningBlock2","","","","This is a tob:","null","","","","","",""
"image-keyboard-response","404","611094","0.0-7.0-1.52","LF","yhakp9pfe9","1600","900","0","1","0","5f57a42b46df8927414990fc","","null","","","","","","","learning/Slide133.JPG","null","","","","","",""
"html-keyboard-response","405","612097","0.0-7.0-2.52","LF","yhakp9pfe9","1600","900","0","1","0","5f57a42b46df8927414990fc","","null","","","learningBlock2","","","","<div style=""font-size:60px;""> </div>","null","LF","learning/Slide133.JPG","This is a tob:","","",""
"html-keyboard-response","406","613100","0.0-7.0-0.53","LF","yhakp9pfe9","1600","900","0","1","0","5f57a42b46df8927414990fc","","null","","","learningBlock2","","","","This is a dep:","null","","","","","",""
"image-keyboard-response","407","613429","0.0-7.0-1.53","LF","yhakp9pfe9","1600","900","0","1","0","5f57a42b46df8927414990fc","","null","","","","","","","learning/Slide134.JPG","null","","","","","",""
"html-keyboard-response","408","614432","0.0-7.0-2.53","LF","yhakp9pfe9","1600","900","0","1","0","5f57a42b46df8927414990fc","","null","","","learningBlock2","","","","<div style=""font-size:60px;""> </div>","null","LF","learning/Slide134.JPG","This is a dep:","","",""
"html-keyboard-response","409","615434","0.0-7.0-0.54","LF","yhakp9pfe9","1600","900","0","1","0","5f57a42b46df8927414990fc","","null","","","learningBlock2","","","","This is a tob:","null","","","","","",""
"image-keyboard-response","410","615764","0.0-7.0-1.54","LF","yhakp9pfe9","1600","900","0","1","0","5f57a42b46df8927414990fc","","null","","","","","","","learning/Slide135.JPG","null","","","","","",""
"html-keyboard-response","411","616767","0.0-7.0-2.54","LF","yhakp9pfe9","1600","900","0","1","0","5f57a42b46df8927414990fc","","null","","","learningBlock2","","","","<div style=""font-size:60px;""> </div>","null","LF","learning/Slide135.JPG","This is a tob:","","",""
"html-keyboard-response","412","617770","0.0-7.0-0.55","LF","yhakp9pfe9","1600","900","0","1","0","5f57a42b46df8927414990fc","","null","","","learningBlock2","","","","This is a wug:","null","","","","","",""
"image-keyboard-response","413","618098","0.0-7.0-1.55","LF","yhakp9pfe9","1600","900","0","1","0","5f57a42b46df8927414990fc","","null","","","","","","","learning/Slide136.JPG","null","","","","","",""
"html-keyboard-response","414","619102","0.0-7.0-2.55","LF","yhakp9pfe9","1600","900","0","1","0","5f57a42b46df8927414990fc","","null","","","learningBlock2","","","","<div style=""font-size:60px;""> </div>","null","LF","learning/Slide136.JPG","This is a wug:","","",""
"html-keyboard-response","415","620105","0.0-7.0-0.56","LF","yhakp9pfe9","1600","900","0","1","0","5f57a42b46df8927414990fc","","null","","","learningBlock2","","","","This is a tob:","null","","","","","",""
"image-keyboard-response","416","620433","0.0-7.0-1.56","LF","yhakp9pfe9","1600","900","0","1","0","5f57a42b46df8927414990fc","","null","","","","","","","learning/Slide137.JPG","null","","","","","",""
"html-keyboard-response","417","621436","0.0-7.0-2.56","LF","yhakp9pfe9","1600","900","0","1","0","5f57a42b46df8927414990fc","","null","","","learningBlock2","","","","<div style=""font-size:60px;""> </div>","null","LF","learning/Slide137.JPG","This is a tob:","","",""
"html-keyboard-response","418","622438","0.0-7.0-0.57","LF","yhakp9pfe9","1600","900","0","1","0","5f57a42b46df8927414990fc","","null","","","learningBlock2","","","","This is a bim:","null","","","","","",""
"image-keyboard-response","419","622767","0.0-7.0-1.57","LF","yhakp9pfe9","1600","900","0","1","0","5f57a42b46df8927414990fc","","null","","","","","","","learning/Slide138.JPG","null","","","","","",""
"html-keyboard-response","420","623770","0.0-7.0-2.57","LF","yhakp9pfe9","1600","900","0","1","0","5f57a42b46df8927414990fc","","null","","","learningBlock2","","","","<div style=""font-size:60px;""> </div>","null","LF","learning/Slide138.JPG","This is a bim:","","",""
"html-keyboard-response","421","624772","0.0-7.0-0.58","LF","yhakp9pfe9","1600","900","0","1","0","5f57a42b46df8927414990fc","","null","","","learningBlock2","","","","This is a wug:","null","","","","","",""
"image-keyboard-response","422","625102","0.0-7.0-1.58","LF","yhakp9pfe9","1600","900","0","1","0","5f57a42b46df8927414990fc","","null","","","","","","","learning/Slide139.JPG","null","","","","","",""
"html-keyboard-response","423","626105","0.0-7.0-2.58","LF","yhakp9pfe9","1600","900","0","1","0","5f57a42b46df8927414990fc","","null","","","learningBlock2","","","","<div style=""font-size:60px;""> </div>","null","LF","learning/Slide139.JPG","This is a wug:","","",""
"html-keyboard-response","424","627107","0.0-7.0-0.59","LF","yhakp9pfe9","1600","900","0","1","0","5f57a42b46df8927414990fc","","null","","","learningBlock2","","","","This is a dep:","null","","","","","",""
"image-keyboard-response","425","627435","0.0-7.0-1.59","LF","yhakp9pfe9","1600","900","0","1","0","5f57a42b46df8927414990fc","","null","","","","","","","learning/Slide140.JPG","null","","","","","",""
"html-keyboard-response","426","628438","0.0-7.0-2.59","LF","yhakp9pfe9","1600","900","0","1","0","5f57a42b46df8927414990fc","","null","","","learningBlock2","","","","<div style=""font-size:60px;""> </div>","null","LF","learning/Slide140.JPG","This is a dep:","","",""
"html-keyboard-response","427","629440","0.0-7.0-0.60","LF","yhakp9pfe9","1600","900","0","1","0","5f57a42b46df8927414990fc","","null","","","learningBlock2","","","","This is a tob:","null","","","","","",""
"image-keyboard-response","428","629769","0.0-7.0-1.60","LF","yhakp9pfe9","1600","900","0","1","0","5f57a42b46df8927414990fc","","null","","","","","","","learning/Slide141.JPG","null","","","","","",""
"html-keyboard-response","429","630772","0.0-7.0-2.60","LF","yhakp9pfe9","1600","900","0","1","0","5f57a42b46df8927414990fc","","null","","","learningBlock2","","","","<div style=""font-size:60px;""> </div>","null","LF","learning/Slide141.JPG","This is a tob:","","",""
"html-keyboard-response","430","631774","0.0-7.0-0.61","LF","yhakp9pfe9","1600","900","0","1","0","5f57a42b46df8927414990fc","","null","","","learningBlock2","","","","This is a wug:","null","","","","","",""
"image-keyboard-response","431","632102","0.0-7.0-1.61","LF","yhakp9pfe9","1600","900","0","1","0","5f57a42b46df8927414990fc","","null","","","","","","","learning/Slide142.JPG","null","","","","","",""
"html-keyboard-response","432","633106","0.0-7.0-2.61","LF","yhakp9pfe9","1600","900","0","1","0","5f57a42b46df8927414990fc","","null","","","learningBlock2","","","","<div style=""font-size:60px;""> </div>","null","LF","learning/Slide142.JPG","This is a wug:","","",""
"html-keyboard-response","433","634109","0.0-7.0-0.62","LF","yhakp9pfe9","1600","900","0","1","0","5f57a42b46df8927414990fc","","null","","","learningBlock2","","","","This is a bim:","null","","","","","",""
"image-keyboard-response","434","634437","0.0-7.0-1.62","LF","yhakp9pfe9","1600","900","0","1","0","5f57a42b46df8927414990fc","","null","","","","","","","learning/Slide143.JPG","null","","","","","",""
"html-keyboard-response","435","635439","0.0-7.0-2.62","LF","yhakp9pfe9","1600","900","0","1","0","5f57a42b46df8927414990fc","","null","","","learningBlock2","","","","<div style=""font-size:60px;""> </div>","null","LF","learning/Slide143.JPG","This is a bim:","","",""
"html-keyboard-response","436","636442","0.0-7.0-0.63","LF","yhakp9pfe9","1600","900","0","1","0","5f57a42b46df8927414990fc","","null","","","learningBlock2","","","","This is a dep:","null","","","","","",""
"image-keyboard-response","437","636771","0.0-7.0-1.63","LF","yhakp9pfe9","1600","900","0","1","0","5f57a42b46df8927414990fc","","null","","","","","","","learning/Slide144.JPG","null","","","","","",""
