"success","trial_type","trial_index","time_elapsed","internal_node_id","condition","subject","screen_width","screen_height","language","codeword","rt","responses","url","view_history","test_part","final_height_px","final_width_px","scale_factor","stimulus","key_press","learningType","presentedImage","presentedLabel","button_pressed","response"
"true","fullscreen","0","5075","0.0-0.0","FL","atap00wwqb","1366","768","en","ft08en25","","","","","","","","","","","","","","",""
"","survey-html-form","1","11798","0.0-1.0","FL","atap00wwqb","1366","768","en","ft08en25","6688","{""language"":""en""}","","","","","","","","","","","","",""
"","external-html","2","68689","0.0-3.0-0.0","FL","atap00wwqb","1366","768","en","ft08en25","56794","","text/information_english.html","","","","","","","","","","","",""
"","external-html","3","100942","0.0-3.0-1.0","FL","atap00wwqb","1366","768","en","ft08en25","32138","","text/consent_english.html","","","","","","","","","","","",""
"","survey-html-form","4","165721","0.0-3.0-2.0","FL","atap00wwqb","1366","768","en","ft08en25","64774","{""codeword_enter"":""ft08en25""}","","","","","","","","","","","","",""
"","instructions","5","195395","0.0-4.0","FL","atap00wwqb","1366","768","en","ft08en25","NA","","","[{""page_index"":0,""viewing_time"":9245},{""page_index"":1,""viewing_time"":18906}]","instructions","","","","","","","","","",""
"","resize","6","253058","0.0-5.0","FL","atap00wwqb","1366","768","en","ft08en25","","","","","","","337","2.1396825396825396","","","","","","",""
"","image-keyboard-response","7","253237","0.0-6.0-0.0","FL","atap00wwqb","1366","768","en","ft08en25","null","","","","","","","","learning/Slide1.JPG","null","","","","",""
"","html-keyboard-response","8","254420","0.0-6.0-1.0","FL","atap00wwqb","1366","768","en","ft08en25","null","","","","learningBlock1","","","","That was a tob.","null","","","","",""
"","html-keyboard-response","9","255437","0.0-6.0-2.0","FL","atap00wwqb","1366","768","en","ft08en25","null","","","","learningBlock1","","","","<div style=""font-size:60px;""> </div>","null","FL","learning/Slide1.JPG","That was a tob.","",""
"","image-keyboard-response","10","255621","0.0-6.0-0.1","FL","atap00wwqb","1366","768","en","ft08en25","null","","","","","","","","learning/Slide2.JPG","null","","","","",""
"","html-keyboard-response","11","256801","0.0-6.0-1.1","FL","atap00wwqb","1366","768","en","ft08en25","null","","","","learningBlock1","","","","That was a wug.","null","","","","",""
"","html-keyboard-response","12","257820","0.0-6.0-2.1","FL","atap00wwqb","1366","768","en","ft08en25","null","","","","learningBlock1","","","","<div style=""font-size:60px;""> </div>","null","FL","learning/Slide2.JPG","That was a wug.","",""
"","image-keyboard-response","13","258001","0.0-6.0-0.2","FL","atap00wwqb","1366","768","en","ft08en25","null","","","","","","","","learning/Slide3.JPG","null","","","","",""
"","html-keyboard-response","14","259168","0.0-6.0-1.2","FL","atap00wwqb","1366","768","en","ft08en25","null","","","","learningBlock1","","","","That was a bim.","null","","","","",""
"","html-keyboard-response","15","260181","0.0-6.0-2.2","FL","atap00wwqb","1366","768","en","ft08en25","null","","","","learningBlock1","","","","<div style=""font-size:60px;""> </div>","null","FL","learning/Slide3.JPG","That was a bim.","",""
"","image-keyboard-response","16","260361","0.0-6.0-0.3","FL","atap00wwqb","1366","768","en","ft08en25","null","","","","","","","","learning/Slide4.JPG","null","","","","",""
"","html-keyboard-response","17","261540","0.0-6.0-1.3","FL","atap00wwqb","1366","768","en","ft08en25","null","","","","learningBlock1","","","","That was a dep.","null","","","","",""
"","html-keyboard-response","18","262560","0.0-6.0-2.3","FL","atap00wwqb","1366","768","en","ft08en25","null","","","","learningBlock1","","","","<div style=""font-size:60px;""> </div>","null","FL","learning/Slide4.JPG","That was a dep.","",""
"","image-keyboard-response","19","262740","0.0-6.0-0.4","FL","atap00wwqb","1366","768","en","ft08en25","null","","","","","","","","learning/Slide5.JPG","null","","","","",""
"","html-keyboard-response","20","263911","0.0-6.0-1.4","FL","atap00wwqb","1366","768","en","ft08en25","null","","","","learningBlock1","","","","That was a wug.","null","","","","",""
"","html-keyboard-response","21","264931","0.0-6.0-2.4","FL","atap00wwqb","1366","768","en","ft08en25","null","","","","learningBlock1","","","","<div style=""font-size:60px;""> </div>","null","FL","learning/Slide5.JPG","That was a wug.","",""
"","image-keyboard-response","22","265111","0.0-6.0-0.5","FL","atap00wwqb","1366","768","en","ft08en25","null","","","","","","","","learning/Slide6.JPG","null","","","","",""
"","html-keyboard-response","23","266289","0.0-6.0-1.5","FL","atap00wwqb","1366","768","en","ft08en25","null","","","","learningBlock1","","","","That was a dep.","null","","","","",""
"","html-keyboard-response","24","267311","0.0-6.0-2.5","FL","atap00wwqb","1366","768","en","ft08en25","null","","","","learningBlock1","","","","<div style=""font-size:60px;""> </div>","null","FL","learning/Slide6.JPG","That was a dep.","",""
"","image-keyboard-response","25","267490","0.0-6.0-0.6","FL","atap00wwqb","1366","768","en","ft08en25","null","","","","","","","","learning/Slide7.JPG","null","","","","",""
"","html-keyboard-response","26","268670","0.0-6.0-1.6","FL","atap00wwqb","1366","768","en","ft08en25","null","","","","learningBlock1","","","","That was a wug.","null","","","","",""
"","html-keyboard-response","27","269690","0.0-6.0-2.6","FL","atap00wwqb","1366","768","en","ft08en25","null","","","","learningBlock1","","","","<div style=""font-size:60px;""> </div>","null","FL","learning/Slide7.JPG","That was a wug.","",""
"","image-keyboard-response","28","269870","0.0-6.0-0.7","FL","atap00wwqb","1366","768","en","ft08en25","null","","","","","","","","learning/Slide8.JPG","null","","","","",""
"","html-keyboard-response","29","271050","0.0-6.0-1.7","FL","atap00wwqb","1366","768","en","ft08en25","null","","","","learningBlock1","","","","That was a bim.","null","","","","",""
"","html-keyboard-response","30","272070","0.0-6.0-2.7","FL","atap00wwqb","1366","768","en","ft08en25","null","","","","learningBlock1","","","","<div style=""font-size:60px;""> </div>","null","FL","learning/Slide8.JPG","That was a bim.","",""
"","image-keyboard-response","31","272251","0.0-6.0-0.8","FL","atap00wwqb","1366","768","en","ft08en25","null","","","","","","","","learning/Slide9.JPG","null","","","","",""
"","html-keyboard-response","32","273430","0.0-6.0-1.8","FL","atap00wwqb","1366","768","en","ft08en25","null","","","","learningBlock1","","","","That was a wug.","null","","","","",""
"","html-keyboard-response","33","274450","0.0-6.0-2.8","FL","atap00wwqb","1366","768","en","ft08en25","null","","","","learningBlock1","","","","<div style=""font-size:60px;""> </div>","null","FL","learning/Slide9.JPG","That was a wug.","",""
"","image-keyboard-response","34","274631","0.0-6.0-0.9","FL","atap00wwqb","1366","768","en","ft08en25","null","","","","","","","","learning/Slide10.JPG","null","","","","",""
"","html-keyboard-response","35","275810","0.0-6.0-1.9","FL","atap00wwqb","1366","768","en","ft08en25","null","","","","learningBlock1","","","","That was a dep.","null","","","","",""
"","html-keyboard-response","36","276830","0.0-6.0-2.9","FL","atap00wwqb","1366","768","en","ft08en25","null","","","","learningBlock1","","","","<div style=""font-size:60px;""> </div>","null","FL","learning/Slide10.JPG","That was a dep.","",""
"","image-keyboard-response","37","277010","0.0-6.0-0.10","FL","atap00wwqb","1366","768","en","ft08en25","null","","","","","","","","learning/Slide11.JPG","null","","","","",""
"","html-keyboard-response","38","278190","0.0-6.0-1.10","FL","atap00wwqb","1366","768","en","ft08en25","null","","","","learningBlock1","","","","That was a tob.","null","","","","",""
"","html-keyboard-response","39","279210","0.0-6.0-2.10","FL","atap00wwqb","1366","768","en","ft08en25","null","","","","learningBlock1","","","","<div style=""font-size:60px;""> </div>","null","FL","learning/Slide11.JPG","That was a tob.","",""
"","image-keyboard-response","40","279391","0.0-6.0-0.11","FL","atap00wwqb","1366","768","en","ft08en25","null","","","","","","","","learning/Slide12.JPG","null","","","","",""
"","html-keyboard-response","41","280570","0.0-6.0-1.11","FL","atap00wwqb","1366","768","en","ft08en25","null","","","","learningBlock1","","","","That was a dep.","null","","","","",""
"","html-keyboard-response","42","281590","0.0-6.0-2.11","FL","atap00wwqb","1366","768","en","ft08en25","null","","","","learningBlock1","","","","<div style=""font-size:60px;""> </div>","null","FL","learning/Slide12.JPG","That was a dep.","",""
"","image-keyboard-response","43","281771","0.0-6.0-0.12","FL","atap00wwqb","1366","768","en","ft08en25","null","","","","","","","","learning/Slide13.JPG","null","","","","",""
"","html-keyboard-response","44","282950","0.0-6.0-1.12","FL","atap00wwqb","1366","768","en","ft08en25","null","","","","learningBlock1","","","","That was a bim.","null","","","","",""
"","html-keyboard-response","45","283968","0.0-6.0-2.12","FL","atap00wwqb","1366","768","en","ft08en25","null","","","","learningBlock1","","","","<div style=""font-size:60px;""> </div>","null","FL","learning/Slide13.JPG","That was a bim.","",""
"","image-keyboard-response","46","284150","0.0-6.0-0.13","FL","atap00wwqb","1366","768","en","ft08en25","null","","","","","","","","learning/Slide14.JPG","null","","","","",""
"","html-keyboard-response","47","285330","0.0-6.0-1.13","FL","atap00wwqb","1366","768","en","ft08en25","null","","","","learningBlock1","","","","That was a wug.","null","","","","",""
"","html-keyboard-response","48","286350","0.0-6.0-2.13","FL","atap00wwqb","1366","768","en","ft08en25","null","","","","learningBlock1","","","","<div style=""font-size:60px;""> </div>","null","FL","learning/Slide14.JPG","That was a wug.","",""
"","image-keyboard-response","49","286530","0.0-6.0-0.14","FL","atap00wwqb","1366","768","en","ft08en25","null","","","","","","","","learning/Slide15.JPG","null","","","","",""
"","html-keyboard-response","50","287711","0.0-6.0-1.14","FL","atap00wwqb","1366","768","en","ft08en25","null","","","","learningBlock1","","","","That was a tob.","null","","","","",""
"","html-keyboard-response","51","288730","0.0-6.0-2.14","FL","atap00wwqb","1366","768","en","ft08en25","null","","","","learningBlock1","","","","<div style=""font-size:60px;""> </div>","null","FL","learning/Slide15.JPG","That was a tob.","",""
"","image-keyboard-response","52","288911","0.0-6.0-0.15","FL","atap00wwqb","1366","768","en","ft08en25","null","","","","","","","","learning/Slide16.JPG","null","","","","",""
"","html-keyboard-response","53","290070","0.0-6.0-1.15","FL","atap00wwqb","1366","768","en","ft08en25","null","","","","learningBlock1","","","","That was a dep.","null","","","","",""
"","html-keyboard-response","54","291089","0.0-6.0-2.15","FL","atap00wwqb","1366","768","en","ft08en25","null","","","","learningBlock1","","","","<div style=""font-size:60px;""> </div>","null","FL","learning/Slide16.JPG","That was a dep.","",""
"","image-keyboard-response","55","291270","0.0-6.0-0.16","FL","atap00wwqb","1366","768","en","ft08en25","null","","","","","","","","learning/Slide17.JPG","null","","","","",""
"","html-keyboard-response","56","292450","0.0-6.0-1.16","FL","atap00wwqb","1366","768","en","ft08en25","null","","","","learningBlock1","","","","That was a bim.","null","","","","",""
"","html-keyboard-response","57","293470","0.0-6.0-2.16","FL","atap00wwqb","1366","768","en","ft08en25","null","","","","learningBlock1","","","","<div style=""font-size:60px;""> </div>","null","FL","learning/Slide17.JPG","That was a bim.","",""
"","image-keyboard-response","58","293651","0.0-6.0-0.17","FL","atap00wwqb","1366","768","en","ft08en25","null","","","","","","","","learning/Slide18.JPG","null","","","","",""
"","html-keyboard-response","59","294830","0.0-6.0-1.17","FL","atap00wwqb","1366","768","en","ft08en25","null","","","","learningBlock1","","","","That was a tob.","null","","","","",""
"","html-keyboard-response","60","295850","0.0-6.0-2.17","FL","atap00wwqb","1366","768","en","ft08en25","null","","","","learningBlock1","","","","<div style=""font-size:60px;""> </div>","null","FL","learning/Slide18.JPG","That was a tob.","",""
"","image-keyboard-response","61","296031","0.0-6.0-0.18","FL","atap00wwqb","1366","768","en","ft08en25","null","","","","","","","","learning/Slide19.JPG","null","","","","",""
"","html-keyboard-response","62","297210","0.0-6.0-1.18","FL","atap00wwqb","1366","768","en","ft08en25","null","","","","learningBlock1","","","","That was a wug.","null","","","","",""
"","html-keyboard-response","63","298230","0.0-6.0-2.18","FL","atap00wwqb","1366","768","en","ft08en25","null","","","","learningBlock1","","","","<div style=""font-size:60px;""> </div>","null","FL","learning/Slide19.JPG","That was a wug.","",""
"","image-keyboard-response","64","298411","0.0-6.0-0.19","FL","atap00wwqb","1366","768","en","ft08en25","null","","","","","","","","learning/Slide20.JPG","null","","","","",""
"","html-keyboard-response","65","299589","0.0-6.0-1.19","FL","atap00wwqb","1366","768","en","ft08en25","null","","","","learningBlock1","","","","That was a bim.","null","","","","",""
"","html-keyboard-response","66","300610","0.0-6.0-2.19","FL","atap00wwqb","1366","768","en","ft08en25","null","","","","learningBlock1","","","","<div style=""font-size:60px;""> </div>","null","FL","learning/Slide20.JPG","That was a bim.","",""
"","image-keyboard-response","67","300790","0.0-6.0-0.20","FL","atap00wwqb","1366","768","en","ft08en25","null","","","","","","","","learning/Slide21.JPG","null","","","","",""
"","html-keyboard-response","68","301971","0.0-6.0-1.20","FL","atap00wwqb","1366","768","en","ft08en25","null","","","","learningBlock1","","","","That was a dep.","null","","","","",""
"","html-keyboard-response","69","302990","0.0-6.0-2.20","FL","atap00wwqb","1366","768","en","ft08en25","null","","","","learningBlock1","","","","<div style=""font-size:60px;""> </div>","null","FL","learning/Slide21.JPG","That was a dep.","",""
"","image-keyboard-response","70","303171","0.0-6.0-0.21","FL","atap00wwqb","1366","768","en","ft08en25","null","","","","","","","","learning/Slide22.JPG","null","","","","",""
"","html-keyboard-response","71","304350","0.0-6.0-1.21","FL","atap00wwqb","1366","768","en","ft08en25","null","","","","learningBlock1","","","","That was a bim.","null","","","","",""
"","html-keyboard-response","72","305370","0.0-6.0-2.21","FL","atap00wwqb","1366","768","en","ft08en25","null","","","","learningBlock1","","","","<div style=""font-size:60px;""> </div>","null","FL","learning/Slide22.JPG","That was a bim.","",""
"","image-keyboard-response","73","305550","0.0-6.0-0.22","FL","atap00wwqb","1366","768","en","ft08en25","null","","","","","","","","learning/Slide23.JPG","null","","","","",""
"","html-keyboard-response","74","306730","0.0-6.0-1.22","FL","atap00wwqb","1366","768","en","ft08en25","null","","","","learningBlock1","","","","That was a tob.","null","","","","",""
"","html-keyboard-response","75","307750","0.0-6.0-2.22","FL","atap00wwqb","1366","768","en","ft08en25","null","","","","learningBlock1","","","","<div style=""font-size:60px;""> </div>","null","FL","learning/Slide23.JPG","That was a tob.","",""
"","image-keyboard-response","76","307930","0.0-6.0-0.23","FL","atap00wwqb","1366","768","en","ft08en25","null","","","","","","","","learning/Slide24.JPG","null","","","","",""
"","html-keyboard-response","77","309110","0.0-6.0-1.23","FL","atap00wwqb","1366","768","en","ft08en25","null","","","","learningBlock1","","","","That was a wug.","null","","","","",""
"","html-keyboard-response","78","310130","0.0-6.0-2.23","FL","atap00wwqb","1366","768","en","ft08en25","null","","","","learningBlock1","","","","<div style=""font-size:60px;""> </div>","null","FL","learning/Slide24.JPG","That was a wug.","",""
"","image-keyboard-response","79","310311","0.0-6.0-0.24","FL","atap00wwqb","1366","768","en","ft08en25","null","","","","","","","","learning/Slide25.JPG","null","","","","",""
"","html-keyboard-response","80","311481","0.0-6.0-1.24","FL","atap00wwqb","1366","768","en","ft08en25","null","","","","learningBlock1","","","","That was a dep.","null","","","","",""
"","html-keyboard-response","81","312500","0.0-6.0-2.24","FL","atap00wwqb","1366","768","en","ft08en25","null","","","","learningBlock1","","","","<div style=""font-size:60px;""> </div>","null","FL","learning/Slide25.JPG","That was a dep.","",""
"","image-keyboard-response","82","312680","0.0-6.0-0.25","FL","atap00wwqb","1366","768","en","ft08en25","null","","","","","","","","learning/Slide26.JPG","null","","","","",""
"","html-keyboard-response","83","313860","0.0-6.0-1.25","FL","atap00wwqb","1366","768","en","ft08en25","null","","","","learningBlock1","","","","That was a wug.","null","","","","",""
"","html-keyboard-response","84","314880","0.0-6.0-2.25","FL","atap00wwqb","1366","768","en","ft08en25","null","","","","learningBlock1","","","","<div style=""font-size:60px;""> </div>","null","FL","learning/Slide26.JPG","That was a wug.","",""
"","image-keyboard-response","85","315060","0.0-6.0-0.26","FL","atap00wwqb","1366","768","en","ft08en25","null","","","","","","","","learning/Slide27.JPG","null","","","","",""
"","html-keyboard-response","86","316231","0.0-6.0-1.26","FL","atap00wwqb","1366","768","en","ft08en25","null","","","","learningBlock1","","","","That was a bim.","null","","","","",""
"","html-keyboard-response","87","317250","0.0-6.0-2.26","FL","atap00wwqb","1366","768","en","ft08en25","null","","","","learningBlock1","","","","<div style=""font-size:60px;""> </div>","null","FL","learning/Slide27.JPG","That was a bim.","",""
"","image-keyboard-response","88","317430","0.0-6.0-0.27","FL","atap00wwqb","1366","768","en","ft08en25","null","","","","","","","","learning/Slide28.JPG","null","","","","",""
"","html-keyboard-response","89","318610","0.0-6.0-1.27","FL","atap00wwqb","1366","768","en","ft08en25","null","","","","learningBlock1","","","","That was a dep.","null","","","","",""
"","html-keyboard-response","90","319630","0.0-6.0-2.27","FL","atap00wwqb","1366","768","en","ft08en25","null","","","","learningBlock1","","","","<div style=""font-size:60px;""> </div>","null","FL","learning/Slide28.JPG","That was a dep.","",""
"","image-keyboard-response","91","319811","0.0-6.0-0.28","FL","atap00wwqb","1366","768","en","ft08en25","null","","","","","","","","learning/Slide29.JPG","null","","","","",""
"","html-keyboard-response","92","320990","0.0-6.0-1.28","FL","atap00wwqb","1366","768","en","ft08en25","null","","","","learningBlock1","","","","That was a tob.","null","","","","",""
"","html-keyboard-response","93","322010","0.0-6.0-2.28","FL","atap00wwqb","1366","768","en","ft08en25","null","","","","learningBlock1","","","","<div style=""font-size:60px;""> </div>","null","FL","learning/Slide29.JPG","That was a tob.","",""
"","image-keyboard-response","94","322190","0.0-6.0-0.29","FL","atap00wwqb","1366","768","en","ft08en25","null","","","","","","","","learning/Slide30.JPG","null","","","","",""
"","html-keyboard-response","95","323370","0.0-6.0-1.29","FL","atap00wwqb","1366","768","en","ft08en25","null","","","","learningBlock1","","","","That was a dep.","null","","","","",""
"","html-keyboard-response","96","324390","0.0-6.0-2.29","FL","atap00wwqb","1366","768","en","ft08en25","null","","","","learningBlock1","","","","<div style=""font-size:60px;""> </div>","null","FL","learning/Slide30.JPG","That was a dep.","",""
"","image-keyboard-response","97","324571","0.0-6.0-0.30","FL","atap00wwqb","1366","768","en","ft08en25","null","","","","","","","","learning/Slide31.JPG","null","","","","",""
"","html-keyboard-response","98","325730","0.0-6.0-1.30","FL","atap00wwqb","1366","768","en","ft08en25","null","","","","learningBlock1","","","","That was a wug.","null","","","","",""
"","html-keyboard-response","99","326750","0.0-6.0-2.30","FL","atap00wwqb","1366","768","en","ft08en25","null","","","","learningBlock1","","","","<div style=""font-size:60px;""> </div>","null","FL","learning/Slide31.JPG","That was a wug.","",""
"","image-keyboard-response","100","326930","0.0-6.0-0.31","FL","atap00wwqb","1366","768","en","ft08en25","null","","","","","","","","learning/Slide32.JPG","null","","","","",""
"","html-keyboard-response","101","328110","0.0-6.0-1.31","FL","atap00wwqb","1366","768","en","ft08en25","null","","","","learningBlock1","","","","That was a tob.","null","","","","",""
"","html-keyboard-response","102","329130","0.0-6.0-2.31","FL","atap00wwqb","1366","768","en","ft08en25","null","","","","learningBlock1","","","","<div style=""font-size:60px;""> </div>","null","FL","learning/Slide32.JPG","That was a tob.","",""
"","image-keyboard-response","103","329311","0.0-6.0-0.32","FL","atap00wwqb","1366","768","en","ft08en25","null","","","","","","","","learning/Slide33.JPG","null","","","","",""
"","html-keyboard-response","104","330490","0.0-6.0-1.32","FL","atap00wwqb","1366","768","en","ft08en25","null","","","","learningBlock1","","","","That was a bim.","null","","","","",""
"","html-keyboard-response","105","331510","0.0-6.0-2.32","FL","atap00wwqb","1366","768","en","ft08en25","null","","","","learningBlock1","","","","<div style=""font-size:60px;""> </div>","null","FL","learning/Slide33.JPG","That was a bim.","",""
"","image-keyboard-response","106","331691","0.0-6.0-0.33","FL","atap00wwqb","1366","768","en","ft08en25","null","","","","","","","","learning/Slide34.JPG","null","","","","",""
"","html-keyboard-response","107","332870","0.0-6.0-1.33","FL","atap00wwqb","1366","768","en","ft08en25","null","","","","learningBlock1","","","","That was a tob.","null","","","","",""
"","html-keyboard-response","108","333891","0.0-6.0-2.33","FL","atap00wwqb","1366","768","en","ft08en25","null","","","","learningBlock1","","","","<div style=""font-size:60px;""> </div>","null","FL","learning/Slide34.JPG","That was a tob.","",""
"","image-keyboard-response","109","334071","0.0-6.0-0.34","FL","atap00wwqb","1366","768","en","ft08en25","null","","","","","","","","learning/Slide35.JPG","null","","","","",""
"","html-keyboard-response","110","335250","0.0-6.0-1.34","FL","atap00wwqb","1366","768","en","ft08en25","null","","","","learningBlock1","","","","That was a bim.","null","","","","",""
"","html-keyboard-response","111","336270","0.0-6.0-2.34","FL","atap00wwqb","1366","768","en","ft08en25","null","","","","learningBlock1","","","","<div style=""font-size:60px;""> </div>","null","FL","learning/Slide35.JPG","That was a bim.","",""
"","image-keyboard-response","112","336450","0.0-6.0-0.35","FL","atap00wwqb","1366","768","en","ft08en25","null","","","","","","","","learning/Slide36.JPG","null","","","","",""
"","html-keyboard-response","113","337630","0.0-6.0-1.35","FL","atap00wwqb","1366","768","en","ft08en25","null","","","","learningBlock1","","","","That was a dep.","null","","","","",""
"","html-keyboard-response","114","338650","0.0-6.0-2.35","FL","atap00wwqb","1366","768","en","ft08en25","null","","","","learningBlock1","","","","<div style=""font-size:60px;""> </div>","null","FL","learning/Slide36.JPG","That was a dep.","",""
"","image-keyboard-response","115","338830","0.0-6.0-0.36","FL","atap00wwqb","1366","768","en","ft08en25","null","","","","","","","","learning/Slide37.JPG","null","","","","",""
"","html-keyboard-response","116","340010","0.0-6.0-1.36","FL","atap00wwqb","1366","768","en","ft08en25","null","","","","learningBlock1","","","","That was a tob.","null","","","","",""
"","html-keyboard-response","117","341020","0.0-6.0-2.36","FL","atap00wwqb","1366","768","en","ft08en25","null","","","","learningBlock1","","","","<div style=""font-size:60px;""> </div>","null","FL","learning/Slide37.JPG","That was a tob.","",""
"","image-keyboard-response","118","341199","0.0-6.0-0.37","FL","atap00wwqb","1366","768","en","ft08en25","null","","","","","","","","learning/Slide38.JPG","null","","","","",""
"","html-keyboard-response","119","342380","0.0-6.0-1.37","FL","atap00wwqb","1366","768","en","ft08en25","null","","","","learningBlock1","","","","That was a wug.","null","","","","",""
"","html-keyboard-response","120","343400","0.0-6.0-2.37","FL","atap00wwqb","1366","768","en","ft08en25","null","","","","learningBlock1","","","","<div style=""font-size:60px;""> </div>","null","FL","learning/Slide38.JPG","That was a wug.","",""
"","image-keyboard-response","121","343580","0.0-6.0-0.38","FL","atap00wwqb","1366","768","en","ft08en25","null","","","","","","","","learning/Slide39.JPG","null","","","","",""
"","html-keyboard-response","122","344760","0.0-6.0-1.38","FL","atap00wwqb","1366","768","en","ft08en25","null","","","","learningBlock1","","","","That was a bim.","null","","","","",""
"","html-keyboard-response","123","345780","0.0-6.0-2.38","FL","atap00wwqb","1366","768","en","ft08en25","null","","","","learningBlock1","","","","<div style=""font-size:60px;""> </div>","null","FL","learning/Slide39.JPG","That was a bim.","",""
"","image-keyboard-response","124","345961","0.0-6.0-0.39","FL","atap00wwqb","1366","768","en","ft08en25","null","","","","","","","","learning/Slide40.JPG","null","","","","",""
"","html-keyboard-response","125","347140","0.0-6.0-1.39","FL","atap00wwqb","1366","768","en","ft08en25","null","","","","learningBlock1","","","","That was a tob.","null","","","","",""
"","html-keyboard-response","126","348160","0.0-6.0-2.39","FL","atap00wwqb","1366","768","en","ft08en25","null","","","","learningBlock1","","","","<div style=""font-size:60px;""> </div>","null","FL","learning/Slide40.JPG","That was a tob.","",""
"","image-keyboard-response","127","348341","0.0-6.0-0.40","FL","atap00wwqb","1366","768","en","ft08en25","null","","","","","","","","learning/Slide41.JPG","null","","","","",""
"","html-keyboard-response","128","349520","0.0-6.0-1.40","FL","atap00wwqb","1366","768","en","ft08en25","null","","","","learningBlock1","","","","That was a bim.","null","","","","",""
"","html-keyboard-response","129","350541","0.0-6.0-2.40","FL","atap00wwqb","1366","768","en","ft08en25","null","","","","learningBlock1","","","","<div style=""font-size:60px;""> </div>","null","FL","learning/Slide41.JPG","That was a bim.","",""
"","image-keyboard-response","130","350720","0.0-6.0-0.41","FL","atap00wwqb","1366","768","en","ft08en25","null","","","","","","","","learning/Slide42.JPG","null","","","","",""
"","html-keyboard-response","131","351900","0.0-6.0-1.41","FL","atap00wwqb","1366","768","en","ft08en25","null","","","","learningBlock1","","","","That was a dep.","null","","","","",""
"","html-keyboard-response","132","352920","0.0-6.0-2.41","FL","atap00wwqb","1366","768","en","ft08en25","null","","","","learningBlock1","","","","<div style=""font-size:60px;""> </div>","null","FL","learning/Slide42.JPG","That was a dep.","",""
"","image-keyboard-response","133","353101","0.0-6.0-0.42","FL","atap00wwqb","1366","768","en","ft08en25","null","","","","","","","","learning/Slide43.JPG","null","","","","",""
"","html-keyboard-response","134","354280","0.0-6.0-1.42","FL","atap00wwqb","1366","768","en","ft08en25","null","","","","learningBlock1","","","","That was a wug.","null","","","","",""
"","html-keyboard-response","135","355300","0.0-6.0-2.42","FL","atap00wwqb","1366","768","en","ft08en25","null","","","","learningBlock1","","","","<div style=""font-size:60px;""> </div>","null","FL","learning/Slide43.JPG","That was a wug.","",""
"","image-keyboard-response","136","355480","0.0-6.0-0.43","FL","atap00wwqb","1366","768","en","ft08en25","null","","","","","","","","learning/Slide44.JPG","null","","","","",""
"","html-keyboard-response","137","356660","0.0-6.0-1.43","FL","atap00wwqb","1366","768","en","ft08en25","null","","","","learningBlock1","","","","That was a bim.","null","","","","",""
"","html-keyboard-response","138","357681","0.0-6.0-2.43","FL","atap00wwqb","1366","768","en","ft08en25","null","","","","learningBlock1","","","","<div style=""font-size:60px;""> </div>","null","FL","learning/Slide44.JPG","That was a bim.","",""
"","image-keyboard-response","139","357861","0.0-6.0-0.44","FL","atap00wwqb","1366","768","en","ft08en25","null","","","","","","","","learning/Slide45.JPG","null","","","","",""
"","html-keyboard-response","140","359040","0.0-6.0-1.44","FL","atap00wwqb","1366","768","en","ft08en25","null","","","","learningBlock1","","","","That was a wug.","null","","","","",""
"","html-keyboard-response","141","360060","0.0-6.0-2.44","FL","atap00wwqb","1366","768","en","ft08en25","null","","","","learningBlock1","","","","<div style=""font-size:60px;""> </div>","null","FL","learning/Slide45.JPG","That was a wug.","",""
"","image-keyboard-response","142","360241","0.0-6.0-0.45","FL","atap00wwqb","1366","768","en","ft08en25","null","","","","","","","","learning/Slide46.JPG","null","","","","",""
"","html-keyboard-response","143","361421","0.0-6.0-1.45","FL","atap00wwqb","1366","768","en","ft08en25","null","","","","learningBlock1","","","","That was a dep.","null","","","","",""
"","html-keyboard-response","144","362440","0.0-6.0-2.45","FL","atap00wwqb","1366","768","en","ft08en25","null","","","","learningBlock1","","","","<div style=""font-size:60px;""> </div>","null","FL","learning/Slide46.JPG","That was a dep.","",""
"","image-keyboard-response","145","362620","0.0-6.0-0.46","FL","atap00wwqb","1366","768","en","ft08en25","null","","","","","","","","learning/Slide47.JPG","null","","","","",""
"","html-keyboard-response","146","363801","0.0-6.0-1.46","FL","atap00wwqb","1366","768","en","ft08en25","null","","","","learningBlock1","","","","That was a tob.","null","","","","",""
"","html-keyboard-response","147","364821","0.0-6.0-2.46","FL","atap00wwqb","1366","768","en","ft08en25","null","","","","learningBlock1","","","","<div style=""font-size:60px;""> </div>","null","FL","learning/Slide47.JPG","That was a tob.","",""
"","image-keyboard-response","148","365001","0.0-6.0-0.47","FL","atap00wwqb","1366","768","en","ft08en25","null","","","","","","","","learning/Slide48.JPG","null","","","","",""
"","html-keyboard-response","149","366181","0.0-6.0-1.47","FL","atap00wwqb","1366","768","en","ft08en25","null","","","","learningBlock1","","","","That was a bim.","null","","","","",""
"","html-keyboard-response","150","367200","0.0-6.0-2.47","FL","atap00wwqb","1366","768","en","ft08en25","null","","","","learningBlock1","","","","<div style=""font-size:60px;""> </div>","null","FL","learning/Slide48.JPG","That was a bim.","",""
"","image-keyboard-response","151","367381","0.0-6.0-0.48","FL","atap00wwqb","1366","768","en","ft08en25","null","","","","","","","","learning/Slide49.JPG","null","","","","",""
"","html-keyboard-response","152","368560","0.0-6.0-1.48","FL","atap00wwqb","1366","768","en","ft08en25","null","","","","learningBlock1","","","","That was a dep.","null","","","","",""
"","html-keyboard-response","153","369580","0.0-6.0-2.48","FL","atap00wwqb","1366","768","en","ft08en25","null","","","","learningBlock1","","","","<div style=""font-size:60px;""> </div>","null","FL","learning/Slide49.JPG","That was a dep.","",""
"","image-keyboard-response","154","369760","0.0-6.0-0.49","FL","atap00wwqb","1366","768","en","ft08en25","null","","","","","","","","learning/Slide50.JPG","null","","","","",""
"","html-keyboard-response","155","370941","0.0-6.0-1.49","FL","atap00wwqb","1366","768","en","ft08en25","null","","","","learningBlock1","","","","That was a tob.","null","","","","",""
"","html-keyboard-response","156","371960","0.0-6.0-2.49","FL","atap00wwqb","1366","768","en","ft08en25","null","","","","learningBlock1","","","","<div style=""font-size:60px;""> </div>","null","FL","learning/Slide50.JPG","That was a tob.","",""
"","image-keyboard-response","157","372140","0.0-6.0-0.50","FL","atap00wwqb","1366","768","en","ft08en25","null","","","","","","","","learning/Slide51.JPG","null","","","","",""
"","html-keyboard-response","158","373320","0.0-6.0-1.50","FL","atap00wwqb","1366","768","en","ft08en25","null","","","","learningBlock1","","","","That was a bim.","null","","","","",""
"","html-keyboard-response","159","374324","0.0-6.0-2.50","FL","atap00wwqb","1366","768","en","ft08en25","null","","","","learningBlock1","","","","<div style=""font-size:60px;""> </div>","null","FL","learning/Slide51.JPG","That was a bim.","",""
"","image-keyboard-response","160","374511","0.0-6.0-0.51","FL","atap00wwqb","1366","768","en","ft08en25","null","","","","","","","","learning/Slide52.JPG","null","","","","",""
"","html-keyboard-response","161","375690","0.0-6.0-1.51","FL","atap00wwqb","1366","768","en","ft08en25","null","","","","learningBlock1","","","","That was a wug.","null","","","","",""
"","html-keyboard-response","162","376710","0.0-6.0-2.51","FL","atap00wwqb","1366","768","en","ft08en25","null","","","","learningBlock1","","","","<div style=""font-size:60px;""> </div>","null","FL","learning/Slide52.JPG","That was a wug.","",""
"","image-keyboard-response","163","376891","0.0-6.0-0.52","FL","atap00wwqb","1366","768","en","ft08en25","null","","","","","","","","learning/Slide53.JPG","null","","","","",""
"","html-keyboard-response","164","378070","0.0-6.0-1.52","FL","atap00wwqb","1366","768","en","ft08en25","null","","","","learningBlock1","","","","That was a tob.","null","","","","",""
"","html-keyboard-response","165","379090","0.0-6.0-2.52","FL","atap00wwqb","1366","768","en","ft08en25","null","","","","learningBlock1","","","","<div style=""font-size:60px;""> </div>","null","FL","learning/Slide53.JPG","That was a tob.","",""
"","image-keyboard-response","166","379270","0.0-6.0-0.53","FL","atap00wwqb","1366","768","en","ft08en25","null","","","","","","","","learning/Slide54.JPG","null","","","","",""
"","html-keyboard-response","167","380450","0.0-6.0-1.53","FL","atap00wwqb","1366","768","en","ft08en25","null","","","","learningBlock1","","","","That was a dep.","null","","","","",""
"","html-keyboard-response","168","381468","0.0-6.0-2.53","FL","atap00wwqb","1366","768","en","ft08en25","null","","","","learningBlock1","","","","<div style=""font-size:60px;""> </div>","null","FL","learning/Slide54.JPG","That was a dep.","",""
"","image-keyboard-response","169","381651","0.0-6.0-0.54","FL","atap00wwqb","1366","768","en","ft08en25","null","","","","","","","","learning/Slide55.JPG","null","","","","",""
"","html-keyboard-response","170","382831","0.0-6.0-1.54","FL","atap00wwqb","1366","768","en","ft08en25","null","","","","learningBlock1","","","","That was a bim.","null","","","","",""
"","html-keyboard-response","171","383850","0.0-6.0-2.54","FL","atap00wwqb","1366","768","en","ft08en25","null","","","","learningBlock1","","","","<div style=""font-size:60px;""> </div>","null","FL","learning/Slide55.JPG","That was a bim.","",""
"","image-keyboard-response","172","384031","0.0-6.0-0.55","FL","atap00wwqb","1366","768","en","ft08en25","null","","","","","","","","learning/Slide56.JPG","null","","","","",""
"","html-keyboard-response","173","385201","0.0-6.0-1.55","FL","atap00wwqb","1366","768","en","ft08en25","null","","","","learningBlock1","","","","That was a tob.","null","","","","",""
"","html-keyboard-response","174","386221","0.0-6.0-2.55","FL","atap00wwqb","1366","768","en","ft08en25","null","","","","learningBlock1","","","","<div style=""font-size:60px;""> </div>","null","FL","learning/Slide56.JPG","That was a tob.","",""
"","image-keyboard-response","175","386401","0.0-6.0-0.56","FL","atap00wwqb","1366","768","en","ft08en25","null","","","","","","","","learning/Slide57.JPG","null","","","","",""
"","html-keyboard-response","176","387580","0.0-6.0-1.56","FL","atap00wwqb","1366","768","en","ft08en25","null","","","","learningBlock1","","","","That was a dep.","null","","","","",""
"","html-keyboard-response","177","388600","0.0-6.0-2.56","FL","atap00wwqb","1366","768","en","ft08en25","null","","","","learningBlock1","","","","<div style=""font-size:60px;""> </div>","null","FL","learning/Slide57.JPG","That was a dep.","",""
"","image-keyboard-response","178","388781","0.0-6.0-0.57","FL","atap00wwqb","1366","768","en","ft08en25","null","","","","","","","","learning/Slide58.JPG","null","","","","",""
"","html-keyboard-response","179","389960","0.0-6.0-1.57","FL","atap00wwqb","1366","768","en","ft08en25","null","","","","learningBlock1","","","","That was a wug.","null","","","","",""
"","html-keyboard-response","180","390981","0.0-6.0-2.57","FL","atap00wwqb","1366","768","en","ft08en25","null","","","","learningBlock1","","","","<div style=""font-size:60px;""> </div>","null","FL","learning/Slide58.JPG","That was a wug.","",""
"","image-keyboard-response","181","391160","0.0-6.0-0.58","FL","atap00wwqb","1366","768","en","ft08en25","null","","","","","","","","learning/Slide59.JPG","null","","","","",""
"","html-keyboard-response","182","392340","0.0-6.0-1.58","FL","atap00wwqb","1366","768","en","ft08en25","null","","","","learningBlock1","","","","That was a dep.","null","","","","",""
"","html-keyboard-response","183","393360","0.0-6.0-2.58","FL","atap00wwqb","1366","768","en","ft08en25","null","","","","learningBlock1","","","","<div style=""font-size:60px;""> </div>","null","FL","learning/Slide59.JPG","That was a dep.","",""
"","image-keyboard-response","184","393540","0.0-6.0-0.59","FL","atap00wwqb","1366","768","en","ft08en25","null","","","","","","","","learning/Slide60.JPG","null","","","","",""
"","html-keyboard-response","185","394720","0.0-6.0-1.59","FL","atap00wwqb","1366","768","en","ft08en25","null","","","","learningBlock1","","","","That was a wug.","null","","","","",""
"","html-keyboard-response","186","395740","0.0-6.0-2.59","FL","atap00wwqb","1366","768","en","ft08en25","null","","","","learningBlock1","","","","<div style=""font-size:60px;""> </div>","null","FL","learning/Slide60.JPG","That was a wug.","",""
"","image-keyboard-response","187","395920","0.0-6.0-0.60","FL","atap00wwqb","1366","768","en","ft08en25","null","","","","","","","","learning/Slide61.JPG","null","","","","",""
"","html-keyboard-response","188","397100","0.0-6.0-1.60","FL","atap00wwqb","1366","768","en","ft08en25","null","","","","learningBlock1","","","","That was a bim.","null","","","","",""
"","html-keyboard-response","189","398121","0.0-6.0-2.60","FL","atap00wwqb","1366","768","en","ft08en25","null","","","","learningBlock1","","","","<div style=""font-size:60px;""> </div>","null","FL","learning/Slide61.JPG","That was a bim.","",""
"","image-keyboard-response","190","398300","0.0-6.0-0.61","FL","atap00wwqb","1366","768","en","ft08en25","null","","","","","","","","learning/Slide62.JPG","null","","","","",""
"","html-keyboard-response","191","399480","0.0-6.0-1.61","FL","atap00wwqb","1366","768","en","ft08en25","null","","","","learningBlock1","","","","That was a dep.","null","","","","",""
"","html-keyboard-response","192","400500","0.0-6.0-2.61","FL","atap00wwqb","1366","768","en","ft08en25","null","","","","learningBlock1","","","","<div style=""font-size:60px;""> </div>","null","FL","learning/Slide62.JPG","That was a dep.","",""
"","image-keyboard-response","193","400680","0.0-6.0-0.62","FL","atap00wwqb","1366","768","en","ft08en25","null","","","","","","","","learning/Slide63.JPG","null","","","","",""
"","html-keyboard-response","194","401860","0.0-6.0-1.62","FL","atap00wwqb","1366","768","en","ft08en25","null","","","","learningBlock1","","","","That was a bim.","null","","","","",""
"","html-keyboard-response","195","402880","0.0-6.0-2.62","FL","atap00wwqb","1366","768","en","ft08en25","null","","","","learningBlock1","","","","<div style=""font-size:60px;""> </div>","null","FL","learning/Slide63.JPG","That was a bim.","",""
"","image-keyboard-response","196","403061","0.0-6.0-0.63","FL","atap00wwqb","1366","768","en","ft08en25","null","","","","","","","","learning/Slide64.JPG","null","","","","",""
"","html-keyboard-response","197","404240","0.0-6.0-1.63","FL","atap00wwqb","1366","768","en","ft08en25","null","","","","learningBlock1","","","","That was a tob.","null","","","","",""
"","html-keyboard-response","198","405260","0.0-6.0-2.63","FL","atap00wwqb","1366","768","en","ft08en25","null","","","","learningBlock1","","","","<div style=""font-size:60px;""> </div>","null","FL","learning/Slide64.JPG","That was a tob.","",""
"","image-keyboard-response","199","405441","0.0-6.0-0.64","FL","atap00wwqb","1366","768","en","ft08en25","null","","","","","","","","learning/Slide65.JPG","null","","","","",""
"","html-keyboard-response","200","406618","0.0-6.0-1.64","FL","atap00wwqb","1366","768","en","ft08en25","null","","","","learningBlock1","","","","That was a wug.","null","","","","",""
"","html-keyboard-response","201","407640","0.0-6.0-2.64","FL","atap00wwqb","1366","768","en","ft08en25","null","","","","learningBlock1","","","","<div style=""font-size:60px;""> </div>","null","FL","learning/Slide65.JPG","That was a wug.","",""
"","image-keyboard-response","202","407818","0.0-6.0-0.65","FL","atap00wwqb","1366","768","en","ft08en25","null","","","","","","","","learning/Slide66.JPG","null","","","","",""
"","html-keyboard-response","203","409000","0.0-6.0-1.65","FL","atap00wwqb","1366","768","en","ft08en25","null","","","","learningBlock1","","","","That was a dep.","null","","","","",""
"","html-keyboard-response","204","410018","0.0-6.0-2.65","FL","atap00wwqb","1366","768","en","ft08en25","null","","","","learningBlock1","","","","<div style=""font-size:60px;""> </div>","null","FL","learning/Slide66.JPG","That was a dep.","",""
"","image-keyboard-response","205","410200","0.0-6.0-0.66","FL","atap00wwqb","1366","768","en","ft08en25","null","","","","","","","","learning/Slide67.JPG","null","","","","",""
"","html-keyboard-response","206","411380","0.0-6.0-1.66","FL","atap00wwqb","1366","768","en","ft08en25","null","","","","learningBlock1","","","","That was a tob.","null","","","","",""
"","html-keyboard-response","207","412400","0.0-6.0-2.66","FL","atap00wwqb","1366","768","en","ft08en25","null","","","","learningBlock1","","","","<div style=""font-size:60px;""> </div>","null","FL","learning/Slide67.JPG","That was a tob.","",""
"","image-keyboard-response","208","412581","0.0-6.0-0.67","FL","atap00wwqb","1366","768","en","ft08en25","null","","","","","","","","learning/Slide68.JPG","null","","","","",""
"","html-keyboard-response","209","413760","0.0-6.0-1.67","FL","atap00wwqb","1366","768","en","ft08en25","null","","","","learningBlock1","","","","That was a wug.","null","","","","",""
"","html-keyboard-response","210","414780","0.0-6.0-2.67","FL","atap00wwqb","1366","768","en","ft08en25","null","","","","learningBlock1","","","","<div style=""font-size:60px;""> </div>","null","FL","learning/Slide68.JPG","That was a wug.","",""
"","image-keyboard-response","211","414961","0.0-6.0-0.68","FL","atap00wwqb","1366","768","en","ft08en25","null","","","","","","","","learning/Slide69.JPG","null","","","","",""
"","html-keyboard-response","212","416140","0.0-6.0-1.68","FL","atap00wwqb","1366","768","en","ft08en25","null","","","","learningBlock1","","","","That was a tob.","null","","","","",""
"","html-keyboard-response","213","417160","0.0-6.0-2.68","FL","atap00wwqb","1366","768","en","ft08en25","null","","","","learningBlock1","","","","<div style=""font-size:60px;""> </div>","null","FL","learning/Slide69.JPG","That was a tob.","",""
"","image-keyboard-response","214","417340","0.0-6.0-0.69","FL","atap00wwqb","1366","768","en","ft08en25","null","","","","","","","","learning/Slide70.JPG","null","","","","",""
"","html-keyboard-response","215","418519","0.0-6.0-1.69","FL","atap00wwqb","1366","768","en","ft08en25","null","","","","learningBlock1","","","","That was a dep.","null","","","","",""
"","html-keyboard-response","216","419540","0.0-6.0-2.69","FL","atap00wwqb","1366","768","en","ft08en25","null","","","","learningBlock1","","","","<div style=""font-size:60px;""> </div>","null","FL","learning/Slide70.JPG","That was a dep.","",""
"","image-keyboard-response","217","419718","0.0-6.0-0.70","FL","atap00wwqb","1366","768","en","ft08en25","null","","","","","","","","learning/Slide71.JPG","null","","","","",""
"","html-keyboard-response","218","420901","0.0-6.0-1.70","FL","atap00wwqb","1366","768","en","ft08en25","null","","","","learningBlock1","","","","That was a wug.","null","","","","",""
"","html-keyboard-response","219","421918","0.0-6.0-2.70","FL","atap00wwqb","1366","768","en","ft08en25","null","","","","learningBlock1","","","","<div style=""font-size:60px;""> </div>","null","FL","learning/Slide71.JPG","That was a wug.","",""
"","image-keyboard-response","220","422100","0.0-6.0-0.71","FL","atap00wwqb","1366","768","en","ft08en25","null","","","","","","","","learning/Slide72.JPG","null","","","","",""
"","html-keyboard-response","221","423280","0.0-6.0-1.71","FL","atap00wwqb","1366","768","en","ft08en25","null","","","","learningBlock1","","","","That was a bim.","null","","","","",""
"","html-keyboard-response","222","424300","0.0-6.0-2.71","FL","atap00wwqb","1366","768","en","ft08en25","null","","","","learningBlock1","","","","<div style=""font-size:60px;""> </div>","null","FL","learning/Slide72.JPG","That was a bim.","",""
"","image-keyboard-response","223","424480","0.0-6.0-0.72","FL","atap00wwqb","1366","768","en","ft08en25","null","","","","","","","","learning/Slide73.JPG","null","","","","",""
"","html-keyboard-response","224","425660","0.0-6.0-1.72","FL","atap00wwqb","1366","768","en","ft08en25","null","","","","learningBlock1","","","","That was a wug.","null","","","","",""
"","html-keyboard-response","225","426680","0.0-6.0-2.72","FL","atap00wwqb","1366","768","en","ft08en25","null","","","","learningBlock1","","","","<div style=""font-size:60px;""> </div>","null","FL","learning/Slide73.JPG","That was a wug.","",""
"","image-keyboard-response","226","426861","0.0-6.0-0.73","FL","atap00wwqb","1366","768","en","ft08en25","null","","","","","","","","learning/Slide74.JPG","null","","","","",""
"","html-keyboard-response","227","428040","0.0-6.0-1.73","FL","atap00wwqb","1366","768","en","ft08en25","null","","","","learningBlock1","","","","That was a dep.","null","","","","",""
"","html-keyboard-response","228","429061","0.0-6.0-2.73","FL","atap00wwqb","1366","768","en","ft08en25","null","","","","learningBlock1","","","","<div style=""font-size:60px;""> </div>","null","FL","learning/Slide74.JPG","That was a dep.","",""
"","image-keyboard-response","229","429240","0.0-6.0-0.74","FL","atap00wwqb","1366","768","en","ft08en25","null","","","","","","","","learning/Slide75.JPG","null","","","","",""
"","html-keyboard-response","230","430419","0.0-6.0-1.74","FL","atap00wwqb","1366","768","en","ft08en25","null","","","","learningBlock1","","","","That was a tob.","null","","","","",""
"","html-keyboard-response","231","431440","0.0-6.0-2.74","FL","atap00wwqb","1366","768","en","ft08en25","null","","","","learningBlock1","","","","<div style=""font-size:60px;""> </div>","null","FL","learning/Slide75.JPG","That was a tob.","",""
"","image-keyboard-response","232","431619","0.0-6.0-0.75","FL","atap00wwqb","1366","768","en","ft08en25","null","","","","","","","","learning/Slide76.JPG","null","","","","",""
"","html-keyboard-response","233","432801","0.0-6.0-1.75","FL","atap00wwqb","1366","768","en","ft08en25","null","","","","learningBlock1","","","","That was a bim.","null","","","","",""
"","html-keyboard-response","234","433820","0.0-6.0-2.75","FL","atap00wwqb","1366","768","en","ft08en25","null","","","","learningBlock1","","","","<div style=""font-size:60px;""> </div>","null","FL","learning/Slide76.JPG","That was a bim.","",""
"","image-keyboard-response","235","434173","0.0-6.0-0.76","FL","atap00wwqb","1366","768","en","ft08en25","null","","","","","","","","learning/Slide77.JPG","null","","","","",""
"","html-keyboard-response","236","435360","0.0-6.0-1.76","FL","atap00wwqb","1366","768","en","ft08en25","null","","","","learningBlock1","","","","That was a tob.","null","","","","",""
"","html-keyboard-response","237","436380","0.0-6.0-2.76","FL","atap00wwqb","1366","768","en","ft08en25","null","","","","learningBlock1","","","","<div style=""font-size:60px;""> </div>","null","FL","learning/Slide77.JPG","That was a tob.","",""
"","image-keyboard-response","238","436561","0.0-6.0-0.77","FL","atap00wwqb","1366","768","en","ft08en25","null","","","","","","","","learning/Slide78.JPG","null","","","","",""
"","html-keyboard-response","239","437740","0.0-6.0-1.77","FL","atap00wwqb","1366","768","en","ft08en25","null","","","","learningBlock1","","","","That was a wug.","null","","","","",""
"","html-keyboard-response","240","438760","0.0-6.0-2.77","FL","atap00wwqb","1366","768","en","ft08en25","null","","","","learningBlock1","","","","<div style=""font-size:60px;""> </div>","null","FL","learning/Slide78.JPG","That was a wug.","",""
"","image-keyboard-response","241","438940","0.0-6.0-0.78","FL","atap00wwqb","1366","768","en","ft08en25","null","","","","","","","","learning/Slide79.JPG","null","","","","",""
"","html-keyboard-response","242","440116","0.0-6.0-1.78","FL","atap00wwqb","1366","768","en","ft08en25","null","","","","learningBlock1","","","","That was a bim.","null","","","","",""
"","html-keyboard-response","243","441140","0.0-6.0-2.78","FL","atap00wwqb","1366","768","en","ft08en25","null","","","","learningBlock1","","","","<div style=""font-size:60px;""> </div>","null","FL","learning/Slide79.JPG","That was a bim.","",""
"","image-keyboard-response","244","441317","0.0-6.0-0.79","FL","atap00wwqb","1366","768","en","ft08en25","null","","","","","","","","learning/Slide80.JPG","null","","","","",""
"","html-keyboard-response","245","442491","0.0-6.0-1.79","FL","atap00wwqb","1366","768","en","ft08en25","null","","","","learningBlock1","","","","That was a tob.","null","","","","",""
"","html-keyboard-response","246","443510","0.0-6.0-2.79","FL","atap00wwqb","1366","768","en","ft08en25","null","","","","learningBlock1","","","","<div style=""font-size:60px;""> </div>","null","FL","learning/Slide80.JPG","That was a tob.","",""
"","instructions","247","456197","0.0-7.0","FL","atap00wwqb","1366","768","en","ft08en25","NA","","","[{""page_index"":0,""viewing_time"":12686}]","instructions","","","","","","","","","",""
"","image-keyboard-response","248","456387","0.0-8.0-0.0","FL","atap00wwqb","1366","768","en","ft08en25","null","","","","","","","","learning/Slide81.JPG","null","","","","",""
"","html-keyboard-response","249","457570","0.0-8.0-1.0","FL","atap00wwqb","1366","768","en","ft08en25","null","","","","learningBlock2","","","","That was a wug.","null","","","","",""
"","html-keyboard-response","250","458590","0.0-8.0-2.0","FL","atap00wwqb","1366","768","en","ft08en25","null","","","","learningBlock2","","","","<div style=""font-size:60px;""> </div>","null","FL","learning/Slide81.JPG","That was a wug.","",""
"","image-keyboard-response","251","458770","0.0-8.0-0.1","FL","atap00wwqb","1366","768","en","ft08en25","null","","","","","","","","learning/Slide82.JPG","null","","","","",""
"","html-keyboard-response","252","459950","0.0-8.0-1.1","FL","atap00wwqb","1366","768","en","ft08en25","null","","","","learningBlock2","","","","That was a bim.","null","","","","",""
"","html-keyboard-response","253","460970","0.0-8.0-2.1","FL","atap00wwqb","1366","768","en","ft08en25","null","","","","learningBlock2","","","","<div style=""font-size:60px;""> </div>","null","FL","learning/Slide82.JPG","That was a bim.","",""
"","image-keyboard-response","254","461150","0.0-8.0-0.2","FL","atap00wwqb","1366","768","en","ft08en25","null","","","","","","","","learning/Slide83.JPG","null","","","","",""
"","html-keyboard-response","255","462329","0.0-8.0-1.2","FL","atap00wwqb","1366","768","en","ft08en25","null","","","","learningBlock2","","","","That was a wug.","null","","","","",""
"","html-keyboard-response","256","463350","0.0-8.0-2.2","FL","atap00wwqb","1366","768","en","ft08en25","null","","","","learningBlock2","","","","<div style=""font-size:60px;""> </div>","null","FL","learning/Slide83.JPG","That was a wug.","",""
"","image-keyboard-response","257","463530","0.0-8.0-0.3","FL","atap00wwqb","1366","768","en","ft08en25","null","","","","","","","","learning/Slide84.JPG","null","","","","",""
"","html-keyboard-response","258","464710","0.0-8.0-1.3","FL","atap00wwqb","1366","768","en","ft08en25","null","","","","learningBlock2","","","","That was a dep.","null","","","","",""
"","html-keyboard-response","259","465730","0.0-8.0-2.3","FL","atap00wwqb","1366","768","en","ft08en25","null","","","","learningBlock2","","","","<div style=""font-size:60px;""> </div>","null","FL","learning/Slide84.JPG","That was a dep.","",""
"","image-keyboard-response","260","465910","0.0-8.0-0.4","FL","atap00wwqb","1366","768","en","ft08en25","null","","","","","","","","learning/Slide85.JPG","null","","","","",""
"","html-keyboard-response","261","467090","0.0-8.0-1.4","FL","atap00wwqb","1366","768","en","ft08en25","null","","","","learningBlock2","","","","That was a bim.","null","","","","",""
"","html-keyboard-response","262","468110","0.0-8.0-2.4","FL","atap00wwqb","1366","768","en","ft08en25","null","","","","learningBlock2","","","","<div style=""font-size:60px;""> </div>","null","FL","learning/Slide85.JPG","That was a bim.","",""
"","image-keyboard-response","263","468291","0.0-8.0-0.5","FL","atap00wwqb","1366","768","en","ft08en25","null","","","","","","","","learning/Slide86.JPG","null","","","","",""
"","html-keyboard-response","264","469470","0.0-8.0-1.5","FL","atap00wwqb","1366","768","en","ft08en25","null","","","","learningBlock2","","","","That was a tob.","null","","","","",""
"","html-keyboard-response","265","470490","0.0-8.0-2.5","FL","atap00wwqb","1366","768","en","ft08en25","null","","","","learningBlock2","","","","<div style=""font-size:60px;""> </div>","null","FL","learning/Slide86.JPG","That was a tob.","",""
"","image-keyboard-response","266","470670","0.0-8.0-0.6","FL","atap00wwqb","1366","768","en","ft08en25","null","","","","","","","","learning/Slide87.JPG","null","","","","",""
"","html-keyboard-response","267","471826","0.0-8.0-1.6","FL","atap00wwqb","1366","768","en","ft08en25","null","","","","learningBlock2","","","","That was a wug.","null","","","","",""
"","html-keyboard-response","268","472850","0.0-8.0-2.6","FL","atap00wwqb","1366","768","en","ft08en25","null","","","","learningBlock2","","","","<div style=""font-size:60px;""> </div>","null","FL","learning/Slide87.JPG","That was a wug.","",""
"","image-keyboard-response","269","473027","0.0-8.0-0.7","FL","atap00wwqb","1366","768","en","ft08en25","null","","","","","","","","learning/Slide88.JPG","null","","","","",""
"","html-keyboard-response","270","474210","0.0-8.0-1.7","FL","atap00wwqb","1366","768","en","ft08en25","null","","","","learningBlock2","","","","That was a tob.","null","","","","",""
"","html-keyboard-response","271","475227","0.0-8.0-2.7","FL","atap00wwqb","1366","768","en","ft08en25","null","","","","learningBlock2","","","","<div style=""font-size:60px;""> </div>","null","FL","learning/Slide88.JPG","That was a tob.","",""
"","image-keyboard-response","272","475411","0.0-8.0-0.8","FL","atap00wwqb","1366","768","en","ft08en25","null","","","","","","","","learning/Slide89.JPG","null","","","","",""
"","html-keyboard-response","273","476591","0.0-8.0-1.8","FL","atap00wwqb","1366","768","en","ft08en25","null","","","","learningBlock2","","","","That was a bim.","null","","","","",""
"","html-keyboard-response","274","477610","0.0-8.0-2.8","FL","atap00wwqb","1366","768","en","ft08en25","null","","","","learningBlock2","","","","<div style=""font-size:60px;""> </div>","null","FL","learning/Slide89.JPG","That was a bim.","",""
"","image-keyboard-response","275","477790","0.0-8.0-0.9","FL","atap00wwqb","1366","768","en","ft08en25","null","","","","","","","","learning/Slide90.JPG","null","","","","",""
"","html-keyboard-response","276","478970","0.0-8.0-1.9","FL","atap00wwqb","1366","768","en","ft08en25","null","","","","learningBlock2","","","","That was a dep.","null","","","","",""
"","html-keyboard-response","277","479990","0.0-8.0-2.9","FL","atap00wwqb","1366","768","en","ft08en25","null","","","","learningBlock2","","","","<div style=""font-size:60px;""> </div>","null","FL","learning/Slide90.JPG","That was a dep.","",""
"","image-keyboard-response","278","480170","0.0-8.0-0.10","FL","atap00wwqb","1366","768","en","ft08en25","null","","","","","","","","learning/Slide91.JPG","null","","","","",""
"","html-keyboard-response","279","481350","0.0-8.0-1.10","FL","atap00wwqb","1366","768","en","ft08en25","null","","","","learningBlock2","","","","That was a wug.","null","","","","",""
"","html-keyboard-response","280","482371","0.0-8.0-2.10","FL","atap00wwqb","1366","768","en","ft08en25","null","","","","learningBlock2","","","","<div style=""font-size:60px;""> </div>","null","FL","learning/Slide91.JPG","That was a wug.","",""
"","image-keyboard-response","281","482551","0.0-8.0-0.11","FL","atap00wwqb","1366","768","en","ft08en25","null","","","","","","","","learning/Slide92.JPG","null","","","","",""
"","html-keyboard-response","282","483728","0.0-8.0-1.11","FL","atap00wwqb","1366","768","en","ft08en25","null","","","","learningBlock2","","","","That was a tob.","null","","","","",""
"","html-keyboard-response","283","484751","0.0-8.0-2.11","FL","atap00wwqb","1366","768","en","ft08en25","null","","","","learningBlock2","","","","<div style=""font-size:60px;""> </div>","null","FL","learning/Slide92.JPG","That was a tob.","",""
"","image-keyboard-response","284","484928","0.0-8.0-0.12","FL","atap00wwqb","1366","768","en","ft08en25","null","","","","","","","","learning/Slide93.JPG","null","","","","",""
"","html-keyboard-response","285","486110","0.0-8.0-1.12","FL","atap00wwqb","1366","768","en","ft08en25","null","","","","learningBlock2","","","","That was a bim.","null","","","","",""
"","html-keyboard-response","286","487128","0.0-8.0-2.12","FL","atap00wwqb","1366","768","en","ft08en25","null","","","","learningBlock2","","","","<div style=""font-size:60px;""> </div>","null","FL","learning/Slide93.JPG","That was a bim.","",""
"","image-keyboard-response","287","487310","0.0-8.0-0.13","FL","atap00wwqb","1366","768","en","ft08en25","null","","","","","","","","learning/Slide94.JPG","null","","","","",""
"","html-keyboard-response","288","488490","0.0-8.0-1.13","FL","atap00wwqb","1366","768","en","ft08en25","null","","","","learningBlock2","","","","That was a tob.","null","","","","",""
"","html-keyboard-response","289","489510","0.0-8.0-2.13","FL","atap00wwqb","1366","768","en","ft08en25","null","","","","learningBlock2","","","","<div style=""font-size:60px;""> </div>","null","FL","learning/Slide94.JPG","That was a tob.","",""
"","image-keyboard-response","290","489690","0.0-8.0-0.14","FL","atap00wwqb","1366","768","en","ft08en25","null","","","","","","","","learning/Slide95.JPG","null","","","","",""
"","html-keyboard-response","291","490870","0.0-8.0-1.14","FL","atap00wwqb","1366","768","en","ft08en25","null","","","","learningBlock2","","","","That was a wug.","null","","","","",""
"","html-keyboard-response","292","491890","0.0-8.0-2.14","FL","atap00wwqb","1366","768","en","ft08en25","null","","","","learningBlock2","","","","<div style=""font-size:60px;""> </div>","null","FL","learning/Slide95.JPG","That was a wug.","",""
"","image-keyboard-response","293","492070","0.0-8.0-0.15","FL","atap00wwqb","1366","768","en","ft08en25","null","","","","","","","","learning/Slide96.JPG","null","","","","",""
"","html-keyboard-response","294","493250","0.0-8.0-1.15","FL","atap00wwqb","1366","768","en","ft08en25","null","","","","learningBlock2","","","","That was a tob.","null","","","","",""
"","html-keyboard-response","295","494270","0.0-8.0-2.15","FL","atap00wwqb","1366","768","en","ft08en25","null","","","","learningBlock2","","","","<div style=""font-size:60px;""> </div>","null","FL","learning/Slide96.JPG","That was a tob.","",""
"","image-keyboard-response","296","494450","0.0-8.0-0.16","FL","atap00wwqb","1366","768","en","ft08en25","null","","","","","","","","learning/Slide97.JPG","null","","","","",""
"","html-keyboard-response","297","495630","0.0-8.0-1.16","FL","atap00wwqb","1366","768","en","ft08en25","null","","","","learningBlock2","","","","That was a dep.","null","","","","",""
"","html-keyboard-response","298","496650","0.0-8.0-2.16","FL","atap00wwqb","1366","768","en","ft08en25","null","","","","learningBlock2","","","","<div style=""font-size:60px;""> </div>","null","FL","learning/Slide97.JPG","That was a dep.","",""
"","image-keyboard-response","299","496831","0.0-8.0-0.17","FL","atap00wwqb","1366","768","en","ft08en25","null","","","","","","","","learning/Slide98.JPG","null","","","","",""
"","html-keyboard-response","300","498010","0.0-8.0-1.17","FL","atap00wwqb","1366","768","en","ft08en25","null","","","","learningBlock2","","","","That was a bim.","null","","","","",""
"","html-keyboard-response","301","499030","0.0-8.0-2.17","FL","atap00wwqb","1366","768","en","ft08en25","null","","","","learningBlock2","","","","<div style=""font-size:60px;""> </div>","null","FL","learning/Slide98.JPG","That was a bim.","",""
"","image-keyboard-response","302","499210","0.0-8.0-0.18","FL","atap00wwqb","1366","768","en","ft08en25","null","","","","","","","","learning/Slide99.JPG","null","","","","",""
"","html-keyboard-response","303","500390","0.0-8.0-1.18","FL","atap00wwqb","1366","768","en","ft08en25","null","","","","learningBlock2","","","","That was a dep.","null","","","","",""
"","html-keyboard-response","304","501410","0.0-8.0-2.18","FL","atap00wwqb","1366","768","en","ft08en25","null","","","","learningBlock2","","","","<div style=""font-size:60px;""> </div>","null","FL","learning/Slide99.JPG","That was a dep.","",""
"","image-keyboard-response","305","501590","0.0-8.0-0.19","FL","atap00wwqb","1366","768","en","ft08en25","null","","","","","","","","learning/Slide100.JPG","null","","","","",""
"","html-keyboard-response","306","502770","0.0-8.0-1.19","FL","atap00wwqb","1366","768","en","ft08en25","null","","","","learningBlock2","","","","That was a bim.","null","","","","",""
"","html-keyboard-response","307","503790","0.0-8.0-2.19","FL","atap00wwqb","1366","768","en","ft08en25","null","","","","learningBlock2","","","","<div style=""font-size:60px;""> </div>","null","FL","learning/Slide100.JPG","That was a bim.","",""
"","image-keyboard-response","308","503971","0.0-8.0-0.20","FL","atap00wwqb","1366","768","en","ft08en25","null","","","","","","","","learning/Slide101.JPG","null","","","","",""
"","html-keyboard-response","309","505150","0.0-8.0-1.20","FL","atap00wwqb","1366","768","en","ft08en25","null","","","","learningBlock2","","","","That was a tob.","null","","","","",""
"","html-keyboard-response","310","506170","0.0-8.0-2.20","FL","atap00wwqb","1366","768","en","ft08en25","null","","","","learningBlock2","","","","<div style=""font-size:60px;""> </div>","null","FL","learning/Slide101.JPG","That was a tob.","",""
"","image-keyboard-response","311","506350","0.0-8.0-0.21","FL","atap00wwqb","1366","768","en","ft08en25","null","","","","","","","","learning/Slide102.JPG","null","","","","",""
"","html-keyboard-response","312","507530","0.0-8.0-1.21","FL","atap00wwqb","1366","768","en","ft08en25","null","","","","learningBlock2","","","","That was a bim.","null","","","","",""
"","html-keyboard-response","313","508550","0.0-8.0-2.21","FL","atap00wwqb","1366","768","en","ft08en25","null","","","","learningBlock2","","","","<div style=""font-size:60px;""> </div>","null","FL","learning/Slide102.JPG","That was a bim.","",""
"","image-keyboard-response","314","508731","0.0-8.0-0.22","FL","atap00wwqb","1366","768","en","ft08en25","null","","","","","","","","learning/Slide103.JPG","null","","","","",""
"","html-keyboard-response","315","509910","0.0-8.0-1.22","FL","atap00wwqb","1366","768","en","ft08en25","null","","","","learningBlock2","","","","That was a dep.","null","","","","",""
"","html-keyboard-response","316","510930","0.0-8.0-2.22","FL","atap00wwqb","1366","768","en","ft08en25","null","","","","learningBlock2","","","","<div style=""font-size:60px;""> </div>","null","FL","learning/Slide103.JPG","That was a dep.","",""
"","image-keyboard-response","317","511111","0.0-8.0-0.23","FL","atap00wwqb","1366","768","en","ft08en25","null","","","","","","","","learning/Slide104.JPG","null","","","","",""
"","html-keyboard-response","318","512290","0.0-8.0-1.23","FL","atap00wwqb","1366","768","en","ft08en25","null","","","","learningBlock2","","","","That was a tob.","null","","","","",""
"","html-keyboard-response","319","513310","0.0-8.0-2.23","FL","atap00wwqb","1366","768","en","ft08en25","null","","","","learningBlock2","","","","<div style=""font-size:60px;""> </div>","null","FL","learning/Slide104.JPG","That was a tob.","",""
"","image-keyboard-response","320","513490","0.0-8.0-0.24","FL","atap00wwqb","1366","768","en","ft08en25","null","","","","","","","","learning/Slide105.JPG","null","","","","",""
"","html-keyboard-response","321","514670","0.0-8.0-1.24","FL","atap00wwqb","1366","768","en","ft08en25","null","","","","learningBlock2","","","","That was a dep.","null","","","","",""
"","html-keyboard-response","322","515690","0.0-8.0-2.24","FL","atap00wwqb","1366","768","en","ft08en25","null","","","","learningBlock2","","","","<div style=""font-size:60px;""> </div>","null","FL","learning/Slide105.JPG","That was a dep.","",""
"","image-keyboard-response","323","515870","0.0-8.0-0.25","FL","atap00wwqb","1366","768","en","ft08en25","null","","","","","","","","learning/Slide106.JPG","null","","","","",""
"","html-keyboard-response","324","517050","0.0-8.0-1.25","FL","atap00wwqb","1366","768","en","ft08en25","null","","","","learningBlock2","","","","That was a wug.","null","","","","",""
"","html-keyboard-response","325","518070","0.0-8.0-2.25","FL","atap00wwqb","1366","768","en","ft08en25","null","","","","learningBlock2","","","","<div style=""font-size:60px;""> </div>","null","FL","learning/Slide106.JPG","That was a wug.","",""
"","image-keyboard-response","326","518251","0.0-8.0-0.26","FL","atap00wwqb","1366","768","en","ft08en25","null","","","","","","","","learning/Slide107.JPG","null","","","","",""
"","html-keyboard-response","327","519429","0.0-8.0-1.26","FL","atap00wwqb","1366","768","en","ft08en25","null","","","","learningBlock2","","","","That was a bim.","null","","","","",""
"","html-keyboard-response","328","520450","0.0-8.0-2.26","FL","atap00wwqb","1366","768","en","ft08en25","null","","","","learningBlock2","","","","<div style=""font-size:60px;""> </div>","null","FL","learning/Slide107.JPG","That was a bim.","",""
"","image-keyboard-response","329","520630","0.0-8.0-0.27","FL","atap00wwqb","1366","768","en","ft08en25","null","","","","","","","","learning/Slide108.JPG","null","","","","",""
"","html-keyboard-response","330","521809","0.0-8.0-1.27","FL","atap00wwqb","1366","768","en","ft08en25","null","","","","learningBlock2","","","","That was a dep.","null","","","","",""
"","html-keyboard-response","331","522830","0.0-8.0-2.27","FL","atap00wwqb","1366","768","en","ft08en25","null","","","","learningBlock2","","","","<div style=""font-size:60px;""> </div>","null","FL","learning/Slide108.JPG","That was a dep.","",""
"","image-keyboard-response","332","523010","0.0-8.0-0.28","FL","atap00wwqb","1366","768","en","ft08en25","null","","","","","","","","learning/Slide109.JPG","null","","","","",""
"","html-keyboard-response","333","524190","0.0-8.0-1.28","FL","atap00wwqb","1366","768","en","ft08en25","null","","","","learningBlock2","","","","That was a wug.","null","","","","",""
"","html-keyboard-response","334","525210","0.0-8.0-2.28","FL","atap00wwqb","1366","768","en","ft08en25","null","","","","learningBlock2","","","","<div style=""font-size:60px;""> </div>","null","FL","learning/Slide109.JPG","That was a wug.","",""
"","image-keyboard-response","335","525390","0.0-8.0-0.29","FL","atap00wwqb","1366","768","en","ft08en25","null","","","","","","","","learning/Slide110.JPG","null","","","","",""
"","html-keyboard-response","336","526570","0.0-8.0-1.29","FL","atap00wwqb","1366","768","en","ft08en25","null","","","","learningBlock2","","","","That was a bim.","null","","","","",""
"","html-keyboard-response","337","527590","0.0-8.0-2.29","FL","atap00wwqb","1366","768","en","ft08en25","null","","","","learningBlock2","","","","<div style=""font-size:60px;""> </div>","null","FL","learning/Slide110.JPG","That was a bim.","",""
"","image-keyboard-response","338","527770","0.0-8.0-0.30","FL","atap00wwqb","1366","768","en","ft08en25","null","","","","","","","","learning/Slide111.JPG","null","","","","",""
"","html-keyboard-response","339","528950","0.0-8.0-1.30","FL","atap00wwqb","1366","768","en","ft08en25","null","","","","learningBlock2","","","","That was a tob.","null","","","","",""
"","html-keyboard-response","340","529970","0.0-8.0-2.30","FL","atap00wwqb","1366","768","en","ft08en25","null","","","","learningBlock2","","","","<div style=""font-size:60px;""> </div>","null","FL","learning/Slide111.JPG","That was a tob.","",""
"","image-keyboard-response","341","530151","0.0-8.0-0.31","FL","atap00wwqb","1366","768","en","ft08en25","null","","","","","","","","learning/Slide112.JPG","null","","","","",""
"","html-keyboard-response","342","531330","0.0-8.0-1.31","FL","atap00wwqb","1366","768","en","ft08en25","null","","","","learningBlock2","","","","That was a wug.","null","","","","",""
"","html-keyboard-response","343","532350","0.0-8.0-2.31","FL","atap00wwqb","1366","768","en","ft08en25","null","","","","learningBlock2","","","","<div style=""font-size:60px;""> </div>","null","FL","learning/Slide112.JPG","That was a wug.","",""
"","image-keyboard-response","344","532530","0.0-8.0-0.32","FL","atap00wwqb","1366","768","en","ft08en25","null","","","","","","","","learning/Slide113.JPG","null","","","","",""
"","html-keyboard-response","345","533710","0.0-8.0-1.32","FL","atap00wwqb","1366","768","en","ft08en25","null","","","","learningBlock2","","","","That was a tob.","null","","","","",""
"","html-keyboard-response","346","534730","0.0-8.0-2.32","FL","atap00wwqb","1366","768","en","ft08en25","null","","","","learningBlock2","","","","<div style=""font-size:60px;""> </div>","null","FL","learning/Slide113.JPG","That was a tob.","",""
"","image-keyboard-response","347","534930","0.0-8.0-0.33","FL","atap00wwqb","1366","768","en","ft08en25","null","","","","","","","","learning/Slide114.JPG","null","","","","",""
"","html-keyboard-response","348","536109","0.0-8.0-1.33","FL","atap00wwqb","1366","768","en","ft08en25","null","","","","learningBlock2","","","","That was a wug.","null","","","","",""
"","html-keyboard-response","349","537130","0.0-8.0-2.33","FL","atap00wwqb","1366","768","en","ft08en25","null","","","","learningBlock2","","","","<div style=""font-size:60px;""> </div>","null","FL","learning/Slide114.JPG","That was a wug.","",""
"","image-keyboard-response","350","537310","0.0-8.0-0.34","FL","atap00wwqb","1366","768","en","ft08en25","null","","","","","","","","learning/Slide115.JPG","null","","","","",""
"","html-keyboard-response","351","538490","0.0-8.0-1.34","FL","atap00wwqb","1366","768","en","ft08en25","null","","","","learningBlock2","","","","That was a bim.","null","","","","",""
"","html-keyboard-response","352","539506","0.0-8.0-2.34","FL","atap00wwqb","1366","768","en","ft08en25","null","","","","learningBlock2","","","","<div style=""font-size:60px;""> </div>","null","FL","learning/Slide115.JPG","That was a bim.","",""
"","image-keyboard-response","353","539690","0.0-8.0-0.35","FL","atap00wwqb","1366","768","en","ft08en25","null","","","","","","","","learning/Slide116.JPG","null","","","","",""
"","html-keyboard-response","354","540870","0.0-8.0-1.35","FL","atap00wwqb","1366","768","en","ft08en25","null","","","","learningBlock2","","","","That was a dep.","null","","","","",""
"","html-keyboard-response","355","541890","0.0-8.0-2.35","FL","atap00wwqb","1366","768","en","ft08en25","null","","","","learningBlock2","","","","<div style=""font-size:60px;""> </div>","null","FL","learning/Slide116.JPG","That was a dep.","",""
"","image-keyboard-response","356","542080","0.0-8.0-0.36","FL","atap00wwqb","1366","768","en","ft08en25","null","","","","","","","","learning/Slide117.JPG","null","","","","",""
"","html-keyboard-response","357","543260","0.0-8.0-1.36","FL","atap00wwqb","1366","768","en","ft08en25","null","","","","learningBlock2","","","","That was a tob.","null","","","","",""
"","html-keyboard-response","358","544280","0.0-8.0-2.36","FL","atap00wwqb","1366","768","en","ft08en25","null","","","","learningBlock2","","","","<div style=""font-size:60px;""> </div>","null","FL","learning/Slide117.JPG","That was a tob.","",""
"","image-keyboard-response","359","544461","0.0-8.0-0.37","FL","atap00wwqb","1366","768","en","ft08en25","null","","","","","","","","learning/Slide118.JPG","null","","","","",""
"","html-keyboard-response","360","545640","0.0-8.0-1.37","FL","atap00wwqb","1366","768","en","ft08en25","null","","","","learningBlock2","","","","That was a dep.","null","","","","",""
"","html-keyboard-response","361","546661","0.0-8.0-2.37","FL","atap00wwqb","1366","768","en","ft08en25","null","","","","learningBlock2","","","","<div style=""font-size:60px;""> </div>","null","FL","learning/Slide118.JPG","That was a dep.","",""
"","image-keyboard-response","362","546840","0.0-8.0-0.38","FL","atap00wwqb","1366","768","en","ft08en25","null","","","","","","","","learning/Slide119.JPG","null","","","","",""
"","html-keyboard-response","363","548020","0.0-8.0-1.38","FL","atap00wwqb","1366","768","en","ft08en25","null","","","","learningBlock2","","","","That was a wug.","null","","","","",""
"","html-keyboard-response","364","549040","0.0-8.0-2.38","FL","atap00wwqb","1366","768","en","ft08en25","null","","","","learningBlock2","","","","<div style=""font-size:60px;""> </div>","null","FL","learning/Slide119.JPG","That was a wug.","",""
"","image-keyboard-response","365","549220","0.0-8.0-0.39","FL","atap00wwqb","1366","768","en","ft08en25","null","","","","","","","","learning/Slide120.JPG","null","","","","",""
"","html-keyboard-response","366","550400","0.0-8.0-1.39","FL","atap00wwqb","1366","768","en","ft08en25","null","","","","learningBlock2","","","","That was a dep.","null","","","","",""
"","html-keyboard-response","367","551420","0.0-8.0-2.39","FL","atap00wwqb","1366","768","en","ft08en25","null","","","","learningBlock2","","","","<div style=""font-size:60px;""> </div>","null","FL","learning/Slide120.JPG","That was a dep.","",""
"","image-keyboard-response","368","551600","0.0-8.0-0.40","FL","atap00wwqb","1366","768","en","ft08en25","null","","","","","","","","learning/Slide121.JPG","null","","","","",""
"","html-keyboard-response","369","552780","0.0-8.0-1.40","FL","atap00wwqb","1366","768","en","ft08en25","null","","","","learningBlock2","","","","That was a bim.","null","","","","",""
"","html-keyboard-response","370","553800","0.0-8.0-2.40","FL","atap00wwqb","1366","768","en","ft08en25","null","","","","learningBlock2","","","","<div style=""font-size:60px;""> </div>","null","FL","learning/Slide121.JPG","That was a bim.","",""
"","image-keyboard-response","371","554072","0.0-8.0-0.41","FL","atap00wwqb","1366","768","en","ft08en25","null","","","","","","","","learning/Slide122.JPG","null","","","","",""
"","html-keyboard-response","372","555260","0.0-8.0-1.41","FL","atap00wwqb","1366","768","en","ft08en25","null","","","","learningBlock2","","","","That was a wug.","null","","","","",""
"","html-keyboard-response","373","556280","0.0-8.0-2.41","FL","atap00wwqb","1366","768","en","ft08en25","null","","","","learningBlock2","","","","<div style=""font-size:60px;""> </div>","null","FL","learning/Slide122.JPG","That was a wug.","",""
"","image-keyboard-response","374","556460","0.0-8.0-0.42","FL","atap00wwqb","1366","768","en","ft08en25","null","","","","","","","","learning/Slide123.JPG","null","","","","",""
"","html-keyboard-response","375","557640","0.0-8.0-1.42","FL","atap00wwqb","1366","768","en","ft08en25","null","","","","learningBlock2","","","","That was a bim.","null","","","","",""
"","html-keyboard-response","376","558660","0.0-8.0-2.42","FL","atap00wwqb","1366","768","en","ft08en25","null","","","","learningBlock2","","","","<div style=""font-size:60px;""> </div>","null","FL","learning/Slide123.JPG","That was a bim.","",""
"","image-keyboard-response","377","558840","0.0-8.0-0.43","FL","atap00wwqb","1366","768","en","ft08en25","null","","","","","","","","learning/Slide124.JPG","null","","","","",""
"","html-keyboard-response","378","560020","0.0-8.0-1.43","FL","atap00wwqb","1366","768","en","ft08en25","null","","","","learningBlock2","","","","That was a tob.","null","","","","",""
"","html-keyboard-response","379","561040","0.0-8.0-2.43","FL","atap00wwqb","1366","768","en","ft08en25","null","","","","learningBlock2","","","","<div style=""font-size:60px;""> </div>","null","FL","learning/Slide124.JPG","That was a tob.","",""
"","image-keyboard-response","380","561241","0.0-8.0-0.44","FL","atap00wwqb","1366","768","en","ft08en25","null","","","","","","","","learning/Slide125.JPG","null","","","","",""
"","html-keyboard-response","381","562417","0.0-8.0-1.44","FL","atap00wwqb","1366","768","en","ft08en25","null","","","","learningBlock2","","","","That was a bim.","null","","","","",""
"","html-keyboard-response","382","563440","0.0-8.0-2.44","FL","atap00wwqb","1366","768","en","ft08en25","null","","","","learningBlock2","","","","<div style=""font-size:60px;""> </div>","null","FL","learning/Slide125.JPG","That was a bim.","",""
"","image-keyboard-response","383","563617","0.0-8.0-0.45","FL","atap00wwqb","1366","768","en","ft08en25","null","","","","","","","","learning/Slide126.JPG","null","","","","",""
"","html-keyboard-response","384","564800","0.0-8.0-1.45","FL","atap00wwqb","1366","768","en","ft08en25","null","","","","learningBlock2","","","","That was a tob.","null","","","","",""
"","html-keyboard-response","385","565814","0.0-8.0-2.45","FL","atap00wwqb","1366","768","en","ft08en25","null","","","","learningBlock2","","","","<div style=""font-size:60px;""> </div>","null","FL","learning/Slide126.JPG","That was a tob.","",""
"","image-keyboard-response","386","566010","0.0-8.0-0.46","FL","atap00wwqb","1366","768","en","ft08en25","null","","","","","","","","learning/Slide127.JPG","null","","","","",""
"","html-keyboard-response","387","567180","0.0-8.0-1.46","FL","atap00wwqb","1366","768","en","ft08en25","null","","","","learningBlock2","","","","That was a dep.","null","","","","",""
"","html-keyboard-response","388","568200","0.0-8.0-2.46","FL","atap00wwqb","1366","768","en","ft08en25","null","","","","learningBlock2","","","","<div style=""font-size:60px;""> </div>","null","FL","learning/Slide127.JPG","That was a dep.","",""
"","image-keyboard-response","389","568381","0.0-8.0-0.47","FL","atap00wwqb","1366","768","en","ft08en25","null","","","","","","","","learning/Slide128.JPG","null","","","","",""
"","html-keyboard-response","390","569537","0.0-8.0-1.47","FL","atap00wwqb","1366","768","en","ft08en25","null","","","","learningBlock2","","","","That was a wug.","null","","","","",""
"","html-keyboard-response","391","570560","0.0-8.0-2.47","FL","atap00wwqb","1366","768","en","ft08en25","null","","","","learningBlock2","","","","<div style=""font-size:60px;""> </div>","null","FL","learning/Slide128.JPG","That was a wug.","",""
"","image-keyboard-response","392","570737","0.0-8.0-0.48","FL","atap00wwqb","1366","768","en","ft08en25","null","","","","","","","","learning/Slide129.JPG","null","","","","",""
"","html-keyboard-response","393","571920","0.0-8.0-1.48","FL","atap00wwqb","1366","768","en","ft08en25","null","","","","learningBlock2","","","","That was a tob.","null","","","","",""
"","html-keyboard-response","394","572937","0.0-8.0-2.48","FL","atap00wwqb","1366","768","en","ft08en25","null","","","","learningBlock2","","","","<div style=""font-size:60px;""> </div>","null","FL","learning/Slide129.JPG","That was a tob.","",""
"","image-keyboard-response","395","573120","0.0-8.0-0.49","FL","atap00wwqb","1366","768","en","ft08en25","null","","","","","","","","learning/Slide130.JPG","null","","","","",""
"","html-keyboard-response","396","574300","0.0-8.0-1.49","FL","atap00wwqb","1366","768","en","ft08en25","null","","","","learningBlock2","","","","That was a wug.","null","","","","",""
"","html-keyboard-response","397","575320","0.0-8.0-2.49","FL","atap00wwqb","1366","768","en","ft08en25","null","","","","learningBlock2","","","","<div style=""font-size:60px;""> </div>","null","FL","learning/Slide130.JPG","That was a wug.","",""
"","image-keyboard-response","398","575500","0.0-8.0-0.50","FL","atap00wwqb","1366","768","en","ft08en25","null","","","","","","","","learning/Slide131.JPG","null","","","","",""
"","html-keyboard-response","399","576680","0.0-8.0-1.50","FL","atap00wwqb","1366","768","en","ft08en25","null","","","","learningBlock2","","","","That was a bim.","null","","","","",""
"","html-keyboard-response","400","577700","0.0-8.0-2.50","FL","atap00wwqb","1366","768","en","ft08en25","null","","","","learningBlock2","","","","<div style=""font-size:60px;""> </div>","null","FL","learning/Slide131.JPG","That was a bim.","",""
"","image-keyboard-response","401","577880","0.0-8.0-0.51","FL","atap00wwqb","1366","768","en","ft08en25","null","","","","","","","","learning/Slide132.JPG","null","","","","",""
"","html-keyboard-response","402","579060","0.0-8.0-1.51","FL","atap00wwqb","1366","768","en","ft08en25","null","","","","learningBlock2","","","","That was a dep.","null","","","","",""
"","html-keyboard-response","403","580080","0.0-8.0-2.51","FL","atap00wwqb","1366","768","en","ft08en25","null","","","","learningBlock2","","","","<div style=""font-size:60px;""> </div>","null","FL","learning/Slide132.JPG","That was a dep.","",""
"","image-keyboard-response","404","580261","0.0-8.0-0.52","FL","atap00wwqb","1366","768","en","ft08en25","null","","","","","","","","learning/Slide133.JPG","null","","","","",""
"","html-keyboard-response","405","581438","0.0-8.0-1.52","FL","atap00wwqb","1366","768","en","ft08en25","null","","","","learningBlock2","","","","That was a tob.","null","","","","",""
"","html-keyboard-response","406","582460","0.0-8.0-2.52","FL","atap00wwqb","1366","768","en","ft08en25","null","","","","learningBlock2","","","","<div style=""font-size:60px;""> </div>","null","FL","learning/Slide133.JPG","That was a tob.","",""
"","image-keyboard-response","407","582640","0.0-8.0-0.53","FL","atap00wwqb","1366","768","en","ft08en25","null","","","","","","","","learning/Slide134.JPG","null","","","","",""
"","html-keyboard-response","408","583820","0.0-8.0-1.53","FL","atap00wwqb","1366","768","en","ft08en25","null","","","","learningBlock2","","","","That was a dep.","null","","","","",""
"","html-keyboard-response","409","584840","0.0-8.0-2.53","FL","atap00wwqb","1366","768","en","ft08en25","null","","","","learningBlock2","","","","<div style=""font-size:60px;""> </div>","null","FL","learning/Slide134.JPG","That was a dep.","",""
"","image-keyboard-response","410","585021","0.0-8.0-0.54","FL","atap00wwqb","1366","768","en","ft08en25","null","","","","","","","","learning/Slide135.JPG","null","","","","",""
"","html-keyboard-response","411","586200","0.0-8.0-1.54","FL","atap00wwqb","1366","768","en","ft08en25","null","","","","learningBlock2","","","","That was a tob.","null","","","","",""
"","html-keyboard-response","412","587220","0.0-8.0-2.54","FL","atap00wwqb","1366","768","en","ft08en25","null","","","","learningBlock2","","","","<div style=""font-size:60px;""> </div>","null","FL","learning/Slide135.JPG","That was a tob.","",""
"","image-keyboard-response","413","587400","0.0-8.0-0.55","FL","atap00wwqb","1366","768","en","ft08en25","null","","","","","","","","learning/Slide136.JPG","null","","","","",""
"","html-keyboard-response","414","588580","0.0-8.0-1.55","FL","atap00wwqb","1366","768","en","ft08en25","null","","","","learningBlock2","","","","That was a wug.","null","","","","",""
"","html-keyboard-response","415","589600","0.0-8.0-2.55","FL","atap00wwqb","1366","768","en","ft08en25","null","","","","learningBlock2","","","","<div style=""font-size:60px;""> </div>","null","FL","learning/Slide136.JPG","That was a wug.","",""
"","image-keyboard-response","416","589780","0.0-8.0-0.56","FL","atap00wwqb","1366","768","en","ft08en25","null","","","","","","","","learning/Slide137.JPG","null","","","","",""
"","html-keyboard-response","417","590960","0.0-8.0-1.56","FL","atap00wwqb","1366","768","en","ft08en25","null","","","","learningBlock2","","","","That was a tob.","null","","","","",""
"","html-keyboard-response","418","591980","0.0-8.0-2.56","FL","atap00wwqb","1366","768","en","ft08en25","null","","","","learningBlock2","","","","<div style=""font-size:60px;""> </div>","null","FL","learning/Slide137.JPG","That was a tob.","",""
"","image-keyboard-response","419","592160","0.0-8.0-0.57","FL","atap00wwqb","1366","768","en","ft08en25","null","","","","","","","","learning/Slide138.JPG","null","","","","",""
"","html-keyboard-response","420","593340","0.0-8.0-1.57","FL","atap00wwqb","1366","768","en","ft08en25","null","","","","learningBlock2","","","","That was a bim.","null","","","","",""
"","html-keyboard-response","421","594360","0.0-8.0-2.57","FL","atap00wwqb","1366","768","en","ft08en25","null","","","","learningBlock2","","","","<div style=""font-size:60px;""> </div>","null","FL","learning/Slide138.JPG","That was a bim.","",""
"","image-keyboard-response","422","594540","0.0-8.0-0.58","FL","atap00wwqb","1366","768","en","ft08en25","null","","","","","","","","learning/Slide139.JPG","null","","","","",""
"","html-keyboard-response","423","595720","0.0-8.0-1.58","FL","atap00wwqb","1366","768","en","ft08en25","null","","","","learningBlock2","","","","That was a wug.","null","","","","",""
"","html-keyboard-response","424","596740","0.0-8.0-2.58","FL","atap00wwqb","1366","768","en","ft08en25","null","","","","learningBlock2","","","","<div style=""font-size:60px;""> </div>","null","FL","learning/Slide139.JPG","That was a wug.","",""
"","image-keyboard-response","425","596920","0.0-8.0-0.59","FL","atap00wwqb","1366","768","en","ft08en25","null","","","","","","","","learning/Slide140.JPG","null","","","","",""
"","html-keyboard-response","426","598100","0.0-8.0-1.59","FL","atap00wwqb","1366","768","en","ft08en25","null","","","","learningBlock2","","","","That was a dep.","null","","","","",""
"","html-keyboard-response","427","599120","0.0-8.0-2.59","FL","atap00wwqb","1366","768","en","ft08en25","null","","","","learningBlock2","","","","<div style=""font-size:60px;""> </div>","null","FL","learning/Slide140.JPG","That was a dep.","",""
"","image-keyboard-response","428","599300","0.0-8.0-0.60","FL","atap00wwqb","1366","768","en","ft08en25","null","","","","","","","","learning/Slide141.JPG","null","","","","",""
"","html-keyboard-response","429","600480","0.0-8.0-1.60","FL","atap00wwqb","1366","768","en","ft08en25","null","","","","learningBlock2","","","","That was a tob.","null","","","","",""
"","html-keyboard-response","430","601500","0.0-8.0-2.60","FL","atap00wwqb","1366","768","en","ft08en25","null","","","","learningBlock2","","","","<div style=""font-size:60px;""> </div>","null","FL","learning/Slide141.JPG","That was a tob.","",""
"","image-keyboard-response","431","601680","0.0-8.0-0.61","FL","atap00wwqb","1366","768","en","ft08en25","null","","","","","","","","learning/Slide142.JPG","null","","","","",""
"","html-keyboard-response","432","602860","0.0-8.0-1.61","FL","atap00wwqb","1366","768","en","ft08en25","null","","","","learningBlock2","","","","That was a wug.","null","","","","",""
"","html-keyboard-response","433","603880","0.0-8.0-2.61","FL","atap00wwqb","1366","768","en","ft08en25","null","","","","learningBlock2","","","","<div style=""font-size:60px;""> </div>","null","FL","learning/Slide142.JPG","That was a wug.","",""
"","image-keyboard-response","434","604060","0.0-8.0-0.62","FL","atap00wwqb","1366","768","en","ft08en25","null","","","","","","","","learning/Slide143.JPG","null","","","","",""
"","html-keyboard-response","435","605240","0.0-8.0-1.62","FL","atap00wwqb","1366","768","en","ft08en25","null","","","","learningBlock2","","","","That was a bim.","null","","","","",""
"","html-keyboard-response","436","606260","0.0-8.0-2.62","FL","atap00wwqb","1366","768","en","ft08en25","null","","","","learningBlock2","","","","<div style=""font-size:60px;""> </div>","null","FL","learning/Slide143.JPG","That was a bim.","",""
"","image-keyboard-response","437","606440","0.0-8.0-0.63","FL","atap00wwqb","1366","768","en","ft08en25","null","","","","","","","","learning/Slide144.JPG","null","","","","",""
"","html-keyboard-response","438","607621","0.0-8.0-1.63","FL","atap00wwqb","1366","768","en","ft08en25","null","","","","learningBlock2","","","","That was a dep.","null","","","","",""
"","html-keyboard-response","439","608640","0.0-8.0-2.63","FL","atap00wwqb","1366","768","en","ft08en25","null","","","","learningBlock2","","","","<div style=""font-size:60px;""> </div>","null","FL","learning/Slide144.JPG","That was a dep.","",""
"","image-keyboard-response","440","608821","0.0-8.0-0.64","FL","atap00wwqb","1366","768","en","ft08en25","null","","","","","","","","learning/Slide145.JPG","null","","","","",""
"","html-keyboard-response","441","610000","0.0-8.0-1.64","FL","atap00wwqb","1366","768","en","ft08en25","null","","","","learningBlock2","","","","That was a bim.","null","","","","",""
"","html-keyboard-response","442","611020","0.0-8.0-2.64","FL","atap00wwqb","1366","768","en","ft08en25","null","","","","learningBlock2","","","","<div style=""font-size:60px;""> </div>","null","FL","learning/Slide145.JPG","That was a bim.","",""
"","image-keyboard-response","443","611200","0.0-8.0-0.65","FL","atap00wwqb","1366","768","en","ft08en25","null","","","","","","","","learning/Slide146.JPG","null","","","","",""
"","html-keyboard-response","444","612361","0.0-8.0-1.65","FL","atap00wwqb","1366","768","en","ft08en25","null","","","","learningBlock2","","","","That was a tob.","null","","","","",""
"","html-keyboard-response","445","613380","0.0-8.0-2.65","FL","atap00wwqb","1366","768","en","ft08en25","null","","","","learningBlock2","","","","<div style=""font-size:60px;""> </div>","null","FL","learning/Slide146.JPG","That was a tob.","",""
"","image-keyboard-response","446","613742","0.0-8.0-0.66","FL","atap00wwqb","1366","768","en","ft08en25","null","","","","","","","","learning/Slide147.JPG","null","","","","",""
"","html-keyboard-response","447","614920","0.0-8.0-1.66","FL","atap00wwqb","1366","768","en","ft08en25","null","","","","learningBlock2","","","","That was a wug.","null","","","","",""
"","html-keyboard-response","448","615930","0.0-8.0-2.66","FL","atap00wwqb","1366","768","en","ft08en25","null","","","","learningBlock2","","","","<div style=""font-size:60px;""> </div>","null","FL","learning/Slide147.JPG","That was a wug.","",""
"","image-keyboard-response","449","616110","0.0-8.0-0.67","FL","atap00wwqb","1366","768","en","ft08en25","null","","","","","","","","learning/Slide148.JPG","null","","","","",""
"","html-keyboard-response","450","617290","0.0-8.0-1.67","FL","atap00wwqb","1366","768","en","ft08en25","null","","","","learningBlock2","","","","That was a bim.","null","","","","",""
"","html-keyboard-response","451","618310","0.0-8.0-2.67","FL","atap00wwqb","1366","768","en","ft08en25","null","","","","learningBlock2","","","","<div style=""font-size:60px;""> </div>","null","FL","learning/Slide148.JPG","That was a bim.","",""
"","image-keyboard-response","452","618491","0.0-8.0-0.68","FL","atap00wwqb","1366","768","en","ft08en25","null","","","","","","","","learning/Slide149.JPG","null","","","","",""
"","html-keyboard-response","453","619670","0.0-8.0-1.68","FL","atap00wwqb","1366","768","en","ft08en25","null","","","","learningBlock2","","","","That was a dep.","null","","","","",""
"","html-keyboard-response","454","620690","0.0-8.0-2.68","FL","atap00wwqb","1366","768","en","ft08en25","null","","","","learningBlock2","","","","<div style=""font-size:60px;""> </div>","null","FL","learning/Slide149.JPG","That was a dep.","",""
"","image-keyboard-response","455","620869","0.0-8.0-0.69","FL","atap00wwqb","1366","768","en","ft08en25","null","","","","","","","","learning/Slide150.JPG","null","","","","",""
"","html-keyboard-response","456","622050","0.0-8.0-1.69","FL","atap00wwqb","1366","768","en","ft08en25","null","","","","learningBlock2","","","","That was a wug.","null","","","","",""
"","html-keyboard-response","457","623070","0.0-8.0-2.69","FL","atap00wwqb","1366","768","en","ft08en25","null","","","","learningBlock2","","","","<div style=""font-size:60px;""> </div>","null","FL","learning/Slide150.JPG","That was a wug.","",""
"","image-keyboard-response","458","623250","0.0-8.0-0.70","FL","atap00wwqb","1366","768","en","ft08en25","null","","","","","","","","learning/Slide151.JPG","null","","","","",""
"","html-keyboard-response","459","624430","0.0-8.0-1.70","FL","atap00wwqb","1366","768","en","ft08en25","null","","","","learningBlock2","","","","That was a dep.","null","","","","",""
"","html-keyboard-response","460","625450","0.0-8.0-2.70","FL","atap00wwqb","1366","768","en","ft08en25","null","","","","learningBlock2","","","","<div style=""font-size:60px;""> </div>","null","FL","learning/Slide151.JPG","That was a dep.","",""
"","image-keyboard-response","461","625630","0.0-8.0-0.71","FL","atap00wwqb","1366","768","en","ft08en25","null","","","","","","","","learning/Slide152.JPG","null","","","","",""
"","html-keyboard-response","462","626810","0.0-8.0-1.71","FL","atap00wwqb","1366","768","en","ft08en25","null","","","","learningBlock2","","","","That was a wug.","null","","","","",""
"","html-keyboard-response","463","627825","0.0-8.0-2.71","FL","atap00wwqb","1366","768","en","ft08en25","null","","","","learningBlock2","","","","<div style=""font-size:60px;""> </div>","null","FL","learning/Slide152.JPG","That was a wug.","",""
"","image-keyboard-response","464","628010","0.0-8.0-0.72","FL","atap00wwqb","1366","768","en","ft08en25","null","","","","","","","","learning/Slide153.JPG","null","","","","",""
"","html-keyboard-response","465","629190","0.0-8.0-1.72","FL","atap00wwqb","1366","768","en","ft08en25","null","","","","learningBlock2","","","","That was a bim.","null","","","","",""
"","html-keyboard-response","466","630209","0.0-8.0-2.72","FL","atap00wwqb","1366","768","en","ft08en25","null","","","","learningBlock2","","","","<div style=""font-size:60px;""> </div>","null","FL","learning/Slide153.JPG","That was a bim.","",""
"","image-keyboard-response","467","630390","0.0-8.0-0.73","FL","atap00wwqb","1366","768","en","ft08en25","null","","","","","","","","learning/Slide154.JPG","null","","","","",""
"","html-keyboard-response","468","631570","0.0-8.0-1.73","FL","atap00wwqb","1366","768","en","ft08en25","null","","","","learningBlock2","","","","That was a tob.","null","","","","",""
"","html-keyboard-response","469","632590","0.0-8.0-2.73","FL","atap00wwqb","1366","768","en","ft08en25","null","","","","learningBlock2","","","","<div style=""font-size:60px;""> </div>","null","FL","learning/Slide154.JPG","That was a tob.","",""
"","image-keyboard-response","470","632771","0.0-8.0-0.74","FL","atap00wwqb","1366","768","en","ft08en25","null","","","","","","","","learning/Slide155.JPG","null","","","","",""
"","html-keyboard-response","471","633950","0.0-8.0-1.74","FL","atap00wwqb","1366","768","en","ft08en25","null","","","","learningBlock2","","","","That was a dep.","null","","","","",""
"","html-keyboard-response","472","634970","0.0-8.0-2.74","FL","atap00wwqb","1366","768","en","ft08en25","null","","","","learningBlock2","","","","<div style=""font-size:60px;""> </div>","null","FL","learning/Slide155.JPG","That was a dep.","",""
"","image-keyboard-response","473","635151","0.0-8.0-0.75","FL","atap00wwqb","1366","768","en","ft08en25","null","","","","","","","","learning/Slide156.JPG","null","","","","",""
"","html-keyboard-response","474","636327","0.0-8.0-1.75","FL","atap00wwqb","1366","768","en","ft08en25","null","","","","learningBlock2","","","","That was a bim.","null","","","","",""
"","html-keyboard-response","475","637350","0.0-8.0-2.75","FL","atap00wwqb","1366","768","en","ft08en25","null","","","","learningBlock2","","","","<div style=""font-size:60px;""> </div>","null","FL","learning/Slide156.JPG","That was a bim.","",""
"","image-keyboard-response","476","637527","0.0-8.0-0.76","FL","atap00wwqb","1366","768","en","ft08en25","null","","","","","","","","learning/Slide157.JPG","null","","","","",""
"","html-keyboard-response","477","638710","0.0-8.0-1.76","FL","atap00wwqb","1366","768","en","ft08en25","null","","","","learningBlock2","","","","That was a dep.","null","","","","",""
"","html-keyboard-response","478","639727","0.0-8.0-2.76","FL","atap00wwqb","1366","768","en","ft08en25","null","","","","learningBlock2","","","","<div style=""font-size:60px;""> </div>","null","FL","learning/Slide157.JPG","That was a dep.","",""
"","image-keyboard-response","479","639910","0.0-8.0-0.77","FL","atap00wwqb","1366","768","en","ft08en25","null","","","","","","","","learning/Slide158.JPG","null","","","","",""
"","html-keyboard-response","480","641090","0.0-8.0-1.77","FL","atap00wwqb","1366","768","en","ft08en25","null","","","","learningBlock2","","","","That was a tob.","null","","","","",""
"","html-keyboard-response","481","642110","0.0-8.0-2.77","FL","atap00wwqb","1366","768","en","ft08en25","null","","","","learningBlock2","","","","<div style=""font-size:60px;""> </div>","null","FL","learning/Slide158.JPG","That was a tob.","",""
"","image-keyboard-response","482","642291","0.0-8.0-0.78","FL","atap00wwqb","1366","768","en","ft08en25","null","","","","","","","","learning/Slide159.JPG","null","","","","",""
"","html-keyboard-response","483","643470","0.0-8.0-1.78","FL","atap00wwqb","1366","768","en","ft08en25","null","","","","learningBlock2","","","","That was a dep.","null","","","","",""
"","html-keyboard-response","484","644490","0.0-8.0-2.78","FL","atap00wwqb","1366","768","en","ft08en25","null","","","","learningBlock2","","","","<div style=""font-size:60px;""> </div>","null","FL","learning/Slide159.JPG","That was a dep.","",""
"","image-keyboard-response","485","644671","0.0-8.0-0.79","FL","atap00wwqb","1366","768","en","ft08en25","null","","","","","","","","learning/Slide160.JPG","null","","","","",""
"","html-keyboard-response","486","645850","0.0-8.0-1.79","FL","atap00wwqb","1366","768","en","ft08en25","null","","","","learningBlock2","","","","That was a wug.","null","","","","",""
"","html-keyboard-response","487","646870","0.0-8.0-2.79","FL","atap00wwqb","1366","768","en","ft08en25","null","","","","learningBlock2","","","","<div style=""font-size:60px;""> </div>","null","FL","learning/Slide160.JPG","That was a wug.","",""
"","resize2","488","650876","0.0-9.0","FL","atap00wwqb","1366","768","en","ft08en25","","","","","","","104","1.04","","","","","","",""
