"success","trial_type","trial_index","time_elapsed","internal_node_id","condition","subject","screen_width","screen_height","language","codeword","rt","responses","url","view_history","test_part","final_height_px","final_width_px","scale_factor","stimulus","key_press","learningType","presentedImage","presentedLabel","button_pressed","response"
"true","fullscreen","0","3099","0.0-0.0","FL","mj8qhhm23d","1920","1080","de","va08im28","","","","","","","","","","","","","","",""
"","survey-html-form","1","8473","0.0-1.0","FL","mj8qhhm23d","1920","1080","de","va08im28","5372","{""language"":""de""}","","","","","","","","","","","","",""
"","external-html","2","13249","0.0-2.0-0.0","FL","mj8qhhm23d","1920","1080","de","va08im28","4730","","text/information.html","","","","","","","","","","","",""
"","external-html","3","20756","0.0-2.0-1.0","FL","mj8qhhm23d","1920","1080","de","va08im28","7477","","text/consent.html","","","","","","","","","","","",""
"","survey-html-form","4","64049","0.0-2.0-2.0","FL","mj8qhhm23d","1920","1080","de","va08im28","43291","{""codeword_enter"":""va08im28""}","","","","","","","","","","","","",""
"","instructions","5","79051","0.0-4.0","FL","mj8qhhm23d","1920","1080","de","va08im28","NA","","","[{""page_index"":0,""viewing_time"":4686},{""page_index"":1,""viewing_time"":8813}]","instructions","","","","","","","","","",""
"","resize","6","432482","0.0-5.0","FL","mj8qhhm23d","1920","1080","de","va08im28","","","","","","","324","2.057142857142857","","","","","","",""
"","image-keyboard-response","7","432658","0.0-6.0-0.0","FL","mj8qhhm23d","1920","1080","de","va08im28","null","","","","","","","","learning/Slide1.JPG","null","","","","",""
"","html-keyboard-response","8","433810","0.0-6.0-1.0","FL","mj8qhhm23d","1920","1080","de","va08im28","null","","","","learningBlock1","","","","That was a tob.","null","","","","",""
"","html-keyboard-response","9","434811","0.0-6.0-2.0","FL","mj8qhhm23d","1920","1080","de","va08im28","null","","","","learningBlock1","","","","<div style=""font-size:60px;""> </div>","null","FL","learning/Slide1.JPG","That was a tob.","",""
"","image-keyboard-response","10","434988","0.0-6.0-0.1","FL","mj8qhhm23d","1920","1080","de","va08im28","null","","","","","","","","learning/Slide2.JPG","null","","","","",""
"","html-keyboard-response","11","436140","0.0-6.0-1.1","FL","mj8qhhm23d","1920","1080","de","va08im28","null","","","","learningBlock1","","","","That was a wug.","null","","","","",""
"","html-keyboard-response","12","437141","0.0-6.0-2.1","FL","mj8qhhm23d","1920","1080","de","va08im28","null","","","","learningBlock1","","","","<div style=""font-size:60px;""> </div>","null","FL","learning/Slide2.JPG","That was a wug.","",""
"","image-keyboard-response","13","437317","0.0-6.0-0.2","FL","mj8qhhm23d","1920","1080","de","va08im28","null","","","","","","","","learning/Slide3.JPG","null","","","","",""
"","html-keyboard-response","14","438467","0.0-6.0-1.2","FL","mj8qhhm23d","1920","1080","de","va08im28","null","","","","learningBlock1","","","","That was a bim.","null","","","","",""
"","html-keyboard-response","15","439468","0.0-6.0-2.2","FL","mj8qhhm23d","1920","1080","de","va08im28","null","","","","learningBlock1","","","","<div style=""font-size:60px;""> </div>","null","FL","learning/Slide3.JPG","That was a bim.","",""
"","image-keyboard-response","16","439643","0.0-6.0-0.3","FL","mj8qhhm23d","1920","1080","de","va08im28","null","","","","","","","","learning/Slide4.JPG","null","","","","",""
"","html-keyboard-response","17","440793","0.0-6.0-1.3","FL","mj8qhhm23d","1920","1080","de","va08im28","null","","","","learningBlock1","","","","That was a dep.","null","","","","",""
"","html-keyboard-response","18","441795","0.0-6.0-2.3","FL","mj8qhhm23d","1920","1080","de","va08im28","null","","","","learningBlock1","","","","<div style=""font-size:60px;""> </div>","null","FL","learning/Slide4.JPG","That was a dep.","",""
"","image-keyboard-response","19","441970","0.0-6.0-0.4","FL","mj8qhhm23d","1920","1080","de","va08im28","null","","","","","","","","learning/Slide5.JPG","null","","","","",""
"","html-keyboard-response","20","443121","0.0-6.0-1.4","FL","mj8qhhm23d","1920","1080","de","va08im28","null","","","","learningBlock1","","","","That was a wug.","null","","","","",""
"","html-keyboard-response","21","444123","0.0-6.0-2.4","FL","mj8qhhm23d","1920","1080","de","va08im28","null","","","","learningBlock1","","","","<div style=""font-size:60px;""> </div>","null","FL","learning/Slide5.JPG","That was a wug.","",""
"","image-keyboard-response","22","444298","0.0-6.0-0.5","FL","mj8qhhm23d","1920","1080","de","va08im28","null","","","","","","","","learning/Slide6.JPG","null","","","","",""
"","html-keyboard-response","23","445449","0.0-6.0-1.5","FL","mj8qhhm23d","1920","1080","de","va08im28","null","","","","learningBlock1","","","","That was a dep.","null","","","","",""
"","html-keyboard-response","24","446450","0.0-6.0-2.5","FL","mj8qhhm23d","1920","1080","de","va08im28","null","","","","learningBlock1","","","","<div style=""font-size:60px;""> </div>","null","FL","learning/Slide6.JPG","That was a dep.","",""
"","image-keyboard-response","25","446627","0.0-6.0-0.6","FL","mj8qhhm23d","1920","1080","de","va08im28","null","","","","","","","","learning/Slide7.JPG","null","","","","",""
"","html-keyboard-response","26","447778","0.0-6.0-1.6","FL","mj8qhhm23d","1920","1080","de","va08im28","null","","","","learningBlock1","","","","That was a wug.","null","","","","",""
"","html-keyboard-response","27","448778","0.0-6.0-2.6","FL","mj8qhhm23d","1920","1080","de","va08im28","null","","","","learningBlock1","","","","<div style=""font-size:60px;""> </div>","null","FL","learning/Slide7.JPG","That was a wug.","",""
"","image-keyboard-response","28","448954","0.0-6.0-0.7","FL","mj8qhhm23d","1920","1080","de","va08im28","null","","","","","","","","learning/Slide8.JPG","null","","","","",""
"","html-keyboard-response","29","450105","0.0-6.0-1.7","FL","mj8qhhm23d","1920","1080","de","va08im28","null","","","","learningBlock1","","","","That was a bim.","null","","","","",""
"","html-keyboard-response","30","451105","0.0-6.0-2.7","FL","mj8qhhm23d","1920","1080","de","va08im28","null","","","","learningBlock1","","","","<div style=""font-size:60px;""> </div>","null","FL","learning/Slide8.JPG","That was a bim.","",""
"","image-keyboard-response","31","451281","0.0-6.0-0.8","FL","mj8qhhm23d","1920","1080","de","va08im28","null","","","","","","","","learning/Slide9.JPG","null","","","","",""
"","html-keyboard-response","32","452433","0.0-6.0-1.8","FL","mj8qhhm23d","1920","1080","de","va08im28","null","","","","learningBlock1","","","","That was a wug.","null","","","","",""
"","html-keyboard-response","33","453433","0.0-6.0-2.8","FL","mj8qhhm23d","1920","1080","de","va08im28","null","","","","learningBlock1","","","","<div style=""font-size:60px;""> </div>","null","FL","learning/Slide9.JPG","That was a wug.","",""
"","image-keyboard-response","34","453608","0.0-6.0-0.9","FL","mj8qhhm23d","1920","1080","de","va08im28","null","","","","","","","","learning/Slide10.JPG","null","","","","",""
"","html-keyboard-response","35","454759","0.0-6.0-1.9","FL","mj8qhhm23d","1920","1080","de","va08im28","null","","","","learningBlock1","","","","That was a dep.","null","","","","",""
"","html-keyboard-response","36","455760","0.0-6.0-2.9","FL","mj8qhhm23d","1920","1080","de","va08im28","null","","","","learningBlock1","","","","<div style=""font-size:60px;""> </div>","null","FL","learning/Slide10.JPG","That was a dep.","",""
"","image-keyboard-response","37","455936","0.0-6.0-0.10","FL","mj8qhhm23d","1920","1080","de","va08im28","null","","","","","","","","learning/Slide11.JPG","null","","","","",""
"","html-keyboard-response","38","457087","0.0-6.0-1.10","FL","mj8qhhm23d","1920","1080","de","va08im28","null","","","","learningBlock1","","","","That was a tob.","null","","","","",""
"","html-keyboard-response","39","458087","0.0-6.0-2.10","FL","mj8qhhm23d","1920","1080","de","va08im28","null","","","","learningBlock1","","","","<div style=""font-size:60px;""> </div>","null","FL","learning/Slide11.JPG","That was a tob.","",""
"","image-keyboard-response","40","458263","0.0-6.0-0.11","FL","mj8qhhm23d","1920","1080","de","va08im28","null","","","","","","","","learning/Slide12.JPG","null","","","","",""
"","html-keyboard-response","41","459413","0.0-6.0-1.11","FL","mj8qhhm23d","1920","1080","de","va08im28","null","","","","learningBlock1","","","","That was a dep.","null","","","","",""
"","html-keyboard-response","42","460414","0.0-6.0-2.11","FL","mj8qhhm23d","1920","1080","de","va08im28","null","","","","learningBlock1","","","","<div style=""font-size:60px;""> </div>","null","FL","learning/Slide12.JPG","That was a dep.","",""
"","image-keyboard-response","43","460590","0.0-6.0-0.12","FL","mj8qhhm23d","1920","1080","de","va08im28","null","","","","","","","","learning/Slide13.JPG","null","","","","",""
"","html-keyboard-response","44","461740","0.0-6.0-1.12","FL","mj8qhhm23d","1920","1080","de","va08im28","null","","","","learningBlock1","","","","That was a bim.","null","","","","",""
"","html-keyboard-response","45","462741","0.0-6.0-2.12","FL","mj8qhhm23d","1920","1080","de","va08im28","null","","","","learningBlock1","","","","<div style=""font-size:60px;""> </div>","null","FL","learning/Slide13.JPG","That was a bim.","",""
"","image-keyboard-response","46","462917","0.0-6.0-0.13","FL","mj8qhhm23d","1920","1080","de","va08im28","null","","","","","","","","learning/Slide14.JPG","null","","","","",""
"","html-keyboard-response","47","464069","0.0-6.0-1.13","FL","mj8qhhm23d","1920","1080","de","va08im28","null","","","","learningBlock1","","","","That was a wug.","null","","","","",""
"","html-keyboard-response","48","465070","0.0-6.0-2.13","FL","mj8qhhm23d","1920","1080","de","va08im28","null","","","","learningBlock1","","","","<div style=""font-size:60px;""> </div>","null","FL","learning/Slide14.JPG","That was a wug.","",""
"","image-keyboard-response","49","465246","0.0-6.0-0.14","FL","mj8qhhm23d","1920","1080","de","va08im28","null","","","","","","","","learning/Slide15.JPG","null","","","","",""
"","html-keyboard-response","50","466397","0.0-6.0-1.14","FL","mj8qhhm23d","1920","1080","de","va08im28","null","","","","learningBlock1","","","","That was a tob.","null","","","","",""
"","html-keyboard-response","51","467398","0.0-6.0-2.14","FL","mj8qhhm23d","1920","1080","de","va08im28","null","","","","learningBlock1","","","","<div style=""font-size:60px;""> </div>","null","FL","learning/Slide15.JPG","That was a tob.","",""
"","image-keyboard-response","52","467573","0.0-6.0-0.15","FL","mj8qhhm23d","1920","1080","de","va08im28","null","","","","","","","","learning/Slide16.JPG","null","","","","",""
"","html-keyboard-response","53","468724","0.0-6.0-1.15","FL","mj8qhhm23d","1920","1080","de","va08im28","null","","","","learningBlock1","","","","That was a dep.","null","","","","",""
"","html-keyboard-response","54","469725","0.0-6.0-2.15","FL","mj8qhhm23d","1920","1080","de","va08im28","null","","","","learningBlock1","","","","<div style=""font-size:60px;""> </div>","null","FL","learning/Slide16.JPG","That was a dep.","",""
"","image-keyboard-response","55","469901","0.0-6.0-0.16","FL","mj8qhhm23d","1920","1080","de","va08im28","null","","","","","","","","learning/Slide17.JPG","null","","","","",""
"","html-keyboard-response","56","471052","0.0-6.0-1.16","FL","mj8qhhm23d","1920","1080","de","va08im28","null","","","","learningBlock1","","","","That was a bim.","null","","","","",""
"","html-keyboard-response","57","472053","0.0-6.0-2.16","FL","mj8qhhm23d","1920","1080","de","va08im28","null","","","","learningBlock1","","","","<div style=""font-size:60px;""> </div>","null","FL","learning/Slide17.JPG","That was a bim.","",""
"","image-keyboard-response","58","472228","0.0-6.0-0.17","FL","mj8qhhm23d","1920","1080","de","va08im28","null","","","","","","","","learning/Slide18.JPG","null","","","","",""
"","html-keyboard-response","59","473379","0.0-6.0-1.17","FL","mj8qhhm23d","1920","1080","de","va08im28","null","","","","learningBlock1","","","","That was a tob.","null","","","","",""
"","html-keyboard-response","60","474379","0.0-6.0-2.17","FL","mj8qhhm23d","1920","1080","de","va08im28","null","","","","learningBlock1","","","","<div style=""font-size:60px;""> </div>","null","FL","learning/Slide18.JPG","That was a tob.","",""
"","image-keyboard-response","61","474555","0.0-6.0-0.18","FL","mj8qhhm23d","1920","1080","de","va08im28","null","","","","","","","","learning/Slide19.JPG","null","","","","",""
"","html-keyboard-response","62","475708","0.0-6.0-1.18","FL","mj8qhhm23d","1920","1080","de","va08im28","null","","","","learningBlock1","","","","That was a wug.","null","","","","",""
"","html-keyboard-response","63","476708","0.0-6.0-2.18","FL","mj8qhhm23d","1920","1080","de","va08im28","null","","","","learningBlock1","","","","<div style=""font-size:60px;""> </div>","null","FL","learning/Slide19.JPG","That was a wug.","",""
"","image-keyboard-response","64","476882","0.0-6.0-0.19","FL","mj8qhhm23d","1920","1080","de","va08im28","null","","","","","","","","learning/Slide20.JPG","null","","","","",""
"","html-keyboard-response","65","478033","0.0-6.0-1.19","FL","mj8qhhm23d","1920","1080","de","va08im28","null","","","","learningBlock1","","","","That was a bim.","null","","","","",""
"","html-keyboard-response","66","479034","0.0-6.0-2.19","FL","mj8qhhm23d","1920","1080","de","va08im28","null","","","","learningBlock1","","","","<div style=""font-size:60px;""> </div>","null","FL","learning/Slide20.JPG","That was a bim.","",""
"","image-keyboard-response","67","479209","0.0-6.0-0.20","FL","mj8qhhm23d","1920","1080","de","va08im28","null","","","","","","","","learning/Slide21.JPG","null","","","","",""
"","html-keyboard-response","68","480361","0.0-6.0-1.20","FL","mj8qhhm23d","1920","1080","de","va08im28","null","","","","learningBlock1","","","","That was a dep.","null","","","","",""
"","html-keyboard-response","69","481360","0.0-6.0-2.20","FL","mj8qhhm23d","1920","1080","de","va08im28","null","","","","learningBlock1","","","","<div style=""font-size:60px;""> </div>","null","FL","learning/Slide21.JPG","That was a dep.","",""
"","image-keyboard-response","70","481536","0.0-6.0-0.21","FL","mj8qhhm23d","1920","1080","de","va08im28","null","","","","","","","","learning/Slide22.JPG","null","","","","",""
"","html-keyboard-response","71","482686","0.0-6.0-1.21","FL","mj8qhhm23d","1920","1080","de","va08im28","null","","","","learningBlock1","","","","That was a bim.","null","","","","",""
"","html-keyboard-response","72","483687","0.0-6.0-2.21","FL","mj8qhhm23d","1920","1080","de","va08im28","null","","","","learningBlock1","","","","<div style=""font-size:60px;""> </div>","null","FL","learning/Slide22.JPG","That was a bim.","",""
"","image-keyboard-response","73","483863","0.0-6.0-0.22","FL","mj8qhhm23d","1920","1080","de","va08im28","null","","","","","","","","learning/Slide23.JPG","null","","","","",""
"","html-keyboard-response","74","485014","0.0-6.0-1.22","FL","mj8qhhm23d","1920","1080","de","va08im28","null","","","","learningBlock1","","","","That was a tob.","null","","","","",""
"","html-keyboard-response","75","486014","0.0-6.0-2.22","FL","mj8qhhm23d","1920","1080","de","va08im28","null","","","","learningBlock1","","","","<div style=""font-size:60px;""> </div>","null","FL","learning/Slide23.JPG","That was a tob.","",""
"","image-keyboard-response","76","486190","0.0-6.0-0.23","FL","mj8qhhm23d","1920","1080","de","va08im28","null","","","","","","","","learning/Slide24.JPG","null","","","","",""
"","html-keyboard-response","77","487340","0.0-6.0-1.23","FL","mj8qhhm23d","1920","1080","de","va08im28","null","","","","learningBlock1","","","","That was a wug.","null","","","","",""
"","html-keyboard-response","78","488340","0.0-6.0-2.23","FL","mj8qhhm23d","1920","1080","de","va08im28","null","","","","learningBlock1","","","","<div style=""font-size:60px;""> </div>","null","FL","learning/Slide24.JPG","That was a wug.","",""
"","image-keyboard-response","79","488516","0.0-6.0-0.24","FL","mj8qhhm23d","1920","1080","de","va08im28","null","","","","","","","","learning/Slide25.JPG","null","","","","",""
"","html-keyboard-response","80","489667","0.0-6.0-1.24","FL","mj8qhhm23d","1920","1080","de","va08im28","null","","","","learningBlock1","","","","That was a dep.","null","","","","",""
"","html-keyboard-response","81","490668","0.0-6.0-2.24","FL","mj8qhhm23d","1920","1080","de","va08im28","null","","","","learningBlock1","","","","<div style=""font-size:60px;""> </div>","null","FL","learning/Slide25.JPG","That was a dep.","",""
"","image-keyboard-response","82","490843","0.0-6.0-0.25","FL","mj8qhhm23d","1920","1080","de","va08im28","null","","","","","","","","learning/Slide26.JPG","null","","","","",""
"","html-keyboard-response","83","491994","0.0-6.0-1.25","FL","mj8qhhm23d","1920","1080","de","va08im28","null","","","","learningBlock1","","","","That was a wug.","null","","","","",""
"","html-keyboard-response","84","492994","0.0-6.0-2.25","FL","mj8qhhm23d","1920","1080","de","va08im28","null","","","","learningBlock1","","","","<div style=""font-size:60px;""> </div>","null","FL","learning/Slide26.JPG","That was a wug.","",""
"","image-keyboard-response","85","493171","0.0-6.0-0.26","FL","mj8qhhm23d","1920","1080","de","va08im28","null","","","","","","","","learning/Slide27.JPG","null","","","","",""
"","html-keyboard-response","86","494323","0.0-6.0-1.26","FL","mj8qhhm23d","1920","1080","de","va08im28","null","","","","learningBlock1","","","","That was a bim.","null","","","","",""
"","html-keyboard-response","87","495323","0.0-6.0-2.26","FL","mj8qhhm23d","1920","1080","de","va08im28","null","","","","learningBlock1","","","","<div style=""font-size:60px;""> </div>","null","FL","learning/Slide27.JPG","That was a bim.","",""
"","image-keyboard-response","88","495499","0.0-6.0-0.27","FL","mj8qhhm23d","1920","1080","de","va08im28","null","","","","","","","","learning/Slide28.JPG","null","","","","",""
"","html-keyboard-response","89","496651","0.0-6.0-1.27","FL","mj8qhhm23d","1920","1080","de","va08im28","null","","","","learningBlock1","","","","That was a dep.","null","","","","",""
"","html-keyboard-response","90","497652","0.0-6.0-2.27","FL","mj8qhhm23d","1920","1080","de","va08im28","null","","","","learningBlock1","","","","<div style=""font-size:60px;""> </div>","null","FL","learning/Slide28.JPG","That was a dep.","",""
"","image-keyboard-response","91","497828","0.0-6.0-0.28","FL","mj8qhhm23d","1920","1080","de","va08im28","null","","","","","","","","learning/Slide29.JPG","null","","","","",""
"","html-keyboard-response","92","498979","0.0-6.0-1.28","FL","mj8qhhm23d","1920","1080","de","va08im28","null","","","","learningBlock1","","","","That was a tob.","null","","","","",""
"","html-keyboard-response","93","499979","0.0-6.0-2.28","FL","mj8qhhm23d","1920","1080","de","va08im28","null","","","","learningBlock1","","","","<div style=""font-size:60px;""> </div>","null","FL","learning/Slide29.JPG","That was a tob.","",""
"","image-keyboard-response","94","500155","0.0-6.0-0.29","FL","mj8qhhm23d","1920","1080","de","va08im28","null","","","","","","","","learning/Slide30.JPG","null","","","","",""
"","html-keyboard-response","95","501307","0.0-6.0-1.29","FL","mj8qhhm23d","1920","1080","de","va08im28","null","","","","learningBlock1","","","","That was a dep.","null","","","","",""
"","html-keyboard-response","96","502306","0.0-6.0-2.29","FL","mj8qhhm23d","1920","1080","de","va08im28","null","","","","learningBlock1","","","","<div style=""font-size:60px;""> </div>","null","FL","learning/Slide30.JPG","That was a dep.","",""
"","image-keyboard-response","97","502482","0.0-6.0-0.30","FL","mj8qhhm23d","1920","1080","de","va08im28","null","","","","","","","","learning/Slide31.JPG","null","","","","",""
"","html-keyboard-response","98","503631","0.0-6.0-1.30","FL","mj8qhhm23d","1920","1080","de","va08im28","null","","","","learningBlock1","","","","That was a wug.","null","","","","",""
"","html-keyboard-response","99","504633","0.0-6.0-2.30","FL","mj8qhhm23d","1920","1080","de","va08im28","null","","","","learningBlock1","","","","<div style=""font-size:60px;""> </div>","null","FL","learning/Slide31.JPG","That was a wug.","",""
"","image-keyboard-response","100","504808","0.0-6.0-0.31","FL","mj8qhhm23d","1920","1080","de","va08im28","null","","","","","","","","learning/Slide32.JPG","null","","","","",""
"","html-keyboard-response","101","505959","0.0-6.0-1.31","FL","mj8qhhm23d","1920","1080","de","va08im28","null","","","","learningBlock1","","","","That was a tob.","null","","","","",""
"","html-keyboard-response","102","506959","0.0-6.0-2.31","FL","mj8qhhm23d","1920","1080","de","va08im28","null","","","","learningBlock1","","","","<div style=""font-size:60px;""> </div>","null","FL","learning/Slide32.JPG","That was a tob.","",""
"","image-keyboard-response","103","507135","0.0-6.0-0.32","FL","mj8qhhm23d","1920","1080","de","va08im28","null","","","","","","","","learning/Slide33.JPG","null","","","","",""
"","html-keyboard-response","104","508286","0.0-6.0-1.32","FL","mj8qhhm23d","1920","1080","de","va08im28","null","","","","learningBlock1","","","","That was a bim.","null","","","","",""
"","html-keyboard-response","105","509287","0.0-6.0-2.32","FL","mj8qhhm23d","1920","1080","de","va08im28","null","","","","learningBlock1","","","","<div style=""font-size:60px;""> </div>","null","FL","learning/Slide33.JPG","That was a bim.","",""
"","image-keyboard-response","106","509462","0.0-6.0-0.33","FL","mj8qhhm23d","1920","1080","de","va08im28","null","","","","","","","","learning/Slide34.JPG","null","","","","",""
"","html-keyboard-response","107","510613","0.0-6.0-1.33","FL","mj8qhhm23d","1920","1080","de","va08im28","null","","","","learningBlock1","","","","That was a tob.","null","","","","",""
"","html-keyboard-response","108","511614","0.0-6.0-2.33","FL","mj8qhhm23d","1920","1080","de","va08im28","null","","","","learningBlock1","","","","<div style=""font-size:60px;""> </div>","null","FL","learning/Slide34.JPG","That was a tob.","",""
"","image-keyboard-response","109","511791","0.0-6.0-0.34","FL","mj8qhhm23d","1920","1080","de","va08im28","null","","","","","","","","learning/Slide35.JPG","null","","","","",""
"","html-keyboard-response","110","512942","0.0-6.0-1.34","FL","mj8qhhm23d","1920","1080","de","va08im28","null","","","","learningBlock1","","","","That was a bim.","null","","","","",""
"","html-keyboard-response","111","513942","0.0-6.0-2.34","FL","mj8qhhm23d","1920","1080","de","va08im28","null","","","","learningBlock1","","","","<div style=""font-size:60px;""> </div>","null","FL","learning/Slide35.JPG","That was a bim.","",""
"","image-keyboard-response","112","514119","0.0-6.0-0.35","FL","mj8qhhm23d","1920","1080","de","va08im28","null","","","","","","","","learning/Slide36.JPG","null","","","","",""
"","html-keyboard-response","113","515270","0.0-6.0-1.35","FL","mj8qhhm23d","1920","1080","de","va08im28","null","","","","learningBlock1","","","","That was a dep.","null","","","","",""
"","html-keyboard-response","114","516271","0.0-6.0-2.35","FL","mj8qhhm23d","1920","1080","de","va08im28","null","","","","learningBlock1","","","","<div style=""font-size:60px;""> </div>","null","FL","learning/Slide36.JPG","That was a dep.","",""
"","image-keyboard-response","115","516445","0.0-6.0-0.36","FL","mj8qhhm23d","1920","1080","de","va08im28","null","","","","","","","","learning/Slide37.JPG","null","","","","",""
"","html-keyboard-response","116","517597","0.0-6.0-1.36","FL","mj8qhhm23d","1920","1080","de","va08im28","null","","","","learningBlock1","","","","That was a tob.","null","","","","",""
"","html-keyboard-response","117","518598","0.0-6.0-2.36","FL","mj8qhhm23d","1920","1080","de","va08im28","null","","","","learningBlock1","","","","<div style=""font-size:60px;""> </div>","null","FL","learning/Slide37.JPG","That was a tob.","",""
"","image-keyboard-response","118","518774","0.0-6.0-0.37","FL","mj8qhhm23d","1920","1080","de","va08im28","null","","","","","","","","learning/Slide38.JPG","null","","","","",""
"","html-keyboard-response","119","519925","0.0-6.0-1.37","FL","mj8qhhm23d","1920","1080","de","va08im28","null","","","","learningBlock1","","","","That was a wug.","null","","","","",""
"","html-keyboard-response","120","520924","0.0-6.0-2.37","FL","mj8qhhm23d","1920","1080","de","va08im28","null","","","","learningBlock1","","","","<div style=""font-size:60px;""> </div>","null","FL","learning/Slide38.JPG","That was a wug.","",""
"","image-keyboard-response","121","521100","0.0-6.0-0.38","FL","mj8qhhm23d","1920","1080","de","va08im28","null","","","","","","","","learning/Slide39.JPG","null","","","","",""
"","html-keyboard-response","122","522251","0.0-6.0-1.38","FL","mj8qhhm23d","1920","1080","de","va08im28","null","","","","learningBlock1","","","","That was a bim.","null","","","","",""
"","html-keyboard-response","123","523252","0.0-6.0-2.38","FL","mj8qhhm23d","1920","1080","de","va08im28","null","","","","learningBlock1","","","","<div style=""font-size:60px;""> </div>","null","FL","learning/Slide39.JPG","That was a bim.","",""
"","image-keyboard-response","124","523429","0.0-6.0-0.39","FL","mj8qhhm23d","1920","1080","de","va08im28","null","","","","","","","","learning/Slide40.JPG","null","","","","",""
"","html-keyboard-response","125","524580","0.0-6.0-1.39","FL","mj8qhhm23d","1920","1080","de","va08im28","null","","","","learningBlock1","","","","That was a tob.","null","","","","",""
"","html-keyboard-response","126","525580","0.0-6.0-2.39","FL","mj8qhhm23d","1920","1080","de","va08im28","null","","","","learningBlock1","","","","<div style=""font-size:60px;""> </div>","null","FL","learning/Slide40.JPG","That was a tob.","",""
"","image-keyboard-response","127","525757","0.0-6.0-0.40","FL","mj8qhhm23d","1920","1080","de","va08im28","null","","","","","","","","learning/Slide41.JPG","null","","","","",""
"","html-keyboard-response","128","526908","0.0-6.0-1.40","FL","mj8qhhm23d","1920","1080","de","va08im28","null","","","","learningBlock1","","","","That was a bim.","null","","","","",""
"","html-keyboard-response","129","527908","0.0-6.0-2.40","FL","mj8qhhm23d","1920","1080","de","va08im28","null","","","","learningBlock1","","","","<div style=""font-size:60px;""> </div>","null","FL","learning/Slide41.JPG","That was a bim.","",""
"","image-keyboard-response","130","528085","0.0-6.0-0.41","FL","mj8qhhm23d","1920","1080","de","va08im28","null","","","","","","","","learning/Slide42.JPG","null","","","","",""
"","html-keyboard-response","131","529236","0.0-6.0-1.41","FL","mj8qhhm23d","1920","1080","de","va08im28","null","","","","learningBlock1","","","","That was a dep.","null","","","","",""
"","html-keyboard-response","132","530236","0.0-6.0-2.41","FL","mj8qhhm23d","1920","1080","de","va08im28","null","","","","learningBlock1","","","","<div style=""font-size:60px;""> </div>","null","FL","learning/Slide42.JPG","That was a dep.","",""
"","image-keyboard-response","133","530412","0.0-6.0-0.42","FL","mj8qhhm23d","1920","1080","de","va08im28","null","","","","","","","","learning/Slide43.JPG","null","","","","",""
"","html-keyboard-response","134","531563","0.0-6.0-1.42","FL","mj8qhhm23d","1920","1080","de","va08im28","null","","","","learningBlock1","","","","That was a wug.","null","","","","",""
"","html-keyboard-response","135","532564","0.0-6.0-2.42","FL","mj8qhhm23d","1920","1080","de","va08im28","null","","","","learningBlock1","","","","<div style=""font-size:60px;""> </div>","null","FL","learning/Slide43.JPG","That was a wug.","",""
"","image-keyboard-response","136","532740","0.0-6.0-0.43","FL","mj8qhhm23d","1920","1080","de","va08im28","null","","","","","","","","learning/Slide44.JPG","null","","","","",""
"","html-keyboard-response","137","533890","0.0-6.0-1.43","FL","mj8qhhm23d","1920","1080","de","va08im28","null","","","","learningBlock1","","","","That was a bim.","null","","","","",""
"","html-keyboard-response","138","534890","0.0-6.0-2.43","FL","mj8qhhm23d","1920","1080","de","va08im28","null","","","","learningBlock1","","","","<div style=""font-size:60px;""> </div>","null","FL","learning/Slide44.JPG","That was a bim.","",""
"","image-keyboard-response","139","535066","0.0-6.0-0.44","FL","mj8qhhm23d","1920","1080","de","va08im28","null","","","","","","","","learning/Slide45.JPG","null","","","","",""
"","html-keyboard-response","140","536217","0.0-6.0-1.44","FL","mj8qhhm23d","1920","1080","de","va08im28","null","","","","learningBlock1","","","","That was a wug.","null","","","","",""
"","html-keyboard-response","141","537217","0.0-6.0-2.44","FL","mj8qhhm23d","1920","1080","de","va08im28","null","","","","learningBlock1","","","","<div style=""font-size:60px;""> </div>","null","FL","learning/Slide45.JPG","That was a wug.","",""
"","image-keyboard-response","142","537393","0.0-6.0-0.45","FL","mj8qhhm23d","1920","1080","de","va08im28","null","","","","","","","","learning/Slide46.JPG","null","","","","",""
"","html-keyboard-response","143","538544","0.0-6.0-1.45","FL","mj8qhhm23d","1920","1080","de","va08im28","null","","","","learningBlock1","","","","That was a dep.","null","","","","",""
"","html-keyboard-response","144","539544","0.0-6.0-2.45","FL","mj8qhhm23d","1920","1080","de","va08im28","null","","","","learningBlock1","","","","<div style=""font-size:60px;""> </div>","null","FL","learning/Slide46.JPG","That was a dep.","",""
"","image-keyboard-response","145","539719","0.0-6.0-0.46","FL","mj8qhhm23d","1920","1080","de","va08im28","null","","","","","","","","learning/Slide47.JPG","null","","","","",""
"","html-keyboard-response","146","540870","0.0-6.0-1.46","FL","mj8qhhm23d","1920","1080","de","va08im28","null","","","","learningBlock1","","","","That was a tob.","null","","","","",""
"","html-keyboard-response","147","541871","0.0-6.0-2.46","FL","mj8qhhm23d","1920","1080","de","va08im28","null","","","","learningBlock1","","","","<div style=""font-size:60px;""> </div>","null","FL","learning/Slide47.JPG","That was a tob.","",""
"","image-keyboard-response","148","542047","0.0-6.0-0.47","FL","mj8qhhm23d","1920","1080","de","va08im28","null","","","","","","","","learning/Slide48.JPG","null","","","","",""
"","html-keyboard-response","149","543199","0.0-6.0-1.47","FL","mj8qhhm23d","1920","1080","de","va08im28","null","","","","learningBlock1","","","","That was a bim.","null","","","","",""
"","html-keyboard-response","150","544199","0.0-6.0-2.47","FL","mj8qhhm23d","1920","1080","de","va08im28","null","","","","learningBlock1","","","","<div style=""font-size:60px;""> </div>","null","FL","learning/Slide48.JPG","That was a bim.","",""
"","image-keyboard-response","151","544375","0.0-6.0-0.48","FL","mj8qhhm23d","1920","1080","de","va08im28","null","","","","","","","","learning/Slide49.JPG","null","","","","",""
"","html-keyboard-response","152","545527","0.0-6.0-1.48","FL","mj8qhhm23d","1920","1080","de","va08im28","null","","","","learningBlock1","","","","That was a dep.","null","","","","",""
"","html-keyboard-response","153","546527","0.0-6.0-2.48","FL","mj8qhhm23d","1920","1080","de","va08im28","null","","","","learningBlock1","","","","<div style=""font-size:60px;""> </div>","null","FL","learning/Slide49.JPG","That was a dep.","",""
"","image-keyboard-response","154","546703","0.0-6.0-0.49","FL","mj8qhhm23d","1920","1080","de","va08im28","null","","","","","","","","learning/Slide50.JPG","null","","","","",""
"","html-keyboard-response","155","547853","0.0-6.0-1.49","FL","mj8qhhm23d","1920","1080","de","va08im28","null","","","","learningBlock1","","","","That was a tob.","null","","","","",""
"","html-keyboard-response","156","548854","0.0-6.0-2.49","FL","mj8qhhm23d","1920","1080","de","va08im28","null","","","","learningBlock1","","","","<div style=""font-size:60px;""> </div>","null","FL","learning/Slide50.JPG","That was a tob.","",""
"","image-keyboard-response","157","549030","0.0-6.0-0.50","FL","mj8qhhm23d","1920","1080","de","va08im28","null","","","","","","","","learning/Slide51.JPG","null","","","","",""
"","html-keyboard-response","158","550181","0.0-6.0-1.50","FL","mj8qhhm23d","1920","1080","de","va08im28","null","","","","learningBlock1","","","","That was a bim.","null","","","","",""
"","html-keyboard-response","159","551181","0.0-6.0-2.50","FL","mj8qhhm23d","1920","1080","de","va08im28","null","","","","learningBlock1","","","","<div style=""font-size:60px;""> </div>","null","FL","learning/Slide51.JPG","That was a bim.","",""
"","image-keyboard-response","160","551357","0.0-6.0-0.51","FL","mj8qhhm23d","1920","1080","de","va08im28","null","","","","","","","","learning/Slide52.JPG","null","","","","",""
"","html-keyboard-response","161","552508","0.0-6.0-1.51","FL","mj8qhhm23d","1920","1080","de","va08im28","null","","","","learningBlock1","","","","That was a wug.","null","","","","",""
"","html-keyboard-response","162","553509","0.0-6.0-2.51","FL","mj8qhhm23d","1920","1080","de","va08im28","null","","","","learningBlock1","","","","<div style=""font-size:60px;""> </div>","null","FL","learning/Slide52.JPG","That was a wug.","",""
"","image-keyboard-response","163","553684","0.0-6.0-0.52","FL","mj8qhhm23d","1920","1080","de","va08im28","null","","","","","","","","learning/Slide53.JPG","null","","","","",""
"","html-keyboard-response","164","554835","0.0-6.0-1.52","FL","mj8qhhm23d","1920","1080","de","va08im28","null","","","","learningBlock1","","","","That was a tob.","null","","","","",""
"","html-keyboard-response","165","555835","0.0-6.0-2.52","FL","mj8qhhm23d","1920","1080","de","va08im28","null","","","","learningBlock1","","","","<div style=""font-size:60px;""> </div>","null","FL","learning/Slide53.JPG","That was a tob.","",""
"","image-keyboard-response","166","556010","0.0-6.0-0.53","FL","mj8qhhm23d","1920","1080","de","va08im28","null","","","","","","","","learning/Slide54.JPG","null","","","","",""
"","html-keyboard-response","167","557162","0.0-6.0-1.53","FL","mj8qhhm23d","1920","1080","de","va08im28","null","","","","learningBlock1","","","","That was a dep.","null","","","","",""
"","html-keyboard-response","168","558163","0.0-6.0-2.53","FL","mj8qhhm23d","1920","1080","de","va08im28","null","","","","learningBlock1","","","","<div style=""font-size:60px;""> </div>","null","FL","learning/Slide54.JPG","That was a dep.","",""
"","image-keyboard-response","169","558339","0.0-6.0-0.54","FL","mj8qhhm23d","1920","1080","de","va08im28","null","","","","","","","","learning/Slide55.JPG","null","","","","",""
"","html-keyboard-response","170","559491","0.0-6.0-1.54","FL","mj8qhhm23d","1920","1080","de","va08im28","null","","","","learningBlock1","","","","That was a bim.","null","","","","",""
"","html-keyboard-response","171","560492","0.0-6.0-2.54","FL","mj8qhhm23d","1920","1080","de","va08im28","null","","","","learningBlock1","","","","<div style=""font-size:60px;""> </div>","null","FL","learning/Slide55.JPG","That was a bim.","",""
"","image-keyboard-response","172","560667","0.0-6.0-0.55","FL","mj8qhhm23d","1920","1080","de","va08im28","null","","","","","","","","learning/Slide56.JPG","null","","","","",""
"","html-keyboard-response","173","561818","0.0-6.0-1.55","FL","mj8qhhm23d","1920","1080","de","va08im28","null","","","","learningBlock1","","","","That was a tob.","null","","","","",""
"","html-keyboard-response","174","562818","0.0-6.0-2.55","FL","mj8qhhm23d","1920","1080","de","va08im28","null","","","","learningBlock1","","","","<div style=""font-size:60px;""> </div>","null","FL","learning/Slide56.JPG","That was a tob.","",""
"","image-keyboard-response","175","562994","0.0-6.0-0.56","FL","mj8qhhm23d","1920","1080","de","va08im28","null","","","","","","","","learning/Slide57.JPG","null","","","","",""
"","html-keyboard-response","176","564145","0.0-6.0-1.56","FL","mj8qhhm23d","1920","1080","de","va08im28","null","","","","learningBlock1","","","","That was a dep.","null","","","","",""
"","html-keyboard-response","177","565145","0.0-6.0-2.56","FL","mj8qhhm23d","1920","1080","de","va08im28","null","","","","learningBlock1","","","","<div style=""font-size:60px;""> </div>","null","FL","learning/Slide57.JPG","That was a dep.","",""
"","image-keyboard-response","178","565320","0.0-6.0-0.57","FL","mj8qhhm23d","1920","1080","de","va08im28","null","","","","","","","","learning/Slide58.JPG","null","","","","",""
"","html-keyboard-response","179","566471","0.0-6.0-1.57","FL","mj8qhhm23d","1920","1080","de","va08im28","null","","","","learningBlock1","","","","That was a wug.","null","","","","",""
"","html-keyboard-response","180","567472","0.0-6.0-2.57","FL","mj8qhhm23d","1920","1080","de","va08im28","null","","","","learningBlock1","","","","<div style=""font-size:60px;""> </div>","null","FL","learning/Slide58.JPG","That was a wug.","",""
"","image-keyboard-response","181","567647","0.0-6.0-0.58","FL","mj8qhhm23d","1920","1080","de","va08im28","null","","","","","","","","learning/Slide59.JPG","null","","","","",""
"","html-keyboard-response","182","568798","0.0-6.0-1.58","FL","mj8qhhm23d","1920","1080","de","va08im28","null","","","","learningBlock1","","","","That was a dep.","null","","","","",""
"","html-keyboard-response","183","569799","0.0-6.0-2.58","FL","mj8qhhm23d","1920","1080","de","va08im28","null","","","","learningBlock1","","","","<div style=""font-size:60px;""> </div>","null","FL","learning/Slide59.JPG","That was a dep.","",""
"","image-keyboard-response","184","569974","0.0-6.0-0.59","FL","mj8qhhm23d","1920","1080","de","va08im28","null","","","","","","","","learning/Slide60.JPG","null","","","","",""
"","html-keyboard-response","185","571126","0.0-6.0-1.59","FL","mj8qhhm23d","1920","1080","de","va08im28","null","","","","learningBlock1","","","","That was a wug.","null","","","","",""
"","html-keyboard-response","186","572127","0.0-6.0-2.59","FL","mj8qhhm23d","1920","1080","de","va08im28","null","","","","learningBlock1","","","","<div style=""font-size:60px;""> </div>","null","FL","learning/Slide60.JPG","That was a wug.","",""
"","image-keyboard-response","187","572304","0.0-6.0-0.60","FL","mj8qhhm23d","1920","1080","de","va08im28","null","","","","","","","","learning/Slide61.JPG","null","","","","",""
"","html-keyboard-response","188","573453","0.0-6.0-1.60","FL","mj8qhhm23d","1920","1080","de","va08im28","null","","","","learningBlock1","","","","That was a bim.","null","","","","",""
"","html-keyboard-response","189","574453","0.0-6.0-2.60","FL","mj8qhhm23d","1920","1080","de","va08im28","null","","","","learningBlock1","","","","<div style=""font-size:60px;""> </div>","null","FL","learning/Slide61.JPG","That was a bim.","",""
"","image-keyboard-response","190","574629","0.0-6.0-0.61","FL","mj8qhhm23d","1920","1080","de","va08im28","null","","","","","","","","learning/Slide62.JPG","null","","","","",""
"","html-keyboard-response","191","575781","0.0-6.0-1.61","FL","mj8qhhm23d","1920","1080","de","va08im28","null","","","","learningBlock1","","","","That was a dep.","null","","","","",""
"","html-keyboard-response","192","576781","0.0-6.0-2.61","FL","mj8qhhm23d","1920","1080","de","va08im28","null","","","","learningBlock1","","","","<div style=""font-size:60px;""> </div>","null","FL","learning/Slide62.JPG","That was a dep.","",""
"","image-keyboard-response","193","576957","0.0-6.0-0.62","FL","mj8qhhm23d","1920","1080","de","va08im28","null","","","","","","","","learning/Slide63.JPG","null","","","","",""
"","html-keyboard-response","194","578109","0.0-6.0-1.62","FL","mj8qhhm23d","1920","1080","de","va08im28","null","","","","learningBlock1","","","","That was a bim.","null","","","","",""
"","html-keyboard-response","195","579110","0.0-6.0-2.62","FL","mj8qhhm23d","1920","1080","de","va08im28","null","","","","learningBlock1","","","","<div style=""font-size:60px;""> </div>","null","FL","learning/Slide63.JPG","That was a bim.","",""
"","image-keyboard-response","196","579286","0.0-6.0-0.63","FL","mj8qhhm23d","1920","1080","de","va08im28","null","","","","","","","","learning/Slide64.JPG","null","","","","",""
"","html-keyboard-response","197","580437","0.0-6.0-1.63","FL","mj8qhhm23d","1920","1080","de","va08im28","null","","","","learningBlock1","","","","That was a tob.","null","","","","",""
"","html-keyboard-response","198","581438","0.0-6.0-2.63","FL","mj8qhhm23d","1920","1080","de","va08im28","null","","","","learningBlock1","","","","<div style=""font-size:60px;""> </div>","null","FL","learning/Slide64.JPG","That was a tob.","",""
"","image-keyboard-response","199","581614","0.0-6.0-0.64","FL","mj8qhhm23d","1920","1080","de","va08im28","null","","","","","","","","learning/Slide65.JPG","null","","","","",""
"","html-keyboard-response","200","582764","0.0-6.0-1.64","FL","mj8qhhm23d","1920","1080","de","va08im28","null","","","","learningBlock1","","","","That was a wug.","null","","","","",""
"","html-keyboard-response","201","583764","0.0-6.0-2.64","FL","mj8qhhm23d","1920","1080","de","va08im28","null","","","","learningBlock1","","","","<div style=""font-size:60px;""> </div>","null","FL","learning/Slide65.JPG","That was a wug.","",""
"","image-keyboard-response","202","583940","0.0-6.0-0.65","FL","mj8qhhm23d","1920","1080","de","va08im28","null","","","","","","","","learning/Slide66.JPG","null","","","","",""
"","html-keyboard-response","203","585093","0.0-6.0-1.65","FL","mj8qhhm23d","1920","1080","de","va08im28","null","","","","learningBlock1","","","","That was a dep.","null","","","","",""
"","html-keyboard-response","204","586092","0.0-6.0-2.65","FL","mj8qhhm23d","1920","1080","de","va08im28","null","","","","learningBlock1","","","","<div style=""font-size:60px;""> </div>","null","FL","learning/Slide66.JPG","That was a dep.","",""
"","image-keyboard-response","205","586269","0.0-6.0-0.66","FL","mj8qhhm23d","1920","1080","de","va08im28","null","","","","","","","","learning/Slide67.JPG","null","","","","",""
"","html-keyboard-response","206","587419","0.0-6.0-1.66","FL","mj8qhhm23d","1920","1080","de","va08im28","null","","","","learningBlock1","","","","That was a tob.","null","","","","",""
"","html-keyboard-response","207","588420","0.0-6.0-2.66","FL","mj8qhhm23d","1920","1080","de","va08im28","null","","","","learningBlock1","","","","<div style=""font-size:60px;""> </div>","null","FL","learning/Slide67.JPG","That was a tob.","",""
"","image-keyboard-response","208","588595","0.0-6.0-0.67","FL","mj8qhhm23d","1920","1080","de","va08im28","null","","","","","","","","learning/Slide68.JPG","null","","","","",""
"","html-keyboard-response","209","589746","0.0-6.0-1.67","FL","mj8qhhm23d","1920","1080","de","va08im28","null","","","","learningBlock1","","","","That was a wug.","null","","","","",""
"","html-keyboard-response","210","590747","0.0-6.0-2.67","FL","mj8qhhm23d","1920","1080","de","va08im28","null","","","","learningBlock1","","","","<div style=""font-size:60px;""> </div>","null","FL","learning/Slide68.JPG","That was a wug.","",""
"","image-keyboard-response","211","590924","0.0-6.0-0.68","FL","mj8qhhm23d","1920","1080","de","va08im28","null","","","","","","","","learning/Slide69.JPG","null","","","","",""
"","html-keyboard-response","212","592075","0.0-6.0-1.68","FL","mj8qhhm23d","1920","1080","de","va08im28","null","","","","learningBlock1","","","","That was a tob.","null","","","","",""
"","html-keyboard-response","213","593076","0.0-6.0-2.68","FL","mj8qhhm23d","1920","1080","de","va08im28","null","","","","learningBlock1","","","","<div style=""font-size:60px;""> </div>","null","FL","learning/Slide69.JPG","That was a tob.","",""
"","image-keyboard-response","214","593251","0.0-6.0-0.69","FL","mj8qhhm23d","1920","1080","de","va08im28","null","","","","","","","","learning/Slide70.JPG","null","","","","",""
"","html-keyboard-response","215","594402","0.0-6.0-1.69","FL","mj8qhhm23d","1920","1080","de","va08im28","null","","","","learningBlock1","","","","That was a dep.","null","","","","",""
"","html-keyboard-response","216","595403","0.0-6.0-2.69","FL","mj8qhhm23d","1920","1080","de","va08im28","null","","","","learningBlock1","","","","<div style=""font-size:60px;""> </div>","null","FL","learning/Slide70.JPG","That was a dep.","",""
"","image-keyboard-response","217","595579","0.0-6.0-0.70","FL","mj8qhhm23d","1920","1080","de","va08im28","null","","","","","","","","learning/Slide71.JPG","null","","","","",""
"","html-keyboard-response","218","596729","0.0-6.0-1.70","FL","mj8qhhm23d","1920","1080","de","va08im28","null","","","","learningBlock1","","","","That was a wug.","null","","","","",""
"","html-keyboard-response","219","597729","0.0-6.0-2.70","FL","mj8qhhm23d","1920","1080","de","va08im28","null","","","","learningBlock1","","","","<div style=""font-size:60px;""> </div>","null","FL","learning/Slide71.JPG","That was a wug.","",""
"","image-keyboard-response","220","597904","0.0-6.0-0.71","FL","mj8qhhm23d","1920","1080","de","va08im28","null","","","","","","","","learning/Slide72.JPG","null","","","","",""
"","html-keyboard-response","221","599056","0.0-6.0-1.71","FL","mj8qhhm23d","1920","1080","de","va08im28","null","","","","learningBlock1","","","","That was a bim.","null","","","","",""
"","html-keyboard-response","222","600057","0.0-6.0-2.71","FL","mj8qhhm23d","1920","1080","de","va08im28","null","","","","learningBlock1","","","","<div style=""font-size:60px;""> </div>","null","FL","learning/Slide72.JPG","That was a bim.","",""
"","image-keyboard-response","223","600232","0.0-6.0-0.72","FL","mj8qhhm23d","1920","1080","de","va08im28","null","","","","","","","","learning/Slide73.JPG","null","","","","",""
"","html-keyboard-response","224","601384","0.0-6.0-1.72","FL","mj8qhhm23d","1920","1080","de","va08im28","null","","","","learningBlock1","","","","That was a wug.","null","","","","",""
"","html-keyboard-response","225","602385","0.0-6.0-2.72","FL","mj8qhhm23d","1920","1080","de","va08im28","null","","","","learningBlock1","","","","<div style=""font-size:60px;""> </div>","null","FL","learning/Slide73.JPG","That was a wug.","",""
"","image-keyboard-response","226","602560","0.0-6.0-0.73","FL","mj8qhhm23d","1920","1080","de","va08im28","null","","","","","","","","learning/Slide74.JPG","null","","","","",""
"","html-keyboard-response","227","603710","0.0-6.0-1.73","FL","mj8qhhm23d","1920","1080","de","va08im28","null","","","","learningBlock1","","","","That was a dep.","null","","","","",""
"","html-keyboard-response","228","604710","0.0-6.0-2.73","FL","mj8qhhm23d","1920","1080","de","va08im28","null","","","","learningBlock1","","","","<div style=""font-size:60px;""> </div>","null","FL","learning/Slide74.JPG","That was a dep.","",""
"","image-keyboard-response","229","604887","0.0-6.0-0.74","FL","mj8qhhm23d","1920","1080","de","va08im28","null","","","","","","","","learning/Slide75.JPG","null","","","","",""
"","html-keyboard-response","230","606038","0.0-6.0-1.74","FL","mj8qhhm23d","1920","1080","de","va08im28","null","","","","learningBlock1","","","","That was a tob.","null","","","","",""
"","html-keyboard-response","231","607038","0.0-6.0-2.74","FL","mj8qhhm23d","1920","1080","de","va08im28","null","","","","learningBlock1","","","","<div style=""font-size:60px;""> </div>","null","FL","learning/Slide75.JPG","That was a tob.","",""
"","image-keyboard-response","232","607214","0.0-6.0-0.75","FL","mj8qhhm23d","1920","1080","de","va08im28","null","","","","","","","","learning/Slide76.JPG","null","","","","",""
"","html-keyboard-response","233","608366","0.0-6.0-1.75","FL","mj8qhhm23d","1920","1080","de","va08im28","null","","","","learningBlock1","","","","That was a bim.","null","","","","",""
"","html-keyboard-response","234","609367","0.0-6.0-2.75","FL","mj8qhhm23d","1920","1080","de","va08im28","null","","","","learningBlock1","","","","<div style=""font-size:60px;""> </div>","null","FL","learning/Slide76.JPG","That was a bim.","",""
"","image-keyboard-response","235","609542","0.0-6.0-0.76","FL","mj8qhhm23d","1920","1080","de","va08im28","null","","","","","","","","learning/Slide77.JPG","null","","","","",""
"","html-keyboard-response","236","610693","0.0-6.0-1.76","FL","mj8qhhm23d","1920","1080","de","va08im28","null","","","","learningBlock1","","","","That was a tob.","null","","","","",""
"","html-keyboard-response","237","611693","0.0-6.0-2.76","FL","mj8qhhm23d","1920","1080","de","va08im28","null","","","","learningBlock1","","","","<div style=""font-size:60px;""> </div>","null","FL","learning/Slide77.JPG","That was a tob.","",""
"","image-keyboard-response","238","611870","0.0-6.0-0.77","FL","mj8qhhm23d","1920","1080","de","va08im28","null","","","","","","","","learning/Slide78.JPG","null","","","","",""
"","html-keyboard-response","239","613020","0.0-6.0-1.77","FL","mj8qhhm23d","1920","1080","de","va08im28","null","","","","learningBlock1","","","","That was a wug.","null","","","","",""
"","html-keyboard-response","240","614021","0.0-6.0-2.77","FL","mj8qhhm23d","1920","1080","de","va08im28","null","","","","learningBlock1","","","","<div style=""font-size:60px;""> </div>","null","FL","learning/Slide78.JPG","That was a wug.","",""
"","image-keyboard-response","241","614197","0.0-6.0-0.78","FL","mj8qhhm23d","1920","1080","de","va08im28","null","","","","","","","","learning/Slide79.JPG","null","","","","",""
"","html-keyboard-response","242","615348","0.0-6.0-1.78","FL","mj8qhhm23d","1920","1080","de","va08im28","null","","","","learningBlock1","","","","That was a bim.","null","","","","",""
"","html-keyboard-response","243","616349","0.0-6.0-2.78","FL","mj8qhhm23d","1920","1080","de","va08im28","null","","","","learningBlock1","","","","<div style=""font-size:60px;""> </div>","null","FL","learning/Slide79.JPG","That was a bim.","",""
"","image-keyboard-response","244","616524","0.0-6.0-0.79","FL","mj8qhhm23d","1920","1080","de","va08im28","null","","","","","","","","learning/Slide80.JPG","null","","","","",""
"","html-keyboard-response","245","617676","0.0-6.0-1.79","FL","mj8qhhm23d","1920","1080","de","va08im28","null","","","","learningBlock1","","","","That was a tob.","null","","","","",""
"","html-keyboard-response","246","618676","0.0-6.0-2.79","FL","mj8qhhm23d","1920","1080","de","va08im28","null","","","","learningBlock1","","","","<div style=""font-size:60px;""> </div>","null","FL","learning/Slide80.JPG","That was a tob.","",""
"","instructions","247","623373","0.0-7.0","FL","mj8qhhm23d","1920","1080","de","va08im28","NA","","","[{""page_index"":0,""viewing_time"":4697}]","instructions","","","","","","","","","",""
"","image-keyboard-response","248","623548","0.0-8.0-0.0","FL","mj8qhhm23d","1920","1080","de","va08im28","null","","","","","","","","learning/Slide81.JPG","null","","","","",""
"","html-keyboard-response","249","624700","0.0-8.0-1.0","FL","mj8qhhm23d","1920","1080","de","va08im28","null","","","","learningBlock2","","","","That was a wug.","null","","","","",""
"","html-keyboard-response","250","625700","0.0-8.0-2.0","FL","mj8qhhm23d","1920","1080","de","va08im28","null","","","","learningBlock2","","","","<div style=""font-size:60px;""> </div>","null","FL","learning/Slide81.JPG","That was a wug.","",""
"","image-keyboard-response","251","625875","0.0-8.0-0.1","FL","mj8qhhm23d","1920","1080","de","va08im28","null","","","","","","","","learning/Slide82.JPG","null","","","","",""
"","html-keyboard-response","252","627027","0.0-8.0-1.1","FL","mj8qhhm23d","1920","1080","de","va08im28","null","","","","learningBlock2","","","","That was a bim.","null","","","","",""
"","html-keyboard-response","253","628028","0.0-8.0-2.1","FL","mj8qhhm23d","1920","1080","de","va08im28","null","","","","learningBlock2","","","","<div style=""font-size:60px;""> </div>","null","FL","learning/Slide82.JPG","That was a bim.","",""
"","image-keyboard-response","254","628204","0.0-8.0-0.2","FL","mj8qhhm23d","1920","1080","de","va08im28","null","","","","","","","","learning/Slide83.JPG","null","","","","",""
"","html-keyboard-response","255","629353","0.0-8.0-1.2","FL","mj8qhhm23d","1920","1080","de","va08im28","null","","","","learningBlock2","","","","That was a wug.","null","","","","",""
"","html-keyboard-response","256","630354","0.0-8.0-2.2","FL","mj8qhhm23d","1920","1080","de","va08im28","null","","","","learningBlock2","","","","<div style=""font-size:60px;""> </div>","null","FL","learning/Slide83.JPG","That was a wug.","",""
"","image-keyboard-response","257","630530","0.0-8.0-0.3","FL","mj8qhhm23d","1920","1080","de","va08im28","null","","","","","","","","learning/Slide84.JPG","null","","","","",""
"","html-keyboard-response","258","631681","0.0-8.0-1.3","FL","mj8qhhm23d","1920","1080","de","va08im28","null","","","","learningBlock2","","","","That was a dep.","null","","","","",""
"","html-keyboard-response","259","632680","0.0-8.0-2.3","FL","mj8qhhm23d","1920","1080","de","va08im28","null","","","","learningBlock2","","","","<div style=""font-size:60px;""> </div>","null","FL","learning/Slide84.JPG","That was a dep.","",""
"","image-keyboard-response","260","632856","0.0-8.0-0.4","FL","mj8qhhm23d","1920","1080","de","va08im28","null","","","","","","","","learning/Slide85.JPG","null","","","","",""
"","html-keyboard-response","261","634007","0.0-8.0-1.4","FL","mj8qhhm23d","1920","1080","de","va08im28","null","","","","learningBlock2","","","","That was a bim.","null","","","","",""
"","html-keyboard-response","262","635009","0.0-8.0-2.4","FL","mj8qhhm23d","1920","1080","de","va08im28","null","","","","learningBlock2","","","","<div style=""font-size:60px;""> </div>","null","FL","learning/Slide85.JPG","That was a bim.","",""
"","image-keyboard-response","263","635184","0.0-8.0-0.5","FL","mj8qhhm23d","1920","1080","de","va08im28","null","","","","","","","","learning/Slide86.JPG","null","","","","",""
"","html-keyboard-response","264","636336","0.0-8.0-1.5","FL","mj8qhhm23d","1920","1080","de","va08im28","null","","","","learningBlock2","","","","That was a tob.","null","","","","",""
"","html-keyboard-response","265","637338","0.0-8.0-2.5","FL","mj8qhhm23d","1920","1080","de","va08im28","null","","","","learningBlock2","","","","<div style=""font-size:60px;""> </div>","null","FL","learning/Slide86.JPG","That was a tob.","",""
"","image-keyboard-response","266","637513","0.0-8.0-0.6","FL","mj8qhhm23d","1920","1080","de","va08im28","null","","","","","","","","learning/Slide87.JPG","null","","","","",""
"","html-keyboard-response","267","638665","0.0-8.0-1.6","FL","mj8qhhm23d","1920","1080","de","va08im28","null","","","","learningBlock2","","","","That was a wug.","null","","","","",""
"","html-keyboard-response","268","639665","0.0-8.0-2.6","FL","mj8qhhm23d","1920","1080","de","va08im28","null","","","","learningBlock2","","","","<div style=""font-size:60px;""> </div>","null","FL","learning/Slide87.JPG","That was a wug.","",""
"","image-keyboard-response","269","639842","0.0-8.0-0.7","FL","mj8qhhm23d","1920","1080","de","va08im28","null","","","","","","","","learning/Slide88.JPG","null","","","","",""
"","html-keyboard-response","270","640992","0.0-8.0-1.7","FL","mj8qhhm23d","1920","1080","de","va08im28","null","","","","learningBlock2","","","","That was a tob.","null","","","","",""
"","html-keyboard-response","271","641992","0.0-8.0-2.7","FL","mj8qhhm23d","1920","1080","de","va08im28","null","","","","learningBlock2","","","","<div style=""font-size:60px;""> </div>","null","FL","learning/Slide88.JPG","That was a tob.","",""
"","image-keyboard-response","272","642168","0.0-8.0-0.8","FL","mj8qhhm23d","1920","1080","de","va08im28","null","","","","","","","","learning/Slide89.JPG","null","","","","",""
"","html-keyboard-response","273","643319","0.0-8.0-1.8","FL","mj8qhhm23d","1920","1080","de","va08im28","null","","","","learningBlock2","","","","That was a bim.","null","","","","",""
"","html-keyboard-response","274","644319","0.0-8.0-2.8","FL","mj8qhhm23d","1920","1080","de","va08im28","null","","","","learningBlock2","","","","<div style=""font-size:60px;""> </div>","null","FL","learning/Slide89.JPG","That was a bim.","",""
"","image-keyboard-response","275","644496","0.0-8.0-0.9","FL","mj8qhhm23d","1920","1080","de","va08im28","null","","","","","","","","learning/Slide90.JPG","null","","","","",""
"","html-keyboard-response","276","645647","0.0-8.0-1.9","FL","mj8qhhm23d","1920","1080","de","va08im28","null","","","","learningBlock2","","","","That was a dep.","null","","","","",""
"","html-keyboard-response","277","646648","0.0-8.0-2.9","FL","mj8qhhm23d","1920","1080","de","va08im28","null","","","","learningBlock2","","","","<div style=""font-size:60px;""> </div>","null","FL","learning/Slide90.JPG","That was a dep.","",""
"","image-keyboard-response","278","646823","0.0-8.0-0.10","FL","mj8qhhm23d","1920","1080","de","va08im28","null","","","","","","","","learning/Slide91.JPG","null","","","","",""
"","html-keyboard-response","279","647974","0.0-8.0-1.10","FL","mj8qhhm23d","1920","1080","de","va08im28","null","","","","learningBlock2","","","","That was a wug.","null","","","","",""
"","html-keyboard-response","280","648974","0.0-8.0-2.10","FL","mj8qhhm23d","1920","1080","de","va08im28","null","","","","learningBlock2","","","","<div style=""font-size:60px;""> </div>","null","FL","learning/Slide91.JPG","That was a wug.","",""
"","image-keyboard-response","281","649151","0.0-8.0-0.11","FL","mj8qhhm23d","1920","1080","de","va08im28","null","","","","","","","","learning/Slide92.JPG","null","","","","",""
"","html-keyboard-response","282","650302","0.0-8.0-1.11","FL","mj8qhhm23d","1920","1080","de","va08im28","null","","","","learningBlock2","","","","That was a tob.","null","","","","",""
"","html-keyboard-response","283","651302","0.0-8.0-2.11","FL","mj8qhhm23d","1920","1080","de","va08im28","null","","","","learningBlock2","","","","<div style=""font-size:60px;""> </div>","null","FL","learning/Slide92.JPG","That was a tob.","",""
"","image-keyboard-response","284","651478","0.0-8.0-0.12","FL","mj8qhhm23d","1920","1080","de","va08im28","null","","","","","","","","learning/Slide93.JPG","null","","","","",""
"","html-keyboard-response","285","652630","0.0-8.0-1.12","FL","mj8qhhm23d","1920","1080","de","va08im28","null","","","","learningBlock2","","","","That was a bim.","null","","","","",""
"","html-keyboard-response","286","653631","0.0-8.0-2.12","FL","mj8qhhm23d","1920","1080","de","va08im28","null","","","","learningBlock2","","","","<div style=""font-size:60px;""> </div>","null","FL","learning/Slide93.JPG","That was a bim.","",""
"","image-keyboard-response","287","653806","0.0-8.0-0.13","FL","mj8qhhm23d","1920","1080","de","va08im28","null","","","","","","","","learning/Slide94.JPG","null","","","","",""
"","html-keyboard-response","288","654957","0.0-8.0-1.13","FL","mj8qhhm23d","1920","1080","de","va08im28","null","","","","learningBlock2","","","","That was a tob.","null","","","","",""
"","html-keyboard-response","289","655959","0.0-8.0-2.13","FL","mj8qhhm23d","1920","1080","de","va08im28","null","","","","learningBlock2","","","","<div style=""font-size:60px;""> </div>","null","FL","learning/Slide94.JPG","That was a tob.","",""
"","image-keyboard-response","290","656135","0.0-8.0-0.14","FL","mj8qhhm23d","1920","1080","de","va08im28","null","","","","","","","","learning/Slide95.JPG","null","","","","",""
"","html-keyboard-response","291","657287","0.0-8.0-1.14","FL","mj8qhhm23d","1920","1080","de","va08im28","null","","","","learningBlock2","","","","That was a wug.","null","","","","",""
"","html-keyboard-response","292","658288","0.0-8.0-2.14","FL","mj8qhhm23d","1920","1080","de","va08im28","null","","","","learningBlock2","","","","<div style=""font-size:60px;""> </div>","null","FL","learning/Slide95.JPG","That was a wug.","",""
"","image-keyboard-response","293","658463","0.0-8.0-0.15","FL","mj8qhhm23d","1920","1080","de","va08im28","null","","","","","","","","learning/Slide96.JPG","null","","","","",""
"","html-keyboard-response","294","659613","0.0-8.0-1.15","FL","mj8qhhm23d","1920","1080","de","va08im28","null","","","","learningBlock2","","","","That was a tob.","null","","","","",""
"","html-keyboard-response","295","660615","0.0-8.0-2.15","FL","mj8qhhm23d","1920","1080","de","va08im28","null","","","","learningBlock2","","","","<div style=""font-size:60px;""> </div>","null","FL","learning/Slide96.JPG","That was a tob.","",""
"","image-keyboard-response","296","660791","0.0-8.0-0.16","FL","mj8qhhm23d","1920","1080","de","va08im28","null","","","","","","","","learning/Slide97.JPG","null","","","","",""
"","html-keyboard-response","297","661941","0.0-8.0-1.16","FL","mj8qhhm23d","1920","1080","de","va08im28","null","","","","learningBlock2","","","","That was a dep.","null","","","","",""
"","html-keyboard-response","298","662941","0.0-8.0-2.16","FL","mj8qhhm23d","1920","1080","de","va08im28","null","","","","learningBlock2","","","","<div style=""font-size:60px;""> </div>","null","FL","learning/Slide97.JPG","That was a dep.","",""
"","image-keyboard-response","299","663118","0.0-8.0-0.17","FL","mj8qhhm23d","1920","1080","de","va08im28","null","","","","","","","","learning/Slide98.JPG","null","","","","",""
"","html-keyboard-response","300","664269","0.0-8.0-1.17","FL","mj8qhhm23d","1920","1080","de","va08im28","null","","","","learningBlock2","","","","That was a bim.","null","","","","",""
"","html-keyboard-response","301","665270","0.0-8.0-2.17","FL","mj8qhhm23d","1920","1080","de","va08im28","null","","","","learningBlock2","","","","<div style=""font-size:60px;""> </div>","null","FL","learning/Slide98.JPG","That was a bim.","",""
"","image-keyboard-response","302","665446","0.0-8.0-0.18","FL","mj8qhhm23d","1920","1080","de","va08im28","null","","","","","","","","learning/Slide99.JPG","null","","","","",""
"","html-keyboard-response","303","666597","0.0-8.0-1.18","FL","mj8qhhm23d","1920","1080","de","va08im28","null","","","","learningBlock2","","","","That was a dep.","null","","","","",""
"","html-keyboard-response","304","667599","0.0-8.0-2.18","FL","mj8qhhm23d","1920","1080","de","va08im28","null","","","","learningBlock2","","","","<div style=""font-size:60px;""> </div>","null","FL","learning/Slide99.JPG","That was a dep.","",""
"","image-keyboard-response","305","667774","0.0-8.0-0.19","FL","mj8qhhm23d","1920","1080","de","va08im28","null","","","","","","","","learning/Slide100.JPG","null","","","","",""
"","html-keyboard-response","306","668924","0.0-8.0-1.19","FL","mj8qhhm23d","1920","1080","de","va08im28","null","","","","learningBlock2","","","","That was a bim.","null","","","","",""
"","html-keyboard-response","307","669925","0.0-8.0-2.19","FL","mj8qhhm23d","1920","1080","de","va08im28","null","","","","learningBlock2","","","","<div style=""font-size:60px;""> </div>","null","FL","learning/Slide100.JPG","That was a bim.","",""
"","image-keyboard-response","308","670101","0.0-8.0-0.20","FL","mj8qhhm23d","1920","1080","de","va08im28","null","","","","","","","","learning/Slide101.JPG","null","","","","",""
"","html-keyboard-response","309","671252","0.0-8.0-1.20","FL","mj8qhhm23d","1920","1080","de","va08im28","null","","","","learningBlock2","","","","That was a tob.","null","","","","",""
"","html-keyboard-response","310","672252","0.0-8.0-2.20","FL","mj8qhhm23d","1920","1080","de","va08im28","null","","","","learningBlock2","","","","<div style=""font-size:60px;""> </div>","null","FL","learning/Slide101.JPG","That was a tob.","",""
"","image-keyboard-response","311","672429","0.0-8.0-0.21","FL","mj8qhhm23d","1920","1080","de","va08im28","null","","","","","","","","learning/Slide102.JPG","null","","","","",""
"","html-keyboard-response","312","673579","0.0-8.0-1.21","FL","mj8qhhm23d","1920","1080","de","va08im28","null","","","","learningBlock2","","","","That was a bim.","null","","","","",""
"","html-keyboard-response","313","674580","0.0-8.0-2.21","FL","mj8qhhm23d","1920","1080","de","va08im28","null","","","","learningBlock2","","","","<div style=""font-size:60px;""> </div>","null","FL","learning/Slide102.JPG","That was a bim.","",""
"","image-keyboard-response","314","674755","0.0-8.0-0.22","FL","mj8qhhm23d","1920","1080","de","va08im28","null","","","","","","","","learning/Slide103.JPG","null","","","","",""
"","html-keyboard-response","315","675906","0.0-8.0-1.22","FL","mj8qhhm23d","1920","1080","de","va08im28","null","","","","learningBlock2","","","","That was a dep.","null","","","","",""
"","html-keyboard-response","316","676907","0.0-8.0-2.22","FL","mj8qhhm23d","1920","1080","de","va08im28","null","","","","learningBlock2","","","","<div style=""font-size:60px;""> </div>","null","FL","learning/Slide103.JPG","That was a dep.","",""
"","image-keyboard-response","317","677082","0.0-8.0-0.23","FL","mj8qhhm23d","1920","1080","de","va08im28","null","","","","","","","","learning/Slide104.JPG","null","","","","",""
"","html-keyboard-response","318","678234","0.0-8.0-1.23","FL","mj8qhhm23d","1920","1080","de","va08im28","null","","","","learningBlock2","","","","That was a tob.","null","","","","",""
"","html-keyboard-response","319","679236","0.0-8.0-2.23","FL","mj8qhhm23d","1920","1080","de","va08im28","null","","","","learningBlock2","","","","<div style=""font-size:60px;""> </div>","null","FL","learning/Slide104.JPG","That was a tob.","",""
"","image-keyboard-response","320","679411","0.0-8.0-0.24","FL","mj8qhhm23d","1920","1080","de","va08im28","null","","","","","","","","learning/Slide105.JPG","null","","","","",""
"","html-keyboard-response","321","680563","0.0-8.0-1.24","FL","mj8qhhm23d","1920","1080","de","va08im28","null","","","","learningBlock2","","","","That was a dep.","null","","","","",""
"","html-keyboard-response","322","681563","0.0-8.0-2.24","FL","mj8qhhm23d","1920","1080","de","va08im28","null","","","","learningBlock2","","","","<div style=""font-size:60px;""> </div>","null","FL","learning/Slide105.JPG","That was a dep.","",""
"","image-keyboard-response","323","681739","0.0-8.0-0.25","FL","mj8qhhm23d","1920","1080","de","va08im28","null","","","","","","","","learning/Slide106.JPG","null","","","","",""
"","html-keyboard-response","324","682891","0.0-8.0-1.25","FL","mj8qhhm23d","1920","1080","de","va08im28","null","","","","learningBlock2","","","","That was a wug.","null","","","","",""
"","html-keyboard-response","325","683891","0.0-8.0-2.25","FL","mj8qhhm23d","1920","1080","de","va08im28","null","","","","learningBlock2","","","","<div style=""font-size:60px;""> </div>","null","FL","learning/Slide106.JPG","That was a wug.","",""
"","image-keyboard-response","326","684067","0.0-8.0-0.26","FL","mj8qhhm23d","1920","1080","de","va08im28","null","","","","","","","","learning/Slide107.JPG","null","","","","",""
"","html-keyboard-response","327","685219","0.0-8.0-1.26","FL","mj8qhhm23d","1920","1080","de","va08im28","null","","","","learningBlock2","","","","That was a bim.","null","","","","",""
"","html-keyboard-response","328","686219","0.0-8.0-2.26","FL","mj8qhhm23d","1920","1080","de","va08im28","null","","","","learningBlock2","","","","<div style=""font-size:60px;""> </div>","null","FL","learning/Slide107.JPG","That was a bim.","",""
"","image-keyboard-response","329","686396","0.0-8.0-0.27","FL","mj8qhhm23d","1920","1080","de","va08im28","null","","","","","","","","learning/Slide108.JPG","null","","","","",""
"","html-keyboard-response","330","687547","0.0-8.0-1.27","FL","mj8qhhm23d","1920","1080","de","va08im28","null","","","","learningBlock2","","","","That was a dep.","null","","","","",""
"","html-keyboard-response","331","688548","0.0-8.0-2.27","FL","mj8qhhm23d","1920","1080","de","va08im28","null","","","","learningBlock2","","","","<div style=""font-size:60px;""> </div>","null","FL","learning/Slide108.JPG","That was a dep.","",""
"","image-keyboard-response","332","688723","0.0-8.0-0.28","FL","mj8qhhm23d","1920","1080","de","va08im28","null","","","","","","","","learning/Slide109.JPG","null","","","","",""
"","html-keyboard-response","333","689874","0.0-8.0-1.28","FL","mj8qhhm23d","1920","1080","de","va08im28","null","","","","learningBlock2","","","","That was a wug.","null","","","","",""
"","html-keyboard-response","334","690874","0.0-8.0-2.28","FL","mj8qhhm23d","1920","1080","de","va08im28","null","","","","learningBlock2","","","","<div style=""font-size:60px;""> </div>","null","FL","learning/Slide109.JPG","That was a wug.","",""
"","image-keyboard-response","335","691050","0.0-8.0-0.29","FL","mj8qhhm23d","1920","1080","de","va08im28","null","","","","","","","","learning/Slide110.JPG","null","","","","",""
"","html-keyboard-response","336","692201","0.0-8.0-1.29","FL","mj8qhhm23d","1920","1080","de","va08im28","null","","","","learningBlock2","","","","That was a bim.","null","","","","",""
"","html-keyboard-response","337","693201","0.0-8.0-2.29","FL","mj8qhhm23d","1920","1080","de","va08im28","null","","","","learningBlock2","","","","<div style=""font-size:60px;""> </div>","null","FL","learning/Slide110.JPG","That was a bim.","",""
"","image-keyboard-response","338","693377","0.0-8.0-0.30","FL","mj8qhhm23d","1920","1080","de","va08im28","null","","","","","","","","learning/Slide111.JPG","null","","","","",""
"","html-keyboard-response","339","694528","0.0-8.0-1.30","FL","mj8qhhm23d","1920","1080","de","va08im28","null","","","","learningBlock2","","","","That was a tob.","null","","","","",""
"","html-keyboard-response","340","695529","0.0-8.0-2.30","FL","mj8qhhm23d","1920","1080","de","va08im28","null","","","","learningBlock2","","","","<div style=""font-size:60px;""> </div>","null","FL","learning/Slide111.JPG","That was a tob.","",""
"","image-keyboard-response","341","695706","0.0-8.0-0.31","FL","mj8qhhm23d","1920","1080","de","va08im28","null","","","","","","","","learning/Slide112.JPG","null","","","","",""
"","html-keyboard-response","342","696857","0.0-8.0-1.31","FL","mj8qhhm23d","1920","1080","de","va08im28","null","","","","learningBlock2","","","","That was a wug.","null","","","","",""
"","html-keyboard-response","343","697857","0.0-8.0-2.31","FL","mj8qhhm23d","1920","1080","de","va08im28","null","","","","learningBlock2","","","","<div style=""font-size:60px;""> </div>","null","FL","learning/Slide112.JPG","That was a wug.","",""
"","image-keyboard-response","344","698033","0.0-8.0-0.32","FL","mj8qhhm23d","1920","1080","de","va08im28","null","","","","","","","","learning/Slide113.JPG","null","","","","",""
"","html-keyboard-response","345","699184","0.0-8.0-1.32","FL","mj8qhhm23d","1920","1080","de","va08im28","null","","","","learningBlock2","","","","That was a tob.","null","","","","",""
"","html-keyboard-response","346","700185","0.0-8.0-2.32","FL","mj8qhhm23d","1920","1080","de","va08im28","null","","","","learningBlock2","","","","<div style=""font-size:60px;""> </div>","null","FL","learning/Slide113.JPG","That was a tob.","",""
"","image-keyboard-response","347","700360","0.0-8.0-0.33","FL","mj8qhhm23d","1920","1080","de","va08im28","null","","","","","","","","learning/Slide114.JPG","null","","","","",""
"","html-keyboard-response","348","701511","0.0-8.0-1.33","FL","mj8qhhm23d","1920","1080","de","va08im28","null","","","","learningBlock2","","","","That was a wug.","null","","","","",""
"","html-keyboard-response","349","702511","0.0-8.0-2.33","FL","mj8qhhm23d","1920","1080","de","va08im28","null","","","","learningBlock2","","","","<div style=""font-size:60px;""> </div>","null","FL","learning/Slide114.JPG","That was a wug.","",""
"","image-keyboard-response","350","702688","0.0-8.0-0.34","FL","mj8qhhm23d","1920","1080","de","va08im28","null","","","","","","","","learning/Slide115.JPG","null","","","","",""
"","html-keyboard-response","351","703839","0.0-8.0-1.34","FL","mj8qhhm23d","1920","1080","de","va08im28","null","","","","learningBlock2","","","","That was a bim.","null","","","","",""
"","html-keyboard-response","352","704839","0.0-8.0-2.34","FL","mj8qhhm23d","1920","1080","de","va08im28","null","","","","learningBlock2","","","","<div style=""font-size:60px;""> </div>","null","FL","learning/Slide115.JPG","That was a bim.","",""
"","image-keyboard-response","353","705015","0.0-8.0-0.35","FL","mj8qhhm23d","1920","1080","de","va08im28","null","","","","","","","","learning/Slide116.JPG","null","","","","",""
"","html-keyboard-response","354","706166","0.0-8.0-1.35","FL","mj8qhhm23d","1920","1080","de","va08im28","null","","","","learningBlock2","","","","That was a dep.","null","","","","",""
"","html-keyboard-response","355","707167","0.0-8.0-2.35","FL","mj8qhhm23d","1920","1080","de","va08im28","null","","","","learningBlock2","","","","<div style=""font-size:60px;""> </div>","null","FL","learning/Slide116.JPG","That was a dep.","",""
"","image-keyboard-response","356","707343","0.0-8.0-0.36","FL","mj8qhhm23d","1920","1080","de","va08im28","null","","","","","","","","learning/Slide117.JPG","null","","","","",""
"","html-keyboard-response","357","708492","0.0-8.0-1.36","FL","mj8qhhm23d","1920","1080","de","va08im28","null","","","","learningBlock2","","","","That was a tob.","null","","","","",""
"","html-keyboard-response","358","709494","0.0-8.0-2.36","FL","mj8qhhm23d","1920","1080","de","va08im28","null","","","","learningBlock2","","","","<div style=""font-size:60px;""> </div>","null","FL","learning/Slide117.JPG","That was a tob.","",""
"","image-keyboard-response","359","709670","0.0-8.0-0.37","FL","mj8qhhm23d","1920","1080","de","va08im28","null","","","","","","","","learning/Slide118.JPG","null","","","","",""
"","html-keyboard-response","360","710820","0.0-8.0-1.37","FL","mj8qhhm23d","1920","1080","de","va08im28","null","","","","learningBlock2","","","","That was a dep.","null","","","","",""
"","html-keyboard-response","361","711821","0.0-8.0-2.37","FL","mj8qhhm23d","1920","1080","de","va08im28","null","","","","learningBlock2","","","","<div style=""font-size:60px;""> </div>","null","FL","learning/Slide118.JPG","That was a dep.","",""
"","image-keyboard-response","362","711997","0.0-8.0-0.38","FL","mj8qhhm23d","1920","1080","de","va08im28","null","","","","","","","","learning/Slide119.JPG","null","","","","",""
"","html-keyboard-response","363","713148","0.0-8.0-1.38","FL","mj8qhhm23d","1920","1080","de","va08im28","null","","","","learningBlock2","","","","That was a wug.","null","","","","",""
"","html-keyboard-response","364","714149","0.0-8.0-2.38","FL","mj8qhhm23d","1920","1080","de","va08im28","null","","","","learningBlock2","","","","<div style=""font-size:60px;""> </div>","null","FL","learning/Slide119.JPG","That was a wug.","",""
"","image-keyboard-response","365","714325","0.0-8.0-0.39","FL","mj8qhhm23d","1920","1080","de","va08im28","null","","","","","","","","learning/Slide120.JPG","null","","","","",""
"","html-keyboard-response","366","715475","0.0-8.0-1.39","FL","mj8qhhm23d","1920","1080","de","va08im28","null","","","","learningBlock2","","","","That was a dep.","null","","","","",""
"","html-keyboard-response","367","716476","0.0-8.0-2.39","FL","mj8qhhm23d","1920","1080","de","va08im28","null","","","","learningBlock2","","","","<div style=""font-size:60px;""> </div>","null","FL","learning/Slide120.JPG","That was a dep.","",""
"","image-keyboard-response","368","716652","0.0-8.0-0.40","FL","mj8qhhm23d","1920","1080","de","va08im28","null","","","","","","","","learning/Slide121.JPG","null","","","","",""
"","html-keyboard-response","369","717803","0.0-8.0-1.40","FL","mj8qhhm23d","1920","1080","de","va08im28","null","","","","learningBlock2","","","","That was a bim.","null","","","","",""
"","html-keyboard-response","370","718805","0.0-8.0-2.40","FL","mj8qhhm23d","1920","1080","de","va08im28","null","","","","learningBlock2","","","","<div style=""font-size:60px;""> </div>","null","FL","learning/Slide121.JPG","That was a bim.","",""
"","image-keyboard-response","371","718981","0.0-8.0-0.41","FL","mj8qhhm23d","1920","1080","de","va08im28","null","","","","","","","","learning/Slide122.JPG","null","","","","",""
"","html-keyboard-response","372","720132","0.0-8.0-1.41","FL","mj8qhhm23d","1920","1080","de","va08im28","null","","","","learningBlock2","","","","That was a wug.","null","","","","",""
"","html-keyboard-response","373","721132","0.0-8.0-2.41","FL","mj8qhhm23d","1920","1080","de","va08im28","null","","","","learningBlock2","","","","<div style=""font-size:60px;""> </div>","null","FL","learning/Slide122.JPG","That was a wug.","",""
"","image-keyboard-response","374","721307","0.0-8.0-0.42","FL","mj8qhhm23d","1920","1080","de","va08im28","null","","","","","","","","learning/Slide123.JPG","null","","","","",""
"","html-keyboard-response","375","722458","0.0-8.0-1.42","FL","mj8qhhm23d","1920","1080","de","va08im28","null","","","","learningBlock2","","","","That was a bim.","null","","","","",""
"","html-keyboard-response","376","723459","0.0-8.0-2.42","FL","mj8qhhm23d","1920","1080","de","va08im28","null","","","","learningBlock2","","","","<div style=""font-size:60px;""> </div>","null","FL","learning/Slide123.JPG","That was a bim.","",""
"","image-keyboard-response","377","723634","0.0-8.0-0.43","FL","mj8qhhm23d","1920","1080","de","va08im28","null","","","","","","","","learning/Slide124.JPG","null","","","","",""
"","html-keyboard-response","378","724786","0.0-8.0-1.43","FL","mj8qhhm23d","1920","1080","de","va08im28","null","","","","learningBlock2","","","","That was a tob.","null","","","","",""
"","html-keyboard-response","379","725786","0.0-8.0-2.43","FL","mj8qhhm23d","1920","1080","de","va08im28","null","","","","learningBlock2","","","","<div style=""font-size:60px;""> </div>","null","FL","learning/Slide124.JPG","That was a tob.","",""
"","image-keyboard-response","380","725963","0.0-8.0-0.44","FL","mj8qhhm23d","1920","1080","de","va08im28","null","","","","","","","","learning/Slide125.JPG","null","","","","",""
"","html-keyboard-response","381","727114","0.0-8.0-1.44","FL","mj8qhhm23d","1920","1080","de","va08im28","null","","","","learningBlock2","","","","That was a bim.","null","","","","",""
"","html-keyboard-response","382","728114","0.0-8.0-2.44","FL","mj8qhhm23d","1920","1080","de","va08im28","null","","","","learningBlock2","","","","<div style=""font-size:60px;""> </div>","null","FL","learning/Slide125.JPG","That was a bim.","",""
"","image-keyboard-response","383","728290","0.0-8.0-0.45","FL","mj8qhhm23d","1920","1080","de","va08im28","null","","","","","","","","learning/Slide126.JPG","null","","","","",""
"","html-keyboard-response","384","729441","0.0-8.0-1.45","FL","mj8qhhm23d","1920","1080","de","va08im28","null","","","","learningBlock2","","","","That was a tob.","null","","","","",""
"","html-keyboard-response","385","730441","0.0-8.0-2.45","FL","mj8qhhm23d","1920","1080","de","va08im28","null","","","","learningBlock2","","","","<div style=""font-size:60px;""> </div>","null","FL","learning/Slide126.JPG","That was a tob.","",""
"","image-keyboard-response","386","730618","0.0-8.0-0.46","FL","mj8qhhm23d","1920","1080","de","va08im28","null","","","","","","","","learning/Slide127.JPG","null","","","","",""
"","html-keyboard-response","387","731768","0.0-8.0-1.46","FL","mj8qhhm23d","1920","1080","de","va08im28","null","","","","learningBlock2","","","","That was a dep.","null","","","","",""
"","html-keyboard-response","388","732769","0.0-8.0-2.46","FL","mj8qhhm23d","1920","1080","de","va08im28","null","","","","learningBlock2","","","","<div style=""font-size:60px;""> </div>","null","FL","learning/Slide127.JPG","That was a dep.","",""
"","image-keyboard-response","389","732945","0.0-8.0-0.47","FL","mj8qhhm23d","1920","1080","de","va08im28","null","","","","","","","","learning/Slide128.JPG","null","","","","",""
"","html-keyboard-response","390","734096","0.0-8.0-1.47","FL","mj8qhhm23d","1920","1080","de","va08im28","null","","","","learningBlock2","","","","That was a wug.","null","","","","",""
"","html-keyboard-response","391","735097","0.0-8.0-2.47","FL","mj8qhhm23d","1920","1080","de","va08im28","null","","","","learningBlock2","","","","<div style=""font-size:60px;""> </div>","null","FL","learning/Slide128.JPG","That was a wug.","",""
"","image-keyboard-response","392","735273","0.0-8.0-0.48","FL","mj8qhhm23d","1920","1080","de","va08im28","null","","","","","","","","learning/Slide129.JPG","null","","","","",""
"","html-keyboard-response","393","736424","0.0-8.0-1.48","FL","mj8qhhm23d","1920","1080","de","va08im28","null","","","","learningBlock2","","","","That was a tob.","null","","","","",""
"","html-keyboard-response","394","737424","0.0-8.0-2.48","FL","mj8qhhm23d","1920","1080","de","va08im28","null","","","","learningBlock2","","","","<div style=""font-size:60px;""> </div>","null","FL","learning/Slide129.JPG","That was a tob.","",""
"","image-keyboard-response","395","737600","0.0-8.0-0.49","FL","mj8qhhm23d","1920","1080","de","va08im28","null","","","","","","","","learning/Slide130.JPG","null","","","","",""
"","html-keyboard-response","396","738751","0.0-8.0-1.49","FL","mj8qhhm23d","1920","1080","de","va08im28","null","","","","learningBlock2","","","","That was a wug.","null","","","","",""
"","html-keyboard-response","397","739751","0.0-8.0-2.49","FL","mj8qhhm23d","1920","1080","de","va08im28","null","","","","learningBlock2","","","","<div style=""font-size:60px;""> </div>","null","FL","learning/Slide130.JPG","That was a wug.","",""
"","image-keyboard-response","398","739927","0.0-8.0-0.50","FL","mj8qhhm23d","1920","1080","de","va08im28","null","","","","","","","","learning/Slide131.JPG","null","","","","",""
"","html-keyboard-response","399","741077","0.0-8.0-1.50","FL","mj8qhhm23d","1920","1080","de","va08im28","null","","","","learningBlock2","","","","That was a bim.","null","","","","",""
"","html-keyboard-response","400","742078","0.0-8.0-2.50","FL","mj8qhhm23d","1920","1080","de","va08im28","null","","","","learningBlock2","","","","<div style=""font-size:60px;""> </div>","null","FL","learning/Slide131.JPG","That was a bim.","",""
"","image-keyboard-response","401","742254","0.0-8.0-0.51","FL","mj8qhhm23d","1920","1080","de","va08im28","null","","","","","","","","learning/Slide132.JPG","null","","","","",""
"","html-keyboard-response","402","743405","0.0-8.0-1.51","FL","mj8qhhm23d","1920","1080","de","va08im28","null","","","","learningBlock2","","","","That was a dep.","null","","","","",""
"","html-keyboard-response","403","744405","0.0-8.0-2.51","FL","mj8qhhm23d","1920","1080","de","va08im28","null","","","","learningBlock2","","","","<div style=""font-size:60px;""> </div>","null","FL","learning/Slide132.JPG","That was a dep.","",""
"","image-keyboard-response","404","744581","0.0-8.0-0.52","FL","mj8qhhm23d","1920","1080","de","va08im28","null","","","","","","","","learning/Slide133.JPG","null","","","","",""
"","html-keyboard-response","405","745732","0.0-8.0-1.52","FL","mj8qhhm23d","1920","1080","de","va08im28","null","","","","learningBlock2","","","","That was a tob.","null","","","","",""
"","html-keyboard-response","406","746732","0.0-8.0-2.52","FL","mj8qhhm23d","1920","1080","de","va08im28","null","","","","learningBlock2","","","","<div style=""font-size:60px;""> </div>","null","FL","learning/Slide133.JPG","That was a tob.","",""
"","image-keyboard-response","407","746908","0.0-8.0-0.53","FL","mj8qhhm23d","1920","1080","de","va08im28","null","","","","","","","","learning/Slide134.JPG","null","","","","",""
"","html-keyboard-response","408","748058","0.0-8.0-1.53","FL","mj8qhhm23d","1920","1080","de","va08im28","null","","","","learningBlock2","","","","That was a dep.","null","","","","",""
"","html-keyboard-response","409","749058","0.0-8.0-2.53","FL","mj8qhhm23d","1920","1080","de","va08im28","null","","","","learningBlock2","","","","<div style=""font-size:60px;""> </div>","null","FL","learning/Slide134.JPG","That was a dep.","",""
"","image-keyboard-response","410","749235","0.0-8.0-0.54","FL","mj8qhhm23d","1920","1080","de","va08im28","null","","","","","","","","learning/Slide135.JPG","null","","","","",""
"","html-keyboard-response","411","750386","0.0-8.0-1.54","FL","mj8qhhm23d","1920","1080","de","va08im28","null","","","","learningBlock2","","","","That was a tob.","null","","","","",""
"","html-keyboard-response","412","751386","0.0-8.0-2.54","FL","mj8qhhm23d","1920","1080","de","va08im28","null","","","","learningBlock2","","","","<div style=""font-size:60px;""> </div>","null","FL","learning/Slide135.JPG","That was a tob.","",""
"","image-keyboard-response","413","751562","0.0-8.0-0.55","FL","mj8qhhm23d","1920","1080","de","va08im28","null","","","","","","","","learning/Slide136.JPG","null","","","","",""
"","html-keyboard-response","414","752713","0.0-8.0-1.55","FL","mj8qhhm23d","1920","1080","de","va08im28","null","","","","learningBlock2","","","","That was a wug.","null","","","","",""
"","html-keyboard-response","415","753713","0.0-8.0-2.55","FL","mj8qhhm23d","1920","1080","de","va08im28","null","","","","learningBlock2","","","","<div style=""font-size:60px;""> </div>","null","FL","learning/Slide136.JPG","That was a wug.","",""
"","image-keyboard-response","416","753889","0.0-8.0-0.56","FL","mj8qhhm23d","1920","1080","de","va08im28","null","","","","","","","","learning/Slide137.JPG","null","","","","",""
"","html-keyboard-response","417","755040","0.0-8.0-1.56","FL","mj8qhhm23d","1920","1080","de","va08im28","null","","","","learningBlock2","","","","That was a tob.","null","","","","",""
"","html-keyboard-response","418","756040","0.0-8.0-2.56","FL","mj8qhhm23d","1920","1080","de","va08im28","null","","","","learningBlock2","","","","<div style=""font-size:60px;""> </div>","null","FL","learning/Slide137.JPG","That was a tob.","",""
"","image-keyboard-response","419","756216","0.0-8.0-0.57","FL","mj8qhhm23d","1920","1080","de","va08im28","null","","","","","","","","learning/Slide138.JPG","null","","","","",""
"","html-keyboard-response","420","757367","0.0-8.0-1.57","FL","mj8qhhm23d","1920","1080","de","va08im28","null","","","","learningBlock2","","","","That was a bim.","null","","","","",""
"","html-keyboard-response","421","758368","0.0-8.0-2.57","FL","mj8qhhm23d","1920","1080","de","va08im28","null","","","","learningBlock2","","","","<div style=""font-size:60px;""> </div>","null","FL","learning/Slide138.JPG","That was a bim.","",""
"","image-keyboard-response","422","758543","0.0-8.0-0.58","FL","mj8qhhm23d","1920","1080","de","va08im28","null","","","","","","","","learning/Slide139.JPG","null","","","","",""
"","html-keyboard-response","423","759695","0.0-8.0-1.58","FL","mj8qhhm23d","1920","1080","de","va08im28","null","","","","learningBlock2","","","","That was a wug.","null","","","","",""
"","html-keyboard-response","424","760695","0.0-8.0-2.58","FL","mj8qhhm23d","1920","1080","de","va08im28","null","","","","learningBlock2","","","","<div style=""font-size:60px;""> </div>","null","FL","learning/Slide139.JPG","That was a wug.","",""
"","image-keyboard-response","425","760871","0.0-8.0-0.59","FL","mj8qhhm23d","1920","1080","de","va08im28","null","","","","","","","","learning/Slide140.JPG","null","","","","",""
"","html-keyboard-response","426","762022","0.0-8.0-1.59","FL","mj8qhhm23d","1920","1080","de","va08im28","null","","","","learningBlock2","","","","That was a dep.","null","","","","",""
"","html-keyboard-response","427","763022","0.0-8.0-2.59","FL","mj8qhhm23d","1920","1080","de","va08im28","null","","","","learningBlock2","","","","<div style=""font-size:60px;""> </div>","null","FL","learning/Slide140.JPG","That was a dep.","",""
"","image-keyboard-response","428","763199","0.0-8.0-0.60","FL","mj8qhhm23d","1920","1080","de","va08im28","null","","","","","","","","learning/Slide141.JPG","null","","","","",""
"","html-keyboard-response","429","764349","0.0-8.0-1.60","FL","mj8qhhm23d","1920","1080","de","va08im28","null","","","","learningBlock2","","","","That was a tob.","null","","","","",""
"","html-keyboard-response","430","765350","0.0-8.0-2.60","FL","mj8qhhm23d","1920","1080","de","va08im28","null","","","","learningBlock2","","","","<div style=""font-size:60px;""> </div>","null","FL","learning/Slide141.JPG","That was a tob.","",""
"","image-keyboard-response","431","765526","0.0-8.0-0.61","FL","mj8qhhm23d","1920","1080","de","va08im28","null","","","","","","","","learning/Slide142.JPG","null","","","","",""
"","html-keyboard-response","432","766677","0.0-8.0-1.61","FL","mj8qhhm23d","1920","1080","de","va08im28","null","","","","learningBlock2","","","","That was a wug.","null","","","","",""
"","html-keyboard-response","433","767677","0.0-8.0-2.61","FL","mj8qhhm23d","1920","1080","de","va08im28","null","","","","learningBlock2","","","","<div style=""font-size:60px;""> </div>","null","FL","learning/Slide142.JPG","That was a wug.","",""
"","image-keyboard-response","434","767853","0.0-8.0-0.62","FL","mj8qhhm23d","1920","1080","de","va08im28","null","","","","","","","","learning/Slide143.JPG","null","","","","",""
"","html-keyboard-response","435","769004","0.0-8.0-1.62","FL","mj8qhhm23d","1920","1080","de","va08im28","null","","","","learningBlock2","","","","That was a bim.","null","","","","",""
"","html-keyboard-response","436","770004","0.0-8.0-2.62","FL","mj8qhhm23d","1920","1080","de","va08im28","null","","","","learningBlock2","","","","<div style=""font-size:60px;""> </div>","null","FL","learning/Slide143.JPG","That was a bim.","",""
"","image-keyboard-response","437","770180","0.0-8.0-0.63","FL","mj8qhhm23d","1920","1080","de","va08im28","null","","","","","","","","learning/Slide144.JPG","null","","","","",""
"","html-keyboard-response","438","771330","0.0-8.0-1.63","FL","mj8qhhm23d","1920","1080","de","va08im28","null","","","","learningBlock2","","","","That was a dep.","null","","","","",""
"","html-keyboard-response","439","772331","0.0-8.0-2.63","FL","mj8qhhm23d","1920","1080","de","va08im28","null","","","","learningBlock2","","","","<div style=""font-size:60px;""> </div>","null","FL","learning/Slide144.JPG","That was a dep.","",""
"","image-keyboard-response","440","772507","0.0-8.0-0.64","FL","mj8qhhm23d","1920","1080","de","va08im28","null","","","","","","","","learning/Slide145.JPG","null","","","","",""
"","html-keyboard-response","441","773658","0.0-8.0-1.64","FL","mj8qhhm23d","1920","1080","de","va08im28","null","","","","learningBlock2","","","","That was a bim.","null","","","","",""
"","html-keyboard-response","442","774660","0.0-8.0-2.64","FL","mj8qhhm23d","1920","1080","de","va08im28","null","","","","learningBlock2","","","","<div style=""font-size:60px;""> </div>","null","FL","learning/Slide145.JPG","That was a bim.","",""
"","image-keyboard-response","443","774835","0.0-8.0-0.65","FL","mj8qhhm23d","1920","1080","de","va08im28","null","","","","","","","","learning/Slide146.JPG","null","","","","",""
"","html-keyboard-response","444","775986","0.0-8.0-1.65","FL","mj8qhhm23d","1920","1080","de","va08im28","null","","","","learningBlock2","","","","That was a tob.","null","","","","",""
"","html-keyboard-response","445","776987","0.0-8.0-2.65","FL","mj8qhhm23d","1920","1080","de","va08im28","null","","","","learningBlock2","","","","<div style=""font-size:60px;""> </div>","null","FL","learning/Slide146.JPG","That was a tob.","",""
"","image-keyboard-response","446","777163","0.0-8.0-0.66","FL","mj8qhhm23d","1920","1080","de","va08im28","null","","","","","","","","learning/Slide147.JPG","null","","","","",""
"","html-keyboard-response","447","778314","0.0-8.0-1.66","FL","mj8qhhm23d","1920","1080","de","va08im28","null","","","","learningBlock2","","","","That was a wug.","null","","","","",""
"","html-keyboard-response","448","779314","0.0-8.0-2.66","FL","mj8qhhm23d","1920","1080","de","va08im28","null","","","","learningBlock2","","","","<div style=""font-size:60px;""> </div>","null","FL","learning/Slide147.JPG","That was a wug.","",""
"","image-keyboard-response","449","779490","0.0-8.0-0.67","FL","mj8qhhm23d","1920","1080","de","va08im28","null","","","","","","","","learning/Slide148.JPG","null","","","","",""
"","html-keyboard-response","450","780642","0.0-8.0-1.67","FL","mj8qhhm23d","1920","1080","de","va08im28","null","","","","learningBlock2","","","","That was a bim.","null","","","","",""
"","html-keyboard-response","451","781642","0.0-8.0-2.67","FL","mj8qhhm23d","1920","1080","de","va08im28","null","","","","learningBlock2","","","","<div style=""font-size:60px;""> </div>","null","FL","learning/Slide148.JPG","That was a bim.","",""
"","image-keyboard-response","452","781818","0.0-8.0-0.68","FL","mj8qhhm23d","1920","1080","de","va08im28","null","","","","","","","","learning/Slide149.JPG","null","","","","",""
"","html-keyboard-response","453","782967","0.0-8.0-1.68","FL","mj8qhhm23d","1920","1080","de","va08im28","null","","","","learningBlock2","","","","That was a dep.","null","","","","",""
"","html-keyboard-response","454","783968","0.0-8.0-2.68","FL","mj8qhhm23d","1920","1080","de","va08im28","null","","","","learningBlock2","","","","<div style=""font-size:60px;""> </div>","null","FL","learning/Slide149.JPG","That was a dep.","",""
"","image-keyboard-response","455","784143","0.0-8.0-0.69","FL","mj8qhhm23d","1920","1080","de","va08im28","null","","","","","","","","learning/Slide150.JPG","null","","","","",""
"","html-keyboard-response","456","785295","0.0-8.0-1.69","FL","mj8qhhm23d","1920","1080","de","va08im28","null","","","","learningBlock2","","","","That was a wug.","null","","","","",""
"","html-keyboard-response","457","786295","0.0-8.0-2.69","FL","mj8qhhm23d","1920","1080","de","va08im28","null","","","","learningBlock2","","","","<div style=""font-size:60px;""> </div>","null","FL","learning/Slide150.JPG","That was a wug.","",""
"","image-keyboard-response","458","786471","0.0-8.0-0.70","FL","mj8qhhm23d","1920","1080","de","va08im28","null","","","","","","","","learning/Slide151.JPG","null","","","","",""
"","html-keyboard-response","459","787622","0.0-8.0-1.70","FL","mj8qhhm23d","1920","1080","de","va08im28","null","","","","learningBlock2","","","","That was a dep.","null","","","","",""
"","html-keyboard-response","460","788624","0.0-8.0-2.70","FL","mj8qhhm23d","1920","1080","de","va08im28","null","","","","learningBlock2","","","","<div style=""font-size:60px;""> </div>","null","FL","learning/Slide151.JPG","That was a dep.","",""
"","image-keyboard-response","461","788800","0.0-8.0-0.71","FL","mj8qhhm23d","1920","1080","de","va08im28","null","","","","","","","","learning/Slide152.JPG","null","","","","",""
"","html-keyboard-response","462","789951","0.0-8.0-1.71","FL","mj8qhhm23d","1920","1080","de","va08im28","null","","","","learningBlock2","","","","That was a wug.","null","","","","",""
"","html-keyboard-response","463","790951","0.0-8.0-2.71","FL","mj8qhhm23d","1920","1080","de","va08im28","null","","","","learningBlock2","","","","<div style=""font-size:60px;""> </div>","null","FL","learning/Slide152.JPG","That was a wug.","",""
"","image-keyboard-response","464","791126","0.0-8.0-0.72","FL","mj8qhhm23d","1920","1080","de","va08im28","null","","","","","","","","learning/Slide153.JPG","null","","","","",""
"","html-keyboard-response","465","792278","0.0-8.0-1.72","FL","mj8qhhm23d","1920","1080","de","va08im28","null","","","","learningBlock2","","","","That was a bim.","null","","","","",""
"","html-keyboard-response","466","793279","0.0-8.0-2.72","FL","mj8qhhm23d","1920","1080","de","va08im28","null","","","","learningBlock2","","","","<div style=""font-size:60px;""> </div>","null","FL","learning/Slide153.JPG","That was a bim.","",""
"","image-keyboard-response","467","793455","0.0-8.0-0.73","FL","mj8qhhm23d","1920","1080","de","va08im28","null","","","","","","","","learning/Slide154.JPG","null","","","","",""
"","html-keyboard-response","468","794606","0.0-8.0-1.73","FL","mj8qhhm23d","1920","1080","de","va08im28","null","","","","learningBlock2","","","","That was a tob.","null","","","","",""
"","html-keyboard-response","469","795607","0.0-8.0-2.73","FL","mj8qhhm23d","1920","1080","de","va08im28","null","","","","learningBlock2","","","","<div style=""font-size:60px;""> </div>","null","FL","learning/Slide154.JPG","That was a tob.","",""
"","image-keyboard-response","470","795783","0.0-8.0-0.74","FL","mj8qhhm23d","1920","1080","de","va08im28","null","","","","","","","","learning/Slide155.JPG","null","","","","",""
"","html-keyboard-response","471","796934","0.0-8.0-1.74","FL","mj8qhhm23d","1920","1080","de","va08im28","null","","","","learningBlock2","","","","That was a dep.","null","","","","",""
"","html-keyboard-response","472","797934","0.0-8.0-2.74","FL","mj8qhhm23d","1920","1080","de","va08im28","null","","","","learningBlock2","","","","<div style=""font-size:60px;""> </div>","null","FL","learning/Slide155.JPG","That was a dep.","",""
"","image-keyboard-response","473","798111","0.0-8.0-0.75","FL","mj8qhhm23d","1920","1080","de","va08im28","null","","","","","","","","learning/Slide156.JPG","null","","","","",""
"","html-keyboard-response","474","799263","0.0-8.0-1.75","FL","mj8qhhm23d","1920","1080","de","va08im28","null","","","","learningBlock2","","","","That was a bim.","null","","","","",""
"","html-keyboard-response","475","800263","0.0-8.0-2.75","FL","mj8qhhm23d","1920","1080","de","va08im28","null","","","","learningBlock2","","","","<div style=""font-size:60px;""> </div>","null","FL","learning/Slide156.JPG","That was a bim.","",""
"","image-keyboard-response","476","800439","0.0-8.0-0.76","FL","mj8qhhm23d","1920","1080","de","va08im28","null","","","","","","","","learning/Slide157.JPG","null","","","","",""
"","html-keyboard-response","477","801589","0.0-8.0-1.76","FL","mj8qhhm23d","1920","1080","de","va08im28","null","","","","learningBlock2","","","","That was a dep.","null","","","","",""
"","html-keyboard-response","478","802590","0.0-8.0-2.76","FL","mj8qhhm23d","1920","1080","de","va08im28","null","","","","learningBlock2","","","","<div style=""font-size:60px;""> </div>","null","FL","learning/Slide157.JPG","That was a dep.","",""
"","image-keyboard-response","479","802765","0.0-8.0-0.77","FL","mj8qhhm23d","1920","1080","de","va08im28","null","","","","","","","","learning/Slide158.JPG","null","","","","",""
"","html-keyboard-response","480","803915","0.0-8.0-1.77","FL","mj8qhhm23d","1920","1080","de","va08im28","null","","","","learningBlock2","","","","That was a tob.","null","","","","",""
"","html-keyboard-response","481","804917","0.0-8.0-2.77","FL","mj8qhhm23d","1920","1080","de","va08im28","null","","","","learningBlock2","","","","<div style=""font-size:60px;""> </div>","null","FL","learning/Slide158.JPG","That was a tob.","",""
"","image-keyboard-response","482","805093","0.0-8.0-0.78","FL","mj8qhhm23d","1920","1080","de","va08im28","null","","","","","","","","learning/Slide159.JPG","null","","","","",""
"","html-keyboard-response","483","806243","0.0-8.0-1.78","FL","mj8qhhm23d","1920","1080","de","va08im28","null","","","","learningBlock2","","","","That was a dep.","null","","","","",""
"","html-keyboard-response","484","807243","0.0-8.0-2.78","FL","mj8qhhm23d","1920","1080","de","va08im28","null","","","","learningBlock2","","","","<div style=""font-size:60px;""> </div>","null","FL","learning/Slide159.JPG","That was a dep.","",""
"","image-keyboard-response","485","807419","0.0-8.0-0.79","FL","mj8qhhm23d","1920","1080","de","va08im28","null","","","","","","","","learning/Slide160.JPG","null","","","","",""
"","html-keyboard-response","486","808570","0.0-8.0-1.79","FL","mj8qhhm23d","1920","1080","de","va08im28","null","","","","learningBlock2","","","","That was a wug.","null","","","","",""
