"success","trial_type","trial_index","time_elapsed","internal_node_id","condition","subject","screen_width","screen_height","language","codeword","rt","responses","url","view_history","test_part","final_height_px","final_width_px","scale_factor","stimulus","key_press","learningType","presentedImage","presentedLabel","button_pressed","response"
"true","fullscreen","0","2591","0.0-0.0","FL","ptl3djnzo5","1280","720","de","el06nd29","","","","","","","","","","","","","","",""
"","survey-html-form","1","7451","0.0-1.0","FL","ptl3djnzo5","1280","720","de","el06nd29","4857.6950000133365","{""language"":""de""}","","","","","","","","","","","","",""
"","external-html","2","59034","0.0-2.0-0.0","FL","ptl3djnzo5","1280","720","de","el06nd29","51516.05999999447","","text/information.html","","","","","","","","","","","",""
"","external-html","3","82109","0.0-2.0-1.0","FL","ptl3djnzo5","1280","720","de","el06nd29","22880.209999973886","","text/consent.html","","","","","","","","","","","",""
"","survey-html-form","4","141871","0.0-2.0-2.0","FL","ptl3djnzo5","1280","720","de","el06nd29","59758.949999988545","{""codeword_enter"":""el06nd29""}","","","","","","","","","","","","",""
"","instructions","5","162227","0.0-4.0","FL","ptl3djnzo5","1280","720","de","el06nd29","NA","","","[{""page_index"":0,""viewing_time"":3848.760000022594},{""page_index"":1,""viewing_time"":15004.435000009835}]","instructions","","","","","","","","","",""
"","resize","6","241647","0.0-5.0","FL","ptl3djnzo5","1280","720","de","el06nd29","","","","","","","344","2.1841269841269844","","","","","","",""
"","image-keyboard-response","7","241824","0.0-6.0-0.0","FL","ptl3djnzo5","1280","720","de","el06nd29","null","","","","","","","","learning/Slide1.JPG","null","","","","",""
"","html-keyboard-response","8","242978","0.0-6.0-1.0","FL","ptl3djnzo5","1280","720","de","el06nd29","null","","","","learningBlock1","","","","That was a tob.","null","","","","",""
"","html-keyboard-response","9","243980","0.0-6.0-2.0","FL","ptl3djnzo5","1280","720","de","el06nd29","null","","","","learningBlock1","","","","<div style=""font-size:60px;""> </div>","null","FL","learning/Slide1.JPG","That was a tob.","",""
"","image-keyboard-response","10","244156","0.0-6.0-0.1","FL","ptl3djnzo5","1280","720","de","el06nd29","null","","","","","","","","learning/Slide2.JPG","null","","","","",""
"","html-keyboard-response","11","245309","0.0-6.0-1.1","FL","ptl3djnzo5","1280","720","de","el06nd29","null","","","","learningBlock1","","","","That was a wug.","null","","","","",""
"","html-keyboard-response","12","246310","0.0-6.0-2.1","FL","ptl3djnzo5","1280","720","de","el06nd29","null","","","","learningBlock1","","","","<div style=""font-size:60px;""> </div>","null","FL","learning/Slide2.JPG","That was a wug.","",""
"","image-keyboard-response","13","246488","0.0-6.0-0.2","FL","ptl3djnzo5","1280","720","de","el06nd29","null","","","","","","","","learning/Slide3.JPG","null","","","","",""
"","html-keyboard-response","14","247639","0.0-6.0-1.2","FL","ptl3djnzo5","1280","720","de","el06nd29","null","","","","learningBlock1","","","","That was a bim.","null","","","","",""
"","html-keyboard-response","15","248641","0.0-6.0-2.2","FL","ptl3djnzo5","1280","720","de","el06nd29","null","","","","learningBlock1","","","","<div style=""font-size:60px;""> </div>","null","FL","learning/Slide3.JPG","That was a bim.","",""
"","image-keyboard-response","16","248819","0.0-6.0-0.3","FL","ptl3djnzo5","1280","720","de","el06nd29","null","","","","","","","","learning/Slide4.JPG","null","","","","",""
"","html-keyboard-response","17","249972","0.0-6.0-1.3","FL","ptl3djnzo5","1280","720","de","el06nd29","null","","","","learningBlock1","","","","That was a dep.","null","","","","",""
"","html-keyboard-response","18","250973","0.0-6.0-2.3","FL","ptl3djnzo5","1280","720","de","el06nd29","null","","","","learningBlock1","","","","<div style=""font-size:60px;""> </div>","null","FL","learning/Slide4.JPG","That was a dep.","",""
"","image-keyboard-response","19","251149","0.0-6.0-0.4","FL","ptl3djnzo5","1280","720","de","el06nd29","null","","","","","","","","learning/Slide5.JPG","null","","","","",""
"","html-keyboard-response","20","252301","0.0-6.0-1.4","FL","ptl3djnzo5","1280","720","de","el06nd29","null","","","","learningBlock1","","","","That was a wug.","null","","","","",""
"","html-keyboard-response","21","253302","0.0-6.0-2.4","FL","ptl3djnzo5","1280","720","de","el06nd29","null","","","","learningBlock1","","","","<div style=""font-size:60px;""> </div>","null","FL","learning/Slide5.JPG","That was a wug.","",""
"","image-keyboard-response","22","253480","0.0-6.0-0.5","FL","ptl3djnzo5","1280","720","de","el06nd29","null","","","","","","","","learning/Slide6.JPG","null","","","","",""
"","html-keyboard-response","23","254632","0.0-6.0-1.5","FL","ptl3djnzo5","1280","720","de","el06nd29","null","","","","learningBlock1","","","","That was a dep.","null","","","","",""
"","html-keyboard-response","24","255635","0.0-6.0-2.5","FL","ptl3djnzo5","1280","720","de","el06nd29","null","","","","learningBlock1","","","","<div style=""font-size:60px;""> </div>","null","FL","learning/Slide6.JPG","That was a dep.","",""
"","image-keyboard-response","25","255812","0.0-6.0-0.6","FL","ptl3djnzo5","1280","720","de","el06nd29","null","","","","","","","","learning/Slide7.JPG","null","","","","",""
"","html-keyboard-response","26","256965","0.0-6.0-1.6","FL","ptl3djnzo5","1280","720","de","el06nd29","null","","","","learningBlock1","","","","That was a wug.","null","","","","",""
"","html-keyboard-response","27","257966","0.0-6.0-2.6","FL","ptl3djnzo5","1280","720","de","el06nd29","null","","","","learningBlock1","","","","<div style=""font-size:60px;""> </div>","null","FL","learning/Slide7.JPG","That was a wug.","",""
"","image-keyboard-response","28","258143","0.0-6.0-0.7","FL","ptl3djnzo5","1280","720","de","el06nd29","null","","","","","","","","learning/Slide8.JPG","null","","","","",""
"","html-keyboard-response","29","259295","0.0-6.0-1.7","FL","ptl3djnzo5","1280","720","de","el06nd29","null","","","","learningBlock1","","","","That was a bim.","null","","","","",""
"","html-keyboard-response","30","260297","0.0-6.0-2.7","FL","ptl3djnzo5","1280","720","de","el06nd29","null","","","","learningBlock1","","","","<div style=""font-size:60px;""> </div>","null","FL","learning/Slide8.JPG","That was a bim.","",""
"","image-keyboard-response","31","260473","0.0-6.0-0.8","FL","ptl3djnzo5","1280","720","de","el06nd29","null","","","","","","","","learning/Slide9.JPG","null","","","","",""
"","html-keyboard-response","32","261626","0.0-6.0-1.8","FL","ptl3djnzo5","1280","720","de","el06nd29","null","","","","learningBlock1","","","","That was a wug.","null","","","","",""
"","html-keyboard-response","33","262627","0.0-6.0-2.8","FL","ptl3djnzo5","1280","720","de","el06nd29","null","","","","learningBlock1","","","","<div style=""font-size:60px;""> </div>","null","FL","learning/Slide9.JPG","That was a wug.","",""
"","image-keyboard-response","34","262805","0.0-6.0-0.9","FL","ptl3djnzo5","1280","720","de","el06nd29","null","","","","","","","","learning/Slide10.JPG","null","","","","",""
"","html-keyboard-response","35","263958","0.0-6.0-1.9","FL","ptl3djnzo5","1280","720","de","el06nd29","null","","","","learningBlock1","","","","That was a dep.","null","","","","",""
"","html-keyboard-response","36","264959","0.0-6.0-2.9","FL","ptl3djnzo5","1280","720","de","el06nd29","null","","","","learningBlock1","","","","<div style=""font-size:60px;""> </div>","null","FL","learning/Slide10.JPG","That was a dep.","",""
"","image-keyboard-response","37","265136","0.0-6.0-0.10","FL","ptl3djnzo5","1280","720","de","el06nd29","null","","","","","","","","learning/Slide11.JPG","null","","","","",""
"","html-keyboard-response","38","266303","0.0-6.0-1.10","FL","ptl3djnzo5","1280","720","de","el06nd29","null","","","","learningBlock1","","","","That was a tob.","null","","","","",""
"","html-keyboard-response","39","267305","0.0-6.0-2.10","FL","ptl3djnzo5","1280","720","de","el06nd29","null","","","","learningBlock1","","","","<div style=""font-size:60px;""> </div>","null","FL","learning/Slide11.JPG","That was a tob.","",""
"","image-keyboard-response","40","267481","0.0-6.0-0.11","FL","ptl3djnzo5","1280","720","de","el06nd29","null","","","","","","","","learning/Slide12.JPG","null","","","","",""
"","html-keyboard-response","41","268633","0.0-6.0-1.11","FL","ptl3djnzo5","1280","720","de","el06nd29","null","","","","learningBlock1","","","","That was a dep.","null","","","","",""
"","html-keyboard-response","42","269634","0.0-6.0-2.11","FL","ptl3djnzo5","1280","720","de","el06nd29","null","","","","learningBlock1","","","","<div style=""font-size:60px;""> </div>","null","FL","learning/Slide12.JPG","That was a dep.","",""
"","image-keyboard-response","43","269811","0.0-6.0-0.12","FL","ptl3djnzo5","1280","720","de","el06nd29","null","","","","","","","","learning/Slide13.JPG","null","","","","",""
"","html-keyboard-response","44","270963","0.0-6.0-1.12","FL","ptl3djnzo5","1280","720","de","el06nd29","null","","","","learningBlock1","","","","That was a bim.","null","","","","",""
"","html-keyboard-response","45","271965","0.0-6.0-2.12","FL","ptl3djnzo5","1280","720","de","el06nd29","null","","","","learningBlock1","","","","<div style=""font-size:60px;""> </div>","null","FL","learning/Slide13.JPG","That was a bim.","",""
"","image-keyboard-response","46","272142","0.0-6.0-0.13","FL","ptl3djnzo5","1280","720","de","el06nd29","null","","","","","","","","learning/Slide14.JPG","null","","","","",""
"","html-keyboard-response","47","273295","0.0-6.0-1.13","FL","ptl3djnzo5","1280","720","de","el06nd29","null","","","","learningBlock1","","","","That was a wug.","null","","","","",""
"","html-keyboard-response","48","274296","0.0-6.0-2.13","FL","ptl3djnzo5","1280","720","de","el06nd29","null","","","","learningBlock1","","","","<div style=""font-size:60px;""> </div>","null","FL","learning/Slide14.JPG","That was a wug.","",""
"","image-keyboard-response","49","274471","0.0-6.0-0.14","FL","ptl3djnzo5","1280","720","de","el06nd29","null","","","","","","","","learning/Slide15.JPG","null","","","","",""
"","html-keyboard-response","50","275624","0.0-6.0-1.14","FL","ptl3djnzo5","1280","720","de","el06nd29","null","","","","learningBlock1","","","","That was a tob.","null","","","","",""
"","html-keyboard-response","51","276626","0.0-6.0-2.14","FL","ptl3djnzo5","1280","720","de","el06nd29","null","","","","learningBlock1","","","","<div style=""font-size:60px;""> </div>","null","FL","learning/Slide15.JPG","That was a tob.","",""
"","image-keyboard-response","52","276803","0.0-6.0-0.15","FL","ptl3djnzo5","1280","720","de","el06nd29","null","","","","","","","","learning/Slide16.JPG","null","","","","",""
"","html-keyboard-response","53","277955","0.0-6.0-1.15","FL","ptl3djnzo5","1280","720","de","el06nd29","null","","","","learningBlock1","","","","That was a dep.","null","","","","",""
"","html-keyboard-response","54","278956","0.0-6.0-2.15","FL","ptl3djnzo5","1280","720","de","el06nd29","null","","","","learningBlock1","","","","<div style=""font-size:60px;""> </div>","null","FL","learning/Slide16.JPG","That was a dep.","",""
"","image-keyboard-response","55","279132","0.0-6.0-0.16","FL","ptl3djnzo5","1280","720","de","el06nd29","null","","","","","","","","learning/Slide17.JPG","null","","","","",""
"","html-keyboard-response","56","280285","0.0-6.0-1.16","FL","ptl3djnzo5","1280","720","de","el06nd29","null","","","","learningBlock1","","","","That was a bim.","null","","","","",""
"","html-keyboard-response","57","281287","0.0-6.0-2.16","FL","ptl3djnzo5","1280","720","de","el06nd29","null","","","","learningBlock1","","","","<div style=""font-size:60px;""> </div>","null","FL","learning/Slide17.JPG","That was a bim.","",""
"","image-keyboard-response","58","281463","0.0-6.0-0.17","FL","ptl3djnzo5","1280","720","de","el06nd29","null","","","","","","","","learning/Slide18.JPG","null","","","","",""
"","html-keyboard-response","59","282615","0.0-6.0-1.17","FL","ptl3djnzo5","1280","720","de","el06nd29","null","","","","learningBlock1","","","","That was a tob.","null","","","","",""
"","html-keyboard-response","60","283615","0.0-6.0-2.17","FL","ptl3djnzo5","1280","720","de","el06nd29","null","","","","learningBlock1","","","","<div style=""font-size:60px;""> </div>","null","FL","learning/Slide18.JPG","That was a tob.","",""
"","image-keyboard-response","61","283792","0.0-6.0-0.18","FL","ptl3djnzo5","1280","720","de","el06nd29","null","","","","","","","","learning/Slide19.JPG","null","","","","",""
"","html-keyboard-response","62","284945","0.0-6.0-1.18","FL","ptl3djnzo5","1280","720","de","el06nd29","null","","","","learningBlock1","","","","That was a wug.","null","","","","",""
"","html-keyboard-response","63","285947","0.0-6.0-2.18","FL","ptl3djnzo5","1280","720","de","el06nd29","null","","","","learningBlock1","","","","<div style=""font-size:60px;""> </div>","null","FL","learning/Slide19.JPG","That was a wug.","",""
"","image-keyboard-response","64","286124","0.0-6.0-0.19","FL","ptl3djnzo5","1280","720","de","el06nd29","null","","","","","","","","learning/Slide20.JPG","null","","","","",""
"","html-keyboard-response","65","287276","0.0-6.0-1.19","FL","ptl3djnzo5","1280","720","de","el06nd29","null","","","","learningBlock1","","","","That was a bim.","null","","","","",""
"","html-keyboard-response","66","288278","0.0-6.0-2.19","FL","ptl3djnzo5","1280","720","de","el06nd29","null","","","","learningBlock1","","","","<div style=""font-size:60px;""> </div>","null","FL","learning/Slide20.JPG","That was a bim.","",""
"","image-keyboard-response","67","288455","0.0-6.0-0.20","FL","ptl3djnzo5","1280","720","de","el06nd29","null","","","","","","","","learning/Slide21.JPG","null","","","","",""
"","html-keyboard-response","68","289606","0.0-6.0-1.20","FL","ptl3djnzo5","1280","720","de","el06nd29","null","","","","learningBlock1","","","","That was a dep.","null","","","","",""
"","html-keyboard-response","69","290610","0.0-6.0-2.20","FL","ptl3djnzo5","1280","720","de","el06nd29","null","","","","learningBlock1","","","","<div style=""font-size:60px;""> </div>","null","FL","learning/Slide21.JPG","That was a dep.","",""
"","image-keyboard-response","70","290788","0.0-6.0-0.21","FL","ptl3djnzo5","1280","720","de","el06nd29","null","","","","","","","","learning/Slide22.JPG","null","","","","",""
"","html-keyboard-response","71","291941","0.0-6.0-1.21","FL","ptl3djnzo5","1280","720","de","el06nd29","null","","","","learningBlock1","","","","That was a bim.","null","","","","",""
"","html-keyboard-response","72","292942","0.0-6.0-2.21","FL","ptl3djnzo5","1280","720","de","el06nd29","null","","","","learningBlock1","","","","<div style=""font-size:60px;""> </div>","null","FL","learning/Slide22.JPG","That was a bim.","",""
"","image-keyboard-response","73","293119","0.0-6.0-0.22","FL","ptl3djnzo5","1280","720","de","el06nd29","null","","","","","","","","learning/Slide23.JPG","null","","","","",""
"","html-keyboard-response","74","294271","0.0-6.0-1.22","FL","ptl3djnzo5","1280","720","de","el06nd29","null","","","","learningBlock1","","","","That was a tob.","null","","","","",""
"","html-keyboard-response","75","295272","0.0-6.0-2.22","FL","ptl3djnzo5","1280","720","de","el06nd29","null","","","","learningBlock1","","","","<div style=""font-size:60px;""> </div>","null","FL","learning/Slide23.JPG","That was a tob.","",""
"","image-keyboard-response","76","295450","0.0-6.0-0.23","FL","ptl3djnzo5","1280","720","de","el06nd29","null","","","","","","","","learning/Slide24.JPG","null","","","","",""
"","html-keyboard-response","77","296601","0.0-6.0-1.23","FL","ptl3djnzo5","1280","720","de","el06nd29","null","","","","learningBlock1","","","","That was a wug.","null","","","","",""
"","html-keyboard-response","78","297603","0.0-6.0-2.23","FL","ptl3djnzo5","1280","720","de","el06nd29","null","","","","learningBlock1","","","","<div style=""font-size:60px;""> </div>","null","FL","learning/Slide24.JPG","That was a wug.","",""
"","image-keyboard-response","79","297780","0.0-6.0-0.24","FL","ptl3djnzo5","1280","720","de","el06nd29","null","","","","","","","","learning/Slide25.JPG","null","","","","",""
"","html-keyboard-response","80","298933","0.0-6.0-1.24","FL","ptl3djnzo5","1280","720","de","el06nd29","null","","","","learningBlock1","","","","That was a dep.","null","","","","",""
"","html-keyboard-response","81","299934","0.0-6.0-2.24","FL","ptl3djnzo5","1280","720","de","el06nd29","null","","","","learningBlock1","","","","<div style=""font-size:60px;""> </div>","null","FL","learning/Slide25.JPG","That was a dep.","",""
"","image-keyboard-response","82","300111","0.0-6.0-0.25","FL","ptl3djnzo5","1280","720","de","el06nd29","null","","","","","","","","learning/Slide26.JPG","null","","","","",""
"","html-keyboard-response","83","301264","0.0-6.0-1.25","FL","ptl3djnzo5","1280","720","de","el06nd29","null","","","","learningBlock1","","","","That was a wug.","null","","","","",""
"","html-keyboard-response","84","302265","0.0-6.0-2.25","FL","ptl3djnzo5","1280","720","de","el06nd29","null","","","","learningBlock1","","","","<div style=""font-size:60px;""> </div>","null","FL","learning/Slide26.JPG","That was a wug.","",""
"","image-keyboard-response","85","302441","0.0-6.0-0.26","FL","ptl3djnzo5","1280","720","de","el06nd29","null","","","","","","","","learning/Slide27.JPG","null","","","","",""
"","html-keyboard-response","86","303594","0.0-6.0-1.26","FL","ptl3djnzo5","1280","720","de","el06nd29","null","","","","learningBlock1","","","","That was a bim.","null","","","","",""
"","html-keyboard-response","87","304595","0.0-6.0-2.26","FL","ptl3djnzo5","1280","720","de","el06nd29","null","","","","learningBlock1","","","","<div style=""font-size:60px;""> </div>","null","FL","learning/Slide27.JPG","That was a bim.","",""
"","image-keyboard-response","88","304771","0.0-6.0-0.27","FL","ptl3djnzo5","1280","720","de","el06nd29","null","","","","","","","","learning/Slide28.JPG","null","","","","",""
"","html-keyboard-response","89","305937","0.0-6.0-1.27","FL","ptl3djnzo5","1280","720","de","el06nd29","null","","","","learningBlock1","","","","That was a dep.","null","","","","",""
"","html-keyboard-response","90","306939","0.0-6.0-2.27","FL","ptl3djnzo5","1280","720","de","el06nd29","null","","","","learningBlock1","","","","<div style=""font-size:60px;""> </div>","null","FL","learning/Slide28.JPG","That was a dep.","",""
"","image-keyboard-response","91","307115","0.0-6.0-0.28","FL","ptl3djnzo5","1280","720","de","el06nd29","null","","","","","","","","learning/Slide29.JPG","null","","","","",""
"","html-keyboard-response","92","308266","0.0-6.0-1.28","FL","ptl3djnzo5","1280","720","de","el06nd29","null","","","","learningBlock1","","","","That was a tob.","null","","","","",""
"","html-keyboard-response","93","309267","0.0-6.0-2.28","FL","ptl3djnzo5","1280","720","de","el06nd29","null","","","","learningBlock1","","","","<div style=""font-size:60px;""> </div>","null","FL","learning/Slide29.JPG","That was a tob.","",""
"","image-keyboard-response","94","309444","0.0-6.0-0.29","FL","ptl3djnzo5","1280","720","de","el06nd29","null","","","","","","","","learning/Slide30.JPG","null","","","","",""
"","html-keyboard-response","95","310596","0.0-6.0-1.29","FL","ptl3djnzo5","1280","720","de","el06nd29","null","","","","learningBlock1","","","","That was a dep.","null","","","","",""
"","html-keyboard-response","96","311598","0.0-6.0-2.29","FL","ptl3djnzo5","1280","720","de","el06nd29","null","","","","learningBlock1","","","","<div style=""font-size:60px;""> </div>","null","FL","learning/Slide30.JPG","That was a dep.","",""
"","image-keyboard-response","97","311775","0.0-6.0-0.30","FL","ptl3djnzo5","1280","720","de","el06nd29","null","","","","","","","","learning/Slide31.JPG","null","","","","",""
"","html-keyboard-response","98","312929","0.0-6.0-1.30","FL","ptl3djnzo5","1280","720","de","el06nd29","null","","","","learningBlock1","","","","That was a wug.","null","","","","",""
"","html-keyboard-response","99","313930","0.0-6.0-2.30","FL","ptl3djnzo5","1280","720","de","el06nd29","null","","","","learningBlock1","","","","<div style=""font-size:60px;""> </div>","null","FL","learning/Slide31.JPG","That was a wug.","",""
"","image-keyboard-response","100","314107","0.0-6.0-0.31","FL","ptl3djnzo5","1280","720","de","el06nd29","null","","","","","","","","learning/Slide32.JPG","null","","","","",""
"","html-keyboard-response","101","315259","0.0-6.0-1.31","FL","ptl3djnzo5","1280","720","de","el06nd29","null","","","","learningBlock1","","","","That was a tob.","null","","","","",""
"","html-keyboard-response","102","316261","0.0-6.0-2.31","FL","ptl3djnzo5","1280","720","de","el06nd29","null","","","","learningBlock1","","","","<div style=""font-size:60px;""> </div>","null","FL","learning/Slide32.JPG","That was a tob.","",""
"","image-keyboard-response","103","316438","0.0-6.0-0.32","FL","ptl3djnzo5","1280","720","de","el06nd29","null","","","","","","","","learning/Slide33.JPG","null","","","","",""
"","html-keyboard-response","104","317591","0.0-6.0-1.32","FL","ptl3djnzo5","1280","720","de","el06nd29","null","","","","learningBlock1","","","","That was a bim.","null","","","","",""
"","html-keyboard-response","105","318592","0.0-6.0-2.32","FL","ptl3djnzo5","1280","720","de","el06nd29","null","","","","learningBlock1","","","","<div style=""font-size:60px;""> </div>","null","FL","learning/Slide33.JPG","That was a bim.","",""
"","image-keyboard-response","106","318768","0.0-6.0-0.33","FL","ptl3djnzo5","1280","720","de","el06nd29","null","","","","","","","","learning/Slide34.JPG","null","","","","",""
"","html-keyboard-response","107","319921","0.0-6.0-1.33","FL","ptl3djnzo5","1280","720","de","el06nd29","null","","","","learningBlock1","","","","That was a tob.","null","","","","",""
"","html-keyboard-response","108","320922","0.0-6.0-2.33","FL","ptl3djnzo5","1280","720","de","el06nd29","null","","","","learningBlock1","","","","<div style=""font-size:60px;""> </div>","null","FL","learning/Slide34.JPG","That was a tob.","",""
"","image-keyboard-response","109","321098","0.0-6.0-0.34","FL","ptl3djnzo5","1280","720","de","el06nd29","null","","","","","","","","learning/Slide35.JPG","null","","","","",""
"","html-keyboard-response","110","322251","0.0-6.0-1.34","FL","ptl3djnzo5","1280","720","de","el06nd29","null","","","","learningBlock1","","","","That was a bim.","null","","","","",""
"","html-keyboard-response","111","323252","0.0-6.0-2.34","FL","ptl3djnzo5","1280","720","de","el06nd29","null","","","","learningBlock1","","","","<div style=""font-size:60px;""> </div>","null","FL","learning/Slide35.JPG","That was a bim.","",""
"","image-keyboard-response","112","323429","0.0-6.0-0.35","FL","ptl3djnzo5","1280","720","de","el06nd29","null","","","","","","","","learning/Slide36.JPG","null","","","","",""
"","html-keyboard-response","113","324581","0.0-6.0-1.35","FL","ptl3djnzo5","1280","720","de","el06nd29","null","","","","learningBlock1","","","","That was a dep.","null","","","","",""
"","html-keyboard-response","114","325582","0.0-6.0-2.35","FL","ptl3djnzo5","1280","720","de","el06nd29","null","","","","learningBlock1","","","","<div style=""font-size:60px;""> </div>","null","FL","learning/Slide36.JPG","That was a dep.","",""
"","image-keyboard-response","115","325758","0.0-6.0-0.36","FL","ptl3djnzo5","1280","720","de","el06nd29","null","","","","","","","","learning/Slide37.JPG","null","","","","",""
"","html-keyboard-response","116","326910","0.0-6.0-1.36","FL","ptl3djnzo5","1280","720","de","el06nd29","null","","","","learningBlock1","","","","That was a tob.","null","","","","",""
"","html-keyboard-response","117","327912","0.0-6.0-2.36","FL","ptl3djnzo5","1280","720","de","el06nd29","null","","","","learningBlock1","","","","<div style=""font-size:60px;""> </div>","null","FL","learning/Slide37.JPG","That was a tob.","",""
"","image-keyboard-response","118","328089","0.0-6.0-0.37","FL","ptl3djnzo5","1280","720","de","el06nd29","null","","","","","","","","learning/Slide38.JPG","null","","","","",""
"","html-keyboard-response","119","329241","0.0-6.0-1.37","FL","ptl3djnzo5","1280","720","de","el06nd29","null","","","","learningBlock1","","","","That was a wug.","null","","","","",""
"","html-keyboard-response","120","330243","0.0-6.0-2.37","FL","ptl3djnzo5","1280","720","de","el06nd29","null","","","","learningBlock1","","","","<div style=""font-size:60px;""> </div>","null","FL","learning/Slide38.JPG","That was a wug.","",""
"","image-keyboard-response","121","330421","0.0-6.0-0.38","FL","ptl3djnzo5","1280","720","de","el06nd29","null","","","","","","","","learning/Slide39.JPG","null","","","","",""
"","html-keyboard-response","122","331574","0.0-6.0-1.38","FL","ptl3djnzo5","1280","720","de","el06nd29","null","","","","learningBlock1","","","","That was a bim.","null","","","","",""
"","html-keyboard-response","123","332575","0.0-6.0-2.38","FL","ptl3djnzo5","1280","720","de","el06nd29","null","","","","learningBlock1","","","","<div style=""font-size:60px;""> </div>","null","FL","learning/Slide39.JPG","That was a bim.","",""
"","image-keyboard-response","124","332751","0.0-6.0-0.39","FL","ptl3djnzo5","1280","720","de","el06nd29","null","","","","","","","","learning/Slide40.JPG","null","","","","",""
"","html-keyboard-response","125","333903","0.0-6.0-1.39","FL","ptl3djnzo5","1280","720","de","el06nd29","null","","","","learningBlock1","","","","That was a tob.","null","","","","",""
"","html-keyboard-response","126","334906","0.0-6.0-2.39","FL","ptl3djnzo5","1280","720","de","el06nd29","null","","","","learningBlock1","","","","<div style=""font-size:60px;""> </div>","null","FL","learning/Slide40.JPG","That was a tob.","",""
"","image-keyboard-response","127","335082","0.0-6.0-0.40","FL","ptl3djnzo5","1280","720","de","el06nd29","null","","","","","","","","learning/Slide41.JPG","null","","","","",""
"","html-keyboard-response","128","336234","0.0-6.0-1.40","FL","ptl3djnzo5","1280","720","de","el06nd29","null","","","","learningBlock1","","","","That was a bim.","null","","","","",""
"","html-keyboard-response","129","337236","0.0-6.0-2.40","FL","ptl3djnzo5","1280","720","de","el06nd29","null","","","","learningBlock1","","","","<div style=""font-size:60px;""> </div>","null","FL","learning/Slide41.JPG","That was a bim.","",""
"","image-keyboard-response","130","337413","0.0-6.0-0.41","FL","ptl3djnzo5","1280","720","de","el06nd29","null","","","","","","","","learning/Slide42.JPG","null","","","","",""
"","html-keyboard-response","131","338565","0.0-6.0-1.41","FL","ptl3djnzo5","1280","720","de","el06nd29","null","","","","learningBlock1","","","","That was a dep.","null","","","","",""
"","html-keyboard-response","132","339567","0.0-6.0-2.41","FL","ptl3djnzo5","1280","720","de","el06nd29","null","","","","learningBlock1","","","","<div style=""font-size:60px;""> </div>","null","FL","learning/Slide42.JPG","That was a dep.","",""
"","image-keyboard-response","133","339743","0.0-6.0-0.42","FL","ptl3djnzo5","1280","720","de","el06nd29","null","","","","","","","","learning/Slide43.JPG","null","","","","",""
"","html-keyboard-response","134","340895","0.0-6.0-1.42","FL","ptl3djnzo5","1280","720","de","el06nd29","null","","","","learningBlock1","","","","That was a wug.","null","","","","",""
"","html-keyboard-response","135","341897","0.0-6.0-2.42","FL","ptl3djnzo5","1280","720","de","el06nd29","null","","","","learningBlock1","","","","<div style=""font-size:60px;""> </div>","null","FL","learning/Slide43.JPG","That was a wug.","",""
"","image-keyboard-response","136","342073","0.0-6.0-0.43","FL","ptl3djnzo5","1280","720","de","el06nd29","null","","","","","","","","learning/Slide44.JPG","null","","","","",""
"","html-keyboard-response","137","343225","0.0-6.0-1.43","FL","ptl3djnzo5","1280","720","de","el06nd29","null","","","","learningBlock1","","","","That was a bim.","null","","","","",""
"","html-keyboard-response","138","344226","0.0-6.0-2.43","FL","ptl3djnzo5","1280","720","de","el06nd29","null","","","","learningBlock1","","","","<div style=""font-size:60px;""> </div>","null","FL","learning/Slide44.JPG","That was a bim.","",""
"","image-keyboard-response","139","344403","0.0-6.0-0.44","FL","ptl3djnzo5","1280","720","de","el06nd29","null","","","","","","","","learning/Slide45.JPG","null","","","","",""
"","html-keyboard-response","140","345555","0.0-6.0-1.44","FL","ptl3djnzo5","1280","720","de","el06nd29","null","","","","learningBlock1","","","","That was a wug.","null","","","","",""
"","html-keyboard-response","141","346557","0.0-6.0-2.44","FL","ptl3djnzo5","1280","720","de","el06nd29","null","","","","learningBlock1","","","","<div style=""font-size:60px;""> </div>","null","FL","learning/Slide45.JPG","That was a wug.","",""
"","image-keyboard-response","142","346734","0.0-6.0-0.45","FL","ptl3djnzo5","1280","720","de","el06nd29","null","","","","","","","","learning/Slide46.JPG","null","","","","",""
"","html-keyboard-response","143","347886","0.0-6.0-1.45","FL","ptl3djnzo5","1280","720","de","el06nd29","null","","","","learningBlock1","","","","That was a dep.","null","","","","",""
"","html-keyboard-response","144","348887","0.0-6.0-2.45","FL","ptl3djnzo5","1280","720","de","el06nd29","null","","","","learningBlock1","","","","<div style=""font-size:60px;""> </div>","null","FL","learning/Slide46.JPG","That was a dep.","",""
"","image-keyboard-response","145","349064","0.0-6.0-0.46","FL","ptl3djnzo5","1280","720","de","el06nd29","null","","","","","","","","learning/Slide47.JPG","null","","","","",""
"","html-keyboard-response","146","350216","0.0-6.0-1.46","FL","ptl3djnzo5","1280","720","de","el06nd29","null","","","","learningBlock1","","","","That was a tob.","null","","","","",""
"","html-keyboard-response","147","351218","0.0-6.0-2.46","FL","ptl3djnzo5","1280","720","de","el06nd29","null","","","","learningBlock1","","","","<div style=""font-size:60px;""> </div>","null","FL","learning/Slide47.JPG","That was a tob.","",""
"","image-keyboard-response","148","351395","0.0-6.0-0.47","FL","ptl3djnzo5","1280","720","de","el06nd29","null","","","","","","","","learning/Slide48.JPG","null","","","","",""
"","html-keyboard-response","149","352546","0.0-6.0-1.47","FL","ptl3djnzo5","1280","720","de","el06nd29","null","","","","learningBlock1","","","","That was a bim.","null","","","","",""
"","html-keyboard-response","150","353548","0.0-6.0-2.47","FL","ptl3djnzo5","1280","720","de","el06nd29","null","","","","learningBlock1","","","","<div style=""font-size:60px;""> </div>","null","FL","learning/Slide48.JPG","That was a bim.","",""
"","image-keyboard-response","151","353724","0.0-6.0-0.48","FL","ptl3djnzo5","1280","720","de","el06nd29","null","","","","","","","","learning/Slide49.JPG","null","","","","",""
"","html-keyboard-response","152","354890","0.0-6.0-1.48","FL","ptl3djnzo5","1280","720","de","el06nd29","null","","","","learningBlock1","","","","That was a dep.","null","","","","",""
"","html-keyboard-response","153","355892","0.0-6.0-2.48","FL","ptl3djnzo5","1280","720","de","el06nd29","null","","","","learningBlock1","","","","<div style=""font-size:60px;""> </div>","null","FL","learning/Slide49.JPG","That was a dep.","",""
"","image-keyboard-response","154","356069","0.0-6.0-0.49","FL","ptl3djnzo5","1280","720","de","el06nd29","null","","","","","","","","learning/Slide50.JPG","null","","","","",""
"","html-keyboard-response","155","357221","0.0-6.0-1.49","FL","ptl3djnzo5","1280","720","de","el06nd29","null","","","","learningBlock1","","","","That was a tob.","null","","","","",""
"","html-keyboard-response","156","358222","0.0-6.0-2.49","FL","ptl3djnzo5","1280","720","de","el06nd29","null","","","","learningBlock1","","","","<div style=""font-size:60px;""> </div>","null","FL","learning/Slide50.JPG","That was a tob.","",""
"","image-keyboard-response","157","358399","0.0-6.0-0.50","FL","ptl3djnzo5","1280","720","de","el06nd29","null","","","","","","","","learning/Slide51.JPG","null","","","","",""
"","html-keyboard-response","158","359551","0.0-6.0-1.50","FL","ptl3djnzo5","1280","720","de","el06nd29","null","","","","learningBlock1","","","","That was a bim.","null","","","","",""
"","html-keyboard-response","159","360552","0.0-6.0-2.50","FL","ptl3djnzo5","1280","720","de","el06nd29","null","","","","learningBlock1","","","","<div style=""font-size:60px;""> </div>","null","FL","learning/Slide51.JPG","That was a bim.","",""
"","image-keyboard-response","160","360729","0.0-6.0-0.51","FL","ptl3djnzo5","1280","720","de","el06nd29","null","","","","","","","","learning/Slide52.JPG","null","","","","",""
"","html-keyboard-response","161","361883","0.0-6.0-1.51","FL","ptl3djnzo5","1280","720","de","el06nd29","null","","","","learningBlock1","","","","That was a wug.","null","","","","",""
"","html-keyboard-response","162","362884","0.0-6.0-2.51","FL","ptl3djnzo5","1280","720","de","el06nd29","null","","","","learningBlock1","","","","<div style=""font-size:60px;""> </div>","null","FL","learning/Slide52.JPG","That was a wug.","",""
"","image-keyboard-response","163","363060","0.0-6.0-0.52","FL","ptl3djnzo5","1280","720","de","el06nd29","null","","","","","","","","learning/Slide53.JPG","null","","","","",""
"","html-keyboard-response","164","364213","0.0-6.0-1.52","FL","ptl3djnzo5","1280","720","de","el06nd29","null","","","","learningBlock1","","","","That was a tob.","null","","","","",""
"","html-keyboard-response","165","365215","0.0-6.0-2.52","FL","ptl3djnzo5","1280","720","de","el06nd29","null","","","","learningBlock1","","","","<div style=""font-size:60px;""> </div>","null","FL","learning/Slide53.JPG","That was a tob.","",""
"","image-keyboard-response","166","365392","0.0-6.0-0.53","FL","ptl3djnzo5","1280","720","de","el06nd29","null","","","","","","","","learning/Slide54.JPG","null","","","","",""
"","html-keyboard-response","167","366544","0.0-6.0-1.53","FL","ptl3djnzo5","1280","720","de","el06nd29","null","","","","learningBlock1","","","","That was a dep.","null","","","","",""
"","html-keyboard-response","168","367546","0.0-6.0-2.53","FL","ptl3djnzo5","1280","720","de","el06nd29","null","","","","learningBlock1","","","","<div style=""font-size:60px;""> </div>","null","FL","learning/Slide54.JPG","That was a dep.","",""
"","image-keyboard-response","169","367723","0.0-6.0-0.54","FL","ptl3djnzo5","1280","720","de","el06nd29","null","","","","","","","","learning/Slide55.JPG","null","","","","",""
"","html-keyboard-response","170","368877","0.0-6.0-1.54","FL","ptl3djnzo5","1280","720","de","el06nd29","null","","","","learningBlock1","","","","That was a bim.","null","","","","",""
"","html-keyboard-response","171","369879","0.0-6.0-2.54","FL","ptl3djnzo5","1280","720","de","el06nd29","null","","","","learningBlock1","","","","<div style=""font-size:60px;""> </div>","null","FL","learning/Slide55.JPG","That was a bim.","",""
"","image-keyboard-response","172","370055","0.0-6.0-0.55","FL","ptl3djnzo5","1280","720","de","el06nd29","null","","","","","","","","learning/Slide56.JPG","null","","","","",""
"","html-keyboard-response","173","371219","0.0-6.0-1.55","FL","ptl3djnzo5","1280","720","de","el06nd29","null","","","","learningBlock1","","","","That was a tob.","null","","","","",""
"","html-keyboard-response","174","372220","0.0-6.0-2.55","FL","ptl3djnzo5","1280","720","de","el06nd29","null","","","","learningBlock1","","","","<div style=""font-size:60px;""> </div>","null","FL","learning/Slide56.JPG","That was a tob.","",""
"","image-keyboard-response","175","372397","0.0-6.0-0.56","FL","ptl3djnzo5","1280","720","de","el06nd29","null","","","","","","","","learning/Slide57.JPG","null","","","","",""
"","html-keyboard-response","176","373549","0.0-6.0-1.56","FL","ptl3djnzo5","1280","720","de","el06nd29","null","","","","learningBlock1","","","","That was a dep.","null","","","","",""
"","html-keyboard-response","177","374550","0.0-6.0-2.56","FL","ptl3djnzo5","1280","720","de","el06nd29","null","","","","learningBlock1","","","","<div style=""font-size:60px;""> </div>","null","FL","learning/Slide57.JPG","That was a dep.","",""
"","image-keyboard-response","178","374727","0.0-6.0-0.57","FL","ptl3djnzo5","1280","720","de","el06nd29","null","","","","","","","","learning/Slide58.JPG","null","","","","",""
"","html-keyboard-response","179","375880","0.0-6.0-1.57","FL","ptl3djnzo5","1280","720","de","el06nd29","null","","","","learningBlock1","","","","That was a wug.","null","","","","",""
"","html-keyboard-response","180","376882","0.0-6.0-2.57","FL","ptl3djnzo5","1280","720","de","el06nd29","null","","","","learningBlock1","","","","<div style=""font-size:60px;""> </div>","null","FL","learning/Slide58.JPG","That was a wug.","",""
"","image-keyboard-response","181","377059","0.0-6.0-0.58","FL","ptl3djnzo5","1280","720","de","el06nd29","null","","","","","","","","learning/Slide59.JPG","null","","","","",""
"","html-keyboard-response","182","378210","0.0-6.0-1.58","FL","ptl3djnzo5","1280","720","de","el06nd29","null","","","","learningBlock1","","","","That was a dep.","null","","","","",""
"","html-keyboard-response","183","379211","0.0-6.0-2.58","FL","ptl3djnzo5","1280","720","de","el06nd29","null","","","","learningBlock1","","","","<div style=""font-size:60px;""> </div>","null","FL","learning/Slide59.JPG","That was a dep.","",""
"","image-keyboard-response","184","379389","0.0-6.0-0.59","FL","ptl3djnzo5","1280","720","de","el06nd29","null","","","","","","","","learning/Slide60.JPG","null","","","","",""
"","html-keyboard-response","185","380540","0.0-6.0-1.59","FL","ptl3djnzo5","1280","720","de","el06nd29","null","","","","learningBlock1","","","","That was a wug.","null","","","","",""
"","html-keyboard-response","186","381542","0.0-6.0-2.59","FL","ptl3djnzo5","1280","720","de","el06nd29","null","","","","learningBlock1","","","","<div style=""font-size:60px;""> </div>","null","FL","learning/Slide60.JPG","That was a wug.","",""
"","image-keyboard-response","187","381719","0.0-6.0-0.60","FL","ptl3djnzo5","1280","720","de","el06nd29","null","","","","","","","","learning/Slide61.JPG","null","","","","",""
"","html-keyboard-response","188","382871","0.0-6.0-1.60","FL","ptl3djnzo5","1280","720","de","el06nd29","null","","","","learningBlock1","","","","That was a bim.","null","","","","",""
"","html-keyboard-response","189","383873","0.0-6.0-2.60","FL","ptl3djnzo5","1280","720","de","el06nd29","null","","","","learningBlock1","","","","<div style=""font-size:60px;""> </div>","null","FL","learning/Slide61.JPG","That was a bim.","",""
"","image-keyboard-response","190","384050","0.0-6.0-0.61","FL","ptl3djnzo5","1280","720","de","el06nd29","null","","","","","","","","learning/Slide62.JPG","null","","","","",""
"","html-keyboard-response","191","385202","0.0-6.0-1.61","FL","ptl3djnzo5","1280","720","de","el06nd29","null","","","","learningBlock1","","","","That was a dep.","null","","","","",""
"","html-keyboard-response","192","386204","0.0-6.0-2.61","FL","ptl3djnzo5","1280","720","de","el06nd29","null","","","","learningBlock1","","","","<div style=""font-size:60px;""> </div>","null","FL","learning/Slide62.JPG","That was a dep.","",""
"","image-keyboard-response","193","386380","0.0-6.0-0.62","FL","ptl3djnzo5","1280","720","de","el06nd29","null","","","","","","","","learning/Slide63.JPG","null","","","","",""
"","html-keyboard-response","194","387532","0.0-6.0-1.62","FL","ptl3djnzo5","1280","720","de","el06nd29","null","","","","learningBlock1","","","","That was a bim.","null","","","","",""
"","html-keyboard-response","195","388533","0.0-6.0-2.62","FL","ptl3djnzo5","1280","720","de","el06nd29","null","","","","learningBlock1","","","","<div style=""font-size:60px;""> </div>","null","FL","learning/Slide63.JPG","That was a bim.","",""
"","image-keyboard-response","196","388709","0.0-6.0-0.63","FL","ptl3djnzo5","1280","720","de","el06nd29","null","","","","","","","","learning/Slide64.JPG","null","","","","",""
"","html-keyboard-response","197","389861","0.0-6.0-1.63","FL","ptl3djnzo5","1280","720","de","el06nd29","null","","","","learningBlock1","","","","That was a tob.","null","","","","",""
"","html-keyboard-response","198","390862","0.0-6.0-2.63","FL","ptl3djnzo5","1280","720","de","el06nd29","null","","","","learningBlock1","","","","<div style=""font-size:60px;""> </div>","null","FL","learning/Slide64.JPG","That was a tob.","",""
"","image-keyboard-response","199","391039","0.0-6.0-0.64","FL","ptl3djnzo5","1280","720","de","el06nd29","null","","","","","","","","learning/Slide65.JPG","null","","","","",""
"","html-keyboard-response","200","392191","0.0-6.0-1.64","FL","ptl3djnzo5","1280","720","de","el06nd29","null","","","","learningBlock1","","","","That was a wug.","null","","","","",""
"","html-keyboard-response","201","393193","0.0-6.0-2.64","FL","ptl3djnzo5","1280","720","de","el06nd29","null","","","","learningBlock1","","","","<div style=""font-size:60px;""> </div>","null","FL","learning/Slide65.JPG","That was a wug.","",""
"","image-keyboard-response","202","393369","0.0-6.0-0.65","FL","ptl3djnzo5","1280","720","de","el06nd29","null","","","","","","","","learning/Slide66.JPG","null","","","","",""
"","html-keyboard-response","203","394531","0.0-6.0-1.65","FL","ptl3djnzo5","1280","720","de","el06nd29","null","","","","learningBlock1","","","","That was a dep.","null","","","","",""
"","html-keyboard-response","204","395532","0.0-6.0-2.65","FL","ptl3djnzo5","1280","720","de","el06nd29","null","","","","learningBlock1","","","","<div style=""font-size:60px;""> </div>","null","FL","learning/Slide66.JPG","That was a dep.","",""
"","image-keyboard-response","205","395708","0.0-6.0-0.66","FL","ptl3djnzo5","1280","720","de","el06nd29","null","","","","","","","","learning/Slide67.JPG","null","","","","",""
"","html-keyboard-response","206","396860","0.0-6.0-1.66","FL","ptl3djnzo5","1280","720","de","el06nd29","null","","","","learningBlock1","","","","That was a tob.","null","","","","",""
"","html-keyboard-response","207","397862","0.0-6.0-2.66","FL","ptl3djnzo5","1280","720","de","el06nd29","null","","","","learningBlock1","","","","<div style=""font-size:60px;""> </div>","null","FL","learning/Slide67.JPG","That was a tob.","",""
"","image-keyboard-response","208","398039","0.0-6.0-0.67","FL","ptl3djnzo5","1280","720","de","el06nd29","null","","","","","","","","learning/Slide68.JPG","null","","","","",""
"","html-keyboard-response","209","399192","0.0-6.0-1.67","FL","ptl3djnzo5","1280","720","de","el06nd29","null","","","","learningBlock1","","","","That was a wug.","null","","","","",""
"","html-keyboard-response","210","400193","0.0-6.0-2.67","FL","ptl3djnzo5","1280","720","de","el06nd29","null","","","","learningBlock1","","","","<div style=""font-size:60px;""> </div>","null","FL","learning/Slide68.JPG","That was a wug.","",""
"","image-keyboard-response","211","400370","0.0-6.0-0.68","FL","ptl3djnzo5","1280","720","de","el06nd29","null","","","","","","","","learning/Slide69.JPG","null","","","","",""
"","html-keyboard-response","212","401522","0.0-6.0-1.68","FL","ptl3djnzo5","1280","720","de","el06nd29","null","","","","learningBlock1","","","","That was a tob.","null","","","","",""
"","html-keyboard-response","213","402524","0.0-6.0-2.68","FL","ptl3djnzo5","1280","720","de","el06nd29","null","","","","learningBlock1","","","","<div style=""font-size:60px;""> </div>","null","FL","learning/Slide69.JPG","That was a tob.","",""
"","image-keyboard-response","214","402700","0.0-6.0-0.69","FL","ptl3djnzo5","1280","720","de","el06nd29","null","","","","","","","","learning/Slide70.JPG","null","","","","",""
"","html-keyboard-response","215","403859","0.0-6.0-1.69","FL","ptl3djnzo5","1280","720","de","el06nd29","null","","","","learningBlock1","","","","That was a dep.","null","","","","",""
"","html-keyboard-response","216","404859","0.0-6.0-2.69","FL","ptl3djnzo5","1280","720","de","el06nd29","null","","","","learningBlock1","","","","<div style=""font-size:60px;""> </div>","null","FL","learning/Slide70.JPG","That was a dep.","",""
"","image-keyboard-response","217","405036","0.0-6.0-0.70","FL","ptl3djnzo5","1280","720","de","el06nd29","null","","","","","","","","learning/Slide71.JPG","null","","","","",""
"","html-keyboard-response","218","406189","0.0-6.0-1.70","FL","ptl3djnzo5","1280","720","de","el06nd29","null","","","","learningBlock1","","","","That was a wug.","null","","","","",""
"","html-keyboard-response","219","407190","0.0-6.0-2.70","FL","ptl3djnzo5","1280","720","de","el06nd29","null","","","","learningBlock1","","","","<div style=""font-size:60px;""> </div>","null","FL","learning/Slide71.JPG","That was a wug.","",""
"","image-keyboard-response","220","407367","0.0-6.0-0.71","FL","ptl3djnzo5","1280","720","de","el06nd29","null","","","","","","","","learning/Slide72.JPG","null","","","","",""
"","html-keyboard-response","221","408520","0.0-6.0-1.71","FL","ptl3djnzo5","1280","720","de","el06nd29","null","","","","learningBlock1","","","","That was a bim.","null","","","","",""
"","html-keyboard-response","222","409522","0.0-6.0-2.71","FL","ptl3djnzo5","1280","720","de","el06nd29","null","","","","learningBlock1","","","","<div style=""font-size:60px;""> </div>","null","FL","learning/Slide72.JPG","That was a bim.","",""
"","image-keyboard-response","223","409700","0.0-6.0-0.72","FL","ptl3djnzo5","1280","720","de","el06nd29","null","","","","","","","","learning/Slide73.JPG","null","","","","",""
"","html-keyboard-response","224","410852","0.0-6.0-1.72","FL","ptl3djnzo5","1280","720","de","el06nd29","null","","","","learningBlock1","","","","That was a wug.","null","","","","",""
"","html-keyboard-response","225","411853","0.0-6.0-2.72","FL","ptl3djnzo5","1280","720","de","el06nd29","null","","","","learningBlock1","","","","<div style=""font-size:60px;""> </div>","null","FL","learning/Slide73.JPG","That was a wug.","",""
"","image-keyboard-response","226","412030","0.0-6.0-0.73","FL","ptl3djnzo5","1280","720","de","el06nd29","null","","","","","","","","learning/Slide74.JPG","null","","","","",""
"","html-keyboard-response","227","413182","0.0-6.0-1.73","FL","ptl3djnzo5","1280","720","de","el06nd29","null","","","","learningBlock1","","","","That was a dep.","null","","","","",""
"","html-keyboard-response","228","414184","0.0-6.0-2.73","FL","ptl3djnzo5","1280","720","de","el06nd29","null","","","","learningBlock1","","","","<div style=""font-size:60px;""> </div>","null","FL","learning/Slide74.JPG","That was a dep.","",""
"","image-keyboard-response","229","414361","0.0-6.0-0.74","FL","ptl3djnzo5","1280","720","de","el06nd29","null","","","","","","","","learning/Slide75.JPG","null","","","","",""
"","html-keyboard-response","230","415514","0.0-6.0-1.74","FL","ptl3djnzo5","1280","720","de","el06nd29","null","","","","learningBlock1","","","","That was a tob.","null","","","","",""
"","html-keyboard-response","231","416517","0.0-6.0-2.74","FL","ptl3djnzo5","1280","720","de","el06nd29","null","","","","learningBlock1","","","","<div style=""font-size:60px;""> </div>","null","FL","learning/Slide75.JPG","That was a tob.","",""
"","image-keyboard-response","232","416694","0.0-6.0-0.75","FL","ptl3djnzo5","1280","720","de","el06nd29","null","","","","","","","","learning/Slide76.JPG","null","","","","",""
"","html-keyboard-response","233","417845","0.0-6.0-1.75","FL","ptl3djnzo5","1280","720","de","el06nd29","null","","","","learningBlock1","","","","That was a bim.","null","","","","",""
"","html-keyboard-response","234","418846","0.0-6.0-2.75","FL","ptl3djnzo5","1280","720","de","el06nd29","null","","","","learningBlock1","","","","<div style=""font-size:60px;""> </div>","null","FL","learning/Slide76.JPG","That was a bim.","",""
"","image-keyboard-response","235","419023","0.0-6.0-0.76","FL","ptl3djnzo5","1280","720","de","el06nd29","null","","","","","","","","learning/Slide77.JPG","null","","","","",""
"","html-keyboard-response","236","420174","0.0-6.0-1.76","FL","ptl3djnzo5","1280","720","de","el06nd29","null","","","","learningBlock1","","","","That was a tob.","null","","","","",""
"","html-keyboard-response","237","421176","0.0-6.0-2.76","FL","ptl3djnzo5","1280","720","de","el06nd29","null","","","","learningBlock1","","","","<div style=""font-size:60px;""> </div>","null","FL","learning/Slide77.JPG","That was a tob.","",""
"","image-keyboard-response","238","421352","0.0-6.0-0.77","FL","ptl3djnzo5","1280","720","de","el06nd29","null","","","","","","","","learning/Slide78.JPG","null","","","","",""
"","html-keyboard-response","239","422504","0.0-6.0-1.77","FL","ptl3djnzo5","1280","720","de","el06nd29","null","","","","learningBlock1","","","","That was a wug.","null","","","","",""
"","html-keyboard-response","240","423505","0.0-6.0-2.77","FL","ptl3djnzo5","1280","720","de","el06nd29","null","","","","learningBlock1","","","","<div style=""font-size:60px;""> </div>","null","FL","learning/Slide78.JPG","That was a wug.","",""
"","image-keyboard-response","241","423682","0.0-6.0-0.78","FL","ptl3djnzo5","1280","720","de","el06nd29","null","","","","","","","","learning/Slide79.JPG","null","","","","",""
"","html-keyboard-response","242","424836","0.0-6.0-1.78","FL","ptl3djnzo5","1280","720","de","el06nd29","null","","","","learningBlock1","","","","That was a bim.","null","","","","",""
"","html-keyboard-response","243","425838","0.0-6.0-2.78","FL","ptl3djnzo5","1280","720","de","el06nd29","null","","","","learningBlock1","","","","<div style=""font-size:60px;""> </div>","null","FL","learning/Slide79.JPG","That was a bim.","",""
"","image-keyboard-response","244","426014","0.0-6.0-0.79","FL","ptl3djnzo5","1280","720","de","el06nd29","null","","","","","","","","learning/Slide80.JPG","null","","","","",""
"","html-keyboard-response","245","427168","0.0-6.0-1.79","FL","ptl3djnzo5","1280","720","de","el06nd29","null","","","","learningBlock1","","","","That was a tob.","null","","","","",""
"","html-keyboard-response","246","428169","0.0-6.0-2.79","FL","ptl3djnzo5","1280","720","de","el06nd29","null","","","","learningBlock1","","","","<div style=""font-size:60px;""> </div>","null","FL","learning/Slide80.JPG","That was a tob.","",""
"","instructions","247","431575","0.0-7.0","FL","ptl3djnzo5","1280","720","de","el06nd29","NA","","","[{""page_index"":0,""viewing_time"":3404.355000006035}]","instructions","","","","","","","","","",""
"","image-keyboard-response","248","431753","0.0-8.0-0.0","FL","ptl3djnzo5","1280","720","de","el06nd29","null","","","","","","","","learning/Slide81.JPG","null","","","","",""
"","html-keyboard-response","249","432905","0.0-8.0-1.0","FL","ptl3djnzo5","1280","720","de","el06nd29","null","","","","learningBlock2","","","","That was a wug.","null","","","","",""
"","html-keyboard-response","250","433906","0.0-8.0-2.0","FL","ptl3djnzo5","1280","720","de","el06nd29","null","","","","learningBlock2","","","","<div style=""font-size:60px;""> </div>","null","FL","learning/Slide81.JPG","That was a wug.","",""
"","image-keyboard-response","251","434082","0.0-8.0-0.1","FL","ptl3djnzo5","1280","720","de","el06nd29","null","","","","","","","","learning/Slide82.JPG","null","","","","",""
"","html-keyboard-response","252","435234","0.0-8.0-1.1","FL","ptl3djnzo5","1280","720","de","el06nd29","null","","","","learningBlock2","","","","That was a bim.","null","","","","",""
"","html-keyboard-response","253","436236","0.0-8.0-2.1","FL","ptl3djnzo5","1280","720","de","el06nd29","null","","","","learningBlock2","","","","<div style=""font-size:60px;""> </div>","null","FL","learning/Slide82.JPG","That was a bim.","",""
"","image-keyboard-response","254","436413","0.0-8.0-0.2","FL","ptl3djnzo5","1280","720","de","el06nd29","null","","","","","","","","learning/Slide83.JPG","null","","","","",""
"","html-keyboard-response","255","437565","0.0-8.0-1.2","FL","ptl3djnzo5","1280","720","de","el06nd29","null","","","","learningBlock2","","","","That was a wug.","null","","","","",""
"","html-keyboard-response","256","438566","0.0-8.0-2.2","FL","ptl3djnzo5","1280","720","de","el06nd29","null","","","","learningBlock2","","","","<div style=""font-size:60px;""> </div>","null","FL","learning/Slide83.JPG","That was a wug.","",""
"","image-keyboard-response","257","438744","0.0-8.0-0.3","FL","ptl3djnzo5","1280","720","de","el06nd29","null","","","","","","","","learning/Slide84.JPG","null","","","","",""
"","html-keyboard-response","258","439895","0.0-8.0-1.3","FL","ptl3djnzo5","1280","720","de","el06nd29","null","","","","learningBlock2","","","","That was a dep.","null","","","","",""
"","html-keyboard-response","259","440897","0.0-8.0-2.3","FL","ptl3djnzo5","1280","720","de","el06nd29","null","","","","learningBlock2","","","","<div style=""font-size:60px;""> </div>","null","FL","learning/Slide84.JPG","That was a dep.","",""
"","image-keyboard-response","260","441074","0.0-8.0-0.4","FL","ptl3djnzo5","1280","720","de","el06nd29","null","","","","","","","","learning/Slide85.JPG","null","","","","",""
"","html-keyboard-response","261","442227","0.0-8.0-1.4","FL","ptl3djnzo5","1280","720","de","el06nd29","null","","","","learningBlock2","","","","That was a bim.","null","","","","",""
"","html-keyboard-response","262","443228","0.0-8.0-2.4","FL","ptl3djnzo5","1280","720","de","el06nd29","null","","","","learningBlock2","","","","<div style=""font-size:60px;""> </div>","null","FL","learning/Slide85.JPG","That was a bim.","",""
"","image-keyboard-response","263","443404","0.0-8.0-0.5","FL","ptl3djnzo5","1280","720","de","el06nd29","null","","","","","","","","learning/Slide86.JPG","null","","","","",""
"","html-keyboard-response","264","444556","0.0-8.0-1.5","FL","ptl3djnzo5","1280","720","de","el06nd29","null","","","","learningBlock2","","","","That was a tob.","null","","","","",""
"","html-keyboard-response","265","445558","0.0-8.0-2.5","FL","ptl3djnzo5","1280","720","de","el06nd29","null","","","","learningBlock2","","","","<div style=""font-size:60px;""> </div>","null","FL","learning/Slide86.JPG","That was a tob.","",""
"","image-keyboard-response","266","445735","0.0-8.0-0.6","FL","ptl3djnzo5","1280","720","de","el06nd29","null","","","","","","","","learning/Slide87.JPG","null","","","","",""
"","html-keyboard-response","267","446887","0.0-8.0-1.6","FL","ptl3djnzo5","1280","720","de","el06nd29","null","","","","learningBlock2","","","","That was a wug.","null","","","","",""
"","html-keyboard-response","268","447889","0.0-8.0-2.6","FL","ptl3djnzo5","1280","720","de","el06nd29","null","","","","learningBlock2","","","","<div style=""font-size:60px;""> </div>","null","FL","learning/Slide87.JPG","That was a wug.","",""
"","image-keyboard-response","269","448067","0.0-8.0-0.7","FL","ptl3djnzo5","1280","720","de","el06nd29","null","","","","","","","","learning/Slide88.JPG","null","","","","",""
"","html-keyboard-response","270","449219","0.0-8.0-1.7","FL","ptl3djnzo5","1280","720","de","el06nd29","null","","","","learningBlock2","","","","That was a tob.","null","","","","",""
"","html-keyboard-response","271","450220","0.0-8.0-2.7","FL","ptl3djnzo5","1280","720","de","el06nd29","null","","","","learningBlock2","","","","<div style=""font-size:60px;""> </div>","null","FL","learning/Slide88.JPG","That was a tob.","",""
"","image-keyboard-response","272","450396","0.0-8.0-0.8","FL","ptl3djnzo5","1280","720","de","el06nd29","null","","","","","","","","learning/Slide89.JPG","null","","","","",""
"","html-keyboard-response","273","451548","0.0-8.0-1.8","FL","ptl3djnzo5","1280","720","de","el06nd29","null","","","","learningBlock2","","","","That was a bim.","null","","","","",""
"","html-keyboard-response","274","452550","0.0-8.0-2.8","FL","ptl3djnzo5","1280","720","de","el06nd29","null","","","","learningBlock2","","","","<div style=""font-size:60px;""> </div>","null","FL","learning/Slide89.JPG","That was a bim.","",""
"","image-keyboard-response","275","452727","0.0-8.0-0.9","FL","ptl3djnzo5","1280","720","de","el06nd29","null","","","","","","","","learning/Slide90.JPG","null","","","","",""
"","html-keyboard-response","276","453878","0.0-8.0-1.9","FL","ptl3djnzo5","1280","720","de","el06nd29","null","","","","learningBlock2","","","","That was a dep.","null","","","","",""
"","html-keyboard-response","277","454880","0.0-8.0-2.9","FL","ptl3djnzo5","1280","720","de","el06nd29","null","","","","learningBlock2","","","","<div style=""font-size:60px;""> </div>","null","FL","learning/Slide90.JPG","That was a dep.","",""
"","image-keyboard-response","278","455057","0.0-8.0-0.10","FL","ptl3djnzo5","1280","720","de","el06nd29","null","","","","","","","","learning/Slide91.JPG","null","","","","",""
"","html-keyboard-response","279","456208","0.0-8.0-1.10","FL","ptl3djnzo5","1280","720","de","el06nd29","null","","","","learningBlock2","","","","That was a wug.","null","","","","",""
"","html-keyboard-response","280","457210","0.0-8.0-2.10","FL","ptl3djnzo5","1280","720","de","el06nd29","null","","","","learningBlock2","","","","<div style=""font-size:60px;""> </div>","null","FL","learning/Slide91.JPG","That was a wug.","",""
"","image-keyboard-response","281","457386","0.0-8.0-0.11","FL","ptl3djnzo5","1280","720","de","el06nd29","null","","","","","","","","learning/Slide92.JPG","null","","","","",""
"","html-keyboard-response","282","458539","0.0-8.0-1.11","FL","ptl3djnzo5","1280","720","de","el06nd29","null","","","","learningBlock2","","","","That was a tob.","null","","","","",""
"","html-keyboard-response","283","459540","0.0-8.0-2.11","FL","ptl3djnzo5","1280","720","de","el06nd29","null","","","","learningBlock2","","","","<div style=""font-size:60px;""> </div>","null","FL","learning/Slide92.JPG","That was a tob.","",""
"","image-keyboard-response","284","459717","0.0-8.0-0.12","FL","ptl3djnzo5","1280","720","de","el06nd29","null","","","","","","","","learning/Slide93.JPG","null","","","","",""
"","html-keyboard-response","285","460869","0.0-8.0-1.12","FL","ptl3djnzo5","1280","720","de","el06nd29","null","","","","learningBlock2","","","","That was a bim.","null","","","","",""
"","html-keyboard-response","286","461870","0.0-8.0-2.12","FL","ptl3djnzo5","1280","720","de","el06nd29","null","","","","learningBlock2","","","","<div style=""font-size:60px;""> </div>","null","FL","learning/Slide93.JPG","That was a bim.","",""
"","image-keyboard-response","287","462047","0.0-8.0-0.13","FL","ptl3djnzo5","1280","720","de","el06nd29","null","","","","","","","","learning/Slide94.JPG","null","","","","",""
"","html-keyboard-response","288","463200","0.0-8.0-1.13","FL","ptl3djnzo5","1280","720","de","el06nd29","null","","","","learningBlock2","","","","That was a tob.","null","","","","",""
"","html-keyboard-response","289","464201","0.0-8.0-2.13","FL","ptl3djnzo5","1280","720","de","el06nd29","null","","","","learningBlock2","","","","<div style=""font-size:60px;""> </div>","null","FL","learning/Slide94.JPG","That was a tob.","",""
"","image-keyboard-response","290","464377","0.0-8.0-0.14","FL","ptl3djnzo5","1280","720","de","el06nd29","null","","","","","","","","learning/Slide95.JPG","null","","","","",""
"","html-keyboard-response","291","465529","0.0-8.0-1.14","FL","ptl3djnzo5","1280","720","de","el06nd29","null","","","","learningBlock2","","","","That was a wug.","null","","","","",""
"","html-keyboard-response","292","466531","0.0-8.0-2.14","FL","ptl3djnzo5","1280","720","de","el06nd29","null","","","","learningBlock2","","","","<div style=""font-size:60px;""> </div>","null","FL","learning/Slide95.JPG","That was a wug.","",""
"","image-keyboard-response","293","466708","0.0-8.0-0.15","FL","ptl3djnzo5","1280","720","de","el06nd29","null","","","","","","","","learning/Slide96.JPG","null","","","","",""
"","html-keyboard-response","294","467860","0.0-8.0-1.15","FL","ptl3djnzo5","1280","720","de","el06nd29","null","","","","learningBlock2","","","","That was a tob.","null","","","","",""
"","html-keyboard-response","295","468862","0.0-8.0-2.15","FL","ptl3djnzo5","1280","720","de","el06nd29","null","","","","learningBlock2","","","","<div style=""font-size:60px;""> </div>","null","FL","learning/Slide96.JPG","That was a tob.","",""
"","image-keyboard-response","296","469039","0.0-8.0-0.16","FL","ptl3djnzo5","1280","720","de","el06nd29","null","","","","","","","","learning/Slide97.JPG","null","","","","",""
"","html-keyboard-response","297","470193","0.0-8.0-1.16","FL","ptl3djnzo5","1280","720","de","el06nd29","null","","","","learningBlock2","","","","That was a dep.","null","","","","",""
"","html-keyboard-response","298","471195","0.0-8.0-2.16","FL","ptl3djnzo5","1280","720","de","el06nd29","null","","","","learningBlock2","","","","<div style=""font-size:60px;""> </div>","null","FL","learning/Slide97.JPG","That was a dep.","",""
"","image-keyboard-response","299","471371","0.0-8.0-0.17","FL","ptl3djnzo5","1280","720","de","el06nd29","null","","","","","","","","learning/Slide98.JPG","null","","","","",""
"","html-keyboard-response","300","472524","0.0-8.0-1.17","FL","ptl3djnzo5","1280","720","de","el06nd29","null","","","","learningBlock2","","","","That was a bim.","null","","","","",""
"","html-keyboard-response","301","473525","0.0-8.0-2.17","FL","ptl3djnzo5","1280","720","de","el06nd29","null","","","","learningBlock2","","","","<div style=""font-size:60px;""> </div>","null","FL","learning/Slide98.JPG","That was a bim.","",""
"","image-keyboard-response","302","473702","0.0-8.0-0.18","FL","ptl3djnzo5","1280","720","de","el06nd29","null","","","","","","","","learning/Slide99.JPG","null","","","","",""
"","html-keyboard-response","303","474854","0.0-8.0-1.18","FL","ptl3djnzo5","1280","720","de","el06nd29","null","","","","learningBlock2","","","","That was a dep.","null","","","","",""
"","html-keyboard-response","304","475856","0.0-8.0-2.18","FL","ptl3djnzo5","1280","720","de","el06nd29","null","","","","learningBlock2","","","","<div style=""font-size:60px;""> </div>","null","FL","learning/Slide99.JPG","That was a dep.","",""
"","image-keyboard-response","305","476032","0.0-8.0-0.19","FL","ptl3djnzo5","1280","720","de","el06nd29","null","","","","","","","","learning/Slide100.JPG","null","","","","",""
"","html-keyboard-response","306","477185","0.0-8.0-1.19","FL","ptl3djnzo5","1280","720","de","el06nd29","null","","","","learningBlock2","","","","That was a bim.","null","","","","",""
"","html-keyboard-response","307","478187","0.0-8.0-2.19","FL","ptl3djnzo5","1280","720","de","el06nd29","null","","","","learningBlock2","","","","<div style=""font-size:60px;""> </div>","null","FL","learning/Slide100.JPG","That was a bim.","",""
"","image-keyboard-response","308","478363","0.0-8.0-0.20","FL","ptl3djnzo5","1280","720","de","el06nd29","null","","","","","","","","learning/Slide101.JPG","null","","","","",""
"","html-keyboard-response","309","479515","0.0-8.0-1.20","FL","ptl3djnzo5","1280","720","de","el06nd29","null","","","","learningBlock2","","","","That was a tob.","null","","","","",""
"","html-keyboard-response","310","480517","0.0-8.0-2.20","FL","ptl3djnzo5","1280","720","de","el06nd29","null","","","","learningBlock2","","","","<div style=""font-size:60px;""> </div>","null","FL","learning/Slide101.JPG","That was a tob.","",""
"","image-keyboard-response","311","480693","0.0-8.0-0.21","FL","ptl3djnzo5","1280","720","de","el06nd29","null","","","","","","","","learning/Slide102.JPG","null","","","","",""
"","html-keyboard-response","312","481846","0.0-8.0-1.21","FL","ptl3djnzo5","1280","720","de","el06nd29","null","","","","learningBlock2","","","","That was a bim.","null","","","","",""
"","html-keyboard-response","313","482848","0.0-8.0-2.21","FL","ptl3djnzo5","1280","720","de","el06nd29","null","","","","learningBlock2","","","","<div style=""font-size:60px;""> </div>","null","FL","learning/Slide102.JPG","That was a bim.","",""
"","image-keyboard-response","314","483025","0.0-8.0-0.22","FL","ptl3djnzo5","1280","720","de","el06nd29","null","","","","","","","","learning/Slide103.JPG","null","","","","",""
"","html-keyboard-response","315","484177","0.0-8.0-1.22","FL","ptl3djnzo5","1280","720","de","el06nd29","null","","","","learningBlock2","","","","That was a dep.","null","","","","",""
"","html-keyboard-response","316","485179","0.0-8.0-2.22","FL","ptl3djnzo5","1280","720","de","el06nd29","null","","","","learningBlock2","","","","<div style=""font-size:60px;""> </div>","null","FL","learning/Slide103.JPG","That was a dep.","",""
"","image-keyboard-response","317","485355","0.0-8.0-0.23","FL","ptl3djnzo5","1280","720","de","el06nd29","null","","","","","","","","learning/Slide104.JPG","null","","","","",""
"","html-keyboard-response","318","486507","0.0-8.0-1.23","FL","ptl3djnzo5","1280","720","de","el06nd29","null","","","","learningBlock2","","","","That was a tob.","null","","","","",""
"","html-keyboard-response","319","487509","0.0-8.0-2.23","FL","ptl3djnzo5","1280","720","de","el06nd29","null","","","","learningBlock2","","","","<div style=""font-size:60px;""> </div>","null","FL","learning/Slide104.JPG","That was a tob.","",""
"","image-keyboard-response","320","487686","0.0-8.0-0.24","FL","ptl3djnzo5","1280","720","de","el06nd29","null","","","","","","","","learning/Slide105.JPG","null","","","","",""
"","html-keyboard-response","321","488838","0.0-8.0-1.24","FL","ptl3djnzo5","1280","720","de","el06nd29","null","","","","learningBlock2","","","","That was a dep.","null","","","","",""
"","html-keyboard-response","322","489840","0.0-8.0-2.24","FL","ptl3djnzo5","1280","720","de","el06nd29","null","","","","learningBlock2","","","","<div style=""font-size:60px;""> </div>","null","FL","learning/Slide105.JPG","That was a dep.","",""
"","image-keyboard-response","323","490017","0.0-8.0-0.25","FL","ptl3djnzo5","1280","720","de","el06nd29","null","","","","","","","","learning/Slide106.JPG","null","","","","",""
"","html-keyboard-response","324","491170","0.0-8.0-1.25","FL","ptl3djnzo5","1280","720","de","el06nd29","null","","","","learningBlock2","","","","That was a wug.","null","","","","",""
"","html-keyboard-response","325","492171","0.0-8.0-2.25","FL","ptl3djnzo5","1280","720","de","el06nd29","null","","","","learningBlock2","","","","<div style=""font-size:60px;""> </div>","null","FL","learning/Slide106.JPG","That was a wug.","",""
"","image-keyboard-response","326","492349","0.0-8.0-0.26","FL","ptl3djnzo5","1280","720","de","el06nd29","null","","","","","","","","learning/Slide107.JPG","null","","","","",""
"","html-keyboard-response","327","493502","0.0-8.0-1.26","FL","ptl3djnzo5","1280","720","de","el06nd29","null","","","","learningBlock2","","","","That was a bim.","null","","","","",""
"","html-keyboard-response","328","494504","0.0-8.0-2.26","FL","ptl3djnzo5","1280","720","de","el06nd29","null","","","","learningBlock2","","","","<div style=""font-size:60px;""> </div>","null","FL","learning/Slide107.JPG","That was a bim.","",""
"","image-keyboard-response","329","494680","0.0-8.0-0.27","FL","ptl3djnzo5","1280","720","de","el06nd29","null","","","","","","","","learning/Slide108.JPG","null","","","","",""
"","html-keyboard-response","330","495832","0.0-8.0-1.27","FL","ptl3djnzo5","1280","720","de","el06nd29","null","","","","learningBlock2","","","","That was a dep.","null","","","","",""
"","html-keyboard-response","331","496833","0.0-8.0-2.27","FL","ptl3djnzo5","1280","720","de","el06nd29","null","","","","learningBlock2","","","","<div style=""font-size:60px;""> </div>","null","FL","learning/Slide108.JPG","That was a dep.","",""
"","image-keyboard-response","332","497010","0.0-8.0-0.28","FL","ptl3djnzo5","1280","720","de","el06nd29","null","","","","","","","","learning/Slide109.JPG","null","","","","",""
"","html-keyboard-response","333","498163","0.0-8.0-1.28","FL","ptl3djnzo5","1280","720","de","el06nd29","null","","","","learningBlock2","","","","That was a wug.","null","","","","",""
"","html-keyboard-response","334","499165","0.0-8.0-2.28","FL","ptl3djnzo5","1280","720","de","el06nd29","null","","","","learningBlock2","","","","<div style=""font-size:60px;""> </div>","null","FL","learning/Slide109.JPG","That was a wug.","",""
"","image-keyboard-response","335","499341","0.0-8.0-0.29","FL","ptl3djnzo5","1280","720","de","el06nd29","null","","","","","","","","learning/Slide110.JPG","null","","","","",""
"","html-keyboard-response","336","500492","0.0-8.0-1.29","FL","ptl3djnzo5","1280","720","de","el06nd29","null","","","","learningBlock2","","","","That was a bim.","null","","","","",""
"","html-keyboard-response","337","501493","0.0-8.0-2.29","FL","ptl3djnzo5","1280","720","de","el06nd29","null","","","","learningBlock2","","","","<div style=""font-size:60px;""> </div>","null","FL","learning/Slide110.JPG","That was a bim.","",""
"","image-keyboard-response","338","501670","0.0-8.0-0.30","FL","ptl3djnzo5","1280","720","de","el06nd29","null","","","","","","","","learning/Slide111.JPG","null","","","","",""
"","html-keyboard-response","339","502823","0.0-8.0-1.30","FL","ptl3djnzo5","1280","720","de","el06nd29","null","","","","learningBlock2","","","","That was a tob.","null","","","","",""
"","html-keyboard-response","340","503826","0.0-8.0-2.30","FL","ptl3djnzo5","1280","720","de","el06nd29","null","","","","learningBlock2","","","","<div style=""font-size:60px;""> </div>","null","FL","learning/Slide111.JPG","That was a tob.","",""
"","image-keyboard-response","341","504003","0.0-8.0-0.31","FL","ptl3djnzo5","1280","720","de","el06nd29","null","","","","","","","","learning/Slide112.JPG","null","","","","",""
"","html-keyboard-response","342","505154","0.0-8.0-1.31","FL","ptl3djnzo5","1280","720","de","el06nd29","null","","","","learningBlock2","","","","That was a wug.","null","","","","",""
"","html-keyboard-response","343","506156","0.0-8.0-2.31","FL","ptl3djnzo5","1280","720","de","el06nd29","null","","","","learningBlock2","","","","<div style=""font-size:60px;""> </div>","null","FL","learning/Slide112.JPG","That was a wug.","",""
"","image-keyboard-response","344","506332","0.0-8.0-0.32","FL","ptl3djnzo5","1280","720","de","el06nd29","null","","","","","","","","learning/Slide113.JPG","null","","","","",""
"","html-keyboard-response","345","507485","0.0-8.0-1.32","FL","ptl3djnzo5","1280","720","de","el06nd29","null","","","","learningBlock2","","","","That was a tob.","null","","","","",""
"","html-keyboard-response","346","508486","0.0-8.0-2.32","FL","ptl3djnzo5","1280","720","de","el06nd29","null","","","","learningBlock2","","","","<div style=""font-size:60px;""> </div>","null","FL","learning/Slide113.JPG","That was a tob.","",""
"","image-keyboard-response","347","508663","0.0-8.0-0.33","FL","ptl3djnzo5","1280","720","de","el06nd29","null","","","","","","","","learning/Slide114.JPG","null","","","","",""
"","html-keyboard-response","348","509815","0.0-8.0-1.33","FL","ptl3djnzo5","1280","720","de","el06nd29","null","","","","learningBlock2","","","","That was a wug.","null","","","","",""
"","html-keyboard-response","349","510816","0.0-8.0-2.33","FL","ptl3djnzo5","1280","720","de","el06nd29","null","","","","learningBlock2","","","","<div style=""font-size:60px;""> </div>","null","FL","learning/Slide114.JPG","That was a wug.","",""
"","image-keyboard-response","350","510993","0.0-8.0-0.34","FL","ptl3djnzo5","1280","720","de","el06nd29","null","","","","","","","","learning/Slide115.JPG","null","","","","",""
"","html-keyboard-response","351","512146","0.0-8.0-1.34","FL","ptl3djnzo5","1280","720","de","el06nd29","null","","","","learningBlock2","","","","That was a bim.","null","","","","",""
"","html-keyboard-response","352","513148","0.0-8.0-2.34","FL","ptl3djnzo5","1280","720","de","el06nd29","null","","","","learningBlock2","","","","<div style=""font-size:60px;""> </div>","null","FL","learning/Slide115.JPG","That was a bim.","",""
"","image-keyboard-response","353","513324","0.0-8.0-0.35","FL","ptl3djnzo5","1280","720","de","el06nd29","null","","","","","","","","learning/Slide116.JPG","null","","","","",""
"","html-keyboard-response","354","514476","0.0-8.0-1.35","FL","ptl3djnzo5","1280","720","de","el06nd29","null","","","","learningBlock2","","","","That was a dep.","null","","","","",""
"","html-keyboard-response","355","515477","0.0-8.0-2.35","FL","ptl3djnzo5","1280","720","de","el06nd29","null","","","","learningBlock2","","","","<div style=""font-size:60px;""> </div>","null","FL","learning/Slide116.JPG","That was a dep.","",""
"","image-keyboard-response","356","515654","0.0-8.0-0.36","FL","ptl3djnzo5","1280","720","de","el06nd29","null","","","","","","","","learning/Slide117.JPG","null","","","","",""
"","html-keyboard-response","357","516807","0.0-8.0-1.36","FL","ptl3djnzo5","1280","720","de","el06nd29","null","","","","learningBlock2","","","","That was a tob.","null","","","","",""
"","html-keyboard-response","358","517816","0.0-8.0-2.36","FL","ptl3djnzo5","1280","720","de","el06nd29","null","","","","learningBlock2","","","","<div style=""font-size:60px;""> </div>","null","FL","learning/Slide117.JPG","That was a tob.","",""
"","image-keyboard-response","359","517992","0.0-8.0-0.37","FL","ptl3djnzo5","1280","720","de","el06nd29","null","","","","","","","","learning/Slide118.JPG","null","","","","",""
"","html-keyboard-response","360","519144","0.0-8.0-1.37","FL","ptl3djnzo5","1280","720","de","el06nd29","null","","","","learningBlock2","","","","That was a dep.","null","","","","",""
"","html-keyboard-response","361","520146","0.0-8.0-2.37","FL","ptl3djnzo5","1280","720","de","el06nd29","null","","","","learningBlock2","","","","<div style=""font-size:60px;""> </div>","null","FL","learning/Slide118.JPG","That was a dep.","",""
"","image-keyboard-response","362","520323","0.0-8.0-0.38","FL","ptl3djnzo5","1280","720","de","el06nd29","null","","","","","","","","learning/Slide119.JPG","null","","","","",""
"","html-keyboard-response","363","521476","0.0-8.0-1.38","FL","ptl3djnzo5","1280","720","de","el06nd29","null","","","","learningBlock2","","","","That was a wug.","null","","","","",""
"","html-keyboard-response","364","522477","0.0-8.0-2.38","FL","ptl3djnzo5","1280","720","de","el06nd29","null","","","","learningBlock2","","","","<div style=""font-size:60px;""> </div>","null","FL","learning/Slide119.JPG","That was a wug.","",""
"","image-keyboard-response","365","522654","0.0-8.0-0.39","FL","ptl3djnzo5","1280","720","de","el06nd29","null","","","","","","","","learning/Slide120.JPG","null","","","","",""
"","html-keyboard-response","366","523805","0.0-8.0-1.39","FL","ptl3djnzo5","1280","720","de","el06nd29","null","","","","learningBlock2","","","","That was a dep.","null","","","","",""
"","html-keyboard-response","367","524807","0.0-8.0-2.39","FL","ptl3djnzo5","1280","720","de","el06nd29","null","","","","learningBlock2","","","","<div style=""font-size:60px;""> </div>","null","FL","learning/Slide120.JPG","That was a dep.","",""
"","image-keyboard-response","368","524984","0.0-8.0-0.40","FL","ptl3djnzo5","1280","720","de","el06nd29","null","","","","","","","","learning/Slide121.JPG","null","","","","",""
"","html-keyboard-response","369","526136","0.0-8.0-1.40","FL","ptl3djnzo5","1280","720","de","el06nd29","null","","","","learningBlock2","","","","That was a bim.","null","","","","",""
"","html-keyboard-response","370","527137","0.0-8.0-2.40","FL","ptl3djnzo5","1280","720","de","el06nd29","null","","","","learningBlock2","","","","<div style=""font-size:60px;""> </div>","null","FL","learning/Slide121.JPG","That was a bim.","",""
"","image-keyboard-response","371","527314","0.0-8.0-0.41","FL","ptl3djnzo5","1280","720","de","el06nd29","null","","","","","","","","learning/Slide122.JPG","null","","","","",""
"","html-keyboard-response","372","528466","0.0-8.0-1.41","FL","ptl3djnzo5","1280","720","de","el06nd29","null","","","","learningBlock2","","","","That was a wug.","null","","","","",""
"","html-keyboard-response","373","529468","0.0-8.0-2.41","FL","ptl3djnzo5","1280","720","de","el06nd29","null","","","","learningBlock2","","","","<div style=""font-size:60px;""> </div>","null","FL","learning/Slide122.JPG","That was a wug.","",""
"","image-keyboard-response","374","529645","0.0-8.0-0.42","FL","ptl3djnzo5","1280","720","de","el06nd29","null","","","","","","","","learning/Slide123.JPG","null","","","","",""
"","html-keyboard-response","375","530798","0.0-8.0-1.42","FL","ptl3djnzo5","1280","720","de","el06nd29","null","","","","learningBlock2","","","","That was a bim.","null","","","","",""
"","html-keyboard-response","376","531799","0.0-8.0-2.42","FL","ptl3djnzo5","1280","720","de","el06nd29","null","","","","learningBlock2","","","","<div style=""font-size:60px;""> </div>","null","FL","learning/Slide123.JPG","That was a bim.","",""
"","image-keyboard-response","377","531976","0.0-8.0-0.43","FL","ptl3djnzo5","1280","720","de","el06nd29","null","","","","","","","","learning/Slide124.JPG","null","","","","",""
"","html-keyboard-response","378","533128","0.0-8.0-1.43","FL","ptl3djnzo5","1280","720","de","el06nd29","null","","","","learningBlock2","","","","That was a tob.","null","","","","",""
"","html-keyboard-response","379","534131","0.0-8.0-2.43","FL","ptl3djnzo5","1280","720","de","el06nd29","null","","","","learningBlock2","","","","<div style=""font-size:60px;""> </div>","null","FL","learning/Slide124.JPG","That was a tob.","",""
"","image-keyboard-response","380","534307","0.0-8.0-0.44","FL","ptl3djnzo5","1280","720","de","el06nd29","null","","","","","","","","learning/Slide125.JPG","null","","","","",""
"","html-keyboard-response","381","535459","0.0-8.0-1.44","FL","ptl3djnzo5","1280","720","de","el06nd29","null","","","","learningBlock2","","","","That was a bim.","null","","","","",""
"","html-keyboard-response","382","536460","0.0-8.0-2.44","FL","ptl3djnzo5","1280","720","de","el06nd29","null","","","","learningBlock2","","","","<div style=""font-size:60px;""> </div>","null","FL","learning/Slide125.JPG","That was a bim.","",""
"","image-keyboard-response","383","536636","0.0-8.0-0.45","FL","ptl3djnzo5","1280","720","de","el06nd29","null","","","","","","","","learning/Slide126.JPG","null","","","","",""
"","html-keyboard-response","384","537788","0.0-8.0-1.45","FL","ptl3djnzo5","1280","720","de","el06nd29","null","","","","learningBlock2","","","","That was a tob.","null","","","","",""
"","html-keyboard-response","385","538789","0.0-8.0-2.45","FL","ptl3djnzo5","1280","720","de","el06nd29","null","","","","learningBlock2","","","","<div style=""font-size:60px;""> </div>","null","FL","learning/Slide126.JPG","That was a tob.","",""
"","image-keyboard-response","386","538965","0.0-8.0-0.46","FL","ptl3djnzo5","1280","720","de","el06nd29","null","","","","","","","","learning/Slide127.JPG","null","","","","",""
"","html-keyboard-response","387","540118","0.0-8.0-1.46","FL","ptl3djnzo5","1280","720","de","el06nd29","null","","","","learningBlock2","","","","That was a dep.","null","","","","",""
"","html-keyboard-response","388","541120","0.0-8.0-2.46","FL","ptl3djnzo5","1280","720","de","el06nd29","null","","","","learningBlock2","","","","<div style=""font-size:60px;""> </div>","null","FL","learning/Slide127.JPG","That was a dep.","",""
"","image-keyboard-response","389","541297","0.0-8.0-0.47","FL","ptl3djnzo5","1280","720","de","el06nd29","null","","","","","","","","learning/Slide128.JPG","null","","","","",""
"","html-keyboard-response","390","542450","0.0-8.0-1.47","FL","ptl3djnzo5","1280","720","de","el06nd29","null","","","","learningBlock2","","","","That was a wug.","null","","","","",""
"","html-keyboard-response","391","543451","0.0-8.0-2.47","FL","ptl3djnzo5","1280","720","de","el06nd29","null","","","","learningBlock2","","","","<div style=""font-size:60px;""> </div>","null","FL","learning/Slide128.JPG","That was a wug.","",""
"","image-keyboard-response","392","543628","0.0-8.0-0.48","FL","ptl3djnzo5","1280","720","de","el06nd29","null","","","","","","","","learning/Slide129.JPG","null","","","","",""
"","html-keyboard-response","393","544781","0.0-8.0-1.48","FL","ptl3djnzo5","1280","720","de","el06nd29","null","","","","learningBlock2","","","","That was a tob.","null","","","","",""
"","html-keyboard-response","394","545783","0.0-8.0-2.48","FL","ptl3djnzo5","1280","720","de","el06nd29","null","","","","learningBlock2","","","","<div style=""font-size:60px;""> </div>","null","FL","learning/Slide129.JPG","That was a tob.","",""
"","image-keyboard-response","395","545960","0.0-8.0-0.49","FL","ptl3djnzo5","1280","720","de","el06nd29","null","","","","","","","","learning/Slide130.JPG","null","","","","",""
"","html-keyboard-response","396","547111","0.0-8.0-1.49","FL","ptl3djnzo5","1280","720","de","el06nd29","null","","","","learningBlock2","","","","That was a wug.","null","","","","",""
"","html-keyboard-response","397","548112","0.0-8.0-2.49","FL","ptl3djnzo5","1280","720","de","el06nd29","null","","","","learningBlock2","","","","<div style=""font-size:60px;""> </div>","null","FL","learning/Slide130.JPG","That was a wug.","",""
"","image-keyboard-response","398","548289","0.0-8.0-0.50","FL","ptl3djnzo5","1280","720","de","el06nd29","null","","","","","","","","learning/Slide131.JPG","null","","","","",""
"","html-keyboard-response","399","549441","0.0-8.0-1.50","FL","ptl3djnzo5","1280","720","de","el06nd29","null","","","","learningBlock2","","","","That was a bim.","null","","","","",""
"","html-keyboard-response","400","550442","0.0-8.0-2.50","FL","ptl3djnzo5","1280","720","de","el06nd29","null","","","","learningBlock2","","","","<div style=""font-size:60px;""> </div>","null","FL","learning/Slide131.JPG","That was a bim.","",""
"","image-keyboard-response","401","550619","0.0-8.0-0.51","FL","ptl3djnzo5","1280","720","de","el06nd29","null","","","","","","","","learning/Slide132.JPG","null","","","","",""
"","html-keyboard-response","402","551771","0.0-8.0-1.51","FL","ptl3djnzo5","1280","720","de","el06nd29","null","","","","learningBlock2","","","","That was a dep.","null","","","","",""
"","html-keyboard-response","403","552773","0.0-8.0-2.51","FL","ptl3djnzo5","1280","720","de","el06nd29","null","","","","learningBlock2","","","","<div style=""font-size:60px;""> </div>","null","FL","learning/Slide132.JPG","That was a dep.","",""
"","image-keyboard-response","404","552952","0.0-8.0-0.52","FL","ptl3djnzo5","1280","720","de","el06nd29","null","","","","","","","","learning/Slide133.JPG","null","","","","",""
"","html-keyboard-response","405","554104","0.0-8.0-1.52","FL","ptl3djnzo5","1280","720","de","el06nd29","null","","","","learningBlock2","","","","That was a tob.","null","","","","",""
"","html-keyboard-response","406","555106","0.0-8.0-2.52","FL","ptl3djnzo5","1280","720","de","el06nd29","null","","","","learningBlock2","","","","<div style=""font-size:60px;""> </div>","null","FL","learning/Slide133.JPG","That was a tob.","",""
"","image-keyboard-response","407","555283","0.0-8.0-0.53","FL","ptl3djnzo5","1280","720","de","el06nd29","null","","","","","","","","learning/Slide134.JPG","null","","","","",""
"","html-keyboard-response","408","556435","0.0-8.0-1.53","FL","ptl3djnzo5","1280","720","de","el06nd29","null","","","","learningBlock2","","","","That was a dep.","null","","","","",""
"","html-keyboard-response","409","557437","0.0-8.0-2.53","FL","ptl3djnzo5","1280","720","de","el06nd29","null","","","","learningBlock2","","","","<div style=""font-size:60px;""> </div>","null","FL","learning/Slide134.JPG","That was a dep.","",""
"","image-keyboard-response","410","557613","0.0-8.0-0.54","FL","ptl3djnzo5","1280","720","de","el06nd29","null","","","","","","","","learning/Slide135.JPG","null","","","","",""
"","html-keyboard-response","411","558766","0.0-8.0-1.54","FL","ptl3djnzo5","1280","720","de","el06nd29","null","","","","learningBlock2","","","","That was a tob.","null","","","","",""
"","html-keyboard-response","412","559768","0.0-8.0-2.54","FL","ptl3djnzo5","1280","720","de","el06nd29","null","","","","learningBlock2","","","","<div style=""font-size:60px;""> </div>","null","FL","learning/Slide135.JPG","That was a tob.","",""
"","image-keyboard-response","413","559944","0.0-8.0-0.55","FL","ptl3djnzo5","1280","720","de","el06nd29","null","","","","","","","","learning/Slide136.JPG","null","","","","",""
"","html-keyboard-response","414","561096","0.0-8.0-1.55","FL","ptl3djnzo5","1280","720","de","el06nd29","null","","","","learningBlock2","","","","That was a wug.","null","","","","",""
"","html-keyboard-response","415","562098","0.0-8.0-2.55","FL","ptl3djnzo5","1280","720","de","el06nd29","null","","","","learningBlock2","","","","<div style=""font-size:60px;""> </div>","null","FL","learning/Slide136.JPG","That was a wug.","",""
"","image-keyboard-response","416","562275","0.0-8.0-0.56","FL","ptl3djnzo5","1280","720","de","el06nd29","null","","","","","","","","learning/Slide137.JPG","null","","","","",""
"","html-keyboard-response","417","563427","0.0-8.0-1.56","FL","ptl3djnzo5","1280","720","de","el06nd29","null","","","","learningBlock2","","","","That was a tob.","null","","","","",""
"","html-keyboard-response","418","564428","0.0-8.0-2.56","FL","ptl3djnzo5","1280","720","de","el06nd29","null","","","","learningBlock2","","","","<div style=""font-size:60px;""> </div>","null","FL","learning/Slide137.JPG","That was a tob.","",""
"","image-keyboard-response","419","564606","0.0-8.0-0.57","FL","ptl3djnzo5","1280","720","de","el06nd29","null","","","","","","","","learning/Slide138.JPG","null","","","","",""
"","html-keyboard-response","420","565758","0.0-8.0-1.57","FL","ptl3djnzo5","1280","720","de","el06nd29","null","","","","learningBlock2","","","","That was a bim.","null","","","","",""
"","html-keyboard-response","421","566759","0.0-8.0-2.57","FL","ptl3djnzo5","1280","720","de","el06nd29","null","","","","learningBlock2","","","","<div style=""font-size:60px;""> </div>","null","FL","learning/Slide138.JPG","That was a bim.","",""
"","image-keyboard-response","422","566936","0.0-8.0-0.58","FL","ptl3djnzo5","1280","720","de","el06nd29","null","","","","","","","","learning/Slide139.JPG","null","","","","",""
"","html-keyboard-response","423","568087","0.0-8.0-1.58","FL","ptl3djnzo5","1280","720","de","el06nd29","null","","","","learningBlock2","","","","That was a wug.","null","","","","",""
"","html-keyboard-response","424","569089","0.0-8.0-2.58","FL","ptl3djnzo5","1280","720","de","el06nd29","null","","","","learningBlock2","","","","<div style=""font-size:60px;""> </div>","null","FL","learning/Slide139.JPG","That was a wug.","",""
"","image-keyboard-response","425","569266","0.0-8.0-0.59","FL","ptl3djnzo5","1280","720","de","el06nd29","null","","","","","","","","learning/Slide140.JPG","null","","","","",""
"","html-keyboard-response","426","570419","0.0-8.0-1.59","FL","ptl3djnzo5","1280","720","de","el06nd29","null","","","","learningBlock2","","","","That was a dep.","null","","","","",""
"","html-keyboard-response","427","571420","0.0-8.0-2.59","FL","ptl3djnzo5","1280","720","de","el06nd29","null","","","","learningBlock2","","","","<div style=""font-size:60px;""> </div>","null","FL","learning/Slide140.JPG","That was a dep.","",""
"","image-keyboard-response","428","571596","0.0-8.0-0.60","FL","ptl3djnzo5","1280","720","de","el06nd29","null","","","","","","","","learning/Slide141.JPG","null","","","","",""
"","html-keyboard-response","429","572748","0.0-8.0-1.60","FL","ptl3djnzo5","1280","720","de","el06nd29","null","","","","learningBlock2","","","","That was a tob.","null","","","","",""
"","html-keyboard-response","430","573748","0.0-8.0-2.60","FL","ptl3djnzo5","1280","720","de","el06nd29","null","","","","learningBlock2","","","","<div style=""font-size:60px;""> </div>","null","FL","learning/Slide141.JPG","That was a tob.","",""
"","image-keyboard-response","431","573925","0.0-8.0-0.61","FL","ptl3djnzo5","1280","720","de","el06nd29","null","","","","","","","","learning/Slide142.JPG","null","","","","",""
"","html-keyboard-response","432","575077","0.0-8.0-1.61","FL","ptl3djnzo5","1280","720","de","el06nd29","null","","","","learningBlock2","","","","That was a wug.","null","","","","",""
"","html-keyboard-response","433","576078","0.0-8.0-2.61","FL","ptl3djnzo5","1280","720","de","el06nd29","null","","","","learningBlock2","","","","<div style=""font-size:60px;""> </div>","null","FL","learning/Slide142.JPG","That was a wug.","",""
"","image-keyboard-response","434","576255","0.0-8.0-0.62","FL","ptl3djnzo5","1280","720","de","el06nd29","null","","","","","","","","learning/Slide143.JPG","null","","","","",""
"","html-keyboard-response","435","577407","0.0-8.0-1.62","FL","ptl3djnzo5","1280","720","de","el06nd29","null","","","","learningBlock2","","","","That was a bim.","null","","","","",""
"","html-keyboard-response","436","578409","0.0-8.0-2.62","FL","ptl3djnzo5","1280","720","de","el06nd29","null","","","","learningBlock2","","","","<div style=""font-size:60px;""> </div>","null","FL","learning/Slide143.JPG","That was a bim.","",""
"","image-keyboard-response","437","578585","0.0-8.0-0.63","FL","ptl3djnzo5","1280","720","de","el06nd29","null","","","","","","","","learning/Slide144.JPG","null","","","","",""
"","html-keyboard-response","438","579737","0.0-8.0-1.63","FL","ptl3djnzo5","1280","720","de","el06nd29","null","","","","learningBlock2","","","","That was a dep.","null","","","","",""
"","html-keyboard-response","439","580738","0.0-8.0-2.63","FL","ptl3djnzo5","1280","720","de","el06nd29","null","","","","learningBlock2","","","","<div style=""font-size:60px;""> </div>","null","FL","learning/Slide144.JPG","That was a dep.","",""
"","image-keyboard-response","440","580915","0.0-8.0-0.64","FL","ptl3djnzo5","1280","720","de","el06nd29","null","","","","","","","","learning/Slide145.JPG","null","","","","",""
"","html-keyboard-response","441","582067","0.0-8.0-1.64","FL","ptl3djnzo5","1280","720","de","el06nd29","null","","","","learningBlock2","","","","That was a bim.","null","","","","",""
"","html-keyboard-response","442","583069","0.0-8.0-2.64","FL","ptl3djnzo5","1280","720","de","el06nd29","null","","","","learningBlock2","","","","<div style=""font-size:60px;""> </div>","null","FL","learning/Slide145.JPG","That was a bim.","",""
"","image-keyboard-response","443","583245","0.0-8.0-0.65","FL","ptl3djnzo5","1280","720","de","el06nd29","null","","","","","","","","learning/Slide146.JPG","null","","","","",""
"","html-keyboard-response","444","584398","0.0-8.0-1.65","FL","ptl3djnzo5","1280","720","de","el06nd29","null","","","","learningBlock2","","","","That was a tob.","null","","","","",""
"","html-keyboard-response","445","585400","0.0-8.0-2.65","FL","ptl3djnzo5","1280","720","de","el06nd29","null","","","","learningBlock2","","","","<div style=""font-size:60px;""> </div>","null","FL","learning/Slide146.JPG","That was a tob.","",""
"","image-keyboard-response","446","585576","0.0-8.0-0.66","FL","ptl3djnzo5","1280","720","de","el06nd29","null","","","","","","","","learning/Slide147.JPG","null","","","","",""
"","html-keyboard-response","447","586728","0.0-8.0-1.66","FL","ptl3djnzo5","1280","720","de","el06nd29","null","","","","learningBlock2","","","","That was a wug.","null","","","","",""
"","html-keyboard-response","448","587729","0.0-8.0-2.66","FL","ptl3djnzo5","1280","720","de","el06nd29","null","","","","learningBlock2","","","","<div style=""font-size:60px;""> </div>","null","FL","learning/Slide147.JPG","That was a wug.","",""
"","image-keyboard-response","449","587905","0.0-8.0-0.67","FL","ptl3djnzo5","1280","720","de","el06nd29","null","","","","","","","","learning/Slide148.JPG","null","","","","",""
"","html-keyboard-response","450","589057","0.0-8.0-1.67","FL","ptl3djnzo5","1280","720","de","el06nd29","null","","","","learningBlock2","","","","That was a bim.","null","","","","",""
"","html-keyboard-response","451","590059","0.0-8.0-2.67","FL","ptl3djnzo5","1280","720","de","el06nd29","null","","","","learningBlock2","","","","<div style=""font-size:60px;""> </div>","null","FL","learning/Slide148.JPG","That was a bim.","",""
"","image-keyboard-response","452","590235","0.0-8.0-0.68","FL","ptl3djnzo5","1280","720","de","el06nd29","null","","","","","","","","learning/Slide149.JPG","null","","","","",""
"","html-keyboard-response","453","591388","0.0-8.0-1.68","FL","ptl3djnzo5","1280","720","de","el06nd29","null","","","","learningBlock2","","","","That was a dep.","null","","","","",""
"","html-keyboard-response","454","592389","0.0-8.0-2.68","FL","ptl3djnzo5","1280","720","de","el06nd29","null","","","","learningBlock2","","","","<div style=""font-size:60px;""> </div>","null","FL","learning/Slide149.JPG","That was a dep.","",""
"","image-keyboard-response","455","592565","0.0-8.0-0.69","FL","ptl3djnzo5","1280","720","de","el06nd29","null","","","","","","","","learning/Slide150.JPG","null","","","","",""
"","html-keyboard-response","456","593718","0.0-8.0-1.69","FL","ptl3djnzo5","1280","720","de","el06nd29","null","","","","learningBlock2","","","","That was a wug.","null","","","","",""
"","html-keyboard-response","457","594719","0.0-8.0-2.69","FL","ptl3djnzo5","1280","720","de","el06nd29","null","","","","learningBlock2","","","","<div style=""font-size:60px;""> </div>","null","FL","learning/Slide150.JPG","That was a wug.","",""
"","image-keyboard-response","458","594896","0.0-8.0-0.70","FL","ptl3djnzo5","1280","720","de","el06nd29","null","","","","","","","","learning/Slide151.JPG","null","","","","",""
"","html-keyboard-response","459","596048","0.0-8.0-1.70","FL","ptl3djnzo5","1280","720","de","el06nd29","null","","","","learningBlock2","","","","That was a dep.","null","","","","",""
"","html-keyboard-response","460","597059","0.0-8.0-2.70","FL","ptl3djnzo5","1280","720","de","el06nd29","null","","","","learningBlock2","","","","<div style=""font-size:60px;""> </div>","null","FL","learning/Slide151.JPG","That was a dep.","",""
"","image-keyboard-response","461","597236","0.0-8.0-0.71","FL","ptl3djnzo5","1280","720","de","el06nd29","null","","","","","","","","learning/Slide152.JPG","null","","","","",""
"","html-keyboard-response","462","598389","0.0-8.0-1.71","FL","ptl3djnzo5","1280","720","de","el06nd29","null","","","","learningBlock2","","","","That was a wug.","null","","","","",""
"","html-keyboard-response","463","599391","0.0-8.0-2.71","FL","ptl3djnzo5","1280","720","de","el06nd29","null","","","","learningBlock2","","","","<div style=""font-size:60px;""> </div>","null","FL","learning/Slide152.JPG","That was a wug.","",""
"","image-keyboard-response","464","599568","0.0-8.0-0.72","FL","ptl3djnzo5","1280","720","de","el06nd29","null","","","","","","","","learning/Slide153.JPG","null","","","","",""
"","html-keyboard-response","465","600720","0.0-8.0-1.72","FL","ptl3djnzo5","1280","720","de","el06nd29","null","","","","learningBlock2","","","","That was a bim.","null","","","","",""
"","html-keyboard-response","466","601722","0.0-8.0-2.72","FL","ptl3djnzo5","1280","720","de","el06nd29","null","","","","learningBlock2","","","","<div style=""font-size:60px;""> </div>","null","FL","learning/Slide153.JPG","That was a bim.","",""
"","image-keyboard-response","467","601898","0.0-8.0-0.73","FL","ptl3djnzo5","1280","720","de","el06nd29","null","","","","","","","","learning/Slide154.JPG","null","","","","",""
"","html-keyboard-response","468","603052","0.0-8.0-1.73","FL","ptl3djnzo5","1280","720","de","el06nd29","null","","","","learningBlock2","","","","That was a tob.","null","","","","",""
"","html-keyboard-response","469","604053","0.0-8.0-2.73","FL","ptl3djnzo5","1280","720","de","el06nd29","null","","","","learningBlock2","","","","<div style=""font-size:60px;""> </div>","null","FL","learning/Slide154.JPG","That was a tob.","",""
"","image-keyboard-response","470","604230","0.0-8.0-0.74","FL","ptl3djnzo5","1280","720","de","el06nd29","null","","","","","","","","learning/Slide155.JPG","null","","","","",""
"","html-keyboard-response","471","605382","0.0-8.0-1.74","FL","ptl3djnzo5","1280","720","de","el06nd29","null","","","","learningBlock2","","","","That was a dep.","null","","","","",""
"","html-keyboard-response","472","606383","0.0-8.0-2.74","FL","ptl3djnzo5","1280","720","de","el06nd29","null","","","","learningBlock2","","","","<div style=""font-size:60px;""> </div>","null","FL","learning/Slide155.JPG","That was a dep.","",""
"","image-keyboard-response","473","606559","0.0-8.0-0.75","FL","ptl3djnzo5","1280","720","de","el06nd29","null","","","","","","","","learning/Slide156.JPG","null","","","","",""
"","html-keyboard-response","474","607712","0.0-8.0-1.75","FL","ptl3djnzo5","1280","720","de","el06nd29","null","","","","learningBlock2","","","","That was a bim.","null","","","","",""
"","html-keyboard-response","475","608714","0.0-8.0-2.75","FL","ptl3djnzo5","1280","720","de","el06nd29","null","","","","learningBlock2","","","","<div style=""font-size:60px;""> </div>","null","FL","learning/Slide156.JPG","That was a bim.","",""
"","image-keyboard-response","476","608892","0.0-8.0-0.76","FL","ptl3djnzo5","1280","720","de","el06nd29","null","","","","","","","","learning/Slide157.JPG","null","","","","",""
"","html-keyboard-response","477","610045","0.0-8.0-1.76","FL","ptl3djnzo5","1280","720","de","el06nd29","null","","","","learningBlock2","","","","That was a dep.","null","","","","",""
"","html-keyboard-response","478","611046","0.0-8.0-2.76","FL","ptl3djnzo5","1280","720","de","el06nd29","null","","","","learningBlock2","","","","<div style=""font-size:60px;""> </div>","null","FL","learning/Slide157.JPG","That was a dep.","",""
"","image-keyboard-response","479","611223","0.0-8.0-0.77","FL","ptl3djnzo5","1280","720","de","el06nd29","null","","","","","","","","learning/Slide158.JPG","null","","","","",""
"","html-keyboard-response","480","612374","0.0-8.0-1.77","FL","ptl3djnzo5","1280","720","de","el06nd29","null","","","","learningBlock2","","","","That was a tob.","null","","","","",""
"","html-keyboard-response","481","613377","0.0-8.0-2.77","FL","ptl3djnzo5","1280","720","de","el06nd29","null","","","","learningBlock2","","","","<div style=""font-size:60px;""> </div>","null","FL","learning/Slide158.JPG","That was a tob.","",""
"","image-keyboard-response","482","613553","0.0-8.0-0.78","FL","ptl3djnzo5","1280","720","de","el06nd29","null","","","","","","","","learning/Slide159.JPG","null","","","","",""
"","html-keyboard-response","483","614706","0.0-8.0-1.78","FL","ptl3djnzo5","1280","720","de","el06nd29","null","","","","learningBlock2","","","","That was a dep.","null","","","","",""
"","html-keyboard-response","484","615707","0.0-8.0-2.78","FL","ptl3djnzo5","1280","720","de","el06nd29","null","","","","learningBlock2","","","","<div style=""font-size:60px;""> </div>","null","FL","learning/Slide159.JPG","That was a dep.","",""
"","image-keyboard-response","485","615885","0.0-8.0-0.79","FL","ptl3djnzo5","1280","720","de","el06nd29","null","","","","","","","","learning/Slide160.JPG","null","","","","",""
"","html-keyboard-response","486","617037","0.0-8.0-1.79","FL","ptl3djnzo5","1280","720","de","el06nd29","null","","","","learningBlock2","","","","That was a wug.","null","","","","",""
"","html-keyboard-response","487","618039","0.0-8.0-2.79","FL","ptl3djnzo5","1280","720","de","el06nd29","null","","","","learningBlock2","","","","<div style=""font-size:60px;""> </div>","null","FL","learning/Slide160.JPG","That was a wug.","",""
"","resize2","488","623210","0.0-9.0","FL","ptl3djnzo5","1280","720","de","el06nd29","","","","","","","104","1.04","","","","","","",""
