"success","trial_type","trial_index","time_elapsed","internal_node_id","condition","subject","screen_width","screen_height","language","codeword","rt","responses","url","view_history","test_part","final_height_px","final_width_px","scale_factor","stimulus","key_press","learningType","presentedImage","presentedLabel","button_pressed","response"
"true","fullscreen","0","6033","0.0-0.0","FL","a7hqcrbor2","1680","1050","de","ll08ar27","","","","","","","","","","","","","","",""
"","survey-html-form","1","701514","0.0-1.0","FL","a7hqcrbor2","1680","1050","de","ll08ar27","695472","{""language"":""de""}","","","","","","","","","","","","",""
"","external-html","2","845932","0.0-2.0-0.0","FL","a7hqcrbor2","1680","1050","de","ll08ar27","144208","","text/information.html","","","","","","","","","","","",""
"","external-html","3","869321","0.0-2.0-1.0","FL","a7hqcrbor2","1680","1050","de","ll08ar27","23250","","text/consent.html","","","","","","","","","","","",""
"","survey-html-form","4","940999","0.0-2.0-2.0","FL","a7hqcrbor2","1680","1050","de","ll08ar27","71668","{""codeword_enter"":""ll08ar27""}","","","","","","","","","","","","",""
"","instructions","5","963262","0.0-4.0","FL","a7hqcrbor2","1680","1050","de","ll08ar27","NA","","","[{""page_index"":0,""viewing_time"":2592},{""page_index"":1,""viewing_time"":18167}]","instructions","","","","","","","","","",""
"","resize","6","1015531","0.0-5.0","FL","a7hqcrbor2","1680","1050","de","ll08ar27","","","","","","","306","1.9428571428571428","","","","","","",""
"","image-keyboard-response","7","1015709","0.0-6.0-0.0","FL","a7hqcrbor2","1680","1050","de","ll08ar27","null","","","","","","","","learning/Slide1.JPG","null","","","","",""
"","html-keyboard-response","8","1016862","0.0-6.0-1.0","FL","a7hqcrbor2","1680","1050","de","ll08ar27","null","","","","learningBlock1","","","","That was a tob.","null","","","","",""
"","html-keyboard-response","9","1017865","0.0-6.0-2.0","FL","a7hqcrbor2","1680","1050","de","ll08ar27","null","","","","learningBlock1","","","","<div style=""font-size:60px;""> </div>","null","FL","learning/Slide1.JPG","That was a tob.","",""
"","image-keyboard-response","10","1018043","0.0-6.0-0.1","FL","a7hqcrbor2","1680","1050","de","ll08ar27","null","","","","","","","","learning/Slide2.JPG","null","","","","",""
"","html-keyboard-response","11","1019196","0.0-6.0-1.1","FL","a7hqcrbor2","1680","1050","de","ll08ar27","null","","","","learningBlock1","","","","That was a wug.","null","","","","",""
"","html-keyboard-response","12","1020199","0.0-6.0-2.1","FL","a7hqcrbor2","1680","1050","de","ll08ar27","null","","","","learningBlock1","","","","<div style=""font-size:60px;""> </div>","null","FL","learning/Slide2.JPG","That was a wug.","",""
"","image-keyboard-response","13","1020376","0.0-6.0-0.2","FL","a7hqcrbor2","1680","1050","de","ll08ar27","null","","","","","","","","learning/Slide3.JPG","null","","","","",""
"","html-keyboard-response","14","1021531","0.0-6.0-1.2","FL","a7hqcrbor2","1680","1050","de","ll08ar27","null","","","","learningBlock1","","","","That was a bim.","null","","","","",""
"","html-keyboard-response","15","1022532","0.0-6.0-2.2","FL","a7hqcrbor2","1680","1050","de","ll08ar27","null","","","","learningBlock1","","","","<div style=""font-size:60px;""> </div>","null","FL","learning/Slide3.JPG","That was a bim.","",""
"","image-keyboard-response","16","1022710","0.0-6.0-0.3","FL","a7hqcrbor2","1680","1050","de","ll08ar27","null","","","","","","","","learning/Slide4.JPG","null","","","","",""
"","html-keyboard-response","17","1023862","0.0-6.0-1.3","FL","a7hqcrbor2","1680","1050","de","ll08ar27","null","","","","learningBlock1","","","","That was a dep.","null","","","","",""
"","html-keyboard-response","18","1024865","0.0-6.0-2.3","FL","a7hqcrbor2","1680","1050","de","ll08ar27","null","","","","learningBlock1","","","","<div style=""font-size:60px;""> </div>","null","FL","learning/Slide4.JPG","That was a dep.","",""
"","image-keyboard-response","19","1025041","0.0-6.0-0.4","FL","a7hqcrbor2","1680","1050","de","ll08ar27","null","","","","","","","","learning/Slide5.JPG","null","","","","",""
"","html-keyboard-response","20","1026195","0.0-6.0-1.4","FL","a7hqcrbor2","1680","1050","de","ll08ar27","null","","","","learningBlock1","","","","That was a wug.","null","","","","",""
"","html-keyboard-response","21","1027197","0.0-6.0-2.4","FL","a7hqcrbor2","1680","1050","de","ll08ar27","null","","","","learningBlock1","","","","<div style=""font-size:60px;""> </div>","null","FL","learning/Slide5.JPG","That was a wug.","",""
"","image-keyboard-response","22","1027375","0.0-6.0-0.5","FL","a7hqcrbor2","1680","1050","de","ll08ar27","null","","","","","","","","learning/Slide6.JPG","null","","","","",""
"","html-keyboard-response","23","1028530","0.0-6.0-1.5","FL","a7hqcrbor2","1680","1050","de","ll08ar27","null","","","","learningBlock1","","","","That was a dep.","null","","","","",""
"","html-keyboard-response","24","1029533","0.0-6.0-2.5","FL","a7hqcrbor2","1680","1050","de","ll08ar27","null","","","","learningBlock1","","","","<div style=""font-size:60px;""> </div>","null","FL","learning/Slide6.JPG","That was a dep.","",""
"","image-keyboard-response","25","1029711","0.0-6.0-0.6","FL","a7hqcrbor2","1680","1050","de","ll08ar27","null","","","","","","","","learning/Slide7.JPG","null","","","","",""
"","html-keyboard-response","26","1030865","0.0-6.0-1.6","FL","a7hqcrbor2","1680","1050","de","ll08ar27","null","","","","learningBlock1","","","","That was a wug.","null","","","","",""
"","html-keyboard-response","27","1031866","0.0-6.0-2.6","FL","a7hqcrbor2","1680","1050","de","ll08ar27","null","","","","learningBlock1","","","","<div style=""font-size:60px;""> </div>","null","FL","learning/Slide7.JPG","That was a wug.","",""
"","image-keyboard-response","28","1032042","0.0-6.0-0.7","FL","a7hqcrbor2","1680","1050","de","ll08ar27","null","","","","","","","","learning/Slide8.JPG","null","","","","",""
"","html-keyboard-response","29","1033194","0.0-6.0-1.7","FL","a7hqcrbor2","1680","1050","de","ll08ar27","null","","","","learningBlock1","","","","That was a bim.","null","","","","",""
"","html-keyboard-response","30","1034196","0.0-6.0-2.7","FL","a7hqcrbor2","1680","1050","de","ll08ar27","null","","","","learningBlock1","","","","<div style=""font-size:60px;""> </div>","null","FL","learning/Slide8.JPG","That was a bim.","",""
"","image-keyboard-response","31","1034373","0.0-6.0-0.8","FL","a7hqcrbor2","1680","1050","de","ll08ar27","null","","","","","","","","learning/Slide9.JPG","null","","","","",""
"","html-keyboard-response","32","1035525","0.0-6.0-1.8","FL","a7hqcrbor2","1680","1050","de","ll08ar27","null","","","","learningBlock1","","","","That was a wug.","null","","","","",""
"","html-keyboard-response","33","1036527","0.0-6.0-2.8","FL","a7hqcrbor2","1680","1050","de","ll08ar27","null","","","","learningBlock1","","","","<div style=""font-size:60px;""> </div>","null","FL","learning/Slide9.JPG","That was a wug.","",""
"","image-keyboard-response","34","1036705","0.0-6.0-0.9","FL","a7hqcrbor2","1680","1050","de","ll08ar27","null","","","","","","","","learning/Slide10.JPG","null","","","","",""
"","html-keyboard-response","35","1037856","0.0-6.0-1.9","FL","a7hqcrbor2","1680","1050","de","ll08ar27","null","","","","learningBlock1","","","","That was a dep.","null","","","","",""
"","html-keyboard-response","36","1038860","0.0-6.0-2.9","FL","a7hqcrbor2","1680","1050","de","ll08ar27","null","","","","learningBlock1","","","","<div style=""font-size:60px;""> </div>","null","FL","learning/Slide10.JPG","That was a dep.","",""
"","image-keyboard-response","37","1039038","0.0-6.0-0.10","FL","a7hqcrbor2","1680","1050","de","ll08ar27","null","","","","","","","","learning/Slide11.JPG","null","","","","",""
"","html-keyboard-response","38","1040191","0.0-6.0-1.10","FL","a7hqcrbor2","1680","1050","de","ll08ar27","null","","","","learningBlock1","","","","That was a tob.","null","","","","",""
"","html-keyboard-response","39","1041193","0.0-6.0-2.10","FL","a7hqcrbor2","1680","1050","de","ll08ar27","null","","","","learningBlock1","","","","<div style=""font-size:60px;""> </div>","null","FL","learning/Slide11.JPG","That was a tob.","",""
"","image-keyboard-response","40","1041371","0.0-6.0-0.11","FL","a7hqcrbor2","1680","1050","de","ll08ar27","null","","","","","","","","learning/Slide12.JPG","null","","","","",""
"","html-keyboard-response","41","1042522","0.0-6.0-1.11","FL","a7hqcrbor2","1680","1050","de","ll08ar27","null","","","","learningBlock1","","","","That was a dep.","null","","","","",""
"","html-keyboard-response","42","1043525","0.0-6.0-2.11","FL","a7hqcrbor2","1680","1050","de","ll08ar27","null","","","","learningBlock1","","","","<div style=""font-size:60px;""> </div>","null","FL","learning/Slide12.JPG","That was a dep.","",""
"","image-keyboard-response","43","1043702","0.0-6.0-0.12","FL","a7hqcrbor2","1680","1050","de","ll08ar27","null","","","","","","","","learning/Slide13.JPG","null","","","","",""
"","html-keyboard-response","44","1044854","0.0-6.0-1.12","FL","a7hqcrbor2","1680","1050","de","ll08ar27","null","","","","learningBlock1","","","","That was a bim.","null","","","","",""
"","html-keyboard-response","45","1045858","0.0-6.0-2.12","FL","a7hqcrbor2","1680","1050","de","ll08ar27","null","","","","learningBlock1","","","","<div style=""font-size:60px;""> </div>","null","FL","learning/Slide13.JPG","That was a bim.","",""
"","image-keyboard-response","46","1046036","0.0-6.0-0.13","FL","a7hqcrbor2","1680","1050","de","ll08ar27","null","","","","","","","","learning/Slide14.JPG","null","","","","",""
"","html-keyboard-response","47","1047188","0.0-6.0-1.13","FL","a7hqcrbor2","1680","1050","de","ll08ar27","null","","","","learningBlock1","","","","That was a wug.","null","","","","",""
"","html-keyboard-response","48","1048189","0.0-6.0-2.13","FL","a7hqcrbor2","1680","1050","de","ll08ar27","null","","","","learningBlock1","","","","<div style=""font-size:60px;""> </div>","null","FL","learning/Slide14.JPG","That was a wug.","",""
"","image-keyboard-response","49","1048366","0.0-6.0-0.14","FL","a7hqcrbor2","1680","1050","de","ll08ar27","null","","","","","","","","learning/Slide15.JPG","null","","","","",""
"","html-keyboard-response","50","1049518","0.0-6.0-1.14","FL","a7hqcrbor2","1680","1050","de","ll08ar27","null","","","","learningBlock1","","","","That was a tob.","null","","","","",""
"","html-keyboard-response","51","1050520","0.0-6.0-2.14","FL","a7hqcrbor2","1680","1050","de","ll08ar27","null","","","","learningBlock1","","","","<div style=""font-size:60px;""> </div>","null","FL","learning/Slide15.JPG","That was a tob.","",""
"","image-keyboard-response","52","1050697","0.0-6.0-0.15","FL","a7hqcrbor2","1680","1050","de","ll08ar27","null","","","","","","","","learning/Slide16.JPG","null","","","","",""
"","html-keyboard-response","53","1051852","0.0-6.0-1.15","FL","a7hqcrbor2","1680","1050","de","ll08ar27","null","","","","learningBlock1","","","","That was a dep.","null","","","","",""
"","html-keyboard-response","54","1052854","0.0-6.0-2.15","FL","a7hqcrbor2","1680","1050","de","ll08ar27","null","","","","learningBlock1","","","","<div style=""font-size:60px;""> </div>","null","FL","learning/Slide16.JPG","That was a dep.","",""
"","image-keyboard-response","55","1053031","0.0-6.0-0.16","FL","a7hqcrbor2","1680","1050","de","ll08ar27","null","","","","","","","","learning/Slide17.JPG","null","","","","",""
"","html-keyboard-response","56","1054185","0.0-6.0-1.16","FL","a7hqcrbor2","1680","1050","de","ll08ar27","null","","","","learningBlock1","","","","That was a bim.","null","","","","",""
"","html-keyboard-response","57","1055187","0.0-6.0-2.16","FL","a7hqcrbor2","1680","1050","de","ll08ar27","null","","","","learningBlock1","","","","<div style=""font-size:60px;""> </div>","null","FL","learning/Slide17.JPG","That was a bim.","",""
"","image-keyboard-response","58","1055364","0.0-6.0-0.17","FL","a7hqcrbor2","1680","1050","de","ll08ar27","null","","","","","","","","learning/Slide18.JPG","null","","","","",""
"","html-keyboard-response","59","1056519","0.0-6.0-1.17","FL","a7hqcrbor2","1680","1050","de","ll08ar27","null","","","","learningBlock1","","","","That was a tob.","null","","","","",""
"","html-keyboard-response","60","1057520","0.0-6.0-2.17","FL","a7hqcrbor2","1680","1050","de","ll08ar27","null","","","","learningBlock1","","","","<div style=""font-size:60px;""> </div>","null","FL","learning/Slide18.JPG","That was a tob.","",""
"","image-keyboard-response","61","1057697","0.0-6.0-0.18","FL","a7hqcrbor2","1680","1050","de","ll08ar27","null","","","","","","","","learning/Slide19.JPG","null","","","","",""
"","html-keyboard-response","62","1058852","0.0-6.0-1.18","FL","a7hqcrbor2","1680","1050","de","ll08ar27","null","","","","learningBlock1","","","","That was a wug.","null","","","","",""
"","html-keyboard-response","63","1059853","0.0-6.0-2.18","FL","a7hqcrbor2","1680","1050","de","ll08ar27","null","","","","learningBlock1","","","","<div style=""font-size:60px;""> </div>","null","FL","learning/Slide19.JPG","That was a wug.","",""
"","image-keyboard-response","64","1060031","0.0-6.0-0.19","FL","a7hqcrbor2","1680","1050","de","ll08ar27","null","","","","","","","","learning/Slide20.JPG","null","","","","",""
"","html-keyboard-response","65","1061185","0.0-6.0-1.19","FL","a7hqcrbor2","1680","1050","de","ll08ar27","null","","","","learningBlock1","","","","That was a bim.","null","","","","",""
"","html-keyboard-response","66","1062187","0.0-6.0-2.19","FL","a7hqcrbor2","1680","1050","de","ll08ar27","null","","","","learningBlock1","","","","<div style=""font-size:60px;""> </div>","null","FL","learning/Slide20.JPG","That was a bim.","",""
"","image-keyboard-response","67","1062365","0.0-6.0-0.20","FL","a7hqcrbor2","1680","1050","de","ll08ar27","null","","","","","","","","learning/Slide21.JPG","null","","","","",""
"","html-keyboard-response","68","1063519","0.0-6.0-1.20","FL","a7hqcrbor2","1680","1050","de","ll08ar27","null","","","","learningBlock1","","","","That was a dep.","null","","","","",""
"","html-keyboard-response","69","1064521","0.0-6.0-2.20","FL","a7hqcrbor2","1680","1050","de","ll08ar27","null","","","","learningBlock1","","","","<div style=""font-size:60px;""> </div>","null","FL","learning/Slide21.JPG","That was a dep.","",""
"","image-keyboard-response","70","1064698","0.0-6.0-0.21","FL","a7hqcrbor2","1680","1050","de","ll08ar27","null","","","","","","","","learning/Slide22.JPG","null","","","","",""
"","html-keyboard-response","71","1065852","0.0-6.0-1.21","FL","a7hqcrbor2","1680","1050","de","ll08ar27","null","","","","learningBlock1","","","","That was a bim.","null","","","","",""
"","html-keyboard-response","72","1066853","0.0-6.0-2.21","FL","a7hqcrbor2","1680","1050","de","ll08ar27","null","","","","learningBlock1","","","","<div style=""font-size:60px;""> </div>","null","FL","learning/Slide22.JPG","That was a bim.","",""
"","image-keyboard-response","73","1067031","0.0-6.0-0.22","FL","a7hqcrbor2","1680","1050","de","ll08ar27","null","","","","","","","","learning/Slide23.JPG","null","","","","",""
"","html-keyboard-response","74","1068185","0.0-6.0-1.22","FL","a7hqcrbor2","1680","1050","de","ll08ar27","null","","","","learningBlock1","","","","That was a tob.","null","","","","",""
"","html-keyboard-response","75","1069187","0.0-6.0-2.22","FL","a7hqcrbor2","1680","1050","de","ll08ar27","null","","","","learningBlock1","","","","<div style=""font-size:60px;""> </div>","null","FL","learning/Slide23.JPG","That was a tob.","",""
"","image-keyboard-response","76","1069364","0.0-6.0-0.23","FL","a7hqcrbor2","1680","1050","de","ll08ar27","null","","","","","","","","learning/Slide24.JPG","null","","","","",""
"","html-keyboard-response","77","1070519","0.0-6.0-1.23","FL","a7hqcrbor2","1680","1050","de","ll08ar27","null","","","","learningBlock1","","","","That was a wug.","null","","","","",""
"","html-keyboard-response","78","1071520","0.0-6.0-2.23","FL","a7hqcrbor2","1680","1050","de","ll08ar27","null","","","","learningBlock1","","","","<div style=""font-size:60px;""> </div>","null","FL","learning/Slide24.JPG","That was a wug.","",""
"","image-keyboard-response","79","1071698","0.0-6.0-0.24","FL","a7hqcrbor2","1680","1050","de","ll08ar27","null","","","","","","","","learning/Slide25.JPG","null","","","","",""
"","html-keyboard-response","80","1072852","0.0-6.0-1.24","FL","a7hqcrbor2","1680","1050","de","ll08ar27","null","","","","learningBlock1","","","","That was a dep.","null","","","","",""
"","html-keyboard-response","81","1073853","0.0-6.0-2.24","FL","a7hqcrbor2","1680","1050","de","ll08ar27","null","","","","learningBlock1","","","","<div style=""font-size:60px;""> </div>","null","FL","learning/Slide25.JPG","That was a dep.","",""
"","image-keyboard-response","82","1074031","0.0-6.0-0.25","FL","a7hqcrbor2","1680","1050","de","ll08ar27","null","","","","","","","","learning/Slide26.JPG","null","","","","",""
"","html-keyboard-response","83","1075185","0.0-6.0-1.25","FL","a7hqcrbor2","1680","1050","de","ll08ar27","null","","","","learningBlock1","","","","That was a wug.","null","","","","",""
"","html-keyboard-response","84","1076186","0.0-6.0-2.25","FL","a7hqcrbor2","1680","1050","de","ll08ar27","null","","","","learningBlock1","","","","<div style=""font-size:60px;""> </div>","null","FL","learning/Slide26.JPG","That was a wug.","",""
"","image-keyboard-response","85","1076363","0.0-6.0-0.26","FL","a7hqcrbor2","1680","1050","de","ll08ar27","null","","","","","","","","learning/Slide27.JPG","null","","","","",""
"","html-keyboard-response","86","1077518","0.0-6.0-1.26","FL","a7hqcrbor2","1680","1050","de","ll08ar27","null","","","","learningBlock1","","","","That was a bim.","null","","","","",""
"","html-keyboard-response","87","1078520","0.0-6.0-2.26","FL","a7hqcrbor2","1680","1050","de","ll08ar27","null","","","","learningBlock1","","","","<div style=""font-size:60px;""> </div>","null","FL","learning/Slide27.JPG","That was a bim.","",""
"","image-keyboard-response","88","1078699","0.0-6.0-0.27","FL","a7hqcrbor2","1680","1050","de","ll08ar27","null","","","","","","","","learning/Slide28.JPG","null","","","","",""
"","html-keyboard-response","89","1079852","0.0-6.0-1.27","FL","a7hqcrbor2","1680","1050","de","ll08ar27","null","","","","learningBlock1","","","","That was a dep.","null","","","","",""
"","html-keyboard-response","90","1080853","0.0-6.0-2.27","FL","a7hqcrbor2","1680","1050","de","ll08ar27","null","","","","learningBlock1","","","","<div style=""font-size:60px;""> </div>","null","FL","learning/Slide28.JPG","That was a dep.","",""
"","image-keyboard-response","91","1081031","0.0-6.0-0.28","FL","a7hqcrbor2","1680","1050","de","ll08ar27","null","","","","","","","","learning/Slide29.JPG","null","","","","",""
"","html-keyboard-response","92","1082187","0.0-6.0-1.28","FL","a7hqcrbor2","1680","1050","de","ll08ar27","null","","","","learningBlock1","","","","That was a tob.","null","","","","",""
"","html-keyboard-response","93","1083188","0.0-6.0-2.28","FL","a7hqcrbor2","1680","1050","de","ll08ar27","null","","","","learningBlock1","","","","<div style=""font-size:60px;""> </div>","null","FL","learning/Slide29.JPG","That was a tob.","",""
"","image-keyboard-response","94","1083366","0.0-6.0-0.29","FL","a7hqcrbor2","1680","1050","de","ll08ar27","null","","","","","","","","learning/Slide30.JPG","null","","","","",""
"","html-keyboard-response","95","1084519","0.0-6.0-1.29","FL","a7hqcrbor2","1680","1050","de","ll08ar27","null","","","","learningBlock1","","","","That was a dep.","null","","","","",""
"","html-keyboard-response","96","1085521","0.0-6.0-2.29","FL","a7hqcrbor2","1680","1050","de","ll08ar27","null","","","","learningBlock1","","","","<div style=""font-size:60px;""> </div>","null","FL","learning/Slide30.JPG","That was a dep.","",""
"","image-keyboard-response","97","1085698","0.0-6.0-0.30","FL","a7hqcrbor2","1680","1050","de","ll08ar27","null","","","","","","","","learning/Slide31.JPG","null","","","","",""
"","html-keyboard-response","98","1086852","0.0-6.0-1.30","FL","a7hqcrbor2","1680","1050","de","ll08ar27","null","","","","learningBlock1","","","","That was a wug.","null","","","","",""
"","html-keyboard-response","99","1087854","0.0-6.0-2.30","FL","a7hqcrbor2","1680","1050","de","ll08ar27","null","","","","learningBlock1","","","","<div style=""font-size:60px;""> </div>","null","FL","learning/Slide31.JPG","That was a wug.","",""
"","image-keyboard-response","100","1088030","0.0-6.0-0.31","FL","a7hqcrbor2","1680","1050","de","ll08ar27","null","","","","","","","","learning/Slide32.JPG","null","","","","",""
"","html-keyboard-response","101","1089185","0.0-6.0-1.31","FL","a7hqcrbor2","1680","1050","de","ll08ar27","null","","","","learningBlock1","","","","That was a tob.","null","","","","",""
"","html-keyboard-response","102","1090187","0.0-6.0-2.31","FL","a7hqcrbor2","1680","1050","de","ll08ar27","null","","","","learningBlock1","","","","<div style=""font-size:60px;""> </div>","null","FL","learning/Slide32.JPG","That was a tob.","",""
"","image-keyboard-response","103","1090364","0.0-6.0-0.32","FL","a7hqcrbor2","1680","1050","de","ll08ar27","null","","","","","","","","learning/Slide33.JPG","null","","","","",""
"","html-keyboard-response","104","1091521","0.0-6.0-1.32","FL","a7hqcrbor2","1680","1050","de","ll08ar27","null","","","","learningBlock1","","","","That was a bim.","null","","","","",""
"","html-keyboard-response","105","1092522","0.0-6.0-2.32","FL","a7hqcrbor2","1680","1050","de","ll08ar27","null","","","","learningBlock1","","","","<div style=""font-size:60px;""> </div>","null","FL","learning/Slide33.JPG","That was a bim.","",""
"","image-keyboard-response","106","1092700","0.0-6.0-0.33","FL","a7hqcrbor2","1680","1050","de","ll08ar27","null","","","","","","","","learning/Slide34.JPG","null","","","","",""
"","html-keyboard-response","107","1093853","0.0-6.0-1.33","FL","a7hqcrbor2","1680","1050","de","ll08ar27","null","","","","learningBlock1","","","","That was a tob.","null","","","","",""
"","html-keyboard-response","108","1094855","0.0-6.0-2.33","FL","a7hqcrbor2","1680","1050","de","ll08ar27","null","","","","learningBlock1","","","","<div style=""font-size:60px;""> </div>","null","FL","learning/Slide34.JPG","That was a tob.","",""
"","image-keyboard-response","109","1095033","0.0-6.0-0.34","FL","a7hqcrbor2","1680","1050","de","ll08ar27","null","","","","","","","","learning/Slide35.JPG","null","","","","",""
"","html-keyboard-response","110","1096185","0.0-6.0-1.34","FL","a7hqcrbor2","1680","1050","de","ll08ar27","null","","","","learningBlock1","","","","That was a bim.","null","","","","",""
"","html-keyboard-response","111","1097187","0.0-6.0-2.34","FL","a7hqcrbor2","1680","1050","de","ll08ar27","null","","","","learningBlock1","","","","<div style=""font-size:60px;""> </div>","null","FL","learning/Slide35.JPG","That was a bim.","",""
"","image-keyboard-response","112","1097365","0.0-6.0-0.35","FL","a7hqcrbor2","1680","1050","de","ll08ar27","null","","","","","","","","learning/Slide36.JPG","null","","","","",""
"","html-keyboard-response","113","1098520","0.0-6.0-1.35","FL","a7hqcrbor2","1680","1050","de","ll08ar27","null","","","","learningBlock1","","","","That was a dep.","null","","","","",""
"","html-keyboard-response","114","1099522","0.0-6.0-2.35","FL","a7hqcrbor2","1680","1050","de","ll08ar27","null","","","","learningBlock1","","","","<div style=""font-size:60px;""> </div>","null","FL","learning/Slide36.JPG","That was a dep.","",""
"","image-keyboard-response","115","1099700","0.0-6.0-0.36","FL","a7hqcrbor2","1680","1050","de","ll08ar27","null","","","","","","","","learning/Slide37.JPG","null","","","","",""
"","html-keyboard-response","116","1100852","0.0-6.0-1.36","FL","a7hqcrbor2","1680","1050","de","ll08ar27","null","","","","learningBlock1","","","","That was a tob.","null","","","","",""
"","html-keyboard-response","117","1101854","0.0-6.0-2.36","FL","a7hqcrbor2","1680","1050","de","ll08ar27","null","","","","learningBlock1","","","","<div style=""font-size:60px;""> </div>","null","FL","learning/Slide37.JPG","That was a tob.","",""
"","image-keyboard-response","118","1102032","0.0-6.0-0.37","FL","a7hqcrbor2","1680","1050","de","ll08ar27","null","","","","","","","","learning/Slide38.JPG","null","","","","",""
"","html-keyboard-response","119","1103185","0.0-6.0-1.37","FL","a7hqcrbor2","1680","1050","de","ll08ar27","null","","","","learningBlock1","","","","That was a wug.","null","","","","",""
"","html-keyboard-response","120","1104186","0.0-6.0-2.37","FL","a7hqcrbor2","1680","1050","de","ll08ar27","null","","","","learningBlock1","","","","<div style=""font-size:60px;""> </div>","null","FL","learning/Slide38.JPG","That was a wug.","",""
"","image-keyboard-response","121","1104364","0.0-6.0-0.38","FL","a7hqcrbor2","1680","1050","de","ll08ar27","null","","","","","","","","learning/Slide39.JPG","null","","","","",""
"","html-keyboard-response","122","1105517","0.0-6.0-1.38","FL","a7hqcrbor2","1680","1050","de","ll08ar27","null","","","","learningBlock1","","","","That was a bim.","null","","","","",""
"","html-keyboard-response","123","1106519","0.0-6.0-2.38","FL","a7hqcrbor2","1680","1050","de","ll08ar27","null","","","","learningBlock1","","","","<div style=""font-size:60px;""> </div>","null","FL","learning/Slide39.JPG","That was a bim.","",""
"","image-keyboard-response","124","1106697","0.0-6.0-0.39","FL","a7hqcrbor2","1680","1050","de","ll08ar27","null","","","","","","","","learning/Slide40.JPG","null","","","","",""
"","html-keyboard-response","125","1107852","0.0-6.0-1.39","FL","a7hqcrbor2","1680","1050","de","ll08ar27","null","","","","learningBlock1","","","","That was a tob.","null","","","","",""
"","html-keyboard-response","126","1108853","0.0-6.0-2.39","FL","a7hqcrbor2","1680","1050","de","ll08ar27","null","","","","learningBlock1","","","","<div style=""font-size:60px;""> </div>","null","FL","learning/Slide40.JPG","That was a tob.","",""
"","image-keyboard-response","127","1109030","0.0-6.0-0.40","FL","a7hqcrbor2","1680","1050","de","ll08ar27","null","","","","","","","","learning/Slide41.JPG","null","","","","",""
"","html-keyboard-response","128","1110185","0.0-6.0-1.40","FL","a7hqcrbor2","1680","1050","de","ll08ar27","null","","","","learningBlock1","","","","That was a bim.","null","","","","",""
"","html-keyboard-response","129","1111186","0.0-6.0-2.40","FL","a7hqcrbor2","1680","1050","de","ll08ar27","null","","","","learningBlock1","","","","<div style=""font-size:60px;""> </div>","null","FL","learning/Slide41.JPG","That was a bim.","",""
"","image-keyboard-response","130","1111364","0.0-6.0-0.41","FL","a7hqcrbor2","1680","1050","de","ll08ar27","null","","","","","","","","learning/Slide42.JPG","null","","","","",""
"","html-keyboard-response","131","1112518","0.0-6.0-1.41","FL","a7hqcrbor2","1680","1050","de","ll08ar27","null","","","","learningBlock1","","","","That was a dep.","null","","","","",""
"","html-keyboard-response","132","1113520","0.0-6.0-2.41","FL","a7hqcrbor2","1680","1050","de","ll08ar27","null","","","","learningBlock1","","","","<div style=""font-size:60px;""> </div>","null","FL","learning/Slide42.JPG","That was a dep.","",""
"","image-keyboard-response","133","1113698","0.0-6.0-0.42","FL","a7hqcrbor2","1680","1050","de","ll08ar27","null","","","","","","","","learning/Slide43.JPG","null","","","","",""
"","html-keyboard-response","134","1114852","0.0-6.0-1.42","FL","a7hqcrbor2","1680","1050","de","ll08ar27","null","","","","learningBlock1","","","","That was a wug.","null","","","","",""
"","html-keyboard-response","135","1115853","0.0-6.0-2.42","FL","a7hqcrbor2","1680","1050","de","ll08ar27","null","","","","learningBlock1","","","","<div style=""font-size:60px;""> </div>","null","FL","learning/Slide43.JPG","That was a wug.","",""
"","image-keyboard-response","136","1116031","0.0-6.0-0.43","FL","a7hqcrbor2","1680","1050","de","ll08ar27","null","","","","","","","","learning/Slide44.JPG","null","","","","",""
"","html-keyboard-response","137","1117184","0.0-6.0-1.43","FL","a7hqcrbor2","1680","1050","de","ll08ar27","null","","","","learningBlock1","","","","That was a bim.","null","","","","",""
"","html-keyboard-response","138","1118187","0.0-6.0-2.43","FL","a7hqcrbor2","1680","1050","de","ll08ar27","null","","","","learningBlock1","","","","<div style=""font-size:60px;""> </div>","null","FL","learning/Slide44.JPG","That was a bim.","",""
"","image-keyboard-response","139","1118365","0.0-6.0-0.44","FL","a7hqcrbor2","1680","1050","de","ll08ar27","null","","","","","","","","learning/Slide45.JPG","null","","","","",""
"","html-keyboard-response","140","1119519","0.0-6.0-1.44","FL","a7hqcrbor2","1680","1050","de","ll08ar27","null","","","","learningBlock1","","","","That was a wug.","null","","","","",""
"","html-keyboard-response","141","1120520","0.0-6.0-2.44","FL","a7hqcrbor2","1680","1050","de","ll08ar27","null","","","","learningBlock1","","","","<div style=""font-size:60px;""> </div>","null","FL","learning/Slide45.JPG","That was a wug.","",""
"","image-keyboard-response","142","1120698","0.0-6.0-0.45","FL","a7hqcrbor2","1680","1050","de","ll08ar27","null","","","","","","","","learning/Slide46.JPG","null","","","","",""
"","html-keyboard-response","143","1121852","0.0-6.0-1.45","FL","a7hqcrbor2","1680","1050","de","ll08ar27","null","","","","learningBlock1","","","","That was a dep.","null","","","","",""
"","html-keyboard-response","144","1122854","0.0-6.0-2.45","FL","a7hqcrbor2","1680","1050","de","ll08ar27","null","","","","learningBlock1","","","","<div style=""font-size:60px;""> </div>","null","FL","learning/Slide46.JPG","That was a dep.","",""
"","image-keyboard-response","145","1123032","0.0-6.0-0.46","FL","a7hqcrbor2","1680","1050","de","ll08ar27","null","","","","","","","","learning/Slide47.JPG","null","","","","",""
"","html-keyboard-response","146","1124185","0.0-6.0-1.46","FL","a7hqcrbor2","1680","1050","de","ll08ar27","null","","","","learningBlock1","","","","That was a tob.","null","","","","",""
"","html-keyboard-response","147","1125187","0.0-6.0-2.46","FL","a7hqcrbor2","1680","1050","de","ll08ar27","null","","","","learningBlock1","","","","<div style=""font-size:60px;""> </div>","null","FL","learning/Slide47.JPG","That was a tob.","",""
"","image-keyboard-response","148","1125365","0.0-6.0-0.47","FL","a7hqcrbor2","1680","1050","de","ll08ar27","null","","","","","","","","learning/Slide48.JPG","null","","","","",""
"","html-keyboard-response","149","1126519","0.0-6.0-1.47","FL","a7hqcrbor2","1680","1050","de","ll08ar27","null","","","","learningBlock1","","","","That was a bim.","null","","","","",""
"","html-keyboard-response","150","1127521","0.0-6.0-2.47","FL","a7hqcrbor2","1680","1050","de","ll08ar27","null","","","","learningBlock1","","","","<div style=""font-size:60px;""> </div>","null","FL","learning/Slide48.JPG","That was a bim.","",""
"","image-keyboard-response","151","1127698","0.0-6.0-0.48","FL","a7hqcrbor2","1680","1050","de","ll08ar27","null","","","","","","","","learning/Slide49.JPG","null","","","","",""
"","html-keyboard-response","152","1128851","0.0-6.0-1.48","FL","a7hqcrbor2","1680","1050","de","ll08ar27","null","","","","learningBlock1","","","","That was a dep.","null","","","","",""
"","html-keyboard-response","153","1129853","0.0-6.0-2.48","FL","a7hqcrbor2","1680","1050","de","ll08ar27","null","","","","learningBlock1","","","","<div style=""font-size:60px;""> </div>","null","FL","learning/Slide49.JPG","That was a dep.","",""
"","image-keyboard-response","154","1130031","0.0-6.0-0.49","FL","a7hqcrbor2","1680","1050","de","ll08ar27","null","","","","","","","","learning/Slide50.JPG","null","","","","",""
"","html-keyboard-response","155","1131184","0.0-6.0-1.49","FL","a7hqcrbor2","1680","1050","de","ll08ar27","null","","","","learningBlock1","","","","That was a tob.","null","","","","",""
"","html-keyboard-response","156","1132187","0.0-6.0-2.49","FL","a7hqcrbor2","1680","1050","de","ll08ar27","null","","","","learningBlock1","","","","<div style=""font-size:60px;""> </div>","null","FL","learning/Slide50.JPG","That was a tob.","",""
"","image-keyboard-response","157","1132364","0.0-6.0-0.50","FL","a7hqcrbor2","1680","1050","de","ll08ar27","null","","","","","","","","learning/Slide51.JPG","null","","","","",""
"","html-keyboard-response","158","1133519","0.0-6.0-1.50","FL","a7hqcrbor2","1680","1050","de","ll08ar27","null","","","","learningBlock1","","","","That was a bim.","null","","","","",""
"","html-keyboard-response","159","1134520","0.0-6.0-2.50","FL","a7hqcrbor2","1680","1050","de","ll08ar27","null","","","","learningBlock1","","","","<div style=""font-size:60px;""> </div>","null","FL","learning/Slide51.JPG","That was a bim.","",""
"","image-keyboard-response","160","1134698","0.0-6.0-0.51","FL","a7hqcrbor2","1680","1050","de","ll08ar27","null","","","","","","","","learning/Slide52.JPG","null","","","","",""
"","html-keyboard-response","161","1135851","0.0-6.0-1.51","FL","a7hqcrbor2","1680","1050","de","ll08ar27","null","","","","learningBlock1","","","","That was a wug.","null","","","","",""
"","html-keyboard-response","162","1136853","0.0-6.0-2.51","FL","a7hqcrbor2","1680","1050","de","ll08ar27","null","","","","learningBlock1","","","","<div style=""font-size:60px;""> </div>","null","FL","learning/Slide52.JPG","That was a wug.","",""
"","image-keyboard-response","163","1137031","0.0-6.0-0.52","FL","a7hqcrbor2","1680","1050","de","ll08ar27","null","","","","","","","","learning/Slide53.JPG","null","","","","",""
"","html-keyboard-response","164","1138185","0.0-6.0-1.52","FL","a7hqcrbor2","1680","1050","de","ll08ar27","null","","","","learningBlock1","","","","That was a tob.","null","","","","",""
"","html-keyboard-response","165","1139187","0.0-6.0-2.52","FL","a7hqcrbor2","1680","1050","de","ll08ar27","null","","","","learningBlock1","","","","<div style=""font-size:60px;""> </div>","null","FL","learning/Slide53.JPG","That was a tob.","",""
"","image-keyboard-response","166","1139364","0.0-6.0-0.53","FL","a7hqcrbor2","1680","1050","de","ll08ar27","null","","","","","","","","learning/Slide54.JPG","null","","","","",""
"","html-keyboard-response","167","1140517","0.0-6.0-1.53","FL","a7hqcrbor2","1680","1050","de","ll08ar27","null","","","","learningBlock1","","","","That was a dep.","null","","","","",""
"","html-keyboard-response","168","1141519","0.0-6.0-2.53","FL","a7hqcrbor2","1680","1050","de","ll08ar27","null","","","","learningBlock1","","","","<div style=""font-size:60px;""> </div>","null","FL","learning/Slide54.JPG","That was a dep.","",""
"","image-keyboard-response","169","1141697","0.0-6.0-0.54","FL","a7hqcrbor2","1680","1050","de","ll08ar27","null","","","","","","","","learning/Slide55.JPG","null","","","","",""
"","html-keyboard-response","170","1142851","0.0-6.0-1.54","FL","a7hqcrbor2","1680","1050","de","ll08ar27","null","","","","learningBlock1","","","","That was a bim.","null","","","","",""
"","html-keyboard-response","171","1143853","0.0-6.0-2.54","FL","a7hqcrbor2","1680","1050","de","ll08ar27","null","","","","learningBlock1","","","","<div style=""font-size:60px;""> </div>","null","FL","learning/Slide55.JPG","That was a bim.","",""
"","image-keyboard-response","172","1144031","0.0-6.0-0.55","FL","a7hqcrbor2","1680","1050","de","ll08ar27","null","","","","","","","","learning/Slide56.JPG","null","","","","",""
"","html-keyboard-response","173","1145185","0.0-6.0-1.55","FL","a7hqcrbor2","1680","1050","de","ll08ar27","null","","","","learningBlock1","","","","That was a tob.","null","","","","",""
"","html-keyboard-response","174","1146187","0.0-6.0-2.55","FL","a7hqcrbor2","1680","1050","de","ll08ar27","null","","","","learningBlock1","","","","<div style=""font-size:60px;""> </div>","null","FL","learning/Slide56.JPG","That was a tob.","",""
"","image-keyboard-response","175","1146365","0.0-6.0-0.56","FL","a7hqcrbor2","1680","1050","de","ll08ar27","null","","","","","","","","learning/Slide57.JPG","null","","","","",""
"","html-keyboard-response","176","1147518","0.0-6.0-1.56","FL","a7hqcrbor2","1680","1050","de","ll08ar27","null","","","","learningBlock1","","","","That was a dep.","null","","","","",""
"","html-keyboard-response","177","1148521","0.0-6.0-2.56","FL","a7hqcrbor2","1680","1050","de","ll08ar27","null","","","","learningBlock1","","","","<div style=""font-size:60px;""> </div>","null","FL","learning/Slide57.JPG","That was a dep.","",""
"","image-keyboard-response","178","1148698","0.0-6.0-0.57","FL","a7hqcrbor2","1680","1050","de","ll08ar27","null","","","","","","","","learning/Slide58.JPG","null","","","","",""
"","html-keyboard-response","179","1149852","0.0-6.0-1.57","FL","a7hqcrbor2","1680","1050","de","ll08ar27","null","","","","learningBlock1","","","","That was a wug.","null","","","","",""
"","html-keyboard-response","180","1150854","0.0-6.0-2.57","FL","a7hqcrbor2","1680","1050","de","ll08ar27","null","","","","learningBlock1","","","","<div style=""font-size:60px;""> </div>","null","FL","learning/Slide58.JPG","That was a wug.","",""
"","image-keyboard-response","181","1151031","0.0-6.0-0.58","FL","a7hqcrbor2","1680","1050","de","ll08ar27","null","","","","","","","","learning/Slide59.JPG","null","","","","",""
"","html-keyboard-response","182","1152184","0.0-6.0-1.58","FL","a7hqcrbor2","1680","1050","de","ll08ar27","null","","","","learningBlock1","","","","That was a dep.","null","","","","",""
"","html-keyboard-response","183","1153186","0.0-6.0-2.58","FL","a7hqcrbor2","1680","1050","de","ll08ar27","null","","","","learningBlock1","","","","<div style=""font-size:60px;""> </div>","null","FL","learning/Slide59.JPG","That was a dep.","",""
"","image-keyboard-response","184","1153364","0.0-6.0-0.59","FL","a7hqcrbor2","1680","1050","de","ll08ar27","null","","","","","","","","learning/Slide60.JPG","null","","","","",""
"","html-keyboard-response","185","1154518","0.0-6.0-1.59","FL","a7hqcrbor2","1680","1050","de","ll08ar27","null","","","","learningBlock1","","","","That was a wug.","null","","","","",""
"","html-keyboard-response","186","1155520","0.0-6.0-2.59","FL","a7hqcrbor2","1680","1050","de","ll08ar27","null","","","","learningBlock1","","","","<div style=""font-size:60px;""> </div>","null","FL","learning/Slide60.JPG","That was a wug.","",""
"","image-keyboard-response","187","1155697","0.0-6.0-0.60","FL","a7hqcrbor2","1680","1050","de","ll08ar27","null","","","","","","","","learning/Slide61.JPG","null","","","","",""
"","html-keyboard-response","188","1156850","0.0-6.0-1.60","FL","a7hqcrbor2","1680","1050","de","ll08ar27","null","","","","learningBlock1","","","","That was a bim.","null","","","","",""
"","html-keyboard-response","189","1157853","0.0-6.0-2.60","FL","a7hqcrbor2","1680","1050","de","ll08ar27","null","","","","learningBlock1","","","","<div style=""font-size:60px;""> </div>","null","FL","learning/Slide61.JPG","That was a bim.","",""
"","image-keyboard-response","190","1158033","0.0-6.0-0.61","FL","a7hqcrbor2","1680","1050","de","ll08ar27","null","","","","","","","","learning/Slide62.JPG","null","","","","",""
"","html-keyboard-response","191","1159186","0.0-6.0-1.61","FL","a7hqcrbor2","1680","1050","de","ll08ar27","null","","","","learningBlock1","","","","That was a dep.","null","","","","",""
"","html-keyboard-response","192","1160187","0.0-6.0-2.61","FL","a7hqcrbor2","1680","1050","de","ll08ar27","null","","","","learningBlock1","","","","<div style=""font-size:60px;""> </div>","null","FL","learning/Slide62.JPG","That was a dep.","",""
"","image-keyboard-response","193","1160364","0.0-6.0-0.62","FL","a7hqcrbor2","1680","1050","de","ll08ar27","null","","","","","","","","learning/Slide63.JPG","null","","","","",""
"","html-keyboard-response","194","1161518","0.0-6.0-1.62","FL","a7hqcrbor2","1680","1050","de","ll08ar27","null","","","","learningBlock1","","","","That was a bim.","null","","","","",""
"","html-keyboard-response","195","1162521","0.0-6.0-2.62","FL","a7hqcrbor2","1680","1050","de","ll08ar27","null","","","","learningBlock1","","","","<div style=""font-size:60px;""> </div>","null","FL","learning/Slide63.JPG","That was a bim.","",""
"","image-keyboard-response","196","1162698","0.0-6.0-0.63","FL","a7hqcrbor2","1680","1050","de","ll08ar27","null","","","","","","","","learning/Slide64.JPG","null","","","","",""
"","html-keyboard-response","197","1163852","0.0-6.0-1.63","FL","a7hqcrbor2","1680","1050","de","ll08ar27","null","","","","learningBlock1","","","","That was a tob.","null","","","","",""
"","html-keyboard-response","198","1164854","0.0-6.0-2.63","FL","a7hqcrbor2","1680","1050","de","ll08ar27","null","","","","learningBlock1","","","","<div style=""font-size:60px;""> </div>","null","FL","learning/Slide64.JPG","That was a tob.","",""
"","image-keyboard-response","199","1165031","0.0-6.0-0.64","FL","a7hqcrbor2","1680","1050","de","ll08ar27","null","","","","","","","","learning/Slide65.JPG","null","","","","",""
"","html-keyboard-response","200","1166185","0.0-6.0-1.64","FL","a7hqcrbor2","1680","1050","de","ll08ar27","null","","","","learningBlock1","","","","That was a wug.","null","","","","",""
"","html-keyboard-response","201","1167190","0.0-6.0-2.64","FL","a7hqcrbor2","1680","1050","de","ll08ar27","null","","","","learningBlock1","","","","<div style=""font-size:60px;""> </div>","null","FL","learning/Slide65.JPG","That was a wug.","",""
"","image-keyboard-response","202","1167369","0.0-6.0-0.65","FL","a7hqcrbor2","1680","1050","de","ll08ar27","null","","","","","","","","learning/Slide66.JPG","null","","","","",""
"","html-keyboard-response","203","1168522","0.0-6.0-1.65","FL","a7hqcrbor2","1680","1050","de","ll08ar27","null","","","","learningBlock1","","","","That was a dep.","null","","","","",""
"","html-keyboard-response","204","1169522","0.0-6.0-2.65","FL","a7hqcrbor2","1680","1050","de","ll08ar27","null","","","","learningBlock1","","","","<div style=""font-size:60px;""> </div>","null","FL","learning/Slide66.JPG","That was a dep.","",""
"","image-keyboard-response","205","1169701","0.0-6.0-0.66","FL","a7hqcrbor2","1680","1050","de","ll08ar27","null","","","","","","","","learning/Slide67.JPG","null","","","","",""
"","html-keyboard-response","206","1170853","0.0-6.0-1.66","FL","a7hqcrbor2","1680","1050","de","ll08ar27","null","","","","learningBlock1","","","","That was a tob.","null","","","","",""
"","html-keyboard-response","207","1171855","0.0-6.0-2.66","FL","a7hqcrbor2","1680","1050","de","ll08ar27","null","","","","learningBlock1","","","","<div style=""font-size:60px;""> </div>","null","FL","learning/Slide67.JPG","That was a tob.","",""
"","image-keyboard-response","208","1172031","0.0-6.0-0.67","FL","a7hqcrbor2","1680","1050","de","ll08ar27","null","","","","","","","","learning/Slide68.JPG","null","","","","",""
"","html-keyboard-response","209","1173184","0.0-6.0-1.67","FL","a7hqcrbor2","1680","1050","de","ll08ar27","null","","","","learningBlock1","","","","That was a wug.","null","","","","",""
"","html-keyboard-response","210","1174187","0.0-6.0-2.67","FL","a7hqcrbor2","1680","1050","de","ll08ar27","null","","","","learningBlock1","","","","<div style=""font-size:60px;""> </div>","null","FL","learning/Slide68.JPG","That was a wug.","",""
"","image-keyboard-response","211","1174363","0.0-6.0-0.68","FL","a7hqcrbor2","1680","1050","de","ll08ar27","null","","","","","","","","learning/Slide69.JPG","null","","","","",""
"","html-keyboard-response","212","1175515","0.0-6.0-1.68","FL","a7hqcrbor2","1680","1050","de","ll08ar27","null","","","","learningBlock1","","","","That was a tob.","null","","","","",""
"","html-keyboard-response","213","1176520","0.0-6.0-2.68","FL","a7hqcrbor2","1680","1050","de","ll08ar27","null","","","","learningBlock1","","","","<div style=""font-size:60px;""> </div>","null","FL","learning/Slide69.JPG","That was a tob.","",""
"","image-keyboard-response","214","1176697","0.0-6.0-0.69","FL","a7hqcrbor2","1680","1050","de","ll08ar27","null","","","","","","","","learning/Slide70.JPG","null","","","","",""
"","html-keyboard-response","215","1177853","0.0-6.0-1.69","FL","a7hqcrbor2","1680","1050","de","ll08ar27","null","","","","learningBlock1","","","","That was a dep.","null","","","","",""
"","html-keyboard-response","216","1178855","0.0-6.0-2.69","FL","a7hqcrbor2","1680","1050","de","ll08ar27","null","","","","learningBlock1","","","","<div style=""font-size:60px;""> </div>","null","FL","learning/Slide70.JPG","That was a dep.","",""
"","image-keyboard-response","217","1179034","0.0-6.0-0.70","FL","a7hqcrbor2","1680","1050","de","ll08ar27","null","","","","","","","","learning/Slide71.JPG","null","","","","",""
"","html-keyboard-response","218","1180186","0.0-6.0-1.70","FL","a7hqcrbor2","1680","1050","de","ll08ar27","null","","","","learningBlock1","","","","That was a wug.","null","","","","",""
"","html-keyboard-response","219","1181187","0.0-6.0-2.70","FL","a7hqcrbor2","1680","1050","de","ll08ar27","null","","","","learningBlock1","","","","<div style=""font-size:60px;""> </div>","null","FL","learning/Slide71.JPG","That was a wug.","",""
"","image-keyboard-response","220","1181365","0.0-6.0-0.71","FL","a7hqcrbor2","1680","1050","de","ll08ar27","null","","","","","","","","learning/Slide72.JPG","null","","","","",""
"","html-keyboard-response","221","1182519","0.0-6.0-1.71","FL","a7hqcrbor2","1680","1050","de","ll08ar27","null","","","","learningBlock1","","","","That was a bim.","null","","","","",""
"","html-keyboard-response","222","1183520","0.0-6.0-2.71","FL","a7hqcrbor2","1680","1050","de","ll08ar27","null","","","","learningBlock1","","","","<div style=""font-size:60px;""> </div>","null","FL","learning/Slide72.JPG","That was a bim.","",""
"","image-keyboard-response","223","1183698","0.0-6.0-0.72","FL","a7hqcrbor2","1680","1050","de","ll08ar27","null","","","","","","","","learning/Slide73.JPG","null","","","","",""
"","html-keyboard-response","224","1184853","0.0-6.0-1.72","FL","a7hqcrbor2","1680","1050","de","ll08ar27","null","","","","learningBlock1","","","","That was a wug.","null","","","","",""
"","html-keyboard-response","225","1185855","0.0-6.0-2.72","FL","a7hqcrbor2","1680","1050","de","ll08ar27","null","","","","learningBlock1","","","","<div style=""font-size:60px;""> </div>","null","FL","learning/Slide73.JPG","That was a wug.","",""
"","image-keyboard-response","226","1186032","0.0-6.0-0.73","FL","a7hqcrbor2","1680","1050","de","ll08ar27","null","","","","","","","","learning/Slide74.JPG","null","","","","",""
"","html-keyboard-response","227","1187185","0.0-6.0-1.73","FL","a7hqcrbor2","1680","1050","de","ll08ar27","null","","","","learningBlock1","","","","That was a dep.","null","","","","",""
"","html-keyboard-response","228","1188187","0.0-6.0-2.73","FL","a7hqcrbor2","1680","1050","de","ll08ar27","null","","","","learningBlock1","","","","<div style=""font-size:60px;""> </div>","null","FL","learning/Slide74.JPG","That was a dep.","",""
"","image-keyboard-response","229","1188364","0.0-6.0-0.74","FL","a7hqcrbor2","1680","1050","de","ll08ar27","null","","","","","","","","learning/Slide75.JPG","null","","","","",""
"","html-keyboard-response","230","1189518","0.0-6.0-1.74","FL","a7hqcrbor2","1680","1050","de","ll08ar27","null","","","","learningBlock1","","","","That was a tob.","null","","","","",""
"","html-keyboard-response","231","1190520","0.0-6.0-2.74","FL","a7hqcrbor2","1680","1050","de","ll08ar27","null","","","","learningBlock1","","","","<div style=""font-size:60px;""> </div>","null","FL","learning/Slide75.JPG","That was a tob.","",""
"","image-keyboard-response","232","1190697","0.0-6.0-0.75","FL","a7hqcrbor2","1680","1050","de","ll08ar27","null","","","","","","","","learning/Slide76.JPG","null","","","","",""
"","html-keyboard-response","233","1191852","0.0-6.0-1.75","FL","a7hqcrbor2","1680","1050","de","ll08ar27","null","","","","learningBlock1","","","","That was a bim.","null","","","","",""
"","html-keyboard-response","234","1192854","0.0-6.0-2.75","FL","a7hqcrbor2","1680","1050","de","ll08ar27","null","","","","learningBlock1","","","","<div style=""font-size:60px;""> </div>","null","FL","learning/Slide76.JPG","That was a bim.","",""
"","image-keyboard-response","235","1193031","0.0-6.0-0.76","FL","a7hqcrbor2","1680","1050","de","ll08ar27","null","","","","","","","","learning/Slide77.JPG","null","","","","",""
"","html-keyboard-response","236","1194185","0.0-6.0-1.76","FL","a7hqcrbor2","1680","1050","de","ll08ar27","null","","","","learningBlock1","","","","That was a tob.","null","","","","",""
"","html-keyboard-response","237","1195187","0.0-6.0-2.76","FL","a7hqcrbor2","1680","1050","de","ll08ar27","null","","","","learningBlock1","","","","<div style=""font-size:60px;""> </div>","null","FL","learning/Slide77.JPG","That was a tob.","",""
"","image-keyboard-response","238","1195365","0.0-6.0-0.77","FL","a7hqcrbor2","1680","1050","de","ll08ar27","null","","","","","","","","learning/Slide78.JPG","null","","","","",""
"","html-keyboard-response","239","1196519","0.0-6.0-1.77","FL","a7hqcrbor2","1680","1050","de","ll08ar27","null","","","","learningBlock1","","","","That was a wug.","null","","","","",""
"","html-keyboard-response","240","1197519","0.0-6.0-2.77","FL","a7hqcrbor2","1680","1050","de","ll08ar27","null","","","","learningBlock1","","","","<div style=""font-size:60px;""> </div>","null","FL","learning/Slide78.JPG","That was a wug.","",""
"","image-keyboard-response","241","1197698","0.0-6.0-0.78","FL","a7hqcrbor2","1680","1050","de","ll08ar27","null","","","","","","","","learning/Slide79.JPG","null","","","","",""
"","html-keyboard-response","242","1198851","0.0-6.0-1.78","FL","a7hqcrbor2","1680","1050","de","ll08ar27","null","","","","learningBlock1","","","","That was a bim.","null","","","","",""
"","html-keyboard-response","243","1199853","0.0-6.0-2.78","FL","a7hqcrbor2","1680","1050","de","ll08ar27","null","","","","learningBlock1","","","","<div style=""font-size:60px;""> </div>","null","FL","learning/Slide79.JPG","That was a bim.","",""
"","image-keyboard-response","244","1200031","0.0-6.0-0.79","FL","a7hqcrbor2","1680","1050","de","ll08ar27","null","","","","","","","","learning/Slide80.JPG","null","","","","",""
"","html-keyboard-response","245","1201183","0.0-6.0-1.79","FL","a7hqcrbor2","1680","1050","de","ll08ar27","null","","","","learningBlock1","","","","That was a tob.","null","","","","",""
"","html-keyboard-response","246","1202189","0.0-6.0-2.79","FL","a7hqcrbor2","1680","1050","de","ll08ar27","null","","","","learningBlock1","","","","<div style=""font-size:60px;""> </div>","null","FL","learning/Slide80.JPG","That was a tob.","",""
"","instructions","247","1226763","0.0-7.0","FL","a7hqcrbor2","1680","1050","de","ll08ar27","NA","","","[{""page_index"":0,""viewing_time"":24572}]","instructions","","","","","","","","","",""
"","image-keyboard-response","248","1226942","0.0-8.0-0.0","FL","a7hqcrbor2","1680","1050","de","ll08ar27","null","","","","","","","","learning/Slide81.JPG","null","","","","",""
"","html-keyboard-response","249","1228095","0.0-8.0-1.0","FL","a7hqcrbor2","1680","1050","de","ll08ar27","null","","","","learningBlock2","","","","That was a wug.","null","","","","",""
"","html-keyboard-response","250","1229097","0.0-8.0-2.0","FL","a7hqcrbor2","1680","1050","de","ll08ar27","null","","","","learningBlock2","","","","<div style=""font-size:60px;""> </div>","null","FL","learning/Slide81.JPG","That was a wug.","",""
"","image-keyboard-response","251","1229274","0.0-8.0-0.1","FL","a7hqcrbor2","1680","1050","de","ll08ar27","null","","","","","","","","learning/Slide82.JPG","null","","","","",""
"","html-keyboard-response","252","1230426","0.0-8.0-1.1","FL","a7hqcrbor2","1680","1050","de","ll08ar27","null","","","","learningBlock2","","","","That was a bim.","null","","","","",""
"","html-keyboard-response","253","1231430","0.0-8.0-2.1","FL","a7hqcrbor2","1680","1050","de","ll08ar27","null","","","","learningBlock2","","","","<div style=""font-size:60px;""> </div>","null","FL","learning/Slide82.JPG","That was a bim.","",""
"","image-keyboard-response","254","1231606","0.0-8.0-0.2","FL","a7hqcrbor2","1680","1050","de","ll08ar27","null","","","","","","","","learning/Slide83.JPG","null","","","","",""
"","html-keyboard-response","255","1232759","0.0-8.0-1.2","FL","a7hqcrbor2","1680","1050","de","ll08ar27","null","","","","learningBlock2","","","","That was a wug.","null","","","","",""
"","html-keyboard-response","256","1233762","0.0-8.0-2.2","FL","a7hqcrbor2","1680","1050","de","ll08ar27","null","","","","learningBlock2","","","","<div style=""font-size:60px;""> </div>","null","FL","learning/Slide83.JPG","That was a wug.","",""
"","image-keyboard-response","257","1233938","0.0-8.0-0.3","FL","a7hqcrbor2","1680","1050","de","ll08ar27","null","","","","","","","","learning/Slide84.JPG","null","","","","",""
"","html-keyboard-response","258","1235091","0.0-8.0-1.3","FL","a7hqcrbor2","1680","1050","de","ll08ar27","null","","","","learningBlock2","","","","That was a dep.","null","","","","",""
"","html-keyboard-response","259","1236093","0.0-8.0-2.3","FL","a7hqcrbor2","1680","1050","de","ll08ar27","null","","","","learningBlock2","","","","<div style=""font-size:60px;""> </div>","null","FL","learning/Slide84.JPG","That was a dep.","",""
"","image-keyboard-response","260","1236271","0.0-8.0-0.4","FL","a7hqcrbor2","1680","1050","de","ll08ar27","null","","","","","","","","learning/Slide85.JPG","null","","","","",""
"","html-keyboard-response","261","1237422","0.0-8.0-1.4","FL","a7hqcrbor2","1680","1050","de","ll08ar27","null","","","","learningBlock2","","","","That was a bim.","null","","","","",""
"","html-keyboard-response","262","1238424","0.0-8.0-2.4","FL","a7hqcrbor2","1680","1050","de","ll08ar27","null","","","","learningBlock2","","","","<div style=""font-size:60px;""> </div>","null","FL","learning/Slide85.JPG","That was a bim.","",""
"","image-keyboard-response","263","1238602","0.0-8.0-0.5","FL","a7hqcrbor2","1680","1050","de","ll08ar27","null","","","","","","","","learning/Slide86.JPG","null","","","","",""
"","html-keyboard-response","264","1239754","0.0-8.0-1.5","FL","a7hqcrbor2","1680","1050","de","ll08ar27","null","","","","learningBlock2","","","","That was a tob.","null","","","","",""
"","html-keyboard-response","265","1240756","0.0-8.0-2.5","FL","a7hqcrbor2","1680","1050","de","ll08ar27","null","","","","learningBlock2","","","","<div style=""font-size:60px;""> </div>","null","FL","learning/Slide86.JPG","That was a tob.","",""
"","image-keyboard-response","266","1240934","0.0-8.0-0.6","FL","a7hqcrbor2","1680","1050","de","ll08ar27","null","","","","","","","","learning/Slide87.JPG","null","","","","",""
"","html-keyboard-response","267","1242086","0.0-8.0-1.6","FL","a7hqcrbor2","1680","1050","de","ll08ar27","null","","","","learningBlock2","","","","That was a wug.","null","","","","",""
"","html-keyboard-response","268","1243088","0.0-8.0-2.6","FL","a7hqcrbor2","1680","1050","de","ll08ar27","null","","","","learningBlock2","","","","<div style=""font-size:60px;""> </div>","null","FL","learning/Slide87.JPG","That was a wug.","",""
"","image-keyboard-response","269","1243264","0.0-8.0-0.7","FL","a7hqcrbor2","1680","1050","de","ll08ar27","null","","","","","","","","learning/Slide88.JPG","null","","","","",""
"","html-keyboard-response","270","1244417","0.0-8.0-1.7","FL","a7hqcrbor2","1680","1050","de","ll08ar27","null","","","","learningBlock2","","","","That was a tob.","null","","","","",""
"","html-keyboard-response","271","1245419","0.0-8.0-2.7","FL","a7hqcrbor2","1680","1050","de","ll08ar27","null","","","","learningBlock2","","","","<div style=""font-size:60px;""> </div>","null","FL","learning/Slide88.JPG","That was a tob.","",""
"","image-keyboard-response","272","1245598","0.0-8.0-0.8","FL","a7hqcrbor2","1680","1050","de","ll08ar27","null","","","","","","","","learning/Slide89.JPG","null","","","","",""
"","html-keyboard-response","273","1246750","0.0-8.0-1.8","FL","a7hqcrbor2","1680","1050","de","ll08ar27","null","","","","learningBlock2","","","","That was a bim.","null","","","","",""
"","html-keyboard-response","274","1247752","0.0-8.0-2.8","FL","a7hqcrbor2","1680","1050","de","ll08ar27","null","","","","learningBlock2","","","","<div style=""font-size:60px;""> </div>","null","FL","learning/Slide89.JPG","That was a bim.","",""
"","image-keyboard-response","275","1247930","0.0-8.0-0.9","FL","a7hqcrbor2","1680","1050","de","ll08ar27","null","","","","","","","","learning/Slide90.JPG","null","","","","",""
"","html-keyboard-response","276","1249086","0.0-8.0-1.9","FL","a7hqcrbor2","1680","1050","de","ll08ar27","null","","","","learningBlock2","","","","That was a dep.","null","","","","",""
"","html-keyboard-response","277","1250087","0.0-8.0-2.9","FL","a7hqcrbor2","1680","1050","de","ll08ar27","null","","","","learningBlock2","","","","<div style=""font-size:60px;""> </div>","null","FL","learning/Slide90.JPG","That was a dep.","",""
"","image-keyboard-response","278","1250266","0.0-8.0-0.10","FL","a7hqcrbor2","1680","1050","de","ll08ar27","null","","","","","","","","learning/Slide91.JPG","null","","","","",""
"","html-keyboard-response","279","1251420","0.0-8.0-1.10","FL","a7hqcrbor2","1680","1050","de","ll08ar27","null","","","","learningBlock2","","","","That was a wug.","null","","","","",""
"","html-keyboard-response","280","1252421","0.0-8.0-2.10","FL","a7hqcrbor2","1680","1050","de","ll08ar27","null","","","","learningBlock2","","","","<div style=""font-size:60px;""> </div>","null","FL","learning/Slide91.JPG","That was a wug.","",""
"","image-keyboard-response","281","1252598","0.0-8.0-0.11","FL","a7hqcrbor2","1680","1050","de","ll08ar27","null","","","","","","","","learning/Slide92.JPG","null","","","","",""
"","html-keyboard-response","282","1253752","0.0-8.0-1.11","FL","a7hqcrbor2","1680","1050","de","ll08ar27","null","","","","learningBlock2","","","","That was a tob.","null","","","","",""
"","html-keyboard-response","283","1254754","0.0-8.0-2.11","FL","a7hqcrbor2","1680","1050","de","ll08ar27","null","","","","learningBlock2","","","","<div style=""font-size:60px;""> </div>","null","FL","learning/Slide92.JPG","That was a tob.","",""
"","image-keyboard-response","284","1254931","0.0-8.0-0.12","FL","a7hqcrbor2","1680","1050","de","ll08ar27","null","","","","","","","","learning/Slide93.JPG","null","","","","",""
"","html-keyboard-response","285","1256086","0.0-8.0-1.12","FL","a7hqcrbor2","1680","1050","de","ll08ar27","null","","","","learningBlock2","","","","That was a bim.","null","","","","",""
"","html-keyboard-response","286","1257087","0.0-8.0-2.12","FL","a7hqcrbor2","1680","1050","de","ll08ar27","null","","","","learningBlock2","","","","<div style=""font-size:60px;""> </div>","null","FL","learning/Slide93.JPG","That was a bim.","",""
"","image-keyboard-response","287","1257266","0.0-8.0-0.13","FL","a7hqcrbor2","1680","1050","de","ll08ar27","null","","","","","","","","learning/Slide94.JPG","null","","","","",""
"","html-keyboard-response","288","1258419","0.0-8.0-1.13","FL","a7hqcrbor2","1680","1050","de","ll08ar27","null","","","","learningBlock2","","","","That was a tob.","null","","","","",""
"","html-keyboard-response","289","1259420","0.0-8.0-2.13","FL","a7hqcrbor2","1680","1050","de","ll08ar27","null","","","","learningBlock2","","","","<div style=""font-size:60px;""> </div>","null","FL","learning/Slide94.JPG","That was a tob.","",""
"","image-keyboard-response","290","1259599","0.0-8.0-0.14","FL","a7hqcrbor2","1680","1050","de","ll08ar27","null","","","","","","","","learning/Slide95.JPG","null","","","","",""
"","html-keyboard-response","291","1260753","0.0-8.0-1.14","FL","a7hqcrbor2","1680","1050","de","ll08ar27","null","","","","learningBlock2","","","","That was a wug.","null","","","","",""
"","html-keyboard-response","292","1261754","0.0-8.0-2.14","FL","a7hqcrbor2","1680","1050","de","ll08ar27","null","","","","learningBlock2","","","","<div style=""font-size:60px;""> </div>","null","FL","learning/Slide95.JPG","That was a wug.","",""
"","image-keyboard-response","293","1261932","0.0-8.0-0.15","FL","a7hqcrbor2","1680","1050","de","ll08ar27","null","","","","","","","","learning/Slide96.JPG","null","","","","",""
"","html-keyboard-response","294","1263086","0.0-8.0-1.15","FL","a7hqcrbor2","1680","1050","de","ll08ar27","null","","","","learningBlock2","","","","That was a tob.","null","","","","",""
"","html-keyboard-response","295","1264087","0.0-8.0-2.15","FL","a7hqcrbor2","1680","1050","de","ll08ar27","null","","","","learningBlock2","","","","<div style=""font-size:60px;""> </div>","null","FL","learning/Slide96.JPG","That was a tob.","",""
"","image-keyboard-response","296","1264265","0.0-8.0-0.16","FL","a7hqcrbor2","1680","1050","de","ll08ar27","null","","","","","","","","learning/Slide97.JPG","null","","","","",""
"","html-keyboard-response","297","1265418","0.0-8.0-1.16","FL","a7hqcrbor2","1680","1050","de","ll08ar27","null","","","","learningBlock2","","","","That was a dep.","null","","","","",""
"","html-keyboard-response","298","1266420","0.0-8.0-2.16","FL","a7hqcrbor2","1680","1050","de","ll08ar27","null","","","","learningBlock2","","","","<div style=""font-size:60px;""> </div>","null","FL","learning/Slide97.JPG","That was a dep.","",""
"","image-keyboard-response","299","1266598","0.0-8.0-0.17","FL","a7hqcrbor2","1680","1050","de","ll08ar27","null","","","","","","","","learning/Slide98.JPG","null","","","","",""
"","html-keyboard-response","300","1267752","0.0-8.0-1.17","FL","a7hqcrbor2","1680","1050","de","ll08ar27","null","","","","learningBlock2","","","","That was a bim.","null","","","","",""
"","html-keyboard-response","301","1268754","0.0-8.0-2.17","FL","a7hqcrbor2","1680","1050","de","ll08ar27","null","","","","learningBlock2","","","","<div style=""font-size:60px;""> </div>","null","FL","learning/Slide98.JPG","That was a bim.","",""
"","image-keyboard-response","302","1268933","0.0-8.0-0.18","FL","a7hqcrbor2","1680","1050","de","ll08ar27","null","","","","","","","","learning/Slide99.JPG","null","","","","",""
"","html-keyboard-response","303","1270086","0.0-8.0-1.18","FL","a7hqcrbor2","1680","1050","de","ll08ar27","null","","","","learningBlock2","","","","That was a dep.","null","","","","",""
"","html-keyboard-response","304","1271088","0.0-8.0-2.18","FL","a7hqcrbor2","1680","1050","de","ll08ar27","null","","","","learningBlock2","","","","<div style=""font-size:60px;""> </div>","null","FL","learning/Slide99.JPG","That was a dep.","",""
"","image-keyboard-response","305","1271264","0.0-8.0-0.19","FL","a7hqcrbor2","1680","1050","de","ll08ar27","null","","","","","","","","learning/Slide100.JPG","null","","","","",""
"","html-keyboard-response","306","1272418","0.0-8.0-1.19","FL","a7hqcrbor2","1680","1050","de","ll08ar27","null","","","","learningBlock2","","","","That was a bim.","null","","","","",""
"","html-keyboard-response","307","1273421","0.0-8.0-2.19","FL","a7hqcrbor2","1680","1050","de","ll08ar27","null","","","","learningBlock2","","","","<div style=""font-size:60px;""> </div>","null","FL","learning/Slide100.JPG","That was a bim.","",""
"","image-keyboard-response","308","1273598","0.0-8.0-0.20","FL","a7hqcrbor2","1680","1050","de","ll08ar27","null","","","","","","","","learning/Slide101.JPG","null","","","","",""
"","html-keyboard-response","309","1274752","0.0-8.0-1.20","FL","a7hqcrbor2","1680","1050","de","ll08ar27","null","","","","learningBlock2","","","","That was a tob.","null","","","","",""
"","html-keyboard-response","310","1275754","0.0-8.0-2.20","FL","a7hqcrbor2","1680","1050","de","ll08ar27","null","","","","learningBlock2","","","","<div style=""font-size:60px;""> </div>","null","FL","learning/Slide101.JPG","That was a tob.","",""
"","image-keyboard-response","311","1275932","0.0-8.0-0.21","FL","a7hqcrbor2","1680","1050","de","ll08ar27","null","","","","","","","","learning/Slide102.JPG","null","","","","",""
"","html-keyboard-response","312","1277086","0.0-8.0-1.21","FL","a7hqcrbor2","1680","1050","de","ll08ar27","null","","","","learningBlock2","","","","That was a bim.","null","","","","",""
"","html-keyboard-response","313","1278087","0.0-8.0-2.21","FL","a7hqcrbor2","1680","1050","de","ll08ar27","null","","","","learningBlock2","","","","<div style=""font-size:60px;""> </div>","null","FL","learning/Slide102.JPG","That was a bim.","",""
"","image-keyboard-response","314","1278266","0.0-8.0-0.22","FL","a7hqcrbor2","1680","1050","de","ll08ar27","null","","","","","","","","learning/Slide103.JPG","null","","","","",""
"","html-keyboard-response","315","1279419","0.0-8.0-1.22","FL","a7hqcrbor2","1680","1050","de","ll08ar27","null","","","","learningBlock2","","","","That was a dep.","null","","","","",""
"","html-keyboard-response","316","1280421","0.0-8.0-2.22","FL","a7hqcrbor2","1680","1050","de","ll08ar27","null","","","","learningBlock2","","","","<div style=""font-size:60px;""> </div>","null","FL","learning/Slide103.JPG","That was a dep.","",""
"","image-keyboard-response","317","1280598","0.0-8.0-0.23","FL","a7hqcrbor2","1680","1050","de","ll08ar27","null","","","","","","","","learning/Slide104.JPG","null","","","","",""
"","html-keyboard-response","318","1281752","0.0-8.0-1.23","FL","a7hqcrbor2","1680","1050","de","ll08ar27","null","","","","learningBlock2","","","","That was a tob.","null","","","","",""
"","html-keyboard-response","319","1282755","0.0-8.0-2.23","FL","a7hqcrbor2","1680","1050","de","ll08ar27","null","","","","learningBlock2","","","","<div style=""font-size:60px;""> </div>","null","FL","learning/Slide104.JPG","That was a tob.","",""
"","image-keyboard-response","320","1282936","0.0-8.0-0.24","FL","a7hqcrbor2","1680","1050","de","ll08ar27","null","","","","","","","","learning/Slide105.JPG","null","","","","",""
"","html-keyboard-response","321","1284087","0.0-8.0-1.24","FL","a7hqcrbor2","1680","1050","de","ll08ar27","null","","","","learningBlock2","","","","That was a dep.","null","","","","",""
"","html-keyboard-response","322","1285089","0.0-8.0-2.24","FL","a7hqcrbor2","1680","1050","de","ll08ar27","null","","","","learningBlock2","","","","<div style=""font-size:60px;""> </div>","null","FL","learning/Slide105.JPG","That was a dep.","",""
"","image-keyboard-response","323","1285266","0.0-8.0-0.25","FL","a7hqcrbor2","1680","1050","de","ll08ar27","null","","","","","","","","learning/Slide106.JPG","null","","","","",""
"","html-keyboard-response","324","1286419","0.0-8.0-1.25","FL","a7hqcrbor2","1680","1050","de","ll08ar27","null","","","","learningBlock2","","","","That was a wug.","null","","","","",""
"","html-keyboard-response","325","1287421","0.0-8.0-2.25","FL","a7hqcrbor2","1680","1050","de","ll08ar27","null","","","","learningBlock2","","","","<div style=""font-size:60px;""> </div>","null","FL","learning/Slide106.JPG","That was a wug.","",""
"","image-keyboard-response","326","1287598","0.0-8.0-0.26","FL","a7hqcrbor2","1680","1050","de","ll08ar27","null","","","","","","","","learning/Slide107.JPG","null","","","","",""
"","html-keyboard-response","327","1288752","0.0-8.0-1.26","FL","a7hqcrbor2","1680","1050","de","ll08ar27","null","","","","learningBlock2","","","","That was a bim.","null","","","","",""
"","html-keyboard-response","328","1289753","0.0-8.0-2.26","FL","a7hqcrbor2","1680","1050","de","ll08ar27","null","","","","learningBlock2","","","","<div style=""font-size:60px;""> </div>","null","FL","learning/Slide107.JPG","That was a bim.","",""
"","image-keyboard-response","329","1289930","0.0-8.0-0.27","FL","a7hqcrbor2","1680","1050","de","ll08ar27","null","","","","","","","","learning/Slide108.JPG","null","","","","",""
"","html-keyboard-response","330","1291085","0.0-8.0-1.27","FL","a7hqcrbor2","1680","1050","de","ll08ar27","null","","","","learningBlock2","","","","That was a dep.","null","","","","",""
"","html-keyboard-response","331","1292088","0.0-8.0-2.27","FL","a7hqcrbor2","1680","1050","de","ll08ar27","null","","","","learningBlock2","","","","<div style=""font-size:60px;""> </div>","null","FL","learning/Slide108.JPG","That was a dep.","",""
"","image-keyboard-response","332","1292265","0.0-8.0-0.28","FL","a7hqcrbor2","1680","1050","de","ll08ar27","null","","","","","","","","learning/Slide109.JPG","null","","","","",""
"","html-keyboard-response","333","1293419","0.0-8.0-1.28","FL","a7hqcrbor2","1680","1050","de","ll08ar27","null","","","","learningBlock2","","","","That was a wug.","null","","","","",""
"","html-keyboard-response","334","1294420","0.0-8.0-2.28","FL","a7hqcrbor2","1680","1050","de","ll08ar27","null","","","","learningBlock2","","","","<div style=""font-size:60px;""> </div>","null","FL","learning/Slide109.JPG","That was a wug.","",""
"","image-keyboard-response","335","1294597","0.0-8.0-0.29","FL","a7hqcrbor2","1680","1050","de","ll08ar27","null","","","","","","","","learning/Slide110.JPG","null","","","","",""
"","html-keyboard-response","336","1295752","0.0-8.0-1.29","FL","a7hqcrbor2","1680","1050","de","ll08ar27","null","","","","learningBlock2","","","","That was a bim.","null","","","","",""
"","html-keyboard-response","337","1296754","0.0-8.0-2.29","FL","a7hqcrbor2","1680","1050","de","ll08ar27","null","","","","learningBlock2","","","","<div style=""font-size:60px;""> </div>","null","FL","learning/Slide110.JPG","That was a bim.","",""
"","image-keyboard-response","338","1296932","0.0-8.0-0.30","FL","a7hqcrbor2","1680","1050","de","ll08ar27","null","","","","","","","","learning/Slide111.JPG","null","","","","",""
"","html-keyboard-response","339","1298087","0.0-8.0-1.30","FL","a7hqcrbor2","1680","1050","de","ll08ar27","null","","","","learningBlock2","","","","That was a tob.","null","","","","",""
"","html-keyboard-response","340","1299088","0.0-8.0-2.30","FL","a7hqcrbor2","1680","1050","de","ll08ar27","null","","","","learningBlock2","","","","<div style=""font-size:60px;""> </div>","null","FL","learning/Slide111.JPG","That was a tob.","",""
"","image-keyboard-response","341","1299266","0.0-8.0-0.31","FL","a7hqcrbor2","1680","1050","de","ll08ar27","null","","","","","","","","learning/Slide112.JPG","null","","","","",""
"","html-keyboard-response","342","1300420","0.0-8.0-1.31","FL","a7hqcrbor2","1680","1050","de","ll08ar27","null","","","","learningBlock2","","","","That was a wug.","null","","","","",""
"","html-keyboard-response","343","1301422","0.0-8.0-2.31","FL","a7hqcrbor2","1680","1050","de","ll08ar27","null","","","","learningBlock2","","","","<div style=""font-size:60px;""> </div>","null","FL","learning/Slide112.JPG","That was a wug.","",""
"","image-keyboard-response","344","1301599","0.0-8.0-0.32","FL","a7hqcrbor2","1680","1050","de","ll08ar27","null","","","","","","","","learning/Slide113.JPG","null","","","","",""
"","html-keyboard-response","345","1302753","0.0-8.0-1.32","FL","a7hqcrbor2","1680","1050","de","ll08ar27","null","","","","learningBlock2","","","","That was a tob.","null","","","","",""
"","html-keyboard-response","346","1303754","0.0-8.0-2.32","FL","a7hqcrbor2","1680","1050","de","ll08ar27","null","","","","learningBlock2","","","","<div style=""font-size:60px;""> </div>","null","FL","learning/Slide113.JPG","That was a tob.","",""
"","image-keyboard-response","347","1303932","0.0-8.0-0.33","FL","a7hqcrbor2","1680","1050","de","ll08ar27","null","","","","","","","","learning/Slide114.JPG","null","","","","",""
"","html-keyboard-response","348","1305086","0.0-8.0-1.33","FL","a7hqcrbor2","1680","1050","de","ll08ar27","null","","","","learningBlock2","","","","That was a wug.","null","","","","",""
"","html-keyboard-response","349","1306087","0.0-8.0-2.33","FL","a7hqcrbor2","1680","1050","de","ll08ar27","null","","","","learningBlock2","","","","<div style=""font-size:60px;""> </div>","null","FL","learning/Slide114.JPG","That was a wug.","",""
"","image-keyboard-response","350","1306265","0.0-8.0-0.34","FL","a7hqcrbor2","1680","1050","de","ll08ar27","null","","","","","","","","learning/Slide115.JPG","null","","","","",""
"","html-keyboard-response","351","1307419","0.0-8.0-1.34","FL","a7hqcrbor2","1680","1050","de","ll08ar27","null","","","","learningBlock2","","","","That was a bim.","null","","","","",""
"","html-keyboard-response","352","1308420","0.0-8.0-2.34","FL","a7hqcrbor2","1680","1050","de","ll08ar27","null","","","","learningBlock2","","","","<div style=""font-size:60px;""> </div>","null","FL","learning/Slide115.JPG","That was a bim.","",""
"","image-keyboard-response","353","1308598","0.0-8.0-0.35","FL","a7hqcrbor2","1680","1050","de","ll08ar27","null","","","","","","","","learning/Slide116.JPG","null","","","","",""
"","html-keyboard-response","354","1309752","0.0-8.0-1.35","FL","a7hqcrbor2","1680","1050","de","ll08ar27","null","","","","learningBlock2","","","","That was a dep.","null","","","","",""
"","html-keyboard-response","355","1310754","0.0-8.0-2.35","FL","a7hqcrbor2","1680","1050","de","ll08ar27","null","","","","learningBlock2","","","","<div style=""font-size:60px;""> </div>","null","FL","learning/Slide116.JPG","That was a dep.","",""
"","image-keyboard-response","356","1310931","0.0-8.0-0.36","FL","a7hqcrbor2","1680","1050","de","ll08ar27","null","","","","","","","","learning/Slide117.JPG","null","","","","",""
"","html-keyboard-response","357","1312085","0.0-8.0-1.36","FL","a7hqcrbor2","1680","1050","de","ll08ar27","null","","","","learningBlock2","","","","That was a tob.","null","","","","",""
"","html-keyboard-response","358","1313087","0.0-8.0-2.36","FL","a7hqcrbor2","1680","1050","de","ll08ar27","null","","","","learningBlock2","","","","<div style=""font-size:60px;""> </div>","null","FL","learning/Slide117.JPG","That was a tob.","",""
"","image-keyboard-response","359","1313265","0.0-8.0-0.37","FL","a7hqcrbor2","1680","1050","de","ll08ar27","null","","","","","","","","learning/Slide118.JPG","null","","","","",""
"","html-keyboard-response","360","1314418","0.0-8.0-1.37","FL","a7hqcrbor2","1680","1050","de","ll08ar27","null","","","","learningBlock2","","","","That was a dep.","null","","","","",""
"","html-keyboard-response","361","1315420","0.0-8.0-2.37","FL","a7hqcrbor2","1680","1050","de","ll08ar27","null","","","","learningBlock2","","","","<div style=""font-size:60px;""> </div>","null","FL","learning/Slide118.JPG","That was a dep.","",""
"","image-keyboard-response","362","1315598","0.0-8.0-0.38","FL","a7hqcrbor2","1680","1050","de","ll08ar27","null","","","","","","","","learning/Slide119.JPG","null","","","","",""
"","html-keyboard-response","363","1316752","0.0-8.0-1.38","FL","a7hqcrbor2","1680","1050","de","ll08ar27","null","","","","learningBlock2","","","","That was a wug.","null","","","","",""
"","html-keyboard-response","364","1317753","0.0-8.0-2.38","FL","a7hqcrbor2","1680","1050","de","ll08ar27","null","","","","learningBlock2","","","","<div style=""font-size:60px;""> </div>","null","FL","learning/Slide119.JPG","That was a wug.","",""
"","image-keyboard-response","365","1317931","0.0-8.0-0.39","FL","a7hqcrbor2","1680","1050","de","ll08ar27","null","","","","","","","","learning/Slide120.JPG","null","","","","",""
"","html-keyboard-response","366","1319085","0.0-8.0-1.39","FL","a7hqcrbor2","1680","1050","de","ll08ar27","null","","","","learningBlock2","","","","That was a dep.","null","","","","",""
"","html-keyboard-response","367","1320087","0.0-8.0-2.39","FL","a7hqcrbor2","1680","1050","de","ll08ar27","null","","","","learningBlock2","","","","<div style=""font-size:60px;""> </div>","null","FL","learning/Slide120.JPG","That was a dep.","",""
"","image-keyboard-response","368","1320265","0.0-8.0-0.40","FL","a7hqcrbor2","1680","1050","de","ll08ar27","null","","","","","","","","learning/Slide121.JPG","null","","","","",""
"","html-keyboard-response","369","1321418","0.0-8.0-1.40","FL","a7hqcrbor2","1680","1050","de","ll08ar27","null","","","","learningBlock2","","","","That was a bim.","null","","","","",""
"","html-keyboard-response","370","1322420","0.0-8.0-2.40","FL","a7hqcrbor2","1680","1050","de","ll08ar27","null","","","","learningBlock2","","","","<div style=""font-size:60px;""> </div>","null","FL","learning/Slide121.JPG","That was a bim.","",""
"","image-keyboard-response","371","1322598","0.0-8.0-0.41","FL","a7hqcrbor2","1680","1050","de","ll08ar27","null","","","","","","","","learning/Slide122.JPG","null","","","","",""
"","html-keyboard-response","372","1323753","0.0-8.0-1.41","FL","a7hqcrbor2","1680","1050","de","ll08ar27","null","","","","learningBlock2","","","","That was a wug.","null","","","","",""
"","html-keyboard-response","373","1324753","0.0-8.0-2.41","FL","a7hqcrbor2","1680","1050","de","ll08ar27","null","","","","learningBlock2","","","","<div style=""font-size:60px;""> </div>","null","FL","learning/Slide122.JPG","That was a wug.","",""
"","image-keyboard-response","374","1324931","0.0-8.0-0.42","FL","a7hqcrbor2","1680","1050","de","ll08ar27","null","","","","","","","","learning/Slide123.JPG","null","","","","",""
"","html-keyboard-response","375","1326084","0.0-8.0-1.42","FL","a7hqcrbor2","1680","1050","de","ll08ar27","null","","","","learningBlock2","","","","That was a bim.","null","","","","",""
"","html-keyboard-response","376","1327086","0.0-8.0-2.42","FL","a7hqcrbor2","1680","1050","de","ll08ar27","null","","","","learningBlock2","","","","<div style=""font-size:60px;""> </div>","null","FL","learning/Slide123.JPG","That was a bim.","",""
"","image-keyboard-response","377","1327264","0.0-8.0-0.43","FL","a7hqcrbor2","1680","1050","de","ll08ar27","null","","","","","","","","learning/Slide124.JPG","null","","","","",""
"","html-keyboard-response","378","1328417","0.0-8.0-1.43","FL","a7hqcrbor2","1680","1050","de","ll08ar27","null","","","","learningBlock2","","","","That was a tob.","null","","","","",""
"","html-keyboard-response","379","1329419","0.0-8.0-2.43","FL","a7hqcrbor2","1680","1050","de","ll08ar27","null","","","","learningBlock2","","","","<div style=""font-size:60px;""> </div>","null","FL","learning/Slide124.JPG","That was a tob.","",""
"","image-keyboard-response","380","1329598","0.0-8.0-0.44","FL","a7hqcrbor2","1680","1050","de","ll08ar27","null","","","","","","","","learning/Slide125.JPG","null","","","","",""
"","html-keyboard-response","381","1330752","0.0-8.0-1.44","FL","a7hqcrbor2","1680","1050","de","ll08ar27","null","","","","learningBlock2","","","","That was a bim.","null","","","","",""
"","html-keyboard-response","382","1331754","0.0-8.0-2.44","FL","a7hqcrbor2","1680","1050","de","ll08ar27","null","","","","learningBlock2","","","","<div style=""font-size:60px;""> </div>","null","FL","learning/Slide125.JPG","That was a bim.","",""
"","image-keyboard-response","383","1331931","0.0-8.0-0.45","FL","a7hqcrbor2","1680","1050","de","ll08ar27","null","","","","","","","","learning/Slide126.JPG","null","","","","",""
"","html-keyboard-response","384","1333086","0.0-8.0-1.45","FL","a7hqcrbor2","1680","1050","de","ll08ar27","null","","","","learningBlock2","","","","That was a tob.","null","","","","",""
"","html-keyboard-response","385","1334088","0.0-8.0-2.45","FL","a7hqcrbor2","1680","1050","de","ll08ar27","null","","","","learningBlock2","","","","<div style=""font-size:60px;""> </div>","null","FL","learning/Slide126.JPG","That was a tob.","",""
"","image-keyboard-response","386","1334264","0.0-8.0-0.46","FL","a7hqcrbor2","1680","1050","de","ll08ar27","null","","","","","","","","learning/Slide127.JPG","null","","","","",""
"","html-keyboard-response","387","1335418","0.0-8.0-1.46","FL","a7hqcrbor2","1680","1050","de","ll08ar27","null","","","","learningBlock2","","","","That was a dep.","null","","","","",""
"","html-keyboard-response","388","1336420","0.0-8.0-2.46","FL","a7hqcrbor2","1680","1050","de","ll08ar27","null","","","","learningBlock2","","","","<div style=""font-size:60px;""> </div>","null","FL","learning/Slide127.JPG","That was a dep.","",""
"","image-keyboard-response","389","1336599","0.0-8.0-0.47","FL","a7hqcrbor2","1680","1050","de","ll08ar27","null","","","","","","","","learning/Slide128.JPG","null","","","","",""
"","html-keyboard-response","390","1337752","0.0-8.0-1.47","FL","a7hqcrbor2","1680","1050","de","ll08ar27","null","","","","learningBlock2","","","","That was a wug.","null","","","","",""
"","html-keyboard-response","391","1338754","0.0-8.0-2.47","FL","a7hqcrbor2","1680","1050","de","ll08ar27","null","","","","learningBlock2","","","","<div style=""font-size:60px;""> </div>","null","FL","learning/Slide128.JPG","That was a wug.","",""
"","image-keyboard-response","392","1338931","0.0-8.0-0.48","FL","a7hqcrbor2","1680","1050","de","ll08ar27","null","","","","","","","","learning/Slide129.JPG","null","","","","",""
"","html-keyboard-response","393","1340086","0.0-8.0-1.48","FL","a7hqcrbor2","1680","1050","de","ll08ar27","null","","","","learningBlock2","","","","That was a tob.","null","","","","",""
"","html-keyboard-response","394","1341087","0.0-8.0-2.48","FL","a7hqcrbor2","1680","1050","de","ll08ar27","null","","","","learningBlock2","","","","<div style=""font-size:60px;""> </div>","null","FL","learning/Slide129.JPG","That was a tob.","",""
"","image-keyboard-response","395","1341264","0.0-8.0-0.49","FL","a7hqcrbor2","1680","1050","de","ll08ar27","null","","","","","","","","learning/Slide130.JPG","null","","","","",""
"","html-keyboard-response","396","1342418","0.0-8.0-1.49","FL","a7hqcrbor2","1680","1050","de","ll08ar27","null","","","","learningBlock2","","","","That was a wug.","null","","","","",""
"","html-keyboard-response","397","1343420","0.0-8.0-2.49","FL","a7hqcrbor2","1680","1050","de","ll08ar27","null","","","","learningBlock2","","","","<div style=""font-size:60px;""> </div>","null","FL","learning/Slide130.JPG","That was a wug.","",""
"","image-keyboard-response","398","1343598","0.0-8.0-0.50","FL","a7hqcrbor2","1680","1050","de","ll08ar27","null","","","","","","","","learning/Slide131.JPG","null","","","","",""
"","html-keyboard-response","399","1344752","0.0-8.0-1.50","FL","a7hqcrbor2","1680","1050","de","ll08ar27","null","","","","learningBlock2","","","","That was a bim.","null","","","","",""
"","html-keyboard-response","400","1345753","0.0-8.0-2.50","FL","a7hqcrbor2","1680","1050","de","ll08ar27","null","","","","learningBlock2","","","","<div style=""font-size:60px;""> </div>","null","FL","learning/Slide131.JPG","That was a bim.","",""
"","image-keyboard-response","401","1345932","0.0-8.0-0.51","FL","a7hqcrbor2","1680","1050","de","ll08ar27","null","","","","","","","","learning/Slide132.JPG","null","","","","",""
"","html-keyboard-response","402","1347086","0.0-8.0-1.51","FL","a7hqcrbor2","1680","1050","de","ll08ar27","null","","","","learningBlock2","","","","That was a dep.","null","","","","",""
"","html-keyboard-response","403","1348087","0.0-8.0-2.51","FL","a7hqcrbor2","1680","1050","de","ll08ar27","null","","","","learningBlock2","","","","<div style=""font-size:60px;""> </div>","null","FL","learning/Slide132.JPG","That was a dep.","",""
"","image-keyboard-response","404","1348265","0.0-8.0-0.52","FL","a7hqcrbor2","1680","1050","de","ll08ar27","null","","","","","","","","learning/Slide133.JPG","null","","","","",""
"","html-keyboard-response","405","1349418","0.0-8.0-1.52","FL","a7hqcrbor2","1680","1050","de","ll08ar27","null","","","","learningBlock2","","","","That was a tob.","null","","","","",""
"","html-keyboard-response","406","1350420","0.0-8.0-2.52","FL","a7hqcrbor2","1680","1050","de","ll08ar27","null","","","","learningBlock2","","","","<div style=""font-size:60px;""> </div>","null","FL","learning/Slide133.JPG","That was a tob.","",""
"","image-keyboard-response","407","1350597","0.0-8.0-0.53","FL","a7hqcrbor2","1680","1050","de","ll08ar27","null","","","","","","","","learning/Slide134.JPG","null","","","","",""
"","html-keyboard-response","408","1351752","0.0-8.0-1.53","FL","a7hqcrbor2","1680","1050","de","ll08ar27","null","","","","learningBlock2","","","","That was a dep.","null","","","","",""
"","html-keyboard-response","409","1352754","0.0-8.0-2.53","FL","a7hqcrbor2","1680","1050","de","ll08ar27","null","","","","learningBlock2","","","","<div style=""font-size:60px;""> </div>","null","FL","learning/Slide134.JPG","That was a dep.","",""
"","image-keyboard-response","410","1352931","0.0-8.0-0.54","FL","a7hqcrbor2","1680","1050","de","ll08ar27","null","","","","","","","","learning/Slide135.JPG","null","","","","",""
"","html-keyboard-response","411","1354085","0.0-8.0-1.54","FL","a7hqcrbor2","1680","1050","de","ll08ar27","null","","","","learningBlock2","","","","That was a tob.","null","","","","",""
"","html-keyboard-response","412","1355087","0.0-8.0-2.54","FL","a7hqcrbor2","1680","1050","de","ll08ar27","null","","","","learningBlock2","","","","<div style=""font-size:60px;""> </div>","null","FL","learning/Slide135.JPG","That was a tob.","",""
"","image-keyboard-response","413","1355263","0.0-8.0-0.55","FL","a7hqcrbor2","1680","1050","de","ll08ar27","null","","","","","","","","learning/Slide136.JPG","null","","","","",""
"","html-keyboard-response","414","1356416","0.0-8.0-1.55","FL","a7hqcrbor2","1680","1050","de","ll08ar27","null","","","","learningBlock2","","","","That was a wug.","null","","","","",""
"","html-keyboard-response","415","1357419","0.0-8.0-2.55","FL","a7hqcrbor2","1680","1050","de","ll08ar27","null","","","","learningBlock2","","","","<div style=""font-size:60px;""> </div>","null","FL","learning/Slide136.JPG","That was a wug.","",""
"","image-keyboard-response","416","1357597","0.0-8.0-0.56","FL","a7hqcrbor2","1680","1050","de","ll08ar27","null","","","","","","","","learning/Slide137.JPG","null","","","","",""
"","html-keyboard-response","417","1358752","0.0-8.0-1.56","FL","a7hqcrbor2","1680","1050","de","ll08ar27","null","","","","learningBlock2","","","","That was a tob.","null","","","","",""
"","html-keyboard-response","418","1359753","0.0-8.0-2.56","FL","a7hqcrbor2","1680","1050","de","ll08ar27","null","","","","learningBlock2","","","","<div style=""font-size:60px;""> </div>","null","FL","learning/Slide137.JPG","That was a tob.","",""
"","image-keyboard-response","419","1359931","0.0-8.0-0.57","FL","a7hqcrbor2","1680","1050","de","ll08ar27","null","","","","","","","","learning/Slide138.JPG","null","","","","",""
"","html-keyboard-response","420","1361083","0.0-8.0-1.57","FL","a7hqcrbor2","1680","1050","de","ll08ar27","null","","","","learningBlock2","","","","That was a bim.","null","","","","",""
"","html-keyboard-response","421","1362087","0.0-8.0-2.57","FL","a7hqcrbor2","1680","1050","de","ll08ar27","null","","","","learningBlock2","","","","<div style=""font-size:60px;""> </div>","null","FL","learning/Slide138.JPG","That was a bim.","",""
"","image-keyboard-response","422","1362265","0.0-8.0-0.58","FL","a7hqcrbor2","1680","1050","de","ll08ar27","null","","","","","","","","learning/Slide139.JPG","null","","","","",""
"","html-keyboard-response","423","1363419","0.0-8.0-1.58","FL","a7hqcrbor2","1680","1050","de","ll08ar27","null","","","","learningBlock2","","","","That was a wug.","null","","","","",""
"","html-keyboard-response","424","1364420","0.0-8.0-2.58","FL","a7hqcrbor2","1680","1050","de","ll08ar27","null","","","","learningBlock2","","","","<div style=""font-size:60px;""> </div>","null","FL","learning/Slide139.JPG","That was a wug.","",""
"","image-keyboard-response","425","1364598","0.0-8.0-0.59","FL","a7hqcrbor2","1680","1050","de","ll08ar27","null","","","","","","","","learning/Slide140.JPG","null","","","","",""
"","html-keyboard-response","426","1365751","0.0-8.0-1.59","FL","a7hqcrbor2","1680","1050","de","ll08ar27","null","","","","learningBlock2","","","","That was a dep.","null","","","","",""
"","html-keyboard-response","427","1366753","0.0-8.0-2.59","FL","a7hqcrbor2","1680","1050","de","ll08ar27","null","","","","learningBlock2","","","","<div style=""font-size:60px;""> </div>","null","FL","learning/Slide140.JPG","That was a dep.","",""
"","image-keyboard-response","428","1366931","0.0-8.0-0.60","FL","a7hqcrbor2","1680","1050","de","ll08ar27","null","","","","","","","","learning/Slide141.JPG","null","","","","",""
"","html-keyboard-response","429","1368086","0.0-8.0-1.60","FL","a7hqcrbor2","1680","1050","de","ll08ar27","null","","","","learningBlock2","","","","That was a tob.","null","","","","",""
"","html-keyboard-response","430","1369087","0.0-8.0-2.60","FL","a7hqcrbor2","1680","1050","de","ll08ar27","null","","","","learningBlock2","","","","<div style=""font-size:60px;""> </div>","null","FL","learning/Slide141.JPG","That was a tob.","",""
"","image-keyboard-response","431","1369265","0.0-8.0-0.61","FL","a7hqcrbor2","1680","1050","de","ll08ar27","null","","","","","","","","learning/Slide142.JPG","null","","","","",""
"","html-keyboard-response","432","1370419","0.0-8.0-1.61","FL","a7hqcrbor2","1680","1050","de","ll08ar27","null","","","","learningBlock2","","","","That was a wug.","null","","","","",""
"","html-keyboard-response","433","1371421","0.0-8.0-2.61","FL","a7hqcrbor2","1680","1050","de","ll08ar27","null","","","","learningBlock2","","","","<div style=""font-size:60px;""> </div>","null","FL","learning/Slide142.JPG","That was a wug.","",""
"","image-keyboard-response","434","1371598","0.0-8.0-0.62","FL","a7hqcrbor2","1680","1050","de","ll08ar27","null","","","","","","","","learning/Slide143.JPG","null","","","","",""
"","html-keyboard-response","435","1372752","0.0-8.0-1.62","FL","a7hqcrbor2","1680","1050","de","ll08ar27","null","","","","learningBlock2","","","","That was a bim.","null","","","","",""
"","html-keyboard-response","436","1373754","0.0-8.0-2.62","FL","a7hqcrbor2","1680","1050","de","ll08ar27","null","","","","learningBlock2","","","","<div style=""font-size:60px;""> </div>","null","FL","learning/Slide143.JPG","That was a bim.","",""
"","image-keyboard-response","437","1373931","0.0-8.0-0.63","FL","a7hqcrbor2","1680","1050","de","ll08ar27","null","","","","","","","","learning/Slide144.JPG","null","","","","",""
"","html-keyboard-response","438","1375085","0.0-8.0-1.63","FL","a7hqcrbor2","1680","1050","de","ll08ar27","null","","","","learningBlock2","","","","That was a dep.","null","","","","",""
"","html-keyboard-response","439","1376086","0.0-8.0-2.63","FL","a7hqcrbor2","1680","1050","de","ll08ar27","null","","","","learningBlock2","","","","<div style=""font-size:60px;""> </div>","null","FL","learning/Slide144.JPG","That was a dep.","",""
"","image-keyboard-response","440","1376263","0.0-8.0-0.64","FL","a7hqcrbor2","1680","1050","de","ll08ar27","null","","","","","","","","learning/Slide145.JPG","null","","","","",""
"","html-keyboard-response","441","1377419","0.0-8.0-1.64","FL","a7hqcrbor2","1680","1050","de","ll08ar27","null","","","","learningBlock2","","","","That was a bim.","null","","","","",""
"","html-keyboard-response","442","1378420","0.0-8.0-2.64","FL","a7hqcrbor2","1680","1050","de","ll08ar27","null","","","","learningBlock2","","","","<div style=""font-size:60px;""> </div>","null","FL","learning/Slide145.JPG","That was a bim.","",""
"","image-keyboard-response","443","1378598","0.0-8.0-0.65","FL","a7hqcrbor2","1680","1050","de","ll08ar27","null","","","","","","","","learning/Slide146.JPG","null","","","","",""
"","html-keyboard-response","444","1379751","0.0-8.0-1.65","FL","a7hqcrbor2","1680","1050","de","ll08ar27","null","","","","learningBlock2","","","","That was a tob.","null","","","","",""
"","html-keyboard-response","445","1380754","0.0-8.0-2.65","FL","a7hqcrbor2","1680","1050","de","ll08ar27","null","","","","learningBlock2","","","","<div style=""font-size:60px;""> </div>","null","FL","learning/Slide146.JPG","That was a tob.","",""
"","image-keyboard-response","446","1380930","0.0-8.0-0.66","FL","a7hqcrbor2","1680","1050","de","ll08ar27","null","","","","","","","","learning/Slide147.JPG","null","","","","",""
"","html-keyboard-response","447","1382083","0.0-8.0-1.66","FL","a7hqcrbor2","1680","1050","de","ll08ar27","null","","","","learningBlock2","","","","That was a wug.","null","","","","",""
"","html-keyboard-response","448","1383086","0.0-8.0-2.66","FL","a7hqcrbor2","1680","1050","de","ll08ar27","null","","","","learningBlock2","","","","<div style=""font-size:60px;""> </div>","null","FL","learning/Slide147.JPG","That was a wug.","",""
"","image-keyboard-response","449","1383263","0.0-8.0-0.67","FL","a7hqcrbor2","1680","1050","de","ll08ar27","null","","","","","","","","learning/Slide148.JPG","null","","","","",""
"","html-keyboard-response","450","1384416","0.0-8.0-1.67","FL","a7hqcrbor2","1680","1050","de","ll08ar27","null","","","","learningBlock2","","","","That was a bim.","null","","","","",""
"","html-keyboard-response","451","1385419","0.0-8.0-2.67","FL","a7hqcrbor2","1680","1050","de","ll08ar27","null","","","","learningBlock2","","","","<div style=""font-size:60px;""> </div>","null","FL","learning/Slide148.JPG","That was a bim.","",""
"","image-keyboard-response","452","1385597","0.0-8.0-0.68","FL","a7hqcrbor2","1680","1050","de","ll08ar27","null","","","","","","","","learning/Slide149.JPG","null","","","","",""
"","html-keyboard-response","453","1386752","0.0-8.0-1.68","FL","a7hqcrbor2","1680","1050","de","ll08ar27","null","","","","learningBlock2","","","","That was a dep.","null","","","","",""
"","html-keyboard-response","454","1387754","0.0-8.0-2.68","FL","a7hqcrbor2","1680","1050","de","ll08ar27","null","","","","learningBlock2","","","","<div style=""font-size:60px;""> </div>","null","FL","learning/Slide149.JPG","That was a dep.","",""
"","image-keyboard-response","455","1387931","0.0-8.0-0.69","FL","a7hqcrbor2","1680","1050","de","ll08ar27","null","","","","","","","","learning/Slide150.JPG","null","","","","",""
"","html-keyboard-response","456","1389085","0.0-8.0-1.69","FL","a7hqcrbor2","1680","1050","de","ll08ar27","null","","","","learningBlock2","","","","That was a wug.","null","","","","",""
"","html-keyboard-response","457","1390086","0.0-8.0-2.69","FL","a7hqcrbor2","1680","1050","de","ll08ar27","null","","","","learningBlock2","","","","<div style=""font-size:60px;""> </div>","null","FL","learning/Slide150.JPG","That was a wug.","",""
"","image-keyboard-response","458","1390264","0.0-8.0-0.70","FL","a7hqcrbor2","1680","1050","de","ll08ar27","null","","","","","","","","learning/Slide151.JPG","null","","","","",""
"","html-keyboard-response","459","1391417","0.0-8.0-1.70","FL","a7hqcrbor2","1680","1050","de","ll08ar27","null","","","","learningBlock2","","","","That was a dep.","null","","","","",""
"","html-keyboard-response","460","1392420","0.0-8.0-2.70","FL","a7hqcrbor2","1680","1050","de","ll08ar27","null","","","","learningBlock2","","","","<div style=""font-size:60px;""> </div>","null","FL","learning/Slide151.JPG","That was a dep.","",""
"","image-keyboard-response","461","1392599","0.0-8.0-0.71","FL","a7hqcrbor2","1680","1050","de","ll08ar27","null","","","","","","","","learning/Slide152.JPG","null","","","","",""
"","html-keyboard-response","462","1393752","0.0-8.0-1.71","FL","a7hqcrbor2","1680","1050","de","ll08ar27","null","","","","learningBlock2","","","","That was a wug.","null","","","","",""
"","html-keyboard-response","463","1394754","0.0-8.0-2.71","FL","a7hqcrbor2","1680","1050","de","ll08ar27","null","","","","learningBlock2","","","","<div style=""font-size:60px;""> </div>","null","FL","learning/Slide152.JPG","That was a wug.","",""
"","image-keyboard-response","464","1394931","0.0-8.0-0.72","FL","a7hqcrbor2","1680","1050","de","ll08ar27","null","","","","","","","","learning/Slide153.JPG","null","","","","",""
"","html-keyboard-response","465","1396085","0.0-8.0-1.72","FL","a7hqcrbor2","1680","1050","de","ll08ar27","null","","","","learningBlock2","","","","That was a bim.","null","","","","",""
"","html-keyboard-response","466","1397086","0.0-8.0-2.72","FL","a7hqcrbor2","1680","1050","de","ll08ar27","null","","","","learningBlock2","","","","<div style=""font-size:60px;""> </div>","null","FL","learning/Slide153.JPG","That was a bim.","",""
"","image-keyboard-response","467","1397264","0.0-8.0-0.73","FL","a7hqcrbor2","1680","1050","de","ll08ar27","null","","","","","","","","learning/Slide154.JPG","null","","","","",""
"","html-keyboard-response","468","1398419","0.0-8.0-1.73","FL","a7hqcrbor2","1680","1050","de","ll08ar27","null","","","","learningBlock2","","","","That was a tob.","null","","","","",""
"","html-keyboard-response","469","1399420","0.0-8.0-2.73","FL","a7hqcrbor2","1680","1050","de","ll08ar27","null","","","","learningBlock2","","","","<div style=""font-size:60px;""> </div>","null","FL","learning/Slide154.JPG","That was a tob.","",""
"","image-keyboard-response","470","1399599","0.0-8.0-0.74","FL","a7hqcrbor2","1680","1050","de","ll08ar27","null","","","","","","","","learning/Slide155.JPG","null","","","","",""
"","html-keyboard-response","471","1400751","0.0-8.0-1.74","FL","a7hqcrbor2","1680","1050","de","ll08ar27","null","","","","learningBlock2","","","","That was a dep.","null","","","","",""
"","html-keyboard-response","472","1401754","0.0-8.0-2.74","FL","a7hqcrbor2","1680","1050","de","ll08ar27","null","","","","learningBlock2","","","","<div style=""font-size:60px;""> </div>","null","FL","learning/Slide155.JPG","That was a dep.","",""
"","image-keyboard-response","473","1401931","0.0-8.0-0.75","FL","a7hqcrbor2","1680","1050","de","ll08ar27","null","","","","","","","","learning/Slide156.JPG","null","","","","",""
"","html-keyboard-response","474","1403085","0.0-8.0-1.75","FL","a7hqcrbor2","1680","1050","de","ll08ar27","null","","","","learningBlock2","","","","That was a bim.","null","","","","",""
"","html-keyboard-response","475","1404087","0.0-8.0-2.75","FL","a7hqcrbor2","1680","1050","de","ll08ar27","null","","","","learningBlock2","","","","<div style=""font-size:60px;""> </div>","null","FL","learning/Slide156.JPG","That was a bim.","",""
"","image-keyboard-response","476","1404265","0.0-8.0-0.76","FL","a7hqcrbor2","1680","1050","de","ll08ar27","null","","","","","","","","learning/Slide157.JPG","null","","","","",""
"","html-keyboard-response","477","1405419","0.0-8.0-1.76","FL","a7hqcrbor2","1680","1050","de","ll08ar27","null","","","","learningBlock2","","","","That was a dep.","null","","","","",""
"","html-keyboard-response","478","1406421","0.0-8.0-2.76","FL","a7hqcrbor2","1680","1050","de","ll08ar27","null","","","","learningBlock2","","","","<div style=""font-size:60px;""> </div>","null","FL","learning/Slide157.JPG","That was a dep.","",""
"","image-keyboard-response","479","1406598","0.0-8.0-0.77","FL","a7hqcrbor2","1680","1050","de","ll08ar27","null","","","","","","","","learning/Slide158.JPG","null","","","","",""
"","html-keyboard-response","480","1407752","0.0-8.0-1.77","FL","a7hqcrbor2","1680","1050","de","ll08ar27","null","","","","learningBlock2","","","","That was a tob.","null","","","","",""
"","html-keyboard-response","481","1408753","0.0-8.0-2.77","FL","a7hqcrbor2","1680","1050","de","ll08ar27","null","","","","learningBlock2","","","","<div style=""font-size:60px;""> </div>","null","FL","learning/Slide158.JPG","That was a tob.","",""
"","image-keyboard-response","482","1408931","0.0-8.0-0.78","FL","a7hqcrbor2","1680","1050","de","ll08ar27","null","","","","","","","","learning/Slide159.JPG","null","","","","",""
"","html-keyboard-response","483","1410085","0.0-8.0-1.78","FL","a7hqcrbor2","1680","1050","de","ll08ar27","null","","","","learningBlock2","","","","That was a dep.","null","","","","",""
