"success","trial_type","trial_index","time_elapsed","internal_node_id","condition","subject","screen_width","screen_height","language","codeword","rt","responses","url","view_history","test_part","final_height_px","final_width_px","scale_factor","stimulus","key_press","learningType","presentedImage","presentedLabel","button_pressed","response"
"true","fullscreen","0","3563","0.0-0.0","LF","et8whud6pz","1792","1120","en","er07el13","","","","","","","","","","","","","","",""
"","survey-html-form","1","7635","0.0-1.0","LF","et8whud6pz","1792","1120","en","er07el13","4070.5249999882653","{""language"":""en""}","","","","","","","","","","","","",""
"","external-html","2","100536","0.0-3.0-0.0","LF","et8whud6pz","1792","1120","en","er07el13","92812.68999993335","","text/information_english.html","","","","","","","","","","","",""
"","external-html","3","111971","0.0-3.0-1.0","LF","et8whud6pz","1792","1120","en","er07el13","11392.594999982975","","text/consent_english.html","","","","","","","","","","","",""
"","survey-html-form","4","185316","0.0-3.0-2.0","LF","et8whud6pz","1792","1120","en","er07el13","73344.91999994498","{""codeword_enter"":""er07el13""}","","","","","","","","","","","","",""
"","instructions","5","196465","0.0-4.0","LF","et8whud6pz","1792","1120","en","er07el13","NA","","","[{""page_index"":0,""viewing_time"":2492.489999975078},{""page_index"":1,""viewing_time"":7149.499999941327}]","instructions","","","","","","","","","",""
"","resize","6","250759","0.0-5.0","LF","et8whud6pz","1792","1120","en","er07el13","","","","","","","444","2.8190476190476192","","","","","","",""
"","html-keyboard-response","7","251766","0.0-6.0-0.0","LF","et8whud6pz","1792","1120","en","er07el13","null","","","","learningBlock1","","","","This is a tob:","null","","","","",""
"","image-keyboard-response","8","252102","0.0-6.0-1.0","LF","et8whud6pz","1792","1120","en","er07el13","null","","","","","","","","learning/Slide1.JPG","null","","","","",""
"","html-keyboard-response","9","253108","0.0-6.0-2.0","LF","et8whud6pz","1792","1120","en","er07el13","null","","","","learningBlock1","","","","<div style=""font-size:60px;""> </div>","null","LF","learning/Slide1.JPG","This is a tob:","",""
"","html-keyboard-response","10","254114","0.0-6.0-0.1","LF","et8whud6pz","1792","1120","en","er07el13","null","","","","learningBlock1","","","","This is a wug:","null","","","","",""
"","image-keyboard-response","11","254450","0.0-6.0-1.1","LF","et8whud6pz","1792","1120","en","er07el13","null","","","","","","","","learning/Slide2.JPG","null","","","","",""
"","html-keyboard-response","12","255456","0.0-6.0-2.1","LF","et8whud6pz","1792","1120","en","er07el13","null","","","","learningBlock1","","","","<div style=""font-size:60px;""> </div>","null","LF","learning/Slide2.JPG","This is a wug:","",""
"","html-keyboard-response","13","256463","0.0-6.0-0.2","LF","et8whud6pz","1792","1120","en","er07el13","null","","","","learningBlock1","","","","This is a bim:","null","","","","",""
"","image-keyboard-response","14","256798","0.0-6.0-1.2","LF","et8whud6pz","1792","1120","en","er07el13","null","","","","","","","","learning/Slide3.JPG","null","","","","",""
"","html-keyboard-response","15","257804","0.0-6.0-2.2","LF","et8whud6pz","1792","1120","en","er07el13","null","","","","learningBlock1","","","","<div style=""font-size:60px;""> </div>","null","LF","learning/Slide3.JPG","This is a bim:","",""
"","html-keyboard-response","16","258811","0.0-6.0-0.3","LF","et8whud6pz","1792","1120","en","er07el13","null","","","","learningBlock1","","","","This is a dep:","null","","","","",""
"","image-keyboard-response","17","259138","0.0-6.0-1.3","LF","et8whud6pz","1792","1120","en","er07el13","null","","","","","","","","learning/Slide4.JPG","null","","","","",""
"","html-keyboard-response","18","260139","0.0-6.0-2.3","LF","et8whud6pz","1792","1120","en","er07el13","null","","","","learningBlock1","","","","<div style=""font-size:60px;""> </div>","null","LF","learning/Slide4.JPG","This is a dep:","",""
"","html-keyboard-response","19","261140","0.0-6.0-0.4","LF","et8whud6pz","1792","1120","en","er07el13","null","","","","learningBlock1","","","","This is a wug:","null","","","","",""
"","image-keyboard-response","20","261474","0.0-6.0-1.4","LF","et8whud6pz","1792","1120","en","er07el13","null","","","","","","","","learning/Slide5.JPG","null","","","","",""
"","html-keyboard-response","21","262480","0.0-6.0-2.4","LF","et8whud6pz","1792","1120","en","er07el13","null","","","","learningBlock1","","","","<div style=""font-size:60px;""> </div>","null","LF","learning/Slide5.JPG","This is a wug:","",""
"","html-keyboard-response","22","263486","0.0-6.0-0.5","LF","et8whud6pz","1792","1120","en","er07el13","null","","","","learningBlock1","","","","This is a dep:","null","","","","",""
"","image-keyboard-response","23","263823","0.0-6.0-1.5","LF","et8whud6pz","1792","1120","en","er07el13","null","","","","","","","","learning/Slide6.JPG","null","","","","",""
"","html-keyboard-response","24","264829","0.0-6.0-2.5","LF","et8whud6pz","1792","1120","en","er07el13","null","","","","learningBlock1","","","","<div style=""font-size:60px;""> </div>","null","LF","learning/Slide6.JPG","This is a dep:","",""
"","html-keyboard-response","25","265835","0.0-6.0-0.6","LF","et8whud6pz","1792","1120","en","er07el13","null","","","","learningBlock1","","","","This is a wug:","null","","","","",""
"","image-keyboard-response","26","266166","0.0-6.0-1.6","LF","et8whud6pz","1792","1120","en","er07el13","null","","","","","","","","learning/Slide7.JPG","null","","","","",""
"","html-keyboard-response","27","267169","0.0-6.0-2.6","LF","et8whud6pz","1792","1120","en","er07el13","null","","","","learningBlock1","","","","<div style=""font-size:60px;""> </div>","null","LF","learning/Slide7.JPG","This is a wug:","",""
"","html-keyboard-response","28","268171","0.0-6.0-0.7","LF","et8whud6pz","1792","1120","en","er07el13","null","","","","learningBlock1","","","","This is a bim:","null","","","","",""
"","image-keyboard-response","29","268504","0.0-6.0-1.7","LF","et8whud6pz","1792","1120","en","er07el13","null","","","","","","","","learning/Slide8.JPG","null","","","","",""
"","html-keyboard-response","30","269510","0.0-6.0-2.7","LF","et8whud6pz","1792","1120","en","er07el13","null","","","","learningBlock1","","","","<div style=""font-size:60px;""> </div>","null","LF","learning/Slide8.JPG","This is a bim:","",""
"","html-keyboard-response","31","270516","0.0-6.0-0.8","LF","et8whud6pz","1792","1120","en","er07el13","null","","","","learningBlock1","","","","This is a wug:","null","","","","",""
"","image-keyboard-response","32","270853","0.0-6.0-1.8","LF","et8whud6pz","1792","1120","en","er07el13","null","","","","","","","","learning/Slide9.JPG","null","","","","",""
"","html-keyboard-response","33","271859","0.0-6.0-2.8","LF","et8whud6pz","1792","1120","en","er07el13","null","","","","learningBlock1","","","","<div style=""font-size:60px;""> </div>","null","LF","learning/Slide9.JPG","This is a wug:","",""
"","html-keyboard-response","34","272864","0.0-6.0-0.9","LF","et8whud6pz","1792","1120","en","er07el13","null","","","","learningBlock1","","","","This is a dep:","null","","","","",""
"","image-keyboard-response","35","273194","0.0-6.0-1.9","LF","et8whud6pz","1792","1120","en","er07el13","null","","","","","","","","learning/Slide10.JPG","null","","","","",""
"","html-keyboard-response","36","274196","0.0-6.0-2.9","LF","et8whud6pz","1792","1120","en","er07el13","null","","","","learningBlock1","","","","<div style=""font-size:60px;""> </div>","null","LF","learning/Slide10.JPG","This is a dep:","",""
"","html-keyboard-response","37","275197","0.0-6.0-0.10","LF","et8whud6pz","1792","1120","en","er07el13","null","","","","learningBlock1","","","","This is a tob:","null","","","","",""
"","image-keyboard-response","38","275531","0.0-6.0-1.10","LF","et8whud6pz","1792","1120","en","er07el13","null","","","","","","","","learning/Slide11.JPG","null","","","","",""
"","html-keyboard-response","39","276538","0.0-6.0-2.10","LF","et8whud6pz","1792","1120","en","er07el13","null","","","","learningBlock1","","","","<div style=""font-size:60px;""> </div>","null","LF","learning/Slide11.JPG","This is a tob:","",""
"","html-keyboard-response","40","277544","0.0-6.0-0.11","LF","et8whud6pz","1792","1120","en","er07el13","null","","","","learningBlock1","","","","This is a dep:","null","","","","",""
"","image-keyboard-response","41","277875","0.0-6.0-1.11","LF","et8whud6pz","1792","1120","en","er07el13","null","","","","","","","","learning/Slide12.JPG","null","","","","",""
"","html-keyboard-response","42","278881","0.0-6.0-2.11","LF","et8whud6pz","1792","1120","en","er07el13","null","","","","learningBlock1","","","","<div style=""font-size:60px;""> </div>","null","LF","learning/Slide12.JPG","This is a dep:","",""
"","html-keyboard-response","43","279887","0.0-6.0-0.12","LF","et8whud6pz","1792","1120","en","er07el13","null","","","","learningBlock1","","","","This is a bim:","null","","","","",""
"","image-keyboard-response","44","280219","0.0-6.0-1.12","LF","et8whud6pz","1792","1120","en","er07el13","null","","","","","","","","learning/Slide13.JPG","null","","","","",""
"","html-keyboard-response","45","281221","0.0-6.0-2.12","LF","et8whud6pz","1792","1120","en","er07el13","null","","","","learningBlock1","","","","<div style=""font-size:60px;""> </div>","null","LF","learning/Slide13.JPG","This is a bim:","",""
"","html-keyboard-response","46","282226","0.0-6.0-0.13","LF","et8whud6pz","1792","1120","en","er07el13","null","","","","learningBlock1","","","","This is a wug:","null","","","","",""
"","image-keyboard-response","47","282563","0.0-6.0-1.13","LF","et8whud6pz","1792","1120","en","er07el13","null","","","","","","","","learning/Slide14.JPG","null","","","","",""
"","html-keyboard-response","48","283569","0.0-6.0-2.13","LF","et8whud6pz","1792","1120","en","er07el13","null","","","","learningBlock1","","","","<div style=""font-size:60px;""> </div>","null","LF","learning/Slide14.JPG","This is a wug:","",""
"","html-keyboard-response","49","284575","0.0-6.0-0.14","LF","et8whud6pz","1792","1120","en","er07el13","null","","","","learningBlock1","","","","This is a tob:","null","","","","",""
"","image-keyboard-response","50","284908","0.0-6.0-1.14","LF","et8whud6pz","1792","1120","en","er07el13","null","","","","","","","","learning/Slide15.JPG","null","","","","",""
"","html-keyboard-response","51","285914","0.0-6.0-2.14","LF","et8whud6pz","1792","1120","en","er07el13","null","","","","learningBlock1","","","","<div style=""font-size:60px;""> </div>","null","LF","learning/Slide15.JPG","This is a tob:","",""
"","html-keyboard-response","52","286918","0.0-6.0-0.15","LF","et8whud6pz","1792","1120","en","er07el13","null","","","","learningBlock1","","","","This is a dep:","null","","","","",""
"","image-keyboard-response","53","287251","0.0-6.0-1.15","LF","et8whud6pz","1792","1120","en","er07el13","null","","","","","","","","learning/Slide16.JPG","null","","","","",""
"","html-keyboard-response","54","288253","0.0-6.0-2.15","LF","et8whud6pz","1792","1120","en","er07el13","null","","","","learningBlock1","","","","<div style=""font-size:60px;""> </div>","null","LF","learning/Slide16.JPG","This is a dep:","",""
"","html-keyboard-response","55","289258","0.0-6.0-0.16","LF","et8whud6pz","1792","1120","en","er07el13","null","","","","learningBlock1","","","","This is a bim:","null","","","","",""
"","image-keyboard-response","56","289593","0.0-6.0-1.16","LF","et8whud6pz","1792","1120","en","er07el13","null","","","","","","","","learning/Slide17.JPG","null","","","","",""
"","html-keyboard-response","57","290594","0.0-6.0-2.16","LF","et8whud6pz","1792","1120","en","er07el13","null","","","","learningBlock1","","","","<div style=""font-size:60px;""> </div>","null","LF","learning/Slide17.JPG","This is a bim:","",""
"","html-keyboard-response","58","291596","0.0-6.0-0.17","LF","et8whud6pz","1792","1120","en","er07el13","null","","","","learningBlock1","","","","This is a tob:","null","","","","",""
"","image-keyboard-response","59","291928","0.0-6.0-1.17","LF","et8whud6pz","1792","1120","en","er07el13","null","","","","","","","","learning/Slide18.JPG","null","","","","",""
"","html-keyboard-response","60","292929","0.0-6.0-2.17","LF","et8whud6pz","1792","1120","en","er07el13","null","","","","learningBlock1","","","","<div style=""font-size:60px;""> </div>","null","LF","learning/Slide18.JPG","This is a tob:","",""
"","html-keyboard-response","61","293932","0.0-6.0-0.18","LF","et8whud6pz","1792","1120","en","er07el13","null","","","","learningBlock1","","","","This is a wug:","null","","","","",""
"","image-keyboard-response","62","294264","0.0-6.0-1.18","LF","et8whud6pz","1792","1120","en","er07el13","null","","","","","","","","learning/Slide19.JPG","null","","","","",""
"","html-keyboard-response","63","295267","0.0-6.0-2.18","LF","et8whud6pz","1792","1120","en","er07el13","null","","","","learningBlock1","","","","<div style=""font-size:60px;""> </div>","null","LF","learning/Slide19.JPG","This is a wug:","",""
"","html-keyboard-response","64","296273","0.0-6.0-0.19","LF","et8whud6pz","1792","1120","en","er07el13","null","","","","learningBlock1","","","","This is a bim:","null","","","","",""
"","image-keyboard-response","65","296609","0.0-6.0-1.19","LF","et8whud6pz","1792","1120","en","er07el13","null","","","","","","","","learning/Slide20.JPG","null","","","","",""
"","html-keyboard-response","66","297615","0.0-6.0-2.19","LF","et8whud6pz","1792","1120","en","er07el13","null","","","","learningBlock1","","","","<div style=""font-size:60px;""> </div>","null","LF","learning/Slide20.JPG","This is a bim:","",""
"","html-keyboard-response","67","298622","0.0-6.0-0.20","LF","et8whud6pz","1792","1120","en","er07el13","null","","","","learningBlock1","","","","This is a dep:","null","","","","",""
"","image-keyboard-response","68","298954","0.0-6.0-1.20","LF","et8whud6pz","1792","1120","en","er07el13","null","","","","","","","","learning/Slide21.JPG","null","","","","",""
"","html-keyboard-response","69","299959","0.0-6.0-2.20","LF","et8whud6pz","1792","1120","en","er07el13","null","","","","learningBlock1","","","","<div style=""font-size:60px;""> </div>","null","LF","learning/Slide21.JPG","This is a dep:","",""
"","html-keyboard-response","70","300960","0.0-6.0-0.21","LF","et8whud6pz","1792","1120","en","er07el13","null","","","","learningBlock1","","","","This is a bim:","null","","","","",""
"","image-keyboard-response","71","301290","0.0-6.0-1.21","LF","et8whud6pz","1792","1120","en","er07el13","null","","","","","","","","learning/Slide22.JPG","null","","","","",""
"","html-keyboard-response","72","302296","0.0-6.0-2.21","LF","et8whud6pz","1792","1120","en","er07el13","null","","","","learningBlock1","","","","<div style=""font-size:60px;""> </div>","null","LF","learning/Slide22.JPG","This is a bim:","",""
"","html-keyboard-response","73","303302","0.0-6.0-0.22","LF","et8whud6pz","1792","1120","en","er07el13","null","","","","learningBlock1","","","","This is a tob:","null","","","","",""
"","image-keyboard-response","74","303634","0.0-6.0-1.22","LF","et8whud6pz","1792","1120","en","er07el13","null","","","","","","","","learning/Slide23.JPG","null","","","","",""
"","html-keyboard-response","75","304640","0.0-6.0-2.22","LF","et8whud6pz","1792","1120","en","er07el13","null","","","","learningBlock1","","","","<div style=""font-size:60px;""> </div>","null","LF","learning/Slide23.JPG","This is a tob:","",""
"","html-keyboard-response","76","305646","0.0-6.0-0.23","LF","et8whud6pz","1792","1120","en","er07el13","null","","","","learningBlock1","","","","This is a wug:","null","","","","",""
"","image-keyboard-response","77","305982","0.0-6.0-1.23","LF","et8whud6pz","1792","1120","en","er07el13","null","","","","","","","","learning/Slide24.JPG","null","","","","",""
"","html-keyboard-response","78","306988","0.0-6.0-2.23","LF","et8whud6pz","1792","1120","en","er07el13","null","","","","learningBlock1","","","","<div style=""font-size:60px;""> </div>","null","LF","learning/Slide24.JPG","This is a wug:","",""
"","html-keyboard-response","79","307994","0.0-6.0-0.24","LF","et8whud6pz","1792","1120","en","er07el13","null","","","","learningBlock1","","","","This is a dep:","null","","","","",""
"","image-keyboard-response","80","308326","0.0-6.0-1.24","LF","et8whud6pz","1792","1120","en","er07el13","null","","","","","","","","learning/Slide25.JPG","null","","","","",""
"","html-keyboard-response","81","309328","0.0-6.0-2.24","LF","et8whud6pz","1792","1120","en","er07el13","null","","","","learningBlock1","","","","<div style=""font-size:60px;""> </div>","null","LF","learning/Slide25.JPG","This is a dep:","",""
"","html-keyboard-response","82","310333","0.0-6.0-0.25","LF","et8whud6pz","1792","1120","en","er07el13","null","","","","learningBlock1","","","","This is a wug:","null","","","","",""
"","image-keyboard-response","83","310669","0.0-6.0-1.25","LF","et8whud6pz","1792","1120","en","er07el13","null","","","","","","","","learning/Slide26.JPG","null","","","","",""
"","html-keyboard-response","84","311675","0.0-6.0-2.25","LF","et8whud6pz","1792","1120","en","er07el13","null","","","","learningBlock1","","","","<div style=""font-size:60px;""> </div>","null","LF","learning/Slide26.JPG","This is a wug:","",""
"","html-keyboard-response","85","312681","0.0-6.0-0.26","LF","et8whud6pz","1792","1120","en","er07el13","null","","","","learningBlock1","","","","This is a bim:","null","","","","",""
"","image-keyboard-response","86","313016","0.0-6.0-1.26","LF","et8whud6pz","1792","1120","en","er07el13","null","","","","","","","","learning/Slide27.JPG","null","","","","",""
"","html-keyboard-response","87","314022","0.0-6.0-2.26","LF","et8whud6pz","1792","1120","en","er07el13","null","","","","learningBlock1","","","","<div style=""font-size:60px;""> </div>","null","LF","learning/Slide27.JPG","This is a bim:","",""
"","html-keyboard-response","88","315028","0.0-6.0-0.27","LF","et8whud6pz","1792","1120","en","er07el13","null","","","","learningBlock1","","","","This is a dep:","null","","","","",""
"","image-keyboard-response","89","315358","0.0-6.0-1.27","LF","et8whud6pz","1792","1120","en","er07el13","null","","","","","","","","learning/Slide28.JPG","null","","","","",""
"","html-keyboard-response","90","316360","0.0-6.0-2.27","LF","et8whud6pz","1792","1120","en","er07el13","null","","","","learningBlock1","","","","<div style=""font-size:60px;""> </div>","null","LF","learning/Slide28.JPG","This is a dep:","",""
"","html-keyboard-response","91","317365","0.0-6.0-0.28","LF","et8whud6pz","1792","1120","en","er07el13","null","","","","learningBlock1","","","","This is a tob:","null","","","","",""
"","image-keyboard-response","92","317701","0.0-6.0-1.28","LF","et8whud6pz","1792","1120","en","er07el13","null","","","","","","","","learning/Slide29.JPG","null","","","","",""
"","html-keyboard-response","93","318705","0.0-6.0-2.28","LF","et8whud6pz","1792","1120","en","er07el13","null","","","","learningBlock1","","","","<div style=""font-size:60px;""> </div>","null","LF","learning/Slide29.JPG","This is a tob:","",""
"","html-keyboard-response","94","319710","0.0-6.0-0.29","LF","et8whud6pz","1792","1120","en","er07el13","null","","","","learningBlock1","","","","This is a dep:","null","","","","",""
"","image-keyboard-response","95","320047","0.0-6.0-1.29","LF","et8whud6pz","1792","1120","en","er07el13","null","","","","","","","","learning/Slide30.JPG","null","","","","",""
"","html-keyboard-response","96","321053","0.0-6.0-2.29","LF","et8whud6pz","1792","1120","en","er07el13","null","","","","learningBlock1","","","","<div style=""font-size:60px;""> </div>","null","LF","learning/Slide30.JPG","This is a dep:","",""
"","html-keyboard-response","97","322059","0.0-6.0-0.30","LF","et8whud6pz","1792","1120","en","er07el13","null","","","","learningBlock1","","","","This is a wug:","null","","","","",""
"","image-keyboard-response","98","322391","0.0-6.0-1.30","LF","et8whud6pz","1792","1120","en","er07el13","null","","","","","","","","learning/Slide31.JPG","null","","","","",""
"","html-keyboard-response","99","323392","0.0-6.0-2.30","LF","et8whud6pz","1792","1120","en","er07el13","null","","","","learningBlock1","","","","<div style=""font-size:60px;""> </div>","null","LF","learning/Slide31.JPG","This is a wug:","",""
"","html-keyboard-response","100","324396","0.0-6.0-0.31","LF","et8whud6pz","1792","1120","en","er07el13","null","","","","learningBlock1","","","","This is a tob:","null","","","","",""
"","image-keyboard-response","101","324732","0.0-6.0-1.31","LF","et8whud6pz","1792","1120","en","er07el13","null","","","","","","","","learning/Slide32.JPG","null","","","","",""
"","html-keyboard-response","102","325738","0.0-6.0-2.31","LF","et8whud6pz","1792","1120","en","er07el13","null","","","","learningBlock1","","","","<div style=""font-size:60px;""> </div>","null","LF","learning/Slide32.JPG","This is a tob:","",""
"","html-keyboard-response","103","326744","0.0-6.0-0.32","LF","et8whud6pz","1792","1120","en","er07el13","null","","","","learningBlock1","","","","This is a bim:","null","","","","",""
"","image-keyboard-response","104","327077","0.0-6.0-1.32","LF","et8whud6pz","1792","1120","en","er07el13","null","","","","","","","","learning/Slide33.JPG","null","","","","",""
"","html-keyboard-response","105","328084","0.0-6.0-2.32","LF","et8whud6pz","1792","1120","en","er07el13","null","","","","learningBlock1","","","","<div style=""font-size:60px;""> </div>","null","LF","learning/Slide33.JPG","This is a bim:","",""
"","html-keyboard-response","106","329090","0.0-6.0-0.33","LF","et8whud6pz","1792","1120","en","er07el13","null","","","","learningBlock1","","","","This is a tob:","null","","","","",""
"","image-keyboard-response","107","329421","0.0-6.0-1.33","LF","et8whud6pz","1792","1120","en","er07el13","null","","","","","","","","learning/Slide34.JPG","null","","","","",""
"","html-keyboard-response","108","330425","0.0-6.0-2.33","LF","et8whud6pz","1792","1120","en","er07el13","null","","","","learningBlock1","","","","<div style=""font-size:60px;""> </div>","null","LF","learning/Slide34.JPG","This is a tob:","",""
"","html-keyboard-response","109","331430","0.0-6.0-0.34","LF","et8whud6pz","1792","1120","en","er07el13","null","","","","learningBlock1","","","","This is a bim:","null","","","","",""
"","image-keyboard-response","110","331765","0.0-6.0-1.34","LF","et8whud6pz","1792","1120","en","er07el13","null","","","","","","","","learning/Slide35.JPG","null","","","","",""
"","html-keyboard-response","111","332771","0.0-6.0-2.34","LF","et8whud6pz","1792","1120","en","er07el13","null","","","","learningBlock1","","","","<div style=""font-size:60px;""> </div>","null","LF","learning/Slide35.JPG","This is a bim:","",""
"","html-keyboard-response","112","333777","0.0-6.0-0.35","LF","et8whud6pz","1792","1120","en","er07el13","null","","","","learningBlock1","","","","This is a dep:","null","","","","",""
"","image-keyboard-response","113","334113","0.0-6.0-1.35","LF","et8whud6pz","1792","1120","en","er07el13","null","","","","","","","","learning/Slide36.JPG","null","","","","",""
"","html-keyboard-response","114","335119","0.0-6.0-2.35","LF","et8whud6pz","1792","1120","en","er07el13","null","","","","learningBlock1","","","","<div style=""font-size:60px;""> </div>","null","LF","learning/Slide36.JPG","This is a dep:","",""
"","html-keyboard-response","115","336125","0.0-6.0-0.36","LF","et8whud6pz","1792","1120","en","er07el13","null","","","","learningBlock1","","","","This is a tob:","null","","","","",""
"","image-keyboard-response","116","336455","0.0-6.0-1.36","LF","et8whud6pz","1792","1120","en","er07el13","null","","","","","","","","learning/Slide37.JPG","null","","","","",""
"","html-keyboard-response","117","337457","0.0-6.0-2.36","LF","et8whud6pz","1792","1120","en","er07el13","null","","","","learningBlock1","","","","<div style=""font-size:60px;""> </div>","null","LF","learning/Slide37.JPG","This is a tob:","",""
"","html-keyboard-response","118","338458","0.0-6.0-0.37","LF","et8whud6pz","1792","1120","en","er07el13","null","","","","learningBlock1","","","","This is a wug:","null","","","","",""
"","image-keyboard-response","119","338790","0.0-6.0-1.37","LF","et8whud6pz","1792","1120","en","er07el13","null","","","","","","","","learning/Slide38.JPG","null","","","","",""
"","html-keyboard-response","120","339791","0.0-6.0-2.37","LF","et8whud6pz","1792","1120","en","er07el13","null","","","","learningBlock1","","","","<div style=""font-size:60px;""> </div>","null","LF","learning/Slide38.JPG","This is a wug:","",""
"","html-keyboard-response","121","340797","0.0-6.0-0.38","LF","et8whud6pz","1792","1120","en","er07el13","null","","","","learningBlock1","","","","This is a bim:","null","","","","",""
"","image-keyboard-response","122","341128","0.0-6.0-1.38","LF","et8whud6pz","1792","1120","en","er07el13","null","","","","","","","","learning/Slide39.JPG","null","","","","",""
"","html-keyboard-response","123","342134","0.0-6.0-2.38","LF","et8whud6pz","1792","1120","en","er07el13","null","","","","learningBlock1","","","","<div style=""font-size:60px;""> </div>","null","LF","learning/Slide39.JPG","This is a bim:","",""
"","html-keyboard-response","124","343139","0.0-6.0-0.39","LF","et8whud6pz","1792","1120","en","er07el13","null","","","","learningBlock1","","","","This is a tob:","null","","","","",""
"","image-keyboard-response","125","343474","0.0-6.0-1.39","LF","et8whud6pz","1792","1120","en","er07el13","null","","","","","","","","learning/Slide40.JPG","null","","","","",""
"","html-keyboard-response","126","344481","0.0-6.0-2.39","LF","et8whud6pz","1792","1120","en","er07el13","null","","","","learningBlock1","","","","<div style=""font-size:60px;""> </div>","null","LF","learning/Slide40.JPG","This is a tob:","",""
"","html-keyboard-response","127","345487","0.0-6.0-0.40","LF","et8whud6pz","1792","1120","en","er07el13","null","","","","learningBlock1","","","","This is a bim:","null","","","","",""
"","image-keyboard-response","128","345823","0.0-6.0-1.40","LF","et8whud6pz","1792","1120","en","er07el13","null","","","","","","","","learning/Slide41.JPG","null","","","","",""
"","html-keyboard-response","129","346824","0.0-6.0-2.40","LF","et8whud6pz","1792","1120","en","er07el13","null","","","","learningBlock1","","","","<div style=""font-size:60px;""> </div>","null","LF","learning/Slide41.JPG","This is a bim:","",""
"","html-keyboard-response","130","347828","0.0-6.0-0.41","LF","et8whud6pz","1792","1120","en","er07el13","null","","","","learningBlock1","","","","This is a dep:","null","","","","",""
"","image-keyboard-response","131","348164","0.0-6.0-1.41","LF","et8whud6pz","1792","1120","en","er07el13","null","","","","","","","","learning/Slide42.JPG","null","","","","",""
"","html-keyboard-response","132","349170","0.0-6.0-2.41","LF","et8whud6pz","1792","1120","en","er07el13","null","","","","learningBlock1","","","","<div style=""font-size:60px;""> </div>","null","LF","learning/Slide42.JPG","This is a dep:","",""
"","html-keyboard-response","133","350174","0.0-6.0-0.42","LF","et8whud6pz","1792","1120","en","er07el13","null","","","","learningBlock1","","","","This is a wug:","null","","","","",""
"","image-keyboard-response","134","350507","0.0-6.0-1.42","LF","et8whud6pz","1792","1120","en","er07el13","null","","","","","","","","learning/Slide43.JPG","null","","","","",""
"","html-keyboard-response","135","351512","0.0-6.0-2.42","LF","et8whud6pz","1792","1120","en","er07el13","null","","","","learningBlock1","","","","<div style=""font-size:60px;""> </div>","null","LF","learning/Slide43.JPG","This is a wug:","",""
"","html-keyboard-response","136","352516","0.0-6.0-0.43","LF","et8whud6pz","1792","1120","en","er07el13","null","","","","learningBlock1","","","","This is a bim:","null","","","","",""
"","image-keyboard-response","137","352853","0.0-6.0-1.43","LF","et8whud6pz","1792","1120","en","er07el13","null","","","","","","","","learning/Slide44.JPG","null","","","","",""
"","html-keyboard-response","138","353859","0.0-6.0-2.43","LF","et8whud6pz","1792","1120","en","er07el13","null","","","","learningBlock1","","","","<div style=""font-size:60px;""> </div>","null","LF","learning/Slide44.JPG","This is a bim:","",""
"","html-keyboard-response","139","354865","0.0-6.0-0.44","LF","et8whud6pz","1792","1120","en","er07el13","null","","","","learningBlock1","","","","This is a wug:","null","","","","",""
"","image-keyboard-response","140","355198","0.0-6.0-1.44","LF","et8whud6pz","1792","1120","en","er07el13","null","","","","","","","","learning/Slide45.JPG","null","","","","",""
"","html-keyboard-response","141","356199","0.0-6.0-2.44","LF","et8whud6pz","1792","1120","en","er07el13","null","","","","learningBlock1","","","","<div style=""font-size:60px;""> </div>","null","LF","learning/Slide45.JPG","This is a wug:","",""
"","html-keyboard-response","142","357205","0.0-6.0-0.45","LF","et8whud6pz","1792","1120","en","er07el13","null","","","","learningBlock1","","","","This is a dep:","null","","","","",""
"","image-keyboard-response","143","357537","0.0-6.0-1.45","LF","et8whud6pz","1792","1120","en","er07el13","null","","","","","","","","learning/Slide46.JPG","null","","","","",""
"","html-keyboard-response","144","358542","0.0-6.0-2.45","LF","et8whud6pz","1792","1120","en","er07el13","null","","","","learningBlock1","","","","<div style=""font-size:60px;""> </div>","null","LF","learning/Slide46.JPG","This is a dep:","",""
"","html-keyboard-response","145","359543","0.0-6.0-0.46","LF","et8whud6pz","1792","1120","en","er07el13","null","","","","learningBlock1","","","","This is a tob:","null","","","","",""
"","image-keyboard-response","146","359880","0.0-6.0-1.46","LF","et8whud6pz","1792","1120","en","er07el13","null","","","","","","","","learning/Slide47.JPG","null","","","","",""
"","html-keyboard-response","147","360883","0.0-6.0-2.46","LF","et8whud6pz","1792","1120","en","er07el13","null","","","","learningBlock1","","","","<div style=""font-size:60px;""> </div>","null","LF","learning/Slide47.JPG","This is a tob:","",""
"","html-keyboard-response","148","361889","0.0-6.0-0.47","LF","et8whud6pz","1792","1120","en","er07el13","null","","","","learningBlock1","","","","This is a bim:","null","","","","",""
"","image-keyboard-response","149","362221","0.0-6.0-1.47","LF","et8whud6pz","1792","1120","en","er07el13","null","","","","","","","","learning/Slide48.JPG","null","","","","",""
"","html-keyboard-response","150","363227","0.0-6.0-2.47","LF","et8whud6pz","1792","1120","en","er07el13","null","","","","learningBlock1","","","","<div style=""font-size:60px;""> </div>","null","LF","learning/Slide48.JPG","This is a bim:","",""
"","html-keyboard-response","151","364233","0.0-6.0-0.48","LF","et8whud6pz","1792","1120","en","er07el13","null","","","","learningBlock1","","","","This is a dep:","null","","","","",""
"","image-keyboard-response","152","364569","0.0-6.0-1.48","LF","et8whud6pz","1792","1120","en","er07el13","null","","","","","","","","learning/Slide49.JPG","null","","","","",""
"","html-keyboard-response","153","365574","0.0-6.0-2.48","LF","et8whud6pz","1792","1120","en","er07el13","null","","","","learningBlock1","","","","<div style=""font-size:60px;""> </div>","null","LF","learning/Slide49.JPG","This is a dep:","",""
"","html-keyboard-response","154","366579","0.0-6.0-0.49","LF","et8whud6pz","1792","1120","en","er07el13","null","","","","learningBlock1","","","","This is a tob:","null","","","","",""
"","image-keyboard-response","155","366913","0.0-6.0-1.49","LF","et8whud6pz","1792","1120","en","er07el13","null","","","","","","","","learning/Slide50.JPG","null","","","","",""
"","html-keyboard-response","156","367914","0.0-6.0-2.49","LF","et8whud6pz","1792","1120","en","er07el13","null","","","","learningBlock1","","","","<div style=""font-size:60px;""> </div>","null","LF","learning/Slide50.JPG","This is a tob:","",""
"","html-keyboard-response","157","368920","0.0-6.0-0.50","LF","et8whud6pz","1792","1120","en","er07el13","null","","","","learningBlock1","","","","This is a bim:","null","","","","",""
"","image-keyboard-response","158","369256","0.0-6.0-1.50","LF","et8whud6pz","1792","1120","en","er07el13","null","","","","","","","","learning/Slide51.JPG","null","","","","",""
"","html-keyboard-response","159","370262","0.0-6.0-2.50","LF","et8whud6pz","1792","1120","en","er07el13","null","","","","learningBlock1","","","","<div style=""font-size:60px;""> </div>","null","LF","learning/Slide51.JPG","This is a bim:","",""
"","html-keyboard-response","160","371268","0.0-6.0-0.51","LF","et8whud6pz","1792","1120","en","er07el13","null","","","","learningBlock1","","","","This is a wug:","null","","","","",""
"","image-keyboard-response","161","371600","0.0-6.0-1.51","LF","et8whud6pz","1792","1120","en","er07el13","null","","","","","","","","learning/Slide52.JPG","null","","","","",""
"","html-keyboard-response","162","372602","0.0-6.0-2.51","LF","et8whud6pz","1792","1120","en","er07el13","null","","","","learningBlock1","","","","<div style=""font-size:60px;""> </div>","null","LF","learning/Slide52.JPG","This is a wug:","",""
"","html-keyboard-response","163","373607","0.0-6.0-0.52","LF","et8whud6pz","1792","1120","en","er07el13","null","","","","learningBlock1","","","","This is a tob:","null","","","","",""
"","image-keyboard-response","164","373943","0.0-6.0-1.52","LF","et8whud6pz","1792","1120","en","er07el13","null","","","","","","","","learning/Slide53.JPG","null","","","","",""
"","html-keyboard-response","165","374950","0.0-6.0-2.52","LF","et8whud6pz","1792","1120","en","er07el13","null","","","","learningBlock1","","","","<div style=""font-size:60px;""> </div>","null","LF","learning/Slide53.JPG","This is a tob:","",""
"","html-keyboard-response","166","375955","0.0-6.0-0.53","LF","et8whud6pz","1792","1120","en","er07el13","null","","","","learningBlock1","","","","This is a dep:","null","","","","",""
"","image-keyboard-response","167","376291","0.0-6.0-1.53","LF","et8whud6pz","1792","1120","en","er07el13","null","","","","","","","","learning/Slide54.JPG","null","","","","",""
"","html-keyboard-response","168","377297","0.0-6.0-2.53","LF","et8whud6pz","1792","1120","en","er07el13","null","","","","learningBlock1","","","","<div style=""font-size:60px;""> </div>","null","LF","learning/Slide54.JPG","This is a dep:","",""
"","html-keyboard-response","169","378303","0.0-6.0-0.54","LF","et8whud6pz","1792","1120","en","er07el13","null","","","","learningBlock1","","","","This is a bim:","null","","","","",""
"","image-keyboard-response","170","378635","0.0-6.0-1.54","LF","et8whud6pz","1792","1120","en","er07el13","null","","","","","","","","learning/Slide55.JPG","null","","","","",""
"","html-keyboard-response","171","379637","0.0-6.0-2.54","LF","et8whud6pz","1792","1120","en","er07el13","null","","","","learningBlock1","","","","<div style=""font-size:60px;""> </div>","null","LF","learning/Slide55.JPG","This is a bim:","",""
"","html-keyboard-response","172","380642","0.0-6.0-0.55","LF","et8whud6pz","1792","1120","en","er07el13","null","","","","learningBlock1","","","","This is a tob:","null","","","","",""
"","image-keyboard-response","173","380978","0.0-6.0-1.55","LF","et8whud6pz","1792","1120","en","er07el13","null","","","","","","","","learning/Slide56.JPG","null","","","","",""
"","html-keyboard-response","174","381984","0.0-6.0-2.55","LF","et8whud6pz","1792","1120","en","er07el13","null","","","","learningBlock1","","","","<div style=""font-size:60px;""> </div>","null","LF","learning/Slide56.JPG","This is a tob:","",""
"","html-keyboard-response","175","382990","0.0-6.0-0.56","LF","et8whud6pz","1792","1120","en","er07el13","null","","","","learningBlock1","","","","This is a dep:","null","","","","",""
"","image-keyboard-response","176","383326","0.0-6.0-1.56","LF","et8whud6pz","1792","1120","en","er07el13","null","","","","","","","","learning/Slide57.JPG","null","","","","",""
"","html-keyboard-response","177","384332","0.0-6.0-2.56","LF","et8whud6pz","1792","1120","en","er07el13","null","","","","learningBlock1","","","","<div style=""font-size:60px;""> </div>","null","LF","learning/Slide57.JPG","This is a dep:","",""
"","html-keyboard-response","178","385338","0.0-6.0-0.57","LF","et8whud6pz","1792","1120","en","er07el13","null","","","","learningBlock1","","","","This is a wug:","null","","","","",""
"","image-keyboard-response","179","385666","0.0-6.0-1.57","LF","et8whud6pz","1792","1120","en","er07el13","null","","","","","","","","learning/Slide58.JPG","null","","","","",""
"","html-keyboard-response","180","386668","0.0-6.0-2.57","LF","et8whud6pz","1792","1120","en","er07el13","null","","","","learningBlock1","","","","<div style=""font-size:60px;""> </div>","null","LF","learning/Slide58.JPG","This is a wug:","",""
"","html-keyboard-response","181","387674","0.0-6.0-0.58","LF","et8whud6pz","1792","1120","en","er07el13","null","","","","learningBlock1","","","","This is a dep:","null","","","","",""
"","image-keyboard-response","182","388010","0.0-6.0-1.58","LF","et8whud6pz","1792","1120","en","er07el13","null","","","","","","","","learning/Slide59.JPG","null","","","","",""
"","html-keyboard-response","183","389016","0.0-6.0-2.58","LF","et8whud6pz","1792","1120","en","er07el13","null","","","","learningBlock1","","","","<div style=""font-size:60px;""> </div>","null","LF","learning/Slide59.JPG","This is a dep:","",""
"","html-keyboard-response","184","390022","0.0-6.0-0.59","LF","et8whud6pz","1792","1120","en","er07el13","null","","","","learningBlock1","","","","This is a wug:","null","","","","",""
"","image-keyboard-response","185","390354","0.0-6.0-1.59","LF","et8whud6pz","1792","1120","en","er07el13","null","","","","","","","","learning/Slide60.JPG","null","","","","",""
"","html-keyboard-response","186","391360","0.0-6.0-2.59","LF","et8whud6pz","1792","1120","en","er07el13","null","","","","learningBlock1","","","","<div style=""font-size:60px;""> </div>","null","LF","learning/Slide60.JPG","This is a wug:","",""
"","html-keyboard-response","187","392366","0.0-6.0-0.60","LF","et8whud6pz","1792","1120","en","er07el13","null","","","","learningBlock1","","","","This is a bim:","null","","","","",""
"","image-keyboard-response","188","392698","0.0-6.0-1.60","LF","et8whud6pz","1792","1120","en","er07el13","null","","","","","","","","learning/Slide61.JPG","null","","","","",""
"","html-keyboard-response","189","393699","0.0-6.0-2.60","LF","et8whud6pz","1792","1120","en","er07el13","null","","","","learningBlock1","","","","<div style=""font-size:60px;""> </div>","null","LF","learning/Slide61.JPG","This is a bim:","",""
"","html-keyboard-response","190","394705","0.0-6.0-0.61","LF","et8whud6pz","1792","1120","en","er07el13","null","","","","learningBlock1","","","","This is a dep:","null","","","","",""
"","image-keyboard-response","191","395037","0.0-6.0-1.61","LF","et8whud6pz","1792","1120","en","er07el13","null","","","","","","","","learning/Slide62.JPG","null","","","","",""
"","html-keyboard-response","192","396043","0.0-6.0-2.61","LF","et8whud6pz","1792","1120","en","er07el13","null","","","","learningBlock1","","","","<div style=""font-size:60px;""> </div>","null","LF","learning/Slide62.JPG","This is a dep:","",""
"","html-keyboard-response","193","397044","0.0-6.0-0.62","LF","et8whud6pz","1792","1120","en","er07el13","null","","","","learningBlock1","","","","This is a bim:","null","","","","",""
"","image-keyboard-response","194","397381","0.0-6.0-1.62","LF","et8whud6pz","1792","1120","en","er07el13","null","","","","","","","","learning/Slide63.JPG","null","","","","",""
"","html-keyboard-response","195","398387","0.0-6.0-2.62","LF","et8whud6pz","1792","1120","en","er07el13","null","","","","learningBlock1","","","","<div style=""font-size:60px;""> </div>","null","LF","learning/Slide63.JPG","This is a bim:","",""
"","html-keyboard-response","196","399392","0.0-6.0-0.63","LF","et8whud6pz","1792","1120","en","er07el13","null","","","","learningBlock1","","","","This is a tob:","null","","","","",""
"","image-keyboard-response","197","399725","0.0-6.0-1.63","LF","et8whud6pz","1792","1120","en","er07el13","null","","","","","","","","learning/Slide64.JPG","null","","","","",""
"","html-keyboard-response","198","400730","0.0-6.0-2.63","LF","et8whud6pz","1792","1120","en","er07el13","null","","","","learningBlock1","","","","<div style=""font-size:60px;""> </div>","null","LF","learning/Slide64.JPG","This is a tob:","",""
"","html-keyboard-response","199","401731","0.0-6.0-0.64","LF","et8whud6pz","1792","1120","en","er07el13","null","","","","learningBlock1","","","","This is a wug:","null","","","","",""
"","image-keyboard-response","200","402063","0.0-6.0-1.64","LF","et8whud6pz","1792","1120","en","er07el13","null","","","","","","","","learning/Slide65.JPG","null","","","","",""
"","html-keyboard-response","201","403067","0.0-6.0-2.64","LF","et8whud6pz","1792","1120","en","er07el13","null","","","","learningBlock1","","","","<div style=""font-size:60px;""> </div>","null","LF","learning/Slide65.JPG","This is a wug:","",""
"","html-keyboard-response","202","404073","0.0-6.0-0.65","LF","et8whud6pz","1792","1120","en","er07el13","null","","","","learningBlock1","","","","This is a dep:","null","","","","",""
"","image-keyboard-response","203","404407","0.0-6.0-1.65","LF","et8whud6pz","1792","1120","en","er07el13","null","","","","","","","","learning/Slide66.JPG","null","","","","",""
"","html-keyboard-response","204","405414","0.0-6.0-2.65","LF","et8whud6pz","1792","1120","en","er07el13","null","","","","learningBlock1","","","","<div style=""font-size:60px;""> </div>","null","LF","learning/Slide66.JPG","This is a dep:","",""
"","html-keyboard-response","205","406420","0.0-6.0-0.66","LF","et8whud6pz","1792","1120","en","er07el13","null","","","","learningBlock1","","","","This is a tob:","null","","","","",""
"","image-keyboard-response","206","406749","0.0-6.0-1.66","LF","et8whud6pz","1792","1120","en","er07el13","null","","","","","","","","learning/Slide67.JPG","null","","","","",""
"","html-keyboard-response","207","407751","0.0-6.0-2.66","LF","et8whud6pz","1792","1120","en","er07el13","null","","","","learningBlock1","","","","<div style=""font-size:60px;""> </div>","null","LF","learning/Slide67.JPG","This is a tob:","",""
"","html-keyboard-response","208","408756","0.0-6.0-0.67","LF","et8whud6pz","1792","1120","en","er07el13","null","","","","learningBlock1","","","","This is a wug:","null","","","","",""
"","image-keyboard-response","209","409092","0.0-6.0-1.67","LF","et8whud6pz","1792","1120","en","er07el13","null","","","","","","","","learning/Slide68.JPG","null","","","","",""
"","html-keyboard-response","210","410098","0.0-6.0-2.67","LF","et8whud6pz","1792","1120","en","er07el13","null","","","","learningBlock1","","","","<div style=""font-size:60px;""> </div>","null","LF","learning/Slide68.JPG","This is a wug:","",""
"","html-keyboard-response","211","411104","0.0-6.0-0.68","LF","et8whud6pz","1792","1120","en","er07el13","null","","","","learningBlock1","","","","This is a tob:","null","","","","",""
"","image-keyboard-response","212","411440","0.0-6.0-1.68","LF","et8whud6pz","1792","1120","en","er07el13","null","","","","","","","","learning/Slide69.JPG","null","","","","",""
"","html-keyboard-response","213","412446","0.0-6.0-2.68","LF","et8whud6pz","1792","1120","en","er07el13","null","","","","learningBlock1","","","","<div style=""font-size:60px;""> </div>","null","LF","learning/Slide69.JPG","This is a tob:","",""
"","html-keyboard-response","214","413451","0.0-6.0-0.69","LF","et8whud6pz","1792","1120","en","er07el13","null","","","","learningBlock1","","","","This is a dep:","null","","","","",""
"","image-keyboard-response","215","413780","0.0-6.0-1.69","LF","et8whud6pz","1792","1120","en","er07el13","null","","","","","","","","learning/Slide70.JPG","null","","","","",""
"","html-keyboard-response","216","414782","0.0-6.0-2.69","LF","et8whud6pz","1792","1120","en","er07el13","null","","","","learningBlock1","","","","<div style=""font-size:60px;""> </div>","null","LF","learning/Slide70.JPG","This is a dep:","",""
"","html-keyboard-response","217","415787","0.0-6.0-0.70","LF","et8whud6pz","1792","1120","en","er07el13","null","","","","learningBlock1","","","","This is a wug:","null","","","","",""
"","image-keyboard-response","218","416122","0.0-6.0-1.70","LF","et8whud6pz","1792","1120","en","er07el13","null","","","","","","","","learning/Slide71.JPG","null","","","","",""
"","html-keyboard-response","219","417129","0.0-6.0-2.70","LF","et8whud6pz","1792","1120","en","er07el13","null","","","","learningBlock1","","","","<div style=""font-size:60px;""> </div>","null","LF","learning/Slide71.JPG","This is a wug:","",""
"","html-keyboard-response","220","418132","0.0-6.0-0.71","LF","et8whud6pz","1792","1120","en","er07el13","null","","","","learningBlock1","","","","This is a bim:","null","","","","",""
"","image-keyboard-response","221","418468","0.0-6.0-1.71","LF","et8whud6pz","1792","1120","en","er07el13","null","","","","","","","","learning/Slide72.JPG","null","","","","",""
"","html-keyboard-response","222","419474","0.0-6.0-2.71","LF","et8whud6pz","1792","1120","en","er07el13","null","","","","learningBlock1","","","","<div style=""font-size:60px;""> </div>","null","LF","learning/Slide72.JPG","This is a bim:","",""
"","html-keyboard-response","223","420479","0.0-6.0-0.72","LF","et8whud6pz","1792","1120","en","er07el13","null","","","","learningBlock1","","","","This is a wug:","null","","","","",""
"","image-keyboard-response","224","420812","0.0-6.0-1.72","LF","et8whud6pz","1792","1120","en","er07el13","null","","","","","","","","learning/Slide73.JPG","null","","","","",""
"","html-keyboard-response","225","421817","0.0-6.0-2.72","LF","et8whud6pz","1792","1120","en","er07el13","null","","","","learningBlock1","","","","<div style=""font-size:60px;""> </div>","null","LF","learning/Slide73.JPG","This is a wug:","",""
"","html-keyboard-response","226","422823","0.0-6.0-0.73","LF","et8whud6pz","1792","1120","en","er07el13","null","","","","learningBlock1","","","","This is a dep:","null","","","","",""
"","image-keyboard-response","227","423158","0.0-6.0-1.73","LF","et8whud6pz","1792","1120","en","er07el13","null","","","","","","","","learning/Slide74.JPG","null","","","","",""
"","html-keyboard-response","228","424162","0.0-6.0-2.73","LF","et8whud6pz","1792","1120","en","er07el13","null","","","","learningBlock1","","","","<div style=""font-size:60px;""> </div>","null","LF","learning/Slide74.JPG","This is a dep:","",""
"","html-keyboard-response","229","425168","0.0-6.0-0.74","LF","et8whud6pz","1792","1120","en","er07el13","null","","","","learningBlock1","","","","This is a tob:","null","","","","",""
"","image-keyboard-response","230","425502","0.0-6.0-1.74","LF","et8whud6pz","1792","1120","en","er07el13","null","","","","","","","","learning/Slide75.JPG","null","","","","",""
"","html-keyboard-response","231","426508","0.0-6.0-2.74","LF","et8whud6pz","1792","1120","en","er07el13","null","","","","learningBlock1","","","","<div style=""font-size:60px;""> </div>","null","LF","learning/Slide75.JPG","This is a tob:","",""
"","html-keyboard-response","232","427513","0.0-6.0-0.75","LF","et8whud6pz","1792","1120","en","er07el13","null","","","","learningBlock1","","","","This is a bim:","null","","","","",""
"","image-keyboard-response","233","427847","0.0-6.0-1.75","LF","et8whud6pz","1792","1120","en","er07el13","null","","","","","","","","learning/Slide76.JPG","null","","","","",""
"","html-keyboard-response","234","428853","0.0-6.0-2.75","LF","et8whud6pz","1792","1120","en","er07el13","null","","","","learningBlock1","","","","<div style=""font-size:60px;""> </div>","null","LF","learning/Slide76.JPG","This is a bim:","",""
"","html-keyboard-response","235","429858","0.0-6.0-0.76","LF","et8whud6pz","1792","1120","en","er07el13","null","","","","learningBlock1","","","","This is a tob:","null","","","","",""
"","image-keyboard-response","236","430194","0.0-6.0-1.76","LF","et8whud6pz","1792","1120","en","er07el13","null","","","","","","","","learning/Slide77.JPG","null","","","","",""
"","html-keyboard-response","237","431200","0.0-6.0-2.76","LF","et8whud6pz","1792","1120","en","er07el13","null","","","","learningBlock1","","","","<div style=""font-size:60px;""> </div>","null","LF","learning/Slide77.JPG","This is a tob:","",""
"","html-keyboard-response","238","432206","0.0-6.0-0.77","LF","et8whud6pz","1792","1120","en","er07el13","null","","","","learningBlock1","","","","This is a wug:","null","","","","",""
"","image-keyboard-response","239","432542","0.0-6.0-1.77","LF","et8whud6pz","1792","1120","en","er07el13","null","","","","","","","","learning/Slide78.JPG","null","","","","",""
"","html-keyboard-response","240","433548","0.0-6.0-2.77","LF","et8whud6pz","1792","1120","en","er07el13","null","","","","learningBlock1","","","","<div style=""font-size:60px;""> </div>","null","LF","learning/Slide78.JPG","This is a wug:","",""
"","html-keyboard-response","241","434554","0.0-6.0-0.78","LF","et8whud6pz","1792","1120","en","er07el13","null","","","","learningBlock1","","","","This is a bim:","null","","","","",""
"","image-keyboard-response","242","434886","0.0-6.0-1.78","LF","et8whud6pz","1792","1120","en","er07el13","null","","","","","","","","learning/Slide79.JPG","null","","","","",""
"","html-keyboard-response","243","435887","0.0-6.0-2.78","LF","et8whud6pz","1792","1120","en","er07el13","null","","","","learningBlock1","","","","<div style=""font-size:60px;""> </div>","null","LF","learning/Slide79.JPG","This is a bim:","",""
"","html-keyboard-response","244","436891","0.0-6.0-0.79","LF","et8whud6pz","1792","1120","en","er07el13","null","","","","learningBlock1","","","","This is a tob:","null","","","","",""
"","image-keyboard-response","245","437227","0.0-6.0-1.79","LF","et8whud6pz","1792","1120","en","er07el13","null","","","","","","","","learning/Slide80.JPG","null","","","","",""
"","html-keyboard-response","246","438233","0.0-6.0-2.79","LF","et8whud6pz","1792","1120","en","er07el13","null","","","","learningBlock1","","","","<div style=""font-size:60px;""> </div>","null","LF","learning/Slide80.JPG","This is a tob:","",""
"","instructions","247","685274","0.0-7.0","LF","et8whud6pz","1792","1120","en","er07el13","NA","","","[{""page_index"":0,""viewing_time"":247042.51499997918}]","instructions","","","","","","","","","",""
"","html-keyboard-response","248","686280","0.0-8.0-0.0","LF","et8whud6pz","1792","1120","en","er07el13","null","","","","learningBlock2","","","","This is a wug:","null","","","","",""
"","image-keyboard-response","249","686616","0.0-8.0-1.0","LF","et8whud6pz","1792","1120","en","er07el13","null","","","","","","","","learning/Slide81.JPG","null","","","","",""
"","html-keyboard-response","250","687618","0.0-8.0-2.0","LF","et8whud6pz","1792","1120","en","er07el13","null","","","","learningBlock2","","","","<div style=""font-size:60px;""> </div>","null","LF","learning/Slide81.JPG","This is a wug:","",""
"","html-keyboard-response","251","688625","0.0-8.0-0.1","LF","et8whud6pz","1792","1120","en","er07el13","null","","","","learningBlock2","","","","This is a bim:","null","","","","",""
"","image-keyboard-response","252","688959","0.0-8.0-1.1","LF","et8whud6pz","1792","1120","en","er07el13","null","","","","","","","","learning/Slide82.JPG","null","","","","",""
"","html-keyboard-response","253","689960","0.0-8.0-2.1","LF","et8whud6pz","1792","1120","en","er07el13","null","","","","learningBlock2","","","","<div style=""font-size:60px;""> </div>","null","LF","learning/Slide82.JPG","This is a bim:","",""
"","html-keyboard-response","254","690966","0.0-8.0-0.2","LF","et8whud6pz","1792","1120","en","er07el13","null","","","","learningBlock2","","","","This is a wug:","null","","","","",""
"","image-keyboard-response","255","691298","0.0-8.0-1.2","LF","et8whud6pz","1792","1120","en","er07el13","null","","","","","","","","learning/Slide83.JPG","null","","","","",""
"","html-keyboard-response","256","692302","0.0-8.0-2.2","LF","et8whud6pz","1792","1120","en","er07el13","null","","","","learningBlock2","","","","<div style=""font-size:60px;""> </div>","null","LF","learning/Slide83.JPG","This is a wug:","",""
"","html-keyboard-response","257","693306","0.0-8.0-0.3","LF","et8whud6pz","1792","1120","en","er07el13","null","","","","learningBlock2","","","","This is a dep:","null","","","","",""
"","image-keyboard-response","258","693643","0.0-8.0-1.3","LF","et8whud6pz","1792","1120","en","er07el13","null","","","","","","","","learning/Slide84.JPG","null","","","","",""
"","html-keyboard-response","259","694644","0.0-8.0-2.3","LF","et8whud6pz","1792","1120","en","er07el13","null","","","","learningBlock2","","","","<div style=""font-size:60px;""> </div>","null","LF","learning/Slide84.JPG","This is a dep:","",""
"","html-keyboard-response","260","695650","0.0-8.0-0.4","LF","et8whud6pz","1792","1120","en","er07el13","null","","","","learningBlock2","","","","This is a bim:","null","","","","",""
"","image-keyboard-response","261","695986","0.0-8.0-1.4","LF","et8whud6pz","1792","1120","en","er07el13","null","","","","","","","","learning/Slide85.JPG","null","","","","",""
"","html-keyboard-response","262","696992","0.0-8.0-2.4","LF","et8whud6pz","1792","1120","en","er07el13","null","","","","learningBlock2","","","","<div style=""font-size:60px;""> </div>","null","LF","learning/Slide85.JPG","This is a bim:","",""
"","html-keyboard-response","263","697998","0.0-8.0-0.5","LF","et8whud6pz","1792","1120","en","er07el13","null","","","","learningBlock2","","","","This is a tob:","null","","","","",""
"","image-keyboard-response","264","698334","0.0-8.0-1.5","LF","et8whud6pz","1792","1120","en","er07el13","null","","","","","","","","learning/Slide86.JPG","null","","","","",""
"","html-keyboard-response","265","699341","0.0-8.0-2.5","LF","et8whud6pz","1792","1120","en","er07el13","null","","","","learningBlock2","","","","<div style=""font-size:60px;""> </div>","null","LF","learning/Slide86.JPG","This is a tob:","",""
"","html-keyboard-response","266","700344","0.0-8.0-0.6","LF","et8whud6pz","1792","1120","en","er07el13","null","","","","learningBlock2","","","","This is a wug:","null","","","","",""
"","image-keyboard-response","267","700674","0.0-8.0-1.6","LF","et8whud6pz","1792","1120","en","er07el13","null","","","","","","","","learning/Slide87.JPG","null","","","","",""
"","html-keyboard-response","268","701680","0.0-8.0-2.6","LF","et8whud6pz","1792","1120","en","er07el13","null","","","","learningBlock2","","","","<div style=""font-size:60px;""> </div>","null","LF","learning/Slide87.JPG","This is a wug:","",""
"","html-keyboard-response","269","702686","0.0-8.0-0.7","LF","et8whud6pz","1792","1120","en","er07el13","null","","","","learningBlock2","","","","This is a tob:","null","","","","",""
"","image-keyboard-response","270","703018","0.0-8.0-1.7","LF","et8whud6pz","1792","1120","en","er07el13","null","","","","","","","","learning/Slide88.JPG","null","","","","",""
"","html-keyboard-response","271","704025","0.0-8.0-2.7","LF","et8whud6pz","1792","1120","en","er07el13","null","","","","learningBlock2","","","","<div style=""font-size:60px;""> </div>","null","LF","learning/Slide88.JPG","This is a tob:","",""
"","html-keyboard-response","272","705031","0.0-8.0-0.8","LF","et8whud6pz","1792","1120","en","er07el13","null","","","","learningBlock2","","","","This is a bim:","null","","","","",""
"","image-keyboard-response","273","705364","0.0-8.0-1.8","LF","et8whud6pz","1792","1120","en","er07el13","null","","","","","","","","learning/Slide89.JPG","null","","","","",""
"","html-keyboard-response","274","706370","0.0-8.0-2.8","LF","et8whud6pz","1792","1120","en","er07el13","null","","","","learningBlock2","","","","<div style=""font-size:60px;""> </div>","null","LF","learning/Slide89.JPG","This is a bim:","",""
"","html-keyboard-response","275","707376","0.0-8.0-0.9","LF","et8whud6pz","1792","1120","en","er07el13","null","","","","learningBlock2","","","","This is a dep:","null","","","","",""
"","image-keyboard-response","276","707712","0.0-8.0-1.9","LF","et8whud6pz","1792","1120","en","er07el13","null","","","","","","","","learning/Slide90.JPG","null","","","","",""
"","html-keyboard-response","277","708714","0.0-8.0-2.9","LF","et8whud6pz","1792","1120","en","er07el13","null","","","","learningBlock2","","","","<div style=""font-size:60px;""> </div>","null","LF","learning/Slide90.JPG","This is a dep:","",""
"","html-keyboard-response","278","709720","0.0-8.0-0.10","LF","et8whud6pz","1792","1120","en","er07el13","null","","","","learningBlock2","","","","This is a wug:","null","","","","",""
"","image-keyboard-response","279","710056","0.0-8.0-1.10","LF","et8whud6pz","1792","1120","en","er07el13","null","","","","","","","","learning/Slide91.JPG","null","","","","",""
"","html-keyboard-response","280","711062","0.0-8.0-2.10","LF","et8whud6pz","1792","1120","en","er07el13","null","","","","learningBlock2","","","","<div style=""font-size:60px;""> </div>","null","LF","learning/Slide91.JPG","This is a wug:","",""
"","html-keyboard-response","281","712064","0.0-8.0-0.11","LF","et8whud6pz","1792","1120","en","er07el13","null","","","","learningBlock2","","","","This is a tob:","null","","","","",""
"","image-keyboard-response","282","712401","0.0-8.0-1.11","LF","et8whud6pz","1792","1120","en","er07el13","null","","","","","","","","learning/Slide92.JPG","null","","","","",""
"","html-keyboard-response","283","713407","0.0-8.0-2.11","LF","et8whud6pz","1792","1120","en","er07el13","null","","","","learningBlock2","","","","<div style=""font-size:60px;""> </div>","null","LF","learning/Slide92.JPG","This is a tob:","",""
"","html-keyboard-response","284","714413","0.0-8.0-0.12","LF","et8whud6pz","1792","1120","en","er07el13","null","","","","learningBlock2","","","","This is a bim:","null","","","","",""
"","image-keyboard-response","285","714745","0.0-8.0-1.12","LF","et8whud6pz","1792","1120","en","er07el13","null","","","","","","","","learning/Slide93.JPG","null","","","","",""
"","html-keyboard-response","286","715751","0.0-8.0-2.12","LF","et8whud6pz","1792","1120","en","er07el13","null","","","","learningBlock2","","","","<div style=""font-size:60px;""> </div>","null","LF","learning/Slide93.JPG","This is a bim:","",""
"","html-keyboard-response","287","716757","0.0-8.0-0.13","LF","et8whud6pz","1792","1120","en","er07el13","null","","","","learningBlock2","","","","This is a tob:","null","","","","",""
"","image-keyboard-response","288","717093","0.0-8.0-1.13","LF","et8whud6pz","1792","1120","en","er07el13","null","","","","","","","","learning/Slide94.JPG","null","","","","",""
"","html-keyboard-response","289","718099","0.0-8.0-2.13","LF","et8whud6pz","1792","1120","en","er07el13","null","","","","learningBlock2","","","","<div style=""font-size:60px;""> </div>","null","LF","learning/Slide94.JPG","This is a tob:","",""
"","html-keyboard-response","290","719105","0.0-8.0-0.14","LF","et8whud6pz","1792","1120","en","er07el13","null","","","","learningBlock2","","","","This is a wug:","null","","","","",""
"","image-keyboard-response","291","719442","0.0-8.0-1.14","LF","et8whud6pz","1792","1120","en","er07el13","null","","","","","","","","learning/Slide95.JPG","null","","","","",""
"","html-keyboard-response","292","720448","0.0-8.0-2.14","LF","et8whud6pz","1792","1120","en","er07el13","null","","","","learningBlock2","","","","<div style=""font-size:60px;""> </div>","null","LF","learning/Slide95.JPG","This is a wug:","",""
"","html-keyboard-response","293","721454","0.0-8.0-0.15","LF","et8whud6pz","1792","1120","en","er07el13","null","","","","learningBlock2","","","","This is a tob:","null","","","","",""
"","image-keyboard-response","294","721790","0.0-8.0-1.15","LF","et8whud6pz","1792","1120","en","er07el13","null","","","","","","","","learning/Slide96.JPG","null","","","","",""
"","html-keyboard-response","295","722796","0.0-8.0-2.15","LF","et8whud6pz","1792","1120","en","er07el13","null","","","","learningBlock2","","","","<div style=""font-size:60px;""> </div>","null","LF","learning/Slide96.JPG","This is a tob:","",""
"","html-keyboard-response","296","723802","0.0-8.0-0.16","LF","et8whud6pz","1792","1120","en","er07el13","null","","","","learningBlock2","","","","This is a dep:","null","","","","",""
"","image-keyboard-response","297","724134","0.0-8.0-1.16","LF","et8whud6pz","1792","1120","en","er07el13","null","","","","","","","","learning/Slide97.JPG","null","","","","",""
"","html-keyboard-response","298","725140","0.0-8.0-2.16","LF","et8whud6pz","1792","1120","en","er07el13","null","","","","learningBlock2","","","","<div style=""font-size:60px;""> </div>","null","LF","learning/Slide97.JPG","This is a dep:","",""
"","html-keyboard-response","299","726146","0.0-8.0-0.17","LF","et8whud6pz","1792","1120","en","er07el13","null","","","","learningBlock2","","","","This is a bim:","null","","","","",""
"","image-keyboard-response","300","726483","0.0-8.0-1.17","LF","et8whud6pz","1792","1120","en","er07el13","null","","","","","","","","learning/Slide98.JPG","null","","","","",""
"","html-keyboard-response","301","727489","0.0-8.0-2.17","LF","et8whud6pz","1792","1120","en","er07el13","null","","","","learningBlock2","","","","<div style=""font-size:60px;""> </div>","null","LF","learning/Slide98.JPG","This is a bim:","",""
"","html-keyboard-response","302","728495","0.0-8.0-0.18","LF","et8whud6pz","1792","1120","en","er07el13","null","","","","learningBlock2","","","","This is a dep:","null","","","","",""
"","image-keyboard-response","303","728828","0.0-8.0-1.18","LF","et8whud6pz","1792","1120","en","er07el13","null","","","","","","","","learning/Slide99.JPG","null","","","","",""
"","html-keyboard-response","304","729834","0.0-8.0-2.18","LF","et8whud6pz","1792","1120","en","er07el13","null","","","","learningBlock2","","","","<div style=""font-size:60px;""> </div>","null","LF","learning/Slide99.JPG","This is a dep:","",""
"","html-keyboard-response","305","730840","0.0-8.0-0.19","LF","et8whud6pz","1792","1120","en","er07el13","null","","","","learningBlock2","","","","This is a bim:","null","","","","",""
"","image-keyboard-response","306","731175","0.0-8.0-1.19","LF","et8whud6pz","1792","1120","en","er07el13","null","","","","","","","","learning/Slide100.JPG","null","","","","",""
"","html-keyboard-response","307","732180","0.0-8.0-2.19","LF","et8whud6pz","1792","1120","en","er07el13","null","","","","learningBlock2","","","","<div style=""font-size:60px;""> </div>","null","LF","learning/Slide100.JPG","This is a bim:","",""
"","html-keyboard-response","308","733186","0.0-8.0-0.20","LF","et8whud6pz","1792","1120","en","er07el13","null","","","","learningBlock2","","","","This is a tob:","null","","","","",""
"","image-keyboard-response","309","733522","0.0-8.0-1.20","LF","et8whud6pz","1792","1120","en","er07el13","null","","","","","","","","learning/Slide101.JPG","null","","","","",""
"","html-keyboard-response","310","734527","0.0-8.0-2.20","LF","et8whud6pz","1792","1120","en","er07el13","null","","","","learningBlock2","","","","<div style=""font-size:60px;""> </div>","null","LF","learning/Slide101.JPG","This is a tob:","",""
"","html-keyboard-response","311","735530","0.0-8.0-0.21","LF","et8whud6pz","1792","1120","en","er07el13","null","","","","learningBlock2","","","","This is a bim:","null","","","","",""
"","image-keyboard-response","312","735866","0.0-8.0-1.21","LF","et8whud6pz","1792","1120","en","er07el13","null","","","","","","","","learning/Slide102.JPG","null","","","","",""
"","html-keyboard-response","313","736872","0.0-8.0-2.21","LF","et8whud6pz","1792","1120","en","er07el13","null","","","","learningBlock2","","","","<div style=""font-size:60px;""> </div>","null","LF","learning/Slide102.JPG","This is a bim:","",""
"","html-keyboard-response","314","737878","0.0-8.0-0.22","LF","et8whud6pz","1792","1120","en","er07el13","null","","","","learningBlock2","","","","This is a dep:","null","","","","",""
"","image-keyboard-response","315","738214","0.0-8.0-1.22","LF","et8whud6pz","1792","1120","en","er07el13","null","","","","","","","","learning/Slide103.JPG","null","","","","",""
"","html-keyboard-response","316","739220","0.0-8.0-2.22","LF","et8whud6pz","1792","1120","en","er07el13","null","","","","learningBlock2","","","","<div style=""font-size:60px;""> </div>","null","LF","learning/Slide103.JPG","This is a dep:","",""
"","html-keyboard-response","317","740226","0.0-8.0-0.23","LF","et8whud6pz","1792","1120","en","er07el13","null","","","","learningBlock2","","","","This is a tob:","null","","","","",""
"","image-keyboard-response","318","740562","0.0-8.0-1.23","LF","et8whud6pz","1792","1120","en","er07el13","null","","","","","","","","learning/Slide104.JPG","null","","","","",""
"","html-keyboard-response","319","741568","0.0-8.0-2.23","LF","et8whud6pz","1792","1120","en","er07el13","null","","","","learningBlock2","","","","<div style=""font-size:60px;""> </div>","null","LF","learning/Slide104.JPG","This is a tob:","",""
"","html-keyboard-response","320","742574","0.0-8.0-0.24","LF","et8whud6pz","1792","1120","en","er07el13","null","","","","learningBlock2","","","","This is a dep:","null","","","","",""
"","image-keyboard-response","321","742908","0.0-8.0-1.24","LF","et8whud6pz","1792","1120","en","er07el13","null","","","","","","","","learning/Slide105.JPG","null","","","","",""
"","html-keyboard-response","322","743914","0.0-8.0-2.24","LF","et8whud6pz","1792","1120","en","er07el13","null","","","","learningBlock2","","","","<div style=""font-size:60px;""> </div>","null","LF","learning/Slide105.JPG","This is a dep:","",""
"","html-keyboard-response","323","744917","0.0-8.0-0.25","LF","et8whud6pz","1792","1120","en","er07el13","null","","","","learningBlock2","","","","This is a wug:","null","","","","",""
"","image-keyboard-response","324","745252","0.0-8.0-1.25","LF","et8whud6pz","1792","1120","en","er07el13","null","","","","","","","","learning/Slide106.JPG","null","","","","",""
"","html-keyboard-response","325","746253","0.0-8.0-2.25","LF","et8whud6pz","1792","1120","en","er07el13","null","","","","learningBlock2","","","","<div style=""font-size:60px;""> </div>","null","LF","learning/Slide106.JPG","This is a wug:","",""
"","html-keyboard-response","326","747255","0.0-8.0-0.26","LF","et8whud6pz","1792","1120","en","er07el13","null","","","","learningBlock2","","","","This is a bim:","null","","","","",""
"","image-keyboard-response","327","747587","0.0-8.0-1.26","LF","et8whud6pz","1792","1120","en","er07el13","null","","","","","","","","learning/Slide107.JPG","null","","","","",""
"","html-keyboard-response","328","748594","0.0-8.0-2.26","LF","et8whud6pz","1792","1120","en","er07el13","null","","","","learningBlock2","","","","<div style=""font-size:60px;""> </div>","null","LF","learning/Slide107.JPG","This is a bim:","",""
"","html-keyboard-response","329","749597","0.0-8.0-0.27","LF","et8whud6pz","1792","1120","en","er07el13","null","","","","learningBlock2","","","","This is a dep:","null","","","","",""
"","image-keyboard-response","330","749928","0.0-8.0-1.27","LF","et8whud6pz","1792","1120","en","er07el13","null","","","","","","","","learning/Slide108.JPG","null","","","","",""
"","html-keyboard-response","331","750934","0.0-8.0-2.27","LF","et8whud6pz","1792","1120","en","er07el13","null","","","","learningBlock2","","","","<div style=""font-size:60px;""> </div>","null","LF","learning/Slide108.JPG","This is a dep:","",""
"","html-keyboard-response","332","751938","0.0-8.0-0.28","LF","et8whud6pz","1792","1120","en","er07el13","null","","","","learningBlock2","","","","This is a wug:","null","","","","",""
"","image-keyboard-response","333","752274","0.0-8.0-1.28","LF","et8whud6pz","1792","1120","en","er07el13","null","","","","","","","","learning/Slide109.JPG","null","","","","",""
"","html-keyboard-response","334","753280","0.0-8.0-2.28","LF","et8whud6pz","1792","1120","en","er07el13","null","","","","learningBlock2","","","","<div style=""font-size:60px;""> </div>","null","LF","learning/Slide109.JPG","This is a wug:","",""
"","html-keyboard-response","335","754286","0.0-8.0-0.29","LF","et8whud6pz","1792","1120","en","er07el13","null","","","","learningBlock2","","","","This is a bim:","null","","","","",""
"","image-keyboard-response","336","754621","0.0-8.0-1.29","LF","et8whud6pz","1792","1120","en","er07el13","null","","","","","","","","learning/Slide110.JPG","null","","","","",""
"","html-keyboard-response","337","755627","0.0-8.0-2.29","LF","et8whud6pz","1792","1120","en","er07el13","null","","","","learningBlock2","","","","<div style=""font-size:60px;""> </div>","null","LF","learning/Slide110.JPG","This is a bim:","",""
"","html-keyboard-response","338","756633","0.0-8.0-0.30","LF","et8whud6pz","1792","1120","en","er07el13","null","","","","learningBlock2","","","","This is a tob:","null","","","","",""
"","image-keyboard-response","339","756970","0.0-8.0-1.30","LF","et8whud6pz","1792","1120","en","er07el13","null","","","","","","","","learning/Slide111.JPG","null","","","","",""
"","html-keyboard-response","340","757976","0.0-8.0-2.30","LF","et8whud6pz","1792","1120","en","er07el13","null","","","","learningBlock2","","","","<div style=""font-size:60px;""> </div>","null","LF","learning/Slide111.JPG","This is a tob:","",""
"","html-keyboard-response","341","758981","0.0-8.0-0.31","LF","et8whud6pz","1792","1120","en","er07el13","null","","","","learningBlock2","","","","This is a wug:","null","","","","",""
"","image-keyboard-response","342","759317","0.0-8.0-1.31","LF","et8whud6pz","1792","1120","en","er07el13","null","","","","","","","","learning/Slide112.JPG","null","","","","",""
"","html-keyboard-response","343","760323","0.0-8.0-2.31","LF","et8whud6pz","1792","1120","en","er07el13","null","","","","learningBlock2","","","","<div style=""font-size:60px;""> </div>","null","LF","learning/Slide112.JPG","This is a wug:","",""
"","html-keyboard-response","344","761330","0.0-8.0-0.32","LF","et8whud6pz","1792","1120","en","er07el13","null","","","","learningBlock2","","","","This is a tob:","null","","","","",""
"","image-keyboard-response","345","761662","0.0-8.0-1.32","LF","et8whud6pz","1792","1120","en","er07el13","null","","","","","","","","learning/Slide113.JPG","null","","","","",""
"","html-keyboard-response","346","762667","0.0-8.0-2.32","LF","et8whud6pz","1792","1120","en","er07el13","null","","","","learningBlock2","","","","<div style=""font-size:60px;""> </div>","null","LF","learning/Slide113.JPG","This is a tob:","",""
"","html-keyboard-response","347","763669","0.0-8.0-0.33","LF","et8whud6pz","1792","1120","en","er07el13","null","","","","learningBlock2","","","","This is a wug:","null","","","","",""
"","image-keyboard-response","348","764005","0.0-8.0-1.33","LF","et8whud6pz","1792","1120","en","er07el13","null","","","","","","","","learning/Slide114.JPG","null","","","","",""
"","html-keyboard-response","349","765011","0.0-8.0-2.33","LF","et8whud6pz","1792","1120","en","er07el13","null","","","","learningBlock2","","","","<div style=""font-size:60px;""> </div>","null","LF","learning/Slide114.JPG","This is a wug:","",""
"","html-keyboard-response","350","766017","0.0-8.0-0.34","LF","et8whud6pz","1792","1120","en","er07el13","null","","","","learningBlock2","","","","This is a bim:","null","","","","",""
"","image-keyboard-response","351","766350","0.0-8.0-1.34","LF","et8whud6pz","1792","1120","en","er07el13","null","","","","","","","","learning/Slide115.JPG","null","","","","",""
"","html-keyboard-response","352","767351","0.0-8.0-2.34","LF","et8whud6pz","1792","1120","en","er07el13","null","","","","learningBlock2","","","","<div style=""font-size:60px;""> </div>","null","LF","learning/Slide115.JPG","This is a bim:","",""
"","html-keyboard-response","353","768357","0.0-8.0-0.35","LF","et8whud6pz","1792","1120","en","er07el13","null","","","","learningBlock2","","","","This is a dep:","null","","","","",""
"","image-keyboard-response","354","768693","0.0-8.0-1.35","LF","et8whud6pz","1792","1120","en","er07el13","null","","","","","","","","learning/Slide116.JPG","null","","","","",""
"","html-keyboard-response","355","769699","0.0-8.0-2.35","LF","et8whud6pz","1792","1120","en","er07el13","null","","","","learningBlock2","","","","<div style=""font-size:60px;""> </div>","null","LF","learning/Slide116.JPG","This is a dep:","",""
"","html-keyboard-response","356","770705","0.0-8.0-0.36","LF","et8whud6pz","1792","1120","en","er07el13","null","","","","learningBlock2","","","","This is a tob:","null","","","","",""
"","image-keyboard-response","357","771041","0.0-8.0-1.36","LF","et8whud6pz","1792","1120","en","er07el13","null","","","","","","","","learning/Slide117.JPG","null","","","","",""
"","html-keyboard-response","358","772048","0.0-8.0-2.36","LF","et8whud6pz","1792","1120","en","er07el13","null","","","","learningBlock2","","","","<div style=""font-size:60px;""> </div>","null","LF","learning/Slide117.JPG","This is a tob:","",""
"","html-keyboard-response","359","773051","0.0-8.0-0.37","LF","et8whud6pz","1792","1120","en","er07el13","null","","","","learningBlock2","","","","This is a dep:","null","","","","",""
"","image-keyboard-response","360","773387","0.0-8.0-1.37","LF","et8whud6pz","1792","1120","en","er07el13","null","","","","","","","","learning/Slide118.JPG","null","","","","",""
"","html-keyboard-response","361","774393","0.0-8.0-2.37","LF","et8whud6pz","1792","1120","en","er07el13","null","","","","learningBlock2","","","","<div style=""font-size:60px;""> </div>","null","LF","learning/Slide118.JPG","This is a dep:","",""
"","html-keyboard-response","362","775399","0.0-8.0-0.38","LF","et8whud6pz","1792","1120","en","er07el13","null","","","","learningBlock2","","","","This is a wug:","null","","","","",""
"","image-keyboard-response","363","775727","0.0-8.0-1.38","LF","et8whud6pz","1792","1120","en","er07el13","null","","","","","","","","learning/Slide119.JPG","null","","","","",""
"","html-keyboard-response","364","776729","0.0-8.0-2.38","LF","et8whud6pz","1792","1120","en","er07el13","null","","","","learningBlock2","","","","<div style=""font-size:60px;""> </div>","null","LF","learning/Slide119.JPG","This is a wug:","",""
"","html-keyboard-response","365","777735","0.0-8.0-0.39","LF","et8whud6pz","1792","1120","en","er07el13","null","","","","learningBlock2","","","","This is a dep:","null","","","","",""
"","image-keyboard-response","366","778072","0.0-8.0-1.39","LF","et8whud6pz","1792","1120","en","er07el13","null","","","","","","","","learning/Slide120.JPG","null","","","","",""
"","html-keyboard-response","367","779078","0.0-8.0-2.39","LF","et8whud6pz","1792","1120","en","er07el13","null","","","","learningBlock2","","","","<div style=""font-size:60px;""> </div>","null","LF","learning/Slide120.JPG","This is a dep:","",""
"","html-keyboard-response","368","780084","0.0-8.0-0.40","LF","et8whud6pz","1792","1120","en","er07el13","null","","","","learningBlock2","","","","This is a bim:","null","","","","",""
"","image-keyboard-response","369","780418","0.0-8.0-1.40","LF","et8whud6pz","1792","1120","en","er07el13","null","","","","","","","","learning/Slide121.JPG","null","","","","",""
"","html-keyboard-response","370","781424","0.0-8.0-2.40","LF","et8whud6pz","1792","1120","en","er07el13","null","","","","learningBlock2","","","","<div style=""font-size:60px;""> </div>","null","LF","learning/Slide121.JPG","This is a bim:","",""
"","html-keyboard-response","371","782430","0.0-8.0-0.41","LF","et8whud6pz","1792","1120","en","er07el13","null","","","","learningBlock2","","","","This is a wug:","null","","","","",""
"","image-keyboard-response","372","782764","0.0-8.0-1.41","LF","et8whud6pz","1792","1120","en","er07el13","null","","","","","","","","learning/Slide122.JPG","null","","","","",""
"","html-keyboard-response","373","783765","0.0-8.0-2.41","LF","et8whud6pz","1792","1120","en","er07el13","null","","","","learningBlock2","","","","<div style=""font-size:60px;""> </div>","null","LF","learning/Slide122.JPG","This is a wug:","",""
"","html-keyboard-response","374","784767","0.0-8.0-0.42","LF","et8whud6pz","1792","1120","en","er07el13","null","","","","learningBlock2","","","","This is a bim:","null","","","","",""
"","image-keyboard-response","375","785103","0.0-8.0-1.42","LF","et8whud6pz","1792","1120","en","er07el13","null","","","","","","","","learning/Slide123.JPG","null","","","","",""
"","html-keyboard-response","376","786109","0.0-8.0-2.42","LF","et8whud6pz","1792","1120","en","er07el13","null","","","","learningBlock2","","","","<div style=""font-size:60px;""> </div>","null","LF","learning/Slide123.JPG","This is a bim:","",""
"","html-keyboard-response","377","787115","0.0-8.0-0.43","LF","et8whud6pz","1792","1120","en","er07el13","null","","","","learningBlock2","","","","This is a tob:","null","","","","",""
"","image-keyboard-response","378","787451","0.0-8.0-1.43","LF","et8whud6pz","1792","1120","en","er07el13","null","","","","","","","","learning/Slide124.JPG","null","","","","",""
"","html-keyboard-response","379","788457","0.0-8.0-2.43","LF","et8whud6pz","1792","1120","en","er07el13","null","","","","learningBlock2","","","","<div style=""font-size:60px;""> </div>","null","LF","learning/Slide124.JPG","This is a tob:","",""
"","html-keyboard-response","380","789463","0.0-8.0-0.44","LF","et8whud6pz","1792","1120","en","er07el13","null","","","","learningBlock2","","","","This is a bim:","null","","","","",""
"","image-keyboard-response","381","789795","0.0-8.0-1.44","LF","et8whud6pz","1792","1120","en","er07el13","null","","","","","","","","learning/Slide125.JPG","null","","","","",""
"","html-keyboard-response","382","790801","0.0-8.0-2.44","LF","et8whud6pz","1792","1120","en","er07el13","null","","","","learningBlock2","","","","<div style=""font-size:60px;""> </div>","null","LF","learning/Slide125.JPG","This is a bim:","",""
"","html-keyboard-response","383","791807","0.0-8.0-0.45","LF","et8whud6pz","1792","1120","en","er07el13","null","","","","learningBlock2","","","","This is a tob:","null","","","","",""
"","image-keyboard-response","384","792138","0.0-8.0-1.45","LF","et8whud6pz","1792","1120","en","er07el13","null","","","","","","","","learning/Slide126.JPG","null","","","","",""
"","html-keyboard-response","385","793144","0.0-8.0-2.45","LF","et8whud6pz","1792","1120","en","er07el13","null","","","","learningBlock2","","","","<div style=""font-size:60px;""> </div>","null","LF","learning/Slide126.JPG","This is a tob:","",""
"","html-keyboard-response","386","794150","0.0-8.0-0.46","LF","et8whud6pz","1792","1120","en","er07el13","null","","","","learningBlock2","","","","This is a dep:","null","","","","",""
"","image-keyboard-response","387","794487","0.0-8.0-1.46","LF","et8whud6pz","1792","1120","en","er07el13","null","","","","","","","","learning/Slide127.JPG","null","","","","",""
"","html-keyboard-response","388","795488","0.0-8.0-2.46","LF","et8whud6pz","1792","1120","en","er07el13","null","","","","learningBlock2","","","","<div style=""font-size:60px;""> </div>","null","LF","learning/Slide127.JPG","This is a dep:","",""
"","html-keyboard-response","389","796494","0.0-8.0-0.47","LF","et8whud6pz","1792","1120","en","er07el13","null","","","","learningBlock2","","","","This is a wug:","null","","","","",""
"","image-keyboard-response","390","796823","0.0-8.0-1.47","LF","et8whud6pz","1792","1120","en","er07el13","null","","","","","","","","learning/Slide128.JPG","null","","","","",""
"","html-keyboard-response","391","797829","0.0-8.0-2.47","LF","et8whud6pz","1792","1120","en","er07el13","null","","","","learningBlock2","","","","<div style=""font-size:60px;""> </div>","null","LF","learning/Slide128.JPG","This is a wug:","",""
"","html-keyboard-response","392","798835","0.0-8.0-0.48","LF","et8whud6pz","1792","1120","en","er07el13","null","","","","learningBlock2","","","","This is a tob:","null","","","","",""
"","image-keyboard-response","393","799169","0.0-8.0-1.48","LF","et8whud6pz","1792","1120","en","er07el13","null","","","","","","","","learning/Slide129.JPG","null","","","","",""
"","html-keyboard-response","394","800175","0.0-8.0-2.48","LF","et8whud6pz","1792","1120","en","er07el13","null","","","","learningBlock2","","","","<div style=""font-size:60px;""> </div>","null","LF","learning/Slide129.JPG","This is a tob:","",""
"","html-keyboard-response","395","801181","0.0-8.0-0.49","LF","et8whud6pz","1792","1120","en","er07el13","null","","","","learningBlock2","","","","This is a wug:","null","","","","",""
"","image-keyboard-response","396","801516","0.0-8.0-1.49","LF","et8whud6pz","1792","1120","en","er07el13","null","","","","","","","","learning/Slide130.JPG","null","","","","",""
"","html-keyboard-response","397","802522","0.0-8.0-2.49","LF","et8whud6pz","1792","1120","en","er07el13","null","","","","learningBlock2","","","","<div style=""font-size:60px;""> </div>","null","LF","learning/Slide130.JPG","This is a wug:","",""
"","html-keyboard-response","398","803528","0.0-8.0-0.50","LF","et8whud6pz","1792","1120","en","er07el13","null","","","","learningBlock2","","","","This is a bim:","null","","","","",""
"","image-keyboard-response","399","803862","0.0-8.0-1.50","LF","et8whud6pz","1792","1120","en","er07el13","null","","","","","","","","learning/Slide131.JPG","null","","","","",""
"","html-keyboard-response","400","804868","0.0-8.0-2.50","LF","et8whud6pz","1792","1120","en","er07el13","null","","","","learningBlock2","","","","<div style=""font-size:60px;""> </div>","null","LF","learning/Slide131.JPG","This is a bim:","",""
"","html-keyboard-response","401","805874","0.0-8.0-0.51","LF","et8whud6pz","1792","1120","en","er07el13","null","","","","learningBlock2","","","","This is a dep:","null","","","","",""
"","image-keyboard-response","402","806210","0.0-8.0-1.51","LF","et8whud6pz","1792","1120","en","er07el13","null","","","","","","","","learning/Slide132.JPG","null","","","","",""
"","html-keyboard-response","403","807216","0.0-8.0-2.51","LF","et8whud6pz","1792","1120","en","er07el13","null","","","","learningBlock2","","","","<div style=""font-size:60px;""> </div>","null","LF","learning/Slide132.JPG","This is a dep:","",""
"","html-keyboard-response","404","808224","0.0-8.0-0.52","LF","et8whud6pz","1792","1120","en","er07el13","null","","","","learningBlock2","","","","This is a tob:","null","","","","",""
"","image-keyboard-response","405","808560","0.0-8.0-1.52","LF","et8whud6pz","1792","1120","en","er07el13","null","","","","","","","","learning/Slide133.JPG","null","","","","",""
"","html-keyboard-response","406","809566","0.0-8.0-2.52","LF","et8whud6pz","1792","1120","en","er07el13","null","","","","learningBlock2","","","","<div style=""font-size:60px;""> </div>","null","LF","learning/Slide133.JPG","This is a tob:","",""
"","html-keyboard-response","407","810572","0.0-8.0-0.53","LF","et8whud6pz","1792","1120","en","er07el13","null","","","","learningBlock2","","","","This is a dep:","null","","","","",""
"","image-keyboard-response","408","810907","0.0-8.0-1.53","LF","et8whud6pz","1792","1120","en","er07el13","null","","","","","","","","learning/Slide134.JPG","null","","","","",""
"","html-keyboard-response","409","811908","0.0-8.0-2.53","LF","et8whud6pz","1792","1120","en","er07el13","null","","","","learningBlock2","","","","<div style=""font-size:60px;""> </div>","null","LF","learning/Slide134.JPG","This is a dep:","",""
"","html-keyboard-response","410","812914","0.0-8.0-0.54","LF","et8whud6pz","1792","1120","en","er07el13","null","","","","learningBlock2","","","","This is a tob:","null","","","","",""
"","image-keyboard-response","411","813250","0.0-8.0-1.54","LF","et8whud6pz","1792","1120","en","er07el13","null","","","","","","","","learning/Slide135.JPG","null","","","","",""
"","html-keyboard-response","412","814257","0.0-8.0-2.54","LF","et8whud6pz","1792","1120","en","er07el13","null","","","","learningBlock2","","","","<div style=""font-size:60px;""> </div>","null","LF","learning/Slide135.JPG","This is a tob:","",""
"","html-keyboard-response","413","815263","0.0-8.0-0.55","LF","et8whud6pz","1792","1120","en","er07el13","null","","","","learningBlock2","","","","This is a wug:","null","","","","",""
"","image-keyboard-response","414","815599","0.0-8.0-1.55","LF","et8whud6pz","1792","1120","en","er07el13","null","","","","","","","","learning/Slide136.JPG","null","","","","",""
"","html-keyboard-response","415","816605","0.0-8.0-2.55","LF","et8whud6pz","1792","1120","en","er07el13","null","","","","learningBlock2","","","","<div style=""font-size:60px;""> </div>","null","LF","learning/Slide136.JPG","This is a wug:","",""
"","html-keyboard-response","416","817611","0.0-8.0-0.56","LF","et8whud6pz","1792","1120","en","er07el13","null","","","","learningBlock2","","","","This is a tob:","null","","","","",""
"","image-keyboard-response","417","817947","0.0-8.0-1.56","LF","et8whud6pz","1792","1120","en","er07el13","null","","","","","","","","learning/Slide137.JPG","null","","","","",""
"","html-keyboard-response","418","818949","0.0-8.0-2.56","LF","et8whud6pz","1792","1120","en","er07el13","null","","","","learningBlock2","","","","<div style=""font-size:60px;""> </div>","null","LF","learning/Slide137.JPG","This is a tob:","",""
"","html-keyboard-response","419","819950","0.0-8.0-0.57","LF","et8whud6pz","1792","1120","en","er07el13","null","","","","learningBlock2","","","","This is a bim:","null","","","","",""
"","image-keyboard-response","420","820283","0.0-8.0-1.57","LF","et8whud6pz","1792","1120","en","er07el13","null","","","","","","","","learning/Slide138.JPG","null","","","","",""
"","html-keyboard-response","421","821289","0.0-8.0-2.57","LF","et8whud6pz","1792","1120","en","er07el13","null","","","","learningBlock2","","","","<div style=""font-size:60px;""> </div>","null","LF","learning/Slide138.JPG","This is a bim:","",""
"","html-keyboard-response","422","822295","0.0-8.0-0.58","LF","et8whud6pz","1792","1120","en","er07el13","null","","","","learningBlock2","","","","This is a wug:","null","","","","",""
"","image-keyboard-response","423","822631","0.0-8.0-1.58","LF","et8whud6pz","1792","1120","en","er07el13","null","","","","","","","","learning/Slide139.JPG","null","","","","",""
"","html-keyboard-response","424","823638","0.0-8.0-2.58","LF","et8whud6pz","1792","1120","en","er07el13","null","","","","learningBlock2","","","","<div style=""font-size:60px;""> </div>","null","LF","learning/Slide139.JPG","This is a wug:","",""
"","html-keyboard-response","425","824644","0.0-8.0-0.59","LF","et8whud6pz","1792","1120","en","er07el13","null","","","","learningBlock2","","","","This is a dep:","null","","","","",""
"","image-keyboard-response","426","824977","0.0-8.0-1.59","LF","et8whud6pz","1792","1120","en","er07el13","null","","","","","","","","learning/Slide140.JPG","null","","","","",""
"","html-keyboard-response","427","825983","0.0-8.0-2.59","LF","et8whud6pz","1792","1120","en","er07el13","null","","","","learningBlock2","","","","<div style=""font-size:60px;""> </div>","null","LF","learning/Slide140.JPG","This is a dep:","",""
"","html-keyboard-response","428","826989","0.0-8.0-0.60","LF","et8whud6pz","1792","1120","en","er07el13","null","","","","learningBlock2","","","","This is a tob:","null","","","","",""
"","image-keyboard-response","429","827320","0.0-8.0-1.60","LF","et8whud6pz","1792","1120","en","er07el13","null","","","","","","","","learning/Slide141.JPG","null","","","","",""
"","html-keyboard-response","430","828326","0.0-8.0-2.60","LF","et8whud6pz","1792","1120","en","er07el13","null","","","","learningBlock2","","","","<div style=""font-size:60px;""> </div>","null","LF","learning/Slide141.JPG","This is a tob:","",""
"","html-keyboard-response","431","829332","0.0-8.0-0.61","LF","et8whud6pz","1792","1120","en","er07el13","null","","","","learningBlock2","","","","This is a wug:","null","","","","",""
"","image-keyboard-response","432","829668","0.0-8.0-1.61","LF","et8whud6pz","1792","1120","en","er07el13","null","","","","","","","","learning/Slide142.JPG","null","","","","",""
"","html-keyboard-response","433","830672","0.0-8.0-2.61","LF","et8whud6pz","1792","1120","en","er07el13","null","","","","learningBlock2","","","","<div style=""font-size:60px;""> </div>","null","LF","learning/Slide142.JPG","This is a wug:","",""
"","html-keyboard-response","434","831678","0.0-8.0-0.62","LF","et8whud6pz","1792","1120","en","er07el13","null","","","","learningBlock2","","","","This is a bim:","null","","","","",""
"","image-keyboard-response","435","832014","0.0-8.0-1.62","LF","et8whud6pz","1792","1120","en","er07el13","null","","","","","","","","learning/Slide143.JPG","null","","","","",""
"","html-keyboard-response","436","833020","0.0-8.0-2.62","LF","et8whud6pz","1792","1120","en","er07el13","null","","","","learningBlock2","","","","<div style=""font-size:60px;""> </div>","null","LF","learning/Slide143.JPG","This is a bim:","",""
"","html-keyboard-response","437","834026","0.0-8.0-0.63","LF","et8whud6pz","1792","1120","en","er07el13","null","","","","learningBlock2","","","","This is a dep:","null","","","","",""
"","image-keyboard-response","438","834361","0.0-8.0-1.63","LF","et8whud6pz","1792","1120","en","er07el13","null","","","","","","","","learning/Slide144.JPG","null","","","","",""
"","html-keyboard-response","439","835367","0.0-8.0-2.63","LF","et8whud6pz","1792","1120","en","er07el13","null","","","","learningBlock2","","","","<div style=""font-size:60px;""> </div>","null","LF","learning/Slide144.JPG","This is a dep:","",""
"","html-keyboard-response","440","836373","0.0-8.0-0.64","LF","et8whud6pz","1792","1120","en","er07el13","null","","","","learningBlock2","","","","This is a bim:","null","","","","",""
"","image-keyboard-response","441","836710","0.0-8.0-1.64","LF","et8whud6pz","1792","1120","en","er07el13","null","","","","","","","","learning/Slide145.JPG","null","","","","",""
"","html-keyboard-response","442","837715","0.0-8.0-2.64","LF","et8whud6pz","1792","1120","en","er07el13","null","","","","learningBlock2","","","","<div style=""font-size:60px;""> </div>","null","LF","learning/Slide145.JPG","This is a bim:","",""
"","html-keyboard-response","443","838720","0.0-8.0-0.65","LF","et8whud6pz","1792","1120","en","er07el13","null","","","","learningBlock2","","","","This is a tob:","null","","","","",""
"","image-keyboard-response","444","839056","0.0-8.0-1.65","LF","et8whud6pz","1792","1120","en","er07el13","null","","","","","","","","learning/Slide146.JPG","null","","","","",""
"","html-keyboard-response","445","840063","0.0-8.0-2.65","LF","et8whud6pz","1792","1120","en","er07el13","null","","","","learningBlock2","","","","<div style=""font-size:60px;""> </div>","null","LF","learning/Slide146.JPG","This is a tob:","",""
"","html-keyboard-response","446","841069","0.0-8.0-0.66","LF","et8whud6pz","1792","1120","en","er07el13","null","","","","learningBlock2","","","","This is a wug:","null","","","","",""
"","image-keyboard-response","447","841405","0.0-8.0-1.66","LF","et8whud6pz","1792","1120","en","er07el13","null","","","","","","","","learning/Slide147.JPG","null","","","","",""
"","html-keyboard-response","448","842411","0.0-8.0-2.66","LF","et8whud6pz","1792","1120","en","er07el13","null","","","","learningBlock2","","","","<div style=""font-size:60px;""> </div>","null","LF","learning/Slide147.JPG","This is a wug:","",""
"","html-keyboard-response","449","843417","0.0-8.0-0.67","LF","et8whud6pz","1792","1120","en","er07el13","null","","","","learningBlock2","","","","This is a bim:","null","","","","",""
"","image-keyboard-response","450","843754","0.0-8.0-1.67","LF","et8whud6pz","1792","1120","en","er07el13","null","","","","","","","","learning/Slide148.JPG","null","","","","",""
"","html-keyboard-response","451","844760","0.0-8.0-2.67","LF","et8whud6pz","1792","1120","en","er07el13","null","","","","learningBlock2","","","","<div style=""font-size:60px;""> </div>","null","LF","learning/Slide148.JPG","This is a bim:","",""
"","html-keyboard-response","452","845761","0.0-8.0-0.68","LF","et8whud6pz","1792","1120","en","er07el13","null","","","","learningBlock2","","","","This is a dep:","null","","","","",""
"","image-keyboard-response","453","846095","0.0-8.0-1.68","LF","et8whud6pz","1792","1120","en","er07el13","null","","","","","","","","learning/Slide149.JPG","null","","","","",""
"","html-keyboard-response","454","847101","0.0-8.0-2.68","LF","et8whud6pz","1792","1120","en","er07el13","null","","","","learningBlock2","","","","<div style=""font-size:60px;""> </div>","null","LF","learning/Slide149.JPG","This is a dep:","",""
"","html-keyboard-response","455","848105","0.0-8.0-0.69","LF","et8whud6pz","1792","1120","en","er07el13","null","","","","learningBlock2","","","","This is a wug:","null","","","","",""
"","image-keyboard-response","456","848438","0.0-8.0-1.69","LF","et8whud6pz","1792","1120","en","er07el13","null","","","","","","","","learning/Slide150.JPG","null","","","","",""
"","html-keyboard-response","457","849445","0.0-8.0-2.69","LF","et8whud6pz","1792","1120","en","er07el13","null","","","","learningBlock2","","","","<div style=""font-size:60px;""> </div>","null","LF","learning/Slide150.JPG","This is a wug:","",""
"","html-keyboard-response","458","850450","0.0-8.0-0.70","LF","et8whud6pz","1792","1120","en","er07el13","null","","","","learningBlock2","","","","This is a dep:","null","","","","",""
"","image-keyboard-response","459","850783","0.0-8.0-1.70","LF","et8whud6pz","1792","1120","en","er07el13","null","","","","","","","","learning/Slide151.JPG","null","","","","",""
"","html-keyboard-response","460","851789","0.0-8.0-2.70","LF","et8whud6pz","1792","1120","en","er07el13","null","","","","learningBlock2","","","","<div style=""font-size:60px;""> </div>","null","LF","learning/Slide151.JPG","This is a dep:","",""
"","html-keyboard-response","461","852791","0.0-8.0-0.71","LF","et8whud6pz","1792","1120","en","er07el13","null","","","","learningBlock2","","","","This is a wug:","null","","","","",""
"","image-keyboard-response","462","853127","0.0-8.0-1.71","LF","et8whud6pz","1792","1120","en","er07el13","null","","","","","","","","learning/Slide152.JPG","null","","","","",""
"","html-keyboard-response","463","854133","0.0-8.0-2.71","LF","et8whud6pz","1792","1120","en","er07el13","null","","","","learningBlock2","","","","<div style=""font-size:60px;""> </div>","null","LF","learning/Slide152.JPG","This is a wug:","",""
"","html-keyboard-response","464","855139","0.0-8.0-0.72","LF","et8whud6pz","1792","1120","en","er07el13","null","","","","learningBlock2","","","","This is a bim:","null","","","","",""
"","image-keyboard-response","465","855476","0.0-8.0-1.72","LF","et8whud6pz","1792","1120","en","er07el13","null","","","","","","","","learning/Slide153.JPG","null","","","","",""
"","html-keyboard-response","466","856478","0.0-8.0-2.72","LF","et8whud6pz","1792","1120","en","er07el13","null","","","","learningBlock2","","","","<div style=""font-size:60px;""> </div>","null","LF","learning/Slide153.JPG","This is a bim:","",""
"","html-keyboard-response","467","857480","0.0-8.0-0.73","LF","et8whud6pz","1792","1120","en","er07el13","null","","","","learningBlock2","","","","This is a tob:","null","","","","",""
"","image-keyboard-response","468","857816","0.0-8.0-1.73","LF","et8whud6pz","1792","1120","en","er07el13","null","","","","","","","","learning/Slide154.JPG","null","","","","",""
"","html-keyboard-response","469","858822","0.0-8.0-2.73","LF","et8whud6pz","1792","1120","en","er07el13","null","","","","learningBlock2","","","","<div style=""font-size:60px;""> </div>","null","LF","learning/Slide154.JPG","This is a tob:","",""
"","html-keyboard-response","470","859828","0.0-8.0-0.74","LF","et8whud6pz","1792","1120","en","er07el13","null","","","","learningBlock2","","","","This is a dep:","null","","","","",""
"","image-keyboard-response","471","860165","0.0-8.0-1.74","LF","et8whud6pz","1792","1120","en","er07el13","null","","","","","","","","learning/Slide155.JPG","null","","","","",""
"","html-keyboard-response","472","861168","0.0-8.0-2.74","LF","et8whud6pz","1792","1120","en","er07el13","null","","","","learningBlock2","","","","<div style=""font-size:60px;""> </div>","null","LF","learning/Slide155.JPG","This is a dep:","",""
"","html-keyboard-response","473","862174","0.0-8.0-0.75","LF","et8whud6pz","1792","1120","en","er07el13","null","","","","learningBlock2","","","","This is a bim:","null","","","","",""
"","image-keyboard-response","474","862510","0.0-8.0-1.75","LF","et8whud6pz","1792","1120","en","er07el13","null","","","","","","","","learning/Slide156.JPG","null","","","","",""
"","html-keyboard-response","475","863516","0.0-8.0-2.75","LF","et8whud6pz","1792","1120","en","er07el13","null","","","","learningBlock2","","","","<div style=""font-size:60px;""> </div>","null","LF","learning/Slide156.JPG","This is a bim:","",""
"","html-keyboard-response","476","864522","0.0-8.0-0.76","LF","et8whud6pz","1792","1120","en","er07el13","null","","","","learningBlock2","","","","This is a dep:","null","","","","",""
"","image-keyboard-response","477","864854","0.0-8.0-1.76","LF","et8whud6pz","1792","1120","en","er07el13","null","","","","","","","","learning/Slide157.JPG","null","","","","",""
"","html-keyboard-response","478","865859","0.0-8.0-2.76","LF","et8whud6pz","1792","1120","en","er07el13","null","","","","learningBlock2","","","","<div style=""font-size:60px;""> </div>","null","LF","learning/Slide157.JPG","This is a dep:","",""
"","html-keyboard-response","479","866860","0.0-8.0-0.77","LF","et8whud6pz","1792","1120","en","er07el13","null","","","","learningBlock2","","","","This is a tob:","null","","","","",""
"","image-keyboard-response","480","867196","0.0-8.0-1.77","LF","et8whud6pz","1792","1120","en","er07el13","null","","","","","","","","learning/Slide158.JPG","null","","","","",""
"","html-keyboard-response","481","868200","0.0-8.0-2.77","LF","et8whud6pz","1792","1120","en","er07el13","null","","","","learningBlock2","","","","<div style=""font-size:60px;""> </div>","null","LF","learning/Slide158.JPG","This is a tob:","",""
"","html-keyboard-response","482","869207","0.0-8.0-0.78","LF","et8whud6pz","1792","1120","en","er07el13","null","","","","learningBlock2","","","","This is a dep:","null","","","","",""
"","image-keyboard-response","483","869543","0.0-8.0-1.78","LF","et8whud6pz","1792","1120","en","er07el13","null","","","","","","","","learning/Slide159.JPG","null","","","","",""
"","html-keyboard-response","484","870549","0.0-8.0-2.78","LF","et8whud6pz","1792","1120","en","er07el13","null","","","","learningBlock2","","","","<div style=""font-size:60px;""> </div>","null","LF","learning/Slide159.JPG","This is a dep:","",""
"","html-keyboard-response","485","871555","0.0-8.0-0.79","LF","et8whud6pz","1792","1120","en","er07el13","null","","","","learningBlock2","","","","This is a wug:","null","","","","",""
"","image-keyboard-response","486","871886","0.0-8.0-1.79","LF","et8whud6pz","1792","1120","en","er07el13","null","","","","","","","","learning/Slide160.JPG","null","","","","",""
