"success","trial_type","trial_index","time_elapsed","internal_node_id","condition","subject","screen_width","screen_height","language","codeword","rt","responses","url","view_history","test_part","final_height_px","final_width_px","scale_factor","stimulus","key_press","learningType","presentedImage","presentedLabel","button_pressed","response"
"true","fullscreen","0","2387","0.0-0.0","FL","0e2jb9zq47","1440","900","en","UAJIIN24","","","","","","","","","","","","","","",""
"","survey-html-form","1","3796","0.0-1.0","FL","0e2jb9zq47","1440","900","en","UAJIIN24","1407","{""language"":""en""}","","","","","","","","","","","","",""
"","external-html","2","5841","0.0-3.0-0.0","FL","0e2jb9zq47","1440","900","en","UAJIIN24","2042","","text/information_english.html","","","","","","","","","","","",""
"","external-html","3","23037","0.0-3.0-1.0","FL","0e2jb9zq47","1440","900","en","UAJIIN24","16549","","text/consent_english.html","","","","","","","","","","","",""
"","survey-html-form","4","73096","0.0-3.0-2.0","FL","0e2jb9zq47","1440","900","en","UAJIIN24","50057","{""codeword_enter"":""UAJIIN24""}","","","","","","","","","","","","",""
"","instructions","5","91549","0.0-4.0","FL","0e2jb9zq47","1440","900","en","UAJIIN24","NA","","","[{""page_index"":0,""viewing_time"":2587},{""page_index"":1,""viewing_time"":14360}]","instructions","","","","","","","","","",""
"","resize","6","176637","0.0-5.0","FL","0e2jb9zq47","1440","900","en","UAJIIN24","","","","","","","429","2.723809523809524","","","","","","",""
"","image-keyboard-response","7","176814","0.0-6.0-0.0","FL","0e2jb9zq47","1440","900","en","UAJIIN24","null","","","","","","","","learning/Slide1.JPG","null","","","","",""
"","html-keyboard-response","8","177971","0.0-6.0-1.0","FL","0e2jb9zq47","1440","900","en","UAJIIN24","null","","","","learningBlock1","","","","That was a tob.","null","","","","",""
"","html-keyboard-response","9","178973","0.0-6.0-2.0","FL","0e2jb9zq47","1440","900","en","UAJIIN24","null","","","","learningBlock1","","","","<div style=""font-size:60px;""> </div>","null","FL","learning/Slide1.JPG","That was a tob.","",""
"","image-keyboard-response","10","179150","0.0-6.0-0.1","FL","0e2jb9zq47","1440","900","en","UAJIIN24","null","","","","","","","","learning/Slide2.JPG","null","","","","",""
"","html-keyboard-response","11","180302","0.0-6.0-1.1","FL","0e2jb9zq47","1440","900","en","UAJIIN24","null","","","","learningBlock1","","","","That was a wug.","null","","","","",""
"","html-keyboard-response","12","181305","0.0-6.0-2.1","FL","0e2jb9zq47","1440","900","en","UAJIIN24","null","","","","learningBlock1","","","","<div style=""font-size:60px;""> </div>","null","FL","learning/Slide2.JPG","That was a wug.","",""
"","image-keyboard-response","13","181480","0.0-6.0-0.2","FL","0e2jb9zq47","1440","900","en","UAJIIN24","null","","","","","","","","learning/Slide3.JPG","null","","","","",""
"","html-keyboard-response","14","182632","0.0-6.0-1.2","FL","0e2jb9zq47","1440","900","en","UAJIIN24","null","","","","learningBlock1","","","","That was a bim.","null","","","","",""
"","html-keyboard-response","15","183634","0.0-6.0-2.2","FL","0e2jb9zq47","1440","900","en","UAJIIN24","null","","","","learningBlock1","","","","<div style=""font-size:60px;""> </div>","null","FL","learning/Slide3.JPG","That was a bim.","",""
"","image-keyboard-response","16","183811","0.0-6.0-0.3","FL","0e2jb9zq47","1440","900","en","UAJIIN24","null","","","","","","","","learning/Slide4.JPG","null","","","","",""
"","html-keyboard-response","17","184965","0.0-6.0-1.3","FL","0e2jb9zq47","1440","900","en","UAJIIN24","null","","","","learningBlock1","","","","That was a dep.","null","","","","",""
"","html-keyboard-response","18","185968","0.0-6.0-2.3","FL","0e2jb9zq47","1440","900","en","UAJIIN24","null","","","","learningBlock1","","","","<div style=""font-size:60px;""> </div>","null","FL","learning/Slide4.JPG","That was a dep.","",""
"","image-keyboard-response","19","186146","0.0-6.0-0.4","FL","0e2jb9zq47","1440","900","en","UAJIIN24","null","","","","","","","","learning/Slide5.JPG","null","","","","",""
"","html-keyboard-response","20","187298","0.0-6.0-1.4","FL","0e2jb9zq47","1440","900","en","UAJIIN24","null","","","","learningBlock1","","","","That was a wug.","null","","","","",""
"","html-keyboard-response","21","188304","0.0-6.0-2.4","FL","0e2jb9zq47","1440","900","en","UAJIIN24","null","","","","learningBlock1","","","","<div style=""font-size:60px;""> </div>","null","FL","learning/Slide5.JPG","That was a wug.","",""
"","image-keyboard-response","22","188480","0.0-6.0-0.5","FL","0e2jb9zq47","1440","900","en","UAJIIN24","null","","","","","","","","learning/Slide6.JPG","null","","","","",""
"","html-keyboard-response","23","189637","0.0-6.0-1.5","FL","0e2jb9zq47","1440","900","en","UAJIIN24","null","","","","learningBlock1","","","","That was a dep.","null","","","","",""
"","html-keyboard-response","24","190640","0.0-6.0-2.5","FL","0e2jb9zq47","1440","900","en","UAJIIN24","null","","","","learningBlock1","","","","<div style=""font-size:60px;""> </div>","null","FL","learning/Slide6.JPG","That was a dep.","",""
"","image-keyboard-response","25","190816","0.0-6.0-0.6","FL","0e2jb9zq47","1440","900","en","UAJIIN24","null","","","","","","","","learning/Slide7.JPG","null","","","","",""
"","html-keyboard-response","26","191971","0.0-6.0-1.6","FL","0e2jb9zq47","1440","900","en","UAJIIN24","null","","","","learningBlock1","","","","That was a wug.","null","","","","",""
"","html-keyboard-response","27","192974","0.0-6.0-2.6","FL","0e2jb9zq47","1440","900","en","UAJIIN24","null","","","","learningBlock1","","","","<div style=""font-size:60px;""> </div>","null","FL","learning/Slide7.JPG","That was a wug.","",""
"","image-keyboard-response","28","193149","0.0-6.0-0.7","FL","0e2jb9zq47","1440","900","en","UAJIIN24","null","","","","","","","","learning/Slide8.JPG","null","","","","",""
"","html-keyboard-response","29","194304","0.0-6.0-1.7","FL","0e2jb9zq47","1440","900","en","UAJIIN24","null","","","","learningBlock1","","","","That was a bim.","null","","","","",""
"","html-keyboard-response","30","195306","0.0-6.0-2.7","FL","0e2jb9zq47","1440","900","en","UAJIIN24","null","","","","learningBlock1","","","","<div style=""font-size:60px;""> </div>","null","FL","learning/Slide8.JPG","That was a bim.","",""
"","image-keyboard-response","31","195482","0.0-6.0-0.8","FL","0e2jb9zq47","1440","900","en","UAJIIN24","null","","","","","","","","learning/Slide9.JPG","null","","","","",""
"","html-keyboard-response","32","196637","0.0-6.0-1.8","FL","0e2jb9zq47","1440","900","en","UAJIIN24","null","","","","learningBlock1","","","","That was a wug.","null","","","","",""
"","html-keyboard-response","33","197640","0.0-6.0-2.8","FL","0e2jb9zq47","1440","900","en","UAJIIN24","null","","","","learningBlock1","","","","<div style=""font-size:60px;""> </div>","null","FL","learning/Slide9.JPG","That was a wug.","",""
"","image-keyboard-response","34","197819","0.0-6.0-0.9","FL","0e2jb9zq47","1440","900","en","UAJIIN24","null","","","","","","","","learning/Slide10.JPG","null","","","","",""
"","html-keyboard-response","35","198973","0.0-6.0-1.9","FL","0e2jb9zq47","1440","900","en","UAJIIN24","null","","","","learningBlock1","","","","That was a dep.","null","","","","",""
"","html-keyboard-response","36","199976","0.0-6.0-2.9","FL","0e2jb9zq47","1440","900","en","UAJIIN24","null","","","","learningBlock1","","","","<div style=""font-size:60px;""> </div>","null","FL","learning/Slide10.JPG","That was a dep.","",""
"","image-keyboard-response","37","200154","0.0-6.0-0.10","FL","0e2jb9zq47","1440","900","en","UAJIIN24","null","","","","","","","","learning/Slide11.JPG","null","","","","",""
"","html-keyboard-response","38","201309","0.0-6.0-1.10","FL","0e2jb9zq47","1440","900","en","UAJIIN24","null","","","","learningBlock1","","","","That was a tob.","null","","","","",""
"","html-keyboard-response","39","202311","0.0-6.0-2.10","FL","0e2jb9zq47","1440","900","en","UAJIIN24","null","","","","learningBlock1","","","","<div style=""font-size:60px;""> </div>","null","FL","learning/Slide11.JPG","That was a tob.","",""
"","image-keyboard-response","40","202488","0.0-6.0-0.11","FL","0e2jb9zq47","1440","900","en","UAJIIN24","null","","","","","","","","learning/Slide12.JPG","null","","","","",""
"","html-keyboard-response","41","203644","0.0-6.0-1.11","FL","0e2jb9zq47","1440","900","en","UAJIIN24","null","","","","learningBlock1","","","","That was a dep.","null","","","","",""
"","html-keyboard-response","42","204644","0.0-6.0-2.11","FL","0e2jb9zq47","1440","900","en","UAJIIN24","null","","","","learningBlock1","","","","<div style=""font-size:60px;""> </div>","null","FL","learning/Slide12.JPG","That was a dep.","",""
"","image-keyboard-response","43","204823","0.0-6.0-0.12","FL","0e2jb9zq47","1440","900","en","UAJIIN24","null","","","","","","","","learning/Slide13.JPG","null","","","","",""
"","html-keyboard-response","44","205978","0.0-6.0-1.12","FL","0e2jb9zq47","1440","900","en","UAJIIN24","null","","","","learningBlock1","","","","That was a bim.","null","","","","",""
"","html-keyboard-response","45","206981","0.0-6.0-2.12","FL","0e2jb9zq47","1440","900","en","UAJIIN24","null","","","","learningBlock1","","","","<div style=""font-size:60px;""> </div>","null","FL","learning/Slide13.JPG","That was a bim.","",""
"","image-keyboard-response","46","207159","0.0-6.0-0.13","FL","0e2jb9zq47","1440","900","en","UAJIIN24","null","","","","","","","","learning/Slide14.JPG","null","","","","",""
"","html-keyboard-response","47","208314","0.0-6.0-1.13","FL","0e2jb9zq47","1440","900","en","UAJIIN24","null","","","","learningBlock1","","","","That was a wug.","null","","","","",""
"","html-keyboard-response","48","209316","0.0-6.0-2.13","FL","0e2jb9zq47","1440","900","en","UAJIIN24","null","","","","learningBlock1","","","","<div style=""font-size:60px;""> </div>","null","FL","learning/Slide14.JPG","That was a wug.","",""
"","image-keyboard-response","49","209493","0.0-6.0-0.14","FL","0e2jb9zq47","1440","900","en","UAJIIN24","null","","","","","","","","learning/Slide15.JPG","null","","","","",""
"","html-keyboard-response","50","210650","0.0-6.0-1.14","FL","0e2jb9zq47","1440","900","en","UAJIIN24","null","","","","learningBlock1","","","","That was a tob.","null","","","","",""
"","html-keyboard-response","51","211653","0.0-6.0-2.14","FL","0e2jb9zq47","1440","900","en","UAJIIN24","null","","","","learningBlock1","","","","<div style=""font-size:60px;""> </div>","null","FL","learning/Slide15.JPG","That was a tob.","",""
"","image-keyboard-response","52","211832","0.0-6.0-0.15","FL","0e2jb9zq47","1440","900","en","UAJIIN24","null","","","","","","","","learning/Slide16.JPG","null","","","","",""
"","html-keyboard-response","53","212983","0.0-6.0-1.15","FL","0e2jb9zq47","1440","900","en","UAJIIN24","null","","","","learningBlock1","","","","That was a dep.","null","","","","",""
"","html-keyboard-response","54","213986","0.0-6.0-2.15","FL","0e2jb9zq47","1440","900","en","UAJIIN24","null","","","","learningBlock1","","","","<div style=""font-size:60px;""> </div>","null","FL","learning/Slide16.JPG","That was a dep.","",""
"","image-keyboard-response","55","214161","0.0-6.0-0.16","FL","0e2jb9zq47","1440","900","en","UAJIIN24","null","","","","","","","","learning/Slide17.JPG","null","","","","",""
"","html-keyboard-response","56","215316","0.0-6.0-1.16","FL","0e2jb9zq47","1440","900","en","UAJIIN24","null","","","","learningBlock1","","","","That was a bim.","null","","","","",""
"","html-keyboard-response","57","216318","0.0-6.0-2.16","FL","0e2jb9zq47","1440","900","en","UAJIIN24","null","","","","learningBlock1","","","","<div style=""font-size:60px;""> </div>","null","FL","learning/Slide17.JPG","That was a bim.","",""
"","image-keyboard-response","58","216495","0.0-6.0-0.17","FL","0e2jb9zq47","1440","900","en","UAJIIN24","null","","","","","","","","learning/Slide18.JPG","null","","","","",""
"","html-keyboard-response","59","217650","0.0-6.0-1.17","FL","0e2jb9zq47","1440","900","en","UAJIIN24","null","","","","learningBlock1","","","","That was a tob.","null","","","","",""
"","html-keyboard-response","60","218652","0.0-6.0-2.17","FL","0e2jb9zq47","1440","900","en","UAJIIN24","null","","","","learningBlock1","","","","<div style=""font-size:60px;""> </div>","null","FL","learning/Slide18.JPG","That was a tob.","",""
"","image-keyboard-response","61","218831","0.0-6.0-0.18","FL","0e2jb9zq47","1440","900","en","UAJIIN24","null","","","","","","","","learning/Slide19.JPG","null","","","","",""
"","html-keyboard-response","62","219986","0.0-6.0-1.18","FL","0e2jb9zq47","1440","900","en","UAJIIN24","null","","","","learningBlock1","","","","That was a wug.","null","","","","",""
"","html-keyboard-response","63","220989","0.0-6.0-2.18","FL","0e2jb9zq47","1440","900","en","UAJIIN24","null","","","","learningBlock1","","","","<div style=""font-size:60px;""> </div>","null","FL","learning/Slide19.JPG","That was a wug.","",""
"","image-keyboard-response","64","221164","0.0-6.0-0.19","FL","0e2jb9zq47","1440","900","en","UAJIIN24","null","","","","","","","","learning/Slide20.JPG","null","","","","",""
"","html-keyboard-response","65","222317","0.0-6.0-1.19","FL","0e2jb9zq47","1440","900","en","UAJIIN24","null","","","","learningBlock1","","","","That was a bim.","null","","","","",""
"","html-keyboard-response","66","223319","0.0-6.0-2.19","FL","0e2jb9zq47","1440","900","en","UAJIIN24","null","","","","learningBlock1","","","","<div style=""font-size:60px;""> </div>","null","FL","learning/Slide20.JPG","That was a bim.","",""
"","image-keyboard-response","67","223496","0.0-6.0-0.20","FL","0e2jb9zq47","1440","900","en","UAJIIN24","null","","","","","","","","learning/Slide21.JPG","null","","","","",""
"","html-keyboard-response","68","224649","0.0-6.0-1.20","FL","0e2jb9zq47","1440","900","en","UAJIIN24","null","","","","learningBlock1","","","","That was a dep.","null","","","","",""
"","html-keyboard-response","69","225654","0.0-6.0-2.20","FL","0e2jb9zq47","1440","900","en","UAJIIN24","null","","","","learningBlock1","","","","<div style=""font-size:60px;""> </div>","null","FL","learning/Slide21.JPG","That was a dep.","",""
"","image-keyboard-response","70","225833","0.0-6.0-0.21","FL","0e2jb9zq47","1440","900","en","UAJIIN24","null","","","","","","","","learning/Slide22.JPG","null","","","","",""
"","html-keyboard-response","71","226987","0.0-6.0-1.21","FL","0e2jb9zq47","1440","900","en","UAJIIN24","null","","","","learningBlock1","","","","That was a bim.","null","","","","",""
"","html-keyboard-response","72","227990","0.0-6.0-2.21","FL","0e2jb9zq47","1440","900","en","UAJIIN24","null","","","","learningBlock1","","","","<div style=""font-size:60px;""> </div>","null","FL","learning/Slide22.JPG","That was a bim.","",""
"","image-keyboard-response","73","228167","0.0-6.0-0.22","FL","0e2jb9zq47","1440","900","en","UAJIIN24","null","","","","","","","","learning/Slide23.JPG","null","","","","",""
"","html-keyboard-response","74","229322","0.0-6.0-1.22","FL","0e2jb9zq47","1440","900","en","UAJIIN24","null","","","","learningBlock1","","","","That was a tob.","null","","","","",""
"","html-keyboard-response","75","230326","0.0-6.0-2.22","FL","0e2jb9zq47","1440","900","en","UAJIIN24","null","","","","learningBlock1","","","","<div style=""font-size:60px;""> </div>","null","FL","learning/Slide23.JPG","That was a tob.","",""
"","image-keyboard-response","76","230502","0.0-6.0-0.23","FL","0e2jb9zq47","1440","900","en","UAJIIN24","null","","","","","","","","learning/Slide24.JPG","null","","","","",""
"","html-keyboard-response","77","231661","0.0-6.0-1.23","FL","0e2jb9zq47","1440","900","en","UAJIIN24","null","","","","learningBlock1","","","","That was a wug.","null","","","","",""
"","html-keyboard-response","78","232665","0.0-6.0-2.23","FL","0e2jb9zq47","1440","900","en","UAJIIN24","null","","","","learningBlock1","","","","<div style=""font-size:60px;""> </div>","null","FL","learning/Slide24.JPG","That was a wug.","",""
"","image-keyboard-response","79","232845","0.0-6.0-0.24","FL","0e2jb9zq47","1440","900","en","UAJIIN24","null","","","","","","","","learning/Slide25.JPG","null","","","","",""
"","html-keyboard-response","80","234001","0.0-6.0-1.24","FL","0e2jb9zq47","1440","900","en","UAJIIN24","null","","","","learningBlock1","","","","That was a dep.","null","","","","",""
"","html-keyboard-response","81","235005","0.0-6.0-2.24","FL","0e2jb9zq47","1440","900","en","UAJIIN24","null","","","","learningBlock1","","","","<div style=""font-size:60px;""> </div>","null","FL","learning/Slide25.JPG","That was a dep.","",""
"","image-keyboard-response","82","235181","0.0-6.0-0.25","FL","0e2jb9zq47","1440","900","en","UAJIIN24","null","","","","","","","","learning/Slide26.JPG","null","","","","",""
"","html-keyboard-response","83","236340","0.0-6.0-1.25","FL","0e2jb9zq47","1440","900","en","UAJIIN24","null","","","","learningBlock1","","","","That was a wug.","null","","","","",""
"","html-keyboard-response","84","237343","0.0-6.0-2.25","FL","0e2jb9zq47","1440","900","en","UAJIIN24","null","","","","learningBlock1","","","","<div style=""font-size:60px;""> </div>","null","FL","learning/Slide26.JPG","That was a wug.","",""
"","image-keyboard-response","85","237522","0.0-6.0-0.26","FL","0e2jb9zq47","1440","900","en","UAJIIN24","null","","","","","","","","learning/Slide27.JPG","null","","","","",""
"","html-keyboard-response","86","238680","0.0-6.0-1.26","FL","0e2jb9zq47","1440","900","en","UAJIIN24","null","","","","learningBlock1","","","","That was a bim.","null","","","","",""
"","html-keyboard-response","87","239682","0.0-6.0-2.26","FL","0e2jb9zq47","1440","900","en","UAJIIN24","null","","","","learningBlock1","","","","<div style=""font-size:60px;""> </div>","null","FL","learning/Slide27.JPG","That was a bim.","",""
"","image-keyboard-response","88","239859","0.0-6.0-0.27","FL","0e2jb9zq47","1440","900","en","UAJIIN24","null","","","","","","","","learning/Slide28.JPG","null","","","","",""
"","html-keyboard-response","89","241013","0.0-6.0-1.27","FL","0e2jb9zq47","1440","900","en","UAJIIN24","null","","","","learningBlock1","","","","That was a dep.","null","","","","",""
"","html-keyboard-response","90","242017","0.0-6.0-2.27","FL","0e2jb9zq47","1440","900","en","UAJIIN24","null","","","","learningBlock1","","","","<div style=""font-size:60px;""> </div>","null","FL","learning/Slide28.JPG","That was a dep.","",""
"","image-keyboard-response","91","242196","0.0-6.0-0.28","FL","0e2jb9zq47","1440","900","en","UAJIIN24","null","","","","","","","","learning/Slide29.JPG","null","","","","",""
"","html-keyboard-response","92","243349","0.0-6.0-1.28","FL","0e2jb9zq47","1440","900","en","UAJIIN24","null","","","","learningBlock1","","","","That was a tob.","null","","","","",""
"","html-keyboard-response","93","244352","0.0-6.0-2.28","FL","0e2jb9zq47","1440","900","en","UAJIIN24","null","","","","learningBlock1","","","","<div style=""font-size:60px;""> </div>","null","FL","learning/Slide29.JPG","That was a tob.","",""
"","image-keyboard-response","94","244527","0.0-6.0-0.29","FL","0e2jb9zq47","1440","900","en","UAJIIN24","null","","","","","","","","learning/Slide30.JPG","null","","","","",""
"","html-keyboard-response","95","245683","0.0-6.0-1.29","FL","0e2jb9zq47","1440","900","en","UAJIIN24","null","","","","learningBlock1","","","","That was a dep.","null","","","","",""
"","html-keyboard-response","96","246686","0.0-6.0-2.29","FL","0e2jb9zq47","1440","900","en","UAJIIN24","null","","","","learningBlock1","","","","<div style=""font-size:60px;""> </div>","null","FL","learning/Slide30.JPG","That was a dep.","",""
"","image-keyboard-response","97","246865","0.0-6.0-0.30","FL","0e2jb9zq47","1440","900","en","UAJIIN24","null","","","","","","","","learning/Slide31.JPG","null","","","","",""
"","html-keyboard-response","98","248017","0.0-6.0-1.30","FL","0e2jb9zq47","1440","900","en","UAJIIN24","null","","","","learningBlock1","","","","That was a wug.","null","","","","",""
"","html-keyboard-response","99","249020","0.0-6.0-2.30","FL","0e2jb9zq47","1440","900","en","UAJIIN24","null","","","","learningBlock1","","","","<div style=""font-size:60px;""> </div>","null","FL","learning/Slide31.JPG","That was a wug.","",""
"","image-keyboard-response","100","249196","0.0-6.0-0.31","FL","0e2jb9zq47","1440","900","en","UAJIIN24","null","","","","","","","","learning/Slide32.JPG","null","","","","",""
"","html-keyboard-response","101","250351","0.0-6.0-1.31","FL","0e2jb9zq47","1440","900","en","UAJIIN24","null","","","","learningBlock1","","","","That was a tob.","null","","","","",""
"","html-keyboard-response","102","251355","0.0-6.0-2.31","FL","0e2jb9zq47","1440","900","en","UAJIIN24","null","","","","learningBlock1","","","","<div style=""font-size:60px;""> </div>","null","FL","learning/Slide32.JPG","That was a tob.","",""
"","image-keyboard-response","103","251532","0.0-6.0-0.32","FL","0e2jb9zq47","1440","900","en","UAJIIN24","null","","","","","","","","learning/Slide33.JPG","null","","","","",""
"","html-keyboard-response","104","252685","0.0-6.0-1.32","FL","0e2jb9zq47","1440","900","en","UAJIIN24","null","","","","learningBlock1","","","","That was a bim.","null","","","","",""
"","html-keyboard-response","105","253689","0.0-6.0-2.32","FL","0e2jb9zq47","1440","900","en","UAJIIN24","null","","","","learningBlock1","","","","<div style=""font-size:60px;""> </div>","null","FL","learning/Slide33.JPG","That was a bim.","",""
"","image-keyboard-response","106","253870","0.0-6.0-0.33","FL","0e2jb9zq47","1440","900","en","UAJIIN24","null","","","","","","","","learning/Slide34.JPG","null","","","","",""
"","html-keyboard-response","107","255022","0.0-6.0-1.33","FL","0e2jb9zq47","1440","900","en","UAJIIN24","null","","","","learningBlock1","","","","That was a tob.","null","","","","",""
"","html-keyboard-response","108","256024","0.0-6.0-2.33","FL","0e2jb9zq47","1440","900","en","UAJIIN24","null","","","","learningBlock1","","","","<div style=""font-size:60px;""> </div>","null","FL","learning/Slide34.JPG","That was a tob.","",""
"","image-keyboard-response","109","256202","0.0-6.0-0.34","FL","0e2jb9zq47","1440","900","en","UAJIIN24","null","","","","","","","","learning/Slide35.JPG","null","","","","",""
"","html-keyboard-response","110","257355","0.0-6.0-1.34","FL","0e2jb9zq47","1440","900","en","UAJIIN24","null","","","","learningBlock1","","","","That was a bim.","null","","","","",""
"","html-keyboard-response","111","258358","0.0-6.0-2.34","FL","0e2jb9zq47","1440","900","en","UAJIIN24","null","","","","learningBlock1","","","","<div style=""font-size:60px;""> </div>","null","FL","learning/Slide35.JPG","That was a bim.","",""
"","image-keyboard-response","112","258535","0.0-6.0-0.35","FL","0e2jb9zq47","1440","900","en","UAJIIN24","null","","","","","","","","learning/Slide36.JPG","null","","","","",""
"","html-keyboard-response","113","259687","0.0-6.0-1.35","FL","0e2jb9zq47","1440","900","en","UAJIIN24","null","","","","learningBlock1","","","","That was a dep.","null","","","","",""
"","html-keyboard-response","114","260692","0.0-6.0-2.35","FL","0e2jb9zq47","1440","900","en","UAJIIN24","null","","","","learningBlock1","","","","<div style=""font-size:60px;""> </div>","null","FL","learning/Slide36.JPG","That was a dep.","",""
"","image-keyboard-response","115","260868","0.0-6.0-0.36","FL","0e2jb9zq47","1440","900","en","UAJIIN24","null","","","","","","","","learning/Slide37.JPG","null","","","","",""
"","html-keyboard-response","116","262022","0.0-6.0-1.36","FL","0e2jb9zq47","1440","900","en","UAJIIN24","null","","","","learningBlock1","","","","That was a tob.","null","","","","",""
"","html-keyboard-response","117","263025","0.0-6.0-2.36","FL","0e2jb9zq47","1440","900","en","UAJIIN24","null","","","","learningBlock1","","","","<div style=""font-size:60px;""> </div>","null","FL","learning/Slide37.JPG","That was a tob.","",""
"","image-keyboard-response","118","263202","0.0-6.0-0.37","FL","0e2jb9zq47","1440","900","en","UAJIIN24","null","","","","","","","","learning/Slide38.JPG","null","","","","",""
"","html-keyboard-response","119","264356","0.0-6.0-1.37","FL","0e2jb9zq47","1440","900","en","UAJIIN24","null","","","","learningBlock1","","","","That was a wug.","null","","","","",""
"","html-keyboard-response","120","265359","0.0-6.0-2.37","FL","0e2jb9zq47","1440","900","en","UAJIIN24","null","","","","learningBlock1","","","","<div style=""font-size:60px;""> </div>","null","FL","learning/Slide38.JPG","That was a wug.","",""
"","image-keyboard-response","121","265535","0.0-6.0-0.38","FL","0e2jb9zq47","1440","900","en","UAJIIN24","null","","","","","","","","learning/Slide39.JPG","null","","","","",""
"","html-keyboard-response","122","266690","0.0-6.0-1.38","FL","0e2jb9zq47","1440","900","en","UAJIIN24","null","","","","learningBlock1","","","","That was a bim.","null","","","","",""
"","html-keyboard-response","123","267693","0.0-6.0-2.38","FL","0e2jb9zq47","1440","900","en","UAJIIN24","null","","","","learningBlock1","","","","<div style=""font-size:60px;""> </div>","null","FL","learning/Slide39.JPG","That was a bim.","",""
"","image-keyboard-response","124","267868","0.0-6.0-0.39","FL","0e2jb9zq47","1440","900","en","UAJIIN24","null","","","","","","","","learning/Slide40.JPG","null","","","","",""
"","html-keyboard-response","125","269024","0.0-6.0-1.39","FL","0e2jb9zq47","1440","900","en","UAJIIN24","null","","","","learningBlock1","","","","That was a tob.","null","","","","",""
"","html-keyboard-response","126","270025","0.0-6.0-2.39","FL","0e2jb9zq47","1440","900","en","UAJIIN24","null","","","","learningBlock1","","","","<div style=""font-size:60px;""> </div>","null","FL","learning/Slide40.JPG","That was a tob.","",""
"","image-keyboard-response","127","270202","0.0-6.0-0.40","FL","0e2jb9zq47","1440","900","en","UAJIIN24","null","","","","","","","","learning/Slide41.JPG","null","","","","",""
"","html-keyboard-response","128","271355","0.0-6.0-1.40","FL","0e2jb9zq47","1440","900","en","UAJIIN24","null","","","","learningBlock1","","","","That was a bim.","null","","","","",""
"","html-keyboard-response","129","272357","0.0-6.0-2.40","FL","0e2jb9zq47","1440","900","en","UAJIIN24","null","","","","learningBlock1","","","","<div style=""font-size:60px;""> </div>","null","FL","learning/Slide41.JPG","That was a bim.","",""
"","image-keyboard-response","130","272535","0.0-6.0-0.41","FL","0e2jb9zq47","1440","900","en","UAJIIN24","null","","","","","","","","learning/Slide42.JPG","null","","","","",""
"","html-keyboard-response","131","273690","0.0-6.0-1.41","FL","0e2jb9zq47","1440","900","en","UAJIIN24","null","","","","learningBlock1","","","","That was a dep.","null","","","","",""
"","html-keyboard-response","132","274692","0.0-6.0-2.41","FL","0e2jb9zq47","1440","900","en","UAJIIN24","null","","","","learningBlock1","","","","<div style=""font-size:60px;""> </div>","null","FL","learning/Slide42.JPG","That was a dep.","",""
"","image-keyboard-response","133","274871","0.0-6.0-0.42","FL","0e2jb9zq47","1440","900","en","UAJIIN24","null","","","","","","","","learning/Slide43.JPG","null","","","","",""
"","html-keyboard-response","134","276026","0.0-6.0-1.42","FL","0e2jb9zq47","1440","900","en","UAJIIN24","null","","","","learningBlock1","","","","That was a wug.","null","","","","",""
"","html-keyboard-response","135","277031","0.0-6.0-2.42","FL","0e2jb9zq47","1440","900","en","UAJIIN24","null","","","","learningBlock1","","","","<div style=""font-size:60px;""> </div>","null","FL","learning/Slide43.JPG","That was a wug.","",""
"","image-keyboard-response","136","277210","0.0-6.0-0.43","FL","0e2jb9zq47","1440","900","en","UAJIIN24","null","","","","","","","","learning/Slide44.JPG","null","","","","",""
"","html-keyboard-response","137","278365","0.0-6.0-1.43","FL","0e2jb9zq47","1440","900","en","UAJIIN24","null","","","","learningBlock1","","","","That was a bim.","null","","","","",""
"","html-keyboard-response","138","279370","0.0-6.0-2.43","FL","0e2jb9zq47","1440","900","en","UAJIIN24","null","","","","learningBlock1","","","","<div style=""font-size:60px;""> </div>","null","FL","learning/Slide44.JPG","That was a bim.","",""
"","image-keyboard-response","139","279546","0.0-6.0-0.44","FL","0e2jb9zq47","1440","900","en","UAJIIN24","null","","","","","","","","learning/Slide45.JPG","null","","","","",""
"","html-keyboard-response","140","280698","0.0-6.0-1.44","FL","0e2jb9zq47","1440","900","en","UAJIIN24","null","","","","learningBlock1","","","","That was a wug.","null","","","","",""
"","html-keyboard-response","141","281702","0.0-6.0-2.44","FL","0e2jb9zq47","1440","900","en","UAJIIN24","null","","","","learningBlock1","","","","<div style=""font-size:60px;""> </div>","null","FL","learning/Slide45.JPG","That was a wug.","",""
"","image-keyboard-response","142","281879","0.0-6.0-0.45","FL","0e2jb9zq47","1440","900","en","UAJIIN24","null","","","","","","","","learning/Slide46.JPG","null","","","","",""
"","html-keyboard-response","143","283031","0.0-6.0-1.45","FL","0e2jb9zq47","1440","900","en","UAJIIN24","null","","","","learningBlock1","","","","That was a dep.","null","","","","",""
"","html-keyboard-response","144","284034","0.0-6.0-2.45","FL","0e2jb9zq47","1440","900","en","UAJIIN24","null","","","","learningBlock1","","","","<div style=""font-size:60px;""> </div>","null","FL","learning/Slide46.JPG","That was a dep.","",""
"","image-keyboard-response","145","284213","0.0-6.0-0.46","FL","0e2jb9zq47","1440","900","en","UAJIIN24","null","","","","","","","","learning/Slide47.JPG","null","","","","",""
"","html-keyboard-response","146","285365","0.0-6.0-1.46","FL","0e2jb9zq47","1440","900","en","UAJIIN24","null","","","","learningBlock1","","","","That was a tob.","null","","","","",""
"","html-keyboard-response","147","286367","0.0-6.0-2.46","FL","0e2jb9zq47","1440","900","en","UAJIIN24","null","","","","learningBlock1","","","","<div style=""font-size:60px;""> </div>","null","FL","learning/Slide47.JPG","That was a tob.","",""
"","image-keyboard-response","148","286543","0.0-6.0-0.47","FL","0e2jb9zq47","1440","900","en","UAJIIN24","null","","","","","","","","learning/Slide48.JPG","null","","","","",""
"","html-keyboard-response","149","287698","0.0-6.0-1.47","FL","0e2jb9zq47","1440","900","en","UAJIIN24","null","","","","learningBlock1","","","","That was a bim.","null","","","","",""
"","html-keyboard-response","150","288701","0.0-6.0-2.47","FL","0e2jb9zq47","1440","900","en","UAJIIN24","null","","","","learningBlock1","","","","<div style=""font-size:60px;""> </div>","null","FL","learning/Slide48.JPG","That was a bim.","",""
"","image-keyboard-response","151","288877","0.0-6.0-0.48","FL","0e2jb9zq47","1440","900","en","UAJIIN24","null","","","","","","","","learning/Slide49.JPG","null","","","","",""
"","html-keyboard-response","152","290032","0.0-6.0-1.48","FL","0e2jb9zq47","1440","900","en","UAJIIN24","null","","","","learningBlock1","","","","That was a dep.","null","","","","",""
"","html-keyboard-response","153","291034","0.0-6.0-2.48","FL","0e2jb9zq47","1440","900","en","UAJIIN24","null","","","","learningBlock1","","","","<div style=""font-size:60px;""> </div>","null","FL","learning/Slide49.JPG","That was a dep.","",""
"","image-keyboard-response","154","291213","0.0-6.0-0.49","FL","0e2jb9zq47","1440","900","en","UAJIIN24","null","","","","","","","","learning/Slide50.JPG","null","","","","",""
"","html-keyboard-response","155","292368","0.0-6.0-1.49","FL","0e2jb9zq47","1440","900","en","UAJIIN24","null","","","","learningBlock1","","","","That was a tob.","null","","","","",""
"","html-keyboard-response","156","293370","0.0-6.0-2.49","FL","0e2jb9zq47","1440","900","en","UAJIIN24","null","","","","learningBlock1","","","","<div style=""font-size:60px;""> </div>","null","FL","learning/Slide50.JPG","That was a tob.","",""
"","image-keyboard-response","157","293546","0.0-6.0-0.50","FL","0e2jb9zq47","1440","900","en","UAJIIN24","null","","","","","","","","learning/Slide51.JPG","null","","","","",""
"","html-keyboard-response","158","294701","0.0-6.0-1.50","FL","0e2jb9zq47","1440","900","en","UAJIIN24","null","","","","learningBlock1","","","","That was a bim.","null","","","","",""
"","html-keyboard-response","159","295707","0.0-6.0-2.50","FL","0e2jb9zq47","1440","900","en","UAJIIN24","null","","","","learningBlock1","","","","<div style=""font-size:60px;""> </div>","null","FL","learning/Slide51.JPG","That was a bim.","",""
"","image-keyboard-response","160","295882","0.0-6.0-0.51","FL","0e2jb9zq47","1440","900","en","UAJIIN24","null","","","","","","","","learning/Slide52.JPG","null","","","","",""
"","html-keyboard-response","161","297039","0.0-6.0-1.51","FL","0e2jb9zq47","1440","900","en","UAJIIN24","null","","","","learningBlock1","","","","That was a wug.","null","","","","",""
"","html-keyboard-response","162","298040","0.0-6.0-2.51","FL","0e2jb9zq47","1440","900","en","UAJIIN24","null","","","","learningBlock1","","","","<div style=""font-size:60px;""> </div>","null","FL","learning/Slide52.JPG","That was a wug.","",""
"","image-keyboard-response","163","298218","0.0-6.0-0.52","FL","0e2jb9zq47","1440","900","en","UAJIIN24","null","","","","","","","","learning/Slide53.JPG","null","","","","",""
"","html-keyboard-response","164","299370","0.0-6.0-1.52","FL","0e2jb9zq47","1440","900","en","UAJIIN24","null","","","","learningBlock1","","","","That was a tob.","null","","","","",""
"","html-keyboard-response","165","300373","0.0-6.0-2.52","FL","0e2jb9zq47","1440","900","en","UAJIIN24","null","","","","learningBlock1","","","","<div style=""font-size:60px;""> </div>","null","FL","learning/Slide53.JPG","That was a tob.","",""
"","image-keyboard-response","166","300548","0.0-6.0-0.53","FL","0e2jb9zq47","1440","900","en","UAJIIN24","null","","","","","","","","learning/Slide54.JPG","null","","","","",""
"","html-keyboard-response","167","301701","0.0-6.0-1.53","FL","0e2jb9zq47","1440","900","en","UAJIIN24","null","","","","learningBlock1","","","","That was a dep.","null","","","","",""
"","html-keyboard-response","168","302703","0.0-6.0-2.53","FL","0e2jb9zq47","1440","900","en","UAJIIN24","null","","","","learningBlock1","","","","<div style=""font-size:60px;""> </div>","null","FL","learning/Slide54.JPG","That was a dep.","",""
"","image-keyboard-response","169","302882","0.0-6.0-0.54","FL","0e2jb9zq47","1440","900","en","UAJIIN24","null","","","","","","","","learning/Slide55.JPG","null","","","","",""
"","html-keyboard-response","170","304037","0.0-6.0-1.54","FL","0e2jb9zq47","1440","900","en","UAJIIN24","null","","","","learningBlock1","","","","That was a bim.","null","","","","",""
"","html-keyboard-response","171","305039","0.0-6.0-2.54","FL","0e2jb9zq47","1440","900","en","UAJIIN24","null","","","","learningBlock1","","","","<div style=""font-size:60px;""> </div>","null","FL","learning/Slide55.JPG","That was a bim.","",""
"","image-keyboard-response","172","305215","0.0-6.0-0.55","FL","0e2jb9zq47","1440","900","en","UAJIIN24","null","","","","","","","","learning/Slide56.JPG","null","","","","",""
"","html-keyboard-response","173","306372","0.0-6.0-1.55","FL","0e2jb9zq47","1440","900","en","UAJIIN24","null","","","","learningBlock1","","","","That was a tob.","null","","","","",""
"","html-keyboard-response","174","307375","0.0-6.0-2.55","FL","0e2jb9zq47","1440","900","en","UAJIIN24","null","","","","learningBlock1","","","","<div style=""font-size:60px;""> </div>","null","FL","learning/Slide56.JPG","That was a tob.","",""
"","image-keyboard-response","175","307551","0.0-6.0-0.56","FL","0e2jb9zq47","1440","900","en","UAJIIN24","null","","","","","","","","learning/Slide57.JPG","null","","","","",""
"","html-keyboard-response","176","308705","0.0-6.0-1.56","FL","0e2jb9zq47","1440","900","en","UAJIIN24","null","","","","learningBlock1","","","","That was a dep.","null","","","","",""
"","html-keyboard-response","177","309708","0.0-6.0-2.56","FL","0e2jb9zq47","1440","900","en","UAJIIN24","null","","","","learningBlock1","","","","<div style=""font-size:60px;""> </div>","null","FL","learning/Slide57.JPG","That was a dep.","",""
"","image-keyboard-response","178","309884","0.0-6.0-0.57","FL","0e2jb9zq47","1440","900","en","UAJIIN24","null","","","","","","","","learning/Slide58.JPG","null","","","","",""
"","html-keyboard-response","179","311039","0.0-6.0-1.57","FL","0e2jb9zq47","1440","900","en","UAJIIN24","null","","","","learningBlock1","","","","That was a wug.","null","","","","",""
"","html-keyboard-response","180","312042","0.0-6.0-2.57","FL","0e2jb9zq47","1440","900","en","UAJIIN24","null","","","","learningBlock1","","","","<div style=""font-size:60px;""> </div>","null","FL","learning/Slide58.JPG","That was a wug.","",""
"","image-keyboard-response","181","312217","0.0-6.0-0.58","FL","0e2jb9zq47","1440","900","en","UAJIIN24","null","","","","","","","","learning/Slide59.JPG","null","","","","",""
"","html-keyboard-response","182","313370","0.0-6.0-1.58","FL","0e2jb9zq47","1440","900","en","UAJIIN24","null","","","","learningBlock1","","","","That was a dep.","null","","","","",""
"","html-keyboard-response","183","314375","0.0-6.0-2.58","FL","0e2jb9zq47","1440","900","en","UAJIIN24","null","","","","learningBlock1","","","","<div style=""font-size:60px;""> </div>","null","FL","learning/Slide59.JPG","That was a dep.","",""
"","image-keyboard-response","184","314551","0.0-6.0-0.59","FL","0e2jb9zq47","1440","900","en","UAJIIN24","null","","","","","","","","learning/Slide60.JPG","null","","","","",""
"","html-keyboard-response","185","315708","0.0-6.0-1.59","FL","0e2jb9zq47","1440","900","en","UAJIIN24","null","","","","learningBlock1","","","","That was a wug.","null","","","","",""
"","html-keyboard-response","186","316711","0.0-6.0-2.59","FL","0e2jb9zq47","1440","900","en","UAJIIN24","null","","","","learningBlock1","","","","<div style=""font-size:60px;""> </div>","null","FL","learning/Slide60.JPG","That was a wug.","",""
"","image-keyboard-response","187","316887","0.0-6.0-0.60","FL","0e2jb9zq47","1440","900","en","UAJIIN24","null","","","","","","","","learning/Slide61.JPG","null","","","","",""
"","html-keyboard-response","188","318042","0.0-6.0-1.60","FL","0e2jb9zq47","1440","900","en","UAJIIN24","null","","","","learningBlock1","","","","That was a bim.","null","","","","",""
"","html-keyboard-response","189","319044","0.0-6.0-2.60","FL","0e2jb9zq47","1440","900","en","UAJIIN24","null","","","","learningBlock1","","","","<div style=""font-size:60px;""> </div>","null","FL","learning/Slide61.JPG","That was a bim.","",""
"","image-keyboard-response","190","319221","0.0-6.0-0.61","FL","0e2jb9zq47","1440","900","en","UAJIIN24","null","","","","","","","","learning/Slide62.JPG","null","","","","",""
"","html-keyboard-response","191","320378","0.0-6.0-1.61","FL","0e2jb9zq47","1440","900","en","UAJIIN24","null","","","","learningBlock1","","","","That was a dep.","null","","","","",""
"","html-keyboard-response","192","321380","0.0-6.0-2.61","FL","0e2jb9zq47","1440","900","en","UAJIIN24","null","","","","learningBlock1","","","","<div style=""font-size:60px;""> </div>","null","FL","learning/Slide62.JPG","That was a dep.","",""
"","image-keyboard-response","193","321560","0.0-6.0-0.62","FL","0e2jb9zq47","1440","900","en","UAJIIN24","null","","","","","","","","learning/Slide63.JPG","null","","","","",""
"","html-keyboard-response","194","322714","0.0-6.0-1.62","FL","0e2jb9zq47","1440","900","en","UAJIIN24","null","","","","learningBlock1","","","","That was a bim.","null","","","","",""
"","html-keyboard-response","195","323719","0.0-6.0-2.62","FL","0e2jb9zq47","1440","900","en","UAJIIN24","null","","","","learningBlock1","","","","<div style=""font-size:60px;""> </div>","null","FL","learning/Slide63.JPG","That was a bim.","",""
"","image-keyboard-response","196","323894","0.0-6.0-0.63","FL","0e2jb9zq47","1440","900","en","UAJIIN24","null","","","","","","","","learning/Slide64.JPG","null","","","","",""
"","html-keyboard-response","197","325047","0.0-6.0-1.63","FL","0e2jb9zq47","1440","900","en","UAJIIN24","null","","","","learningBlock1","","","","That was a tob.","null","","","","",""
"","html-keyboard-response","198","326053","0.0-6.0-2.63","FL","0e2jb9zq47","1440","900","en","UAJIIN24","null","","","","learningBlock1","","","","<div style=""font-size:60px;""> </div>","null","FL","learning/Slide64.JPG","That was a tob.","",""
"","image-keyboard-response","199","326230","0.0-6.0-0.64","FL","0e2jb9zq47","1440","900","en","UAJIIN24","null","","","","","","","","learning/Slide65.JPG","null","","","","",""
"","html-keyboard-response","200","327385","0.0-6.0-1.64","FL","0e2jb9zq47","1440","900","en","UAJIIN24","null","","","","learningBlock1","","","","That was a wug.","null","","","","",""
"","html-keyboard-response","201","328388","0.0-6.0-2.64","FL","0e2jb9zq47","1440","900","en","UAJIIN24","null","","","","learningBlock1","","","","<div style=""font-size:60px;""> </div>","null","FL","learning/Slide65.JPG","That was a wug.","",""
"","image-keyboard-response","202","328564","0.0-6.0-0.65","FL","0e2jb9zq47","1440","900","en","UAJIIN24","null","","","","","","","","learning/Slide66.JPG","null","","","","",""
"","html-keyboard-response","203","329716","0.0-6.0-1.65","FL","0e2jb9zq47","1440","900","en","UAJIIN24","null","","","","learningBlock1","","","","That was a dep.","null","","","","",""
"","html-keyboard-response","204","330718","0.0-6.0-2.65","FL","0e2jb9zq47","1440","900","en","UAJIIN24","null","","","","learningBlock1","","","","<div style=""font-size:60px;""> </div>","null","FL","learning/Slide66.JPG","That was a dep.","",""
"","image-keyboard-response","205","330897","0.0-6.0-0.66","FL","0e2jb9zq47","1440","900","en","UAJIIN24","null","","","","","","","","learning/Slide67.JPG","null","","","","",""
"","html-keyboard-response","206","332049","0.0-6.0-1.66","FL","0e2jb9zq47","1440","900","en","UAJIIN24","null","","","","learningBlock1","","","","That was a tob.","null","","","","",""
"","html-keyboard-response","207","333054","0.0-6.0-2.66","FL","0e2jb9zq47","1440","900","en","UAJIIN24","null","","","","learningBlock1","","","","<div style=""font-size:60px;""> </div>","null","FL","learning/Slide67.JPG","That was a tob.","",""
"","image-keyboard-response","208","333231","0.0-6.0-0.67","FL","0e2jb9zq47","1440","900","en","UAJIIN24","null","","","","","","","","learning/Slide68.JPG","null","","","","",""
"","html-keyboard-response","209","334383","0.0-6.0-1.67","FL","0e2jb9zq47","1440","900","en","UAJIIN24","null","","","","learningBlock1","","","","That was a wug.","null","","","","",""
"","html-keyboard-response","210","335385","0.0-6.0-2.67","FL","0e2jb9zq47","1440","900","en","UAJIIN24","null","","","","learningBlock1","","","","<div style=""font-size:60px;""> </div>","null","FL","learning/Slide68.JPG","That was a wug.","",""
"","image-keyboard-response","211","335562","0.0-6.0-0.68","FL","0e2jb9zq47","1440","900","en","UAJIIN24","null","","","","","","","","learning/Slide69.JPG","null","","","","",""
"","html-keyboard-response","212","336716","0.0-6.0-1.68","FL","0e2jb9zq47","1440","900","en","UAJIIN24","null","","","","learningBlock1","","","","That was a tob.","null","","","","",""
"","html-keyboard-response","213","337718","0.0-6.0-2.68","FL","0e2jb9zq47","1440","900","en","UAJIIN24","null","","","","learningBlock1","","","","<div style=""font-size:60px;""> </div>","null","FL","learning/Slide69.JPG","That was a tob.","",""
"","image-keyboard-response","214","337897","0.0-6.0-0.69","FL","0e2jb9zq47","1440","900","en","UAJIIN24","null","","","","","","","","learning/Slide70.JPG","null","","","","",""
"","html-keyboard-response","215","339051","0.0-6.0-1.69","FL","0e2jb9zq47","1440","900","en","UAJIIN24","null","","","","learningBlock1","","","","That was a dep.","null","","","","",""
"","html-keyboard-response","216","340057","0.0-6.0-2.69","FL","0e2jb9zq47","1440","900","en","UAJIIN24","null","","","","learningBlock1","","","","<div style=""font-size:60px;""> </div>","null","FL","learning/Slide70.JPG","That was a dep.","",""
"","image-keyboard-response","217","340236","0.0-6.0-0.70","FL","0e2jb9zq47","1440","900","en","UAJIIN24","null","","","","","","","","learning/Slide71.JPG","null","","","","",""
"","html-keyboard-response","218","341387","0.0-6.0-1.70","FL","0e2jb9zq47","1440","900","en","UAJIIN24","null","","","","learningBlock1","","","","That was a wug.","null","","","","",""
"","html-keyboard-response","219","342390","0.0-6.0-2.70","FL","0e2jb9zq47","1440","900","en","UAJIIN24","null","","","","learningBlock1","","","","<div style=""font-size:60px;""> </div>","null","FL","learning/Slide71.JPG","That was a wug.","",""
"","image-keyboard-response","220","342566","0.0-6.0-0.71","FL","0e2jb9zq47","1440","900","en","UAJIIN24","null","","","","","","","","learning/Slide72.JPG","null","","","","",""
"","html-keyboard-response","221","343723","0.0-6.0-1.71","FL","0e2jb9zq47","1440","900","en","UAJIIN24","null","","","","learningBlock1","","","","That was a bim.","null","","","","",""
"","html-keyboard-response","222","344727","0.0-6.0-2.71","FL","0e2jb9zq47","1440","900","en","UAJIIN24","null","","","","learningBlock1","","","","<div style=""font-size:60px;""> </div>","null","FL","learning/Slide72.JPG","That was a bim.","",""
"","image-keyboard-response","223","344902","0.0-6.0-0.72","FL","0e2jb9zq47","1440","900","en","UAJIIN24","null","","","","","","","","learning/Slide73.JPG","null","","","","",""
"","html-keyboard-response","224","346054","0.0-6.0-1.72","FL","0e2jb9zq47","1440","900","en","UAJIIN24","null","","","","learningBlock1","","","","That was a wug.","null","","","","",""
"","html-keyboard-response","225","347060","0.0-6.0-2.72","FL","0e2jb9zq47","1440","900","en","UAJIIN24","null","","","","learningBlock1","","","","<div style=""font-size:60px;""> </div>","null","FL","learning/Slide73.JPG","That was a wug.","",""
"","image-keyboard-response","226","347235","0.0-6.0-0.73","FL","0e2jb9zq47","1440","900","en","UAJIIN24","null","","","","","","","","learning/Slide74.JPG","null","","","","",""
"","html-keyboard-response","227","348391","0.0-6.0-1.73","FL","0e2jb9zq47","1440","900","en","UAJIIN24","null","","","","learningBlock1","","","","That was a dep.","null","","","","",""
"","html-keyboard-response","228","349396","0.0-6.0-2.73","FL","0e2jb9zq47","1440","900","en","UAJIIN24","null","","","","learningBlock1","","","","<div style=""font-size:60px;""> </div>","null","FL","learning/Slide74.JPG","That was a dep.","",""
"","image-keyboard-response","229","349574","0.0-6.0-0.74","FL","0e2jb9zq47","1440","900","en","UAJIIN24","null","","","","","","","","learning/Slide75.JPG","null","","","","",""
"","html-keyboard-response","230","350726","0.0-6.0-1.74","FL","0e2jb9zq47","1440","900","en","UAJIIN24","null","","","","learningBlock1","","","","That was a tob.","null","","","","",""
"","html-keyboard-response","231","351731","0.0-6.0-2.74","FL","0e2jb9zq47","1440","900","en","UAJIIN24","null","","","","learningBlock1","","","","<div style=""font-size:60px;""> </div>","null","FL","learning/Slide75.JPG","That was a tob.","",""
"","image-keyboard-response","232","351908","0.0-6.0-0.75","FL","0e2jb9zq47","1440","900","en","UAJIIN24","null","","","","","","","","learning/Slide76.JPG","null","","","","",""
"","html-keyboard-response","233","353062","0.0-6.0-1.75","FL","0e2jb9zq47","1440","900","en","UAJIIN24","null","","","","learningBlock1","","","","That was a bim.","null","","","","",""
"","html-keyboard-response","234","354066","0.0-6.0-2.75","FL","0e2jb9zq47","1440","900","en","UAJIIN24","null","","","","learningBlock1","","","","<div style=""font-size:60px;""> </div>","null","FL","learning/Slide76.JPG","That was a bim.","",""
"","image-keyboard-response","235","354243","0.0-6.0-0.76","FL","0e2jb9zq47","1440","900","en","UAJIIN24","null","","","","","","","","learning/Slide77.JPG","null","","","","",""
"","html-keyboard-response","236","355394","0.0-6.0-1.76","FL","0e2jb9zq47","1440","900","en","UAJIIN24","null","","","","learningBlock1","","","","That was a tob.","null","","","","",""
"","html-keyboard-response","237","356396","0.0-6.0-2.76","FL","0e2jb9zq47","1440","900","en","UAJIIN24","null","","","","learningBlock1","","","","<div style=""font-size:60px;""> </div>","null","FL","learning/Slide77.JPG","That was a tob.","",""
"","image-keyboard-response","238","356572","0.0-6.0-0.77","FL","0e2jb9zq47","1440","900","en","UAJIIN24","null","","","","","","","","learning/Slide78.JPG","null","","","","",""
"","html-keyboard-response","239","357726","0.0-6.0-1.77","FL","0e2jb9zq47","1440","900","en","UAJIIN24","null","","","","learningBlock1","","","","That was a wug.","null","","","","",""
"","html-keyboard-response","240","358728","0.0-6.0-2.77","FL","0e2jb9zq47","1440","900","en","UAJIIN24","null","","","","learningBlock1","","","","<div style=""font-size:60px;""> </div>","null","FL","learning/Slide78.JPG","That was a wug.","",""
"","image-keyboard-response","241","358907","0.0-6.0-0.78","FL","0e2jb9zq47","1440","900","en","UAJIIN24","null","","","","","","","","learning/Slide79.JPG","null","","","","",""
"","html-keyboard-response","242","360059","0.0-6.0-1.78","FL","0e2jb9zq47","1440","900","en","UAJIIN24","null","","","","learningBlock1","","","","That was a bim.","null","","","","",""
"","html-keyboard-response","243","361063","0.0-6.0-2.78","FL","0e2jb9zq47","1440","900","en","UAJIIN24","null","","","","learningBlock1","","","","<div style=""font-size:60px;""> </div>","null","FL","learning/Slide79.JPG","That was a bim.","",""
"","image-keyboard-response","244","361240","0.0-6.0-0.79","FL","0e2jb9zq47","1440","900","en","UAJIIN24","null","","","","","","","","learning/Slide80.JPG","null","","","","",""
"","html-keyboard-response","245","362395","0.0-6.0-1.79","FL","0e2jb9zq47","1440","900","en","UAJIIN24","null","","","","learningBlock1","","","","That was a tob.","null","","","","",""
"","html-keyboard-response","246","363397","0.0-6.0-2.79","FL","0e2jb9zq47","1440","900","en","UAJIIN24","null","","","","learningBlock1","","","","<div style=""font-size:60px;""> </div>","null","FL","learning/Slide80.JPG","That was a tob.","",""
"","instructions","247","369369","0.0-7.0","FL","0e2jb9zq47","1440","900","en","UAJIIN24","NA","","","[{""page_index"":0,""viewing_time"":5970}]","instructions","","","","","","","","","",""
"","image-keyboard-response","248","369547","0.0-8.0-0.0","FL","0e2jb9zq47","1440","900","en","UAJIIN24","null","","","","","","","","learning/Slide81.JPG","null","","","","",""
"","html-keyboard-response","249","370701","0.0-8.0-1.0","FL","0e2jb9zq47","1440","900","en","UAJIIN24","null","","","","learningBlock2","","","","That was a wug.","null","","","","",""
"","html-keyboard-response","250","371703","0.0-8.0-2.0","FL","0e2jb9zq47","1440","900","en","UAJIIN24","null","","","","learningBlock2","","","","<div style=""font-size:60px;""> </div>","null","FL","learning/Slide81.JPG","That was a wug.","",""
"","image-keyboard-response","251","371879","0.0-8.0-0.1","FL","0e2jb9zq47","1440","900","en","UAJIIN24","null","","","","","","","","learning/Slide82.JPG","null","","","","",""
"","html-keyboard-response","252","373031","0.0-8.0-1.1","FL","0e2jb9zq47","1440","900","en","UAJIIN24","null","","","","learningBlock2","","","","That was a bim.","null","","","","",""
"","html-keyboard-response","253","374034","0.0-8.0-2.1","FL","0e2jb9zq47","1440","900","en","UAJIIN24","null","","","","learningBlock2","","","","<div style=""font-size:60px;""> </div>","null","FL","learning/Slide82.JPG","That was a bim.","",""
"","image-keyboard-response","254","374213","0.0-8.0-0.2","FL","0e2jb9zq47","1440","900","en","UAJIIN24","null","","","","","","","","learning/Slide83.JPG","null","","","","",""
"","html-keyboard-response","255","375366","0.0-8.0-1.2","FL","0e2jb9zq47","1440","900","en","UAJIIN24","null","","","","learningBlock2","","","","That was a wug.","null","","","","",""
"","html-keyboard-response","256","376368","0.0-8.0-2.2","FL","0e2jb9zq47","1440","900","en","UAJIIN24","null","","","","learningBlock2","","","","<div style=""font-size:60px;""> </div>","null","FL","learning/Slide83.JPG","That was a wug.","",""
"","image-keyboard-response","257","376543","0.0-8.0-0.3","FL","0e2jb9zq47","1440","900","en","UAJIIN24","null","","","","","","","","learning/Slide84.JPG","null","","","","",""
"","html-keyboard-response","258","377698","0.0-8.0-1.3","FL","0e2jb9zq47","1440","900","en","UAJIIN24","null","","","","learningBlock2","","","","That was a dep.","null","","","","",""
"","html-keyboard-response","259","378701","0.0-8.0-2.3","FL","0e2jb9zq47","1440","900","en","UAJIIN24","null","","","","learningBlock2","","","","<div style=""font-size:60px;""> </div>","null","FL","learning/Slide84.JPG","That was a dep.","",""
"","image-keyboard-response","260","378880","0.0-8.0-0.4","FL","0e2jb9zq47","1440","900","en","UAJIIN24","null","","","","","","","","learning/Slide85.JPG","null","","","","",""
"","html-keyboard-response","261","380032","0.0-8.0-1.4","FL","0e2jb9zq47","1440","900","en","UAJIIN24","null","","","","learningBlock2","","","","That was a bim.","null","","","","",""
"","html-keyboard-response","262","381035","0.0-8.0-2.4","FL","0e2jb9zq47","1440","900","en","UAJIIN24","null","","","","learningBlock2","","","","<div style=""font-size:60px;""> </div>","null","FL","learning/Slide85.JPG","That was a bim.","",""
"","image-keyboard-response","263","381210","0.0-8.0-0.5","FL","0e2jb9zq47","1440","900","en","UAJIIN24","null","","","","","","","","learning/Slide86.JPG","null","","","","",""
"","html-keyboard-response","264","382365","0.0-8.0-1.5","FL","0e2jb9zq47","1440","900","en","UAJIIN24","null","","","","learningBlock2","","","","That was a tob.","null","","","","",""
"","html-keyboard-response","265","383368","0.0-8.0-2.5","FL","0e2jb9zq47","1440","900","en","UAJIIN24","null","","","","learningBlock2","","","","<div style=""font-size:60px;""> </div>","null","FL","learning/Slide86.JPG","That was a tob.","",""
"","image-keyboard-response","266","383543","0.0-8.0-0.6","FL","0e2jb9zq47","1440","900","en","UAJIIN24","null","","","","","","","","learning/Slide87.JPG","null","","","","",""
"","html-keyboard-response","267","384698","0.0-8.0-1.6","FL","0e2jb9zq47","1440","900","en","UAJIIN24","null","","","","learningBlock2","","","","That was a wug.","null","","","","",""
"","html-keyboard-response","268","385700","0.0-8.0-2.6","FL","0e2jb9zq47","1440","900","en","UAJIIN24","null","","","","learningBlock2","","","","<div style=""font-size:60px;""> </div>","null","FL","learning/Slide87.JPG","That was a wug.","",""
"","image-keyboard-response","269","385880","0.0-8.0-0.7","FL","0e2jb9zq47","1440","900","en","UAJIIN24","null","","","","","","","","learning/Slide88.JPG","null","","","","",""
"","html-keyboard-response","270","387034","0.0-8.0-1.7","FL","0e2jb9zq47","1440","900","en","UAJIIN24","null","","","","learningBlock2","","","","That was a tob.","null","","","","",""
"","html-keyboard-response","271","388036","0.0-8.0-2.7","FL","0e2jb9zq47","1440","900","en","UAJIIN24","null","","","","learningBlock2","","","","<div style=""font-size:60px;""> </div>","null","FL","learning/Slide88.JPG","That was a tob.","",""
"","image-keyboard-response","272","388217","0.0-8.0-0.8","FL","0e2jb9zq47","1440","900","en","UAJIIN24","null","","","","","","","","learning/Slide89.JPG","null","","","","",""
"","html-keyboard-response","273","389370","0.0-8.0-1.8","FL","0e2jb9zq47","1440","900","en","UAJIIN24","null","","","","learningBlock2","","","","That was a bim.","null","","","","",""
"","html-keyboard-response","274","390372","0.0-8.0-2.8","FL","0e2jb9zq47","1440","900","en","UAJIIN24","null","","","","learningBlock2","","","","<div style=""font-size:60px;""> </div>","null","FL","learning/Slide89.JPG","That was a bim.","",""
"","image-keyboard-response","275","390551","0.0-8.0-0.9","FL","0e2jb9zq47","1440","900","en","UAJIIN24","null","","","","","","","","learning/Slide90.JPG","null","","","","",""
"","html-keyboard-response","276","391706","0.0-8.0-1.9","FL","0e2jb9zq47","1440","900","en","UAJIIN24","null","","","","learningBlock2","","","","That was a dep.","null","","","","",""
"","html-keyboard-response","277","392709","0.0-8.0-2.9","FL","0e2jb9zq47","1440","900","en","UAJIIN24","null","","","","learningBlock2","","","","<div style=""font-size:60px;""> </div>","null","FL","learning/Slide90.JPG","That was a dep.","",""
"","image-keyboard-response","278","392885","0.0-8.0-0.10","FL","0e2jb9zq47","1440","900","en","UAJIIN24","null","","","","","","","","learning/Slide91.JPG","null","","","","",""
"","html-keyboard-response","279","394039","0.0-8.0-1.10","FL","0e2jb9zq47","1440","900","en","UAJIIN24","null","","","","learningBlock2","","","","That was a wug.","null","","","","",""
"","html-keyboard-response","280","395041","0.0-8.0-2.10","FL","0e2jb9zq47","1440","900","en","UAJIIN24","null","","","","learningBlock2","","","","<div style=""font-size:60px;""> </div>","null","FL","learning/Slide91.JPG","That was a wug.","",""
"","image-keyboard-response","281","395219","0.0-8.0-0.11","FL","0e2jb9zq47","1440","900","en","UAJIIN24","null","","","","","","","","learning/Slide92.JPG","null","","","","",""
"","html-keyboard-response","282","396373","0.0-8.0-1.11","FL","0e2jb9zq47","1440","900","en","UAJIIN24","null","","","","learningBlock2","","","","That was a tob.","null","","","","",""
"","html-keyboard-response","283","397375","0.0-8.0-2.11","FL","0e2jb9zq47","1440","900","en","UAJIIN24","null","","","","learningBlock2","","","","<div style=""font-size:60px;""> </div>","null","FL","learning/Slide92.JPG","That was a tob.","",""
"","image-keyboard-response","284","397553","0.0-8.0-0.12","FL","0e2jb9zq47","1440","900","en","UAJIIN24","null","","","","","","","","learning/Slide93.JPG","null","","","","",""
"","html-keyboard-response","285","398708","0.0-8.0-1.12","FL","0e2jb9zq47","1440","900","en","UAJIIN24","null","","","","learningBlock2","","","","That was a bim.","null","","","","",""
"","html-keyboard-response","286","399712","0.0-8.0-2.12","FL","0e2jb9zq47","1440","900","en","UAJIIN24","null","","","","learningBlock2","","","","<div style=""font-size:60px;""> </div>","null","FL","learning/Slide93.JPG","That was a bim.","",""
"","image-keyboard-response","287","399892","0.0-8.0-0.13","FL","0e2jb9zq47","1440","900","en","UAJIIN24","null","","","","","","","","learning/Slide94.JPG","null","","","","",""
"","html-keyboard-response","288","401044","0.0-8.0-1.13","FL","0e2jb9zq47","1440","900","en","UAJIIN24","null","","","","learningBlock2","","","","That was a tob.","null","","","","",""
"","html-keyboard-response","289","402045","0.0-8.0-2.13","FL","0e2jb9zq47","1440","900","en","UAJIIN24","null","","","","learningBlock2","","","","<div style=""font-size:60px;""> </div>","null","FL","learning/Slide94.JPG","That was a tob.","",""
"","image-keyboard-response","290","402223","0.0-8.0-0.14","FL","0e2jb9zq47","1440","900","en","UAJIIN24","null","","","","","","","","learning/Slide95.JPG","null","","","","",""
"","html-keyboard-response","291","403377","0.0-8.0-1.14","FL","0e2jb9zq47","1440","900","en","UAJIIN24","null","","","","learningBlock2","","","","That was a wug.","null","","","","",""
"","html-keyboard-response","292","404379","0.0-8.0-2.14","FL","0e2jb9zq47","1440","900","en","UAJIIN24","null","","","","learningBlock2","","","","<div style=""font-size:60px;""> </div>","null","FL","learning/Slide95.JPG","That was a wug.","",""
"","image-keyboard-response","293","404556","0.0-8.0-0.15","FL","0e2jb9zq47","1440","900","en","UAJIIN24","null","","","","","","","","learning/Slide96.JPG","null","","","","",""
"","html-keyboard-response","294","405708","0.0-8.0-1.15","FL","0e2jb9zq47","1440","900","en","UAJIIN24","null","","","","learningBlock2","","","","That was a tob.","null","","","","",""
"","html-keyboard-response","295","406711","0.0-8.0-2.15","FL","0e2jb9zq47","1440","900","en","UAJIIN24","null","","","","learningBlock2","","","","<div style=""font-size:60px;""> </div>","null","FL","learning/Slide96.JPG","That was a tob.","",""
"","image-keyboard-response","296","406892","0.0-8.0-0.16","FL","0e2jb9zq47","1440","900","en","UAJIIN24","null","","","","","","","","learning/Slide97.JPG","null","","","","",""
"","html-keyboard-response","297","408047","0.0-8.0-1.16","FL","0e2jb9zq47","1440","900","en","UAJIIN24","null","","","","learningBlock2","","","","That was a dep.","null","","","","",""
"","html-keyboard-response","298","409050","0.0-8.0-2.16","FL","0e2jb9zq47","1440","900","en","UAJIIN24","null","","","","learningBlock2","","","","<div style=""font-size:60px;""> </div>","null","FL","learning/Slide97.JPG","That was a dep.","",""
"","image-keyboard-response","299","409225","0.0-8.0-0.17","FL","0e2jb9zq47","1440","900","en","UAJIIN24","null","","","","","","","","learning/Slide98.JPG","null","","","","",""
"","html-keyboard-response","300","410378","0.0-8.0-1.17","FL","0e2jb9zq47","1440","900","en","UAJIIN24","null","","","","learningBlock2","","","","That was a bim.","null","","","","",""
"","html-keyboard-response","301","411380","0.0-8.0-2.17","FL","0e2jb9zq47","1440","900","en","UAJIIN24","null","","","","learningBlock2","","","","<div style=""font-size:60px;""> </div>","null","FL","learning/Slide98.JPG","That was a bim.","",""
"","image-keyboard-response","302","411556","0.0-8.0-0.18","FL","0e2jb9zq47","1440","900","en","UAJIIN24","null","","","","","","","","learning/Slide99.JPG","null","","","","",""
"","html-keyboard-response","303","412711","0.0-8.0-1.18","FL","0e2jb9zq47","1440","900","en","UAJIIN24","null","","","","learningBlock2","","","","That was a dep.","null","","","","",""
"","html-keyboard-response","304","413716","0.0-8.0-2.18","FL","0e2jb9zq47","1440","900","en","UAJIIN24","null","","","","learningBlock2","","","","<div style=""font-size:60px;""> </div>","null","FL","learning/Slide99.JPG","That was a dep.","",""
"","image-keyboard-response","305","413891","0.0-8.0-0.19","FL","0e2jb9zq47","1440","900","en","UAJIIN24","null","","","","","","","","learning/Slide100.JPG","null","","","","",""
"","html-keyboard-response","306","415044","0.0-8.0-1.19","FL","0e2jb9zq47","1440","900","en","UAJIIN24","null","","","","learningBlock2","","","","That was a bim.","null","","","","",""
"","html-keyboard-response","307","416045","0.0-8.0-2.19","FL","0e2jb9zq47","1440","900","en","UAJIIN24","null","","","","learningBlock2","","","","<div style=""font-size:60px;""> </div>","null","FL","learning/Slide100.JPG","That was a bim.","",""
"","image-keyboard-response","308","416223","0.0-8.0-0.20","FL","0e2jb9zq47","1440","900","en","UAJIIN24","null","","","","","","","","learning/Slide101.JPG","null","","","","",""
"","html-keyboard-response","309","417377","0.0-8.0-1.20","FL","0e2jb9zq47","1440","900","en","UAJIIN24","null","","","","learningBlock2","","","","That was a tob.","null","","","","",""
"","html-keyboard-response","310","418380","0.0-8.0-2.20","FL","0e2jb9zq47","1440","900","en","UAJIIN24","null","","","","learningBlock2","","","","<div style=""font-size:60px;""> </div>","null","FL","learning/Slide101.JPG","That was a tob.","",""
"","image-keyboard-response","311","418558","0.0-8.0-0.21","FL","0e2jb9zq47","1440","900","en","UAJIIN24","null","","","","","","","","learning/Slide102.JPG","null","","","","",""
"","html-keyboard-response","312","419713","0.0-8.0-1.21","FL","0e2jb9zq47","1440","900","en","UAJIIN24","null","","","","learningBlock2","","","","That was a bim.","null","","","","",""
"","html-keyboard-response","313","420715","0.0-8.0-2.21","FL","0e2jb9zq47","1440","900","en","UAJIIN24","null","","","","learningBlock2","","","","<div style=""font-size:60px;""> </div>","null","FL","learning/Slide102.JPG","That was a bim.","",""
"","image-keyboard-response","314","420894","0.0-8.0-0.22","FL","0e2jb9zq47","1440","900","en","UAJIIN24","null","","","","","","","","learning/Slide103.JPG","null","","","","",""
"","html-keyboard-response","315","422046","0.0-8.0-1.22","FL","0e2jb9zq47","1440","900","en","UAJIIN24","null","","","","learningBlock2","","","","That was a dep.","null","","","","",""
"","html-keyboard-response","316","423049","0.0-8.0-2.22","FL","0e2jb9zq47","1440","900","en","UAJIIN24","null","","","","learningBlock2","","","","<div style=""font-size:60px;""> </div>","null","FL","learning/Slide103.JPG","That was a dep.","",""
"","image-keyboard-response","317","423228","0.0-8.0-0.23","FL","0e2jb9zq47","1440","900","en","UAJIIN24","null","","","","","","","","learning/Slide104.JPG","null","","","","",""
"","html-keyboard-response","318","424382","0.0-8.0-1.23","FL","0e2jb9zq47","1440","900","en","UAJIIN24","null","","","","learningBlock2","","","","That was a tob.","null","","","","",""
"","html-keyboard-response","319","425384","0.0-8.0-2.23","FL","0e2jb9zq47","1440","900","en","UAJIIN24","null","","","","learningBlock2","","","","<div style=""font-size:60px;""> </div>","null","FL","learning/Slide104.JPG","That was a tob.","",""
"","image-keyboard-response","320","425560","0.0-8.0-0.24","FL","0e2jb9zq47","1440","900","en","UAJIIN24","null","","","","","","","","learning/Slide105.JPG","null","","","","",""
"","html-keyboard-response","321","426715","0.0-8.0-1.24","FL","0e2jb9zq47","1440","900","en","UAJIIN24","null","","","","learningBlock2","","","","That was a dep.","null","","","","",""
"","html-keyboard-response","322","427718","0.0-8.0-2.24","FL","0e2jb9zq47","1440","900","en","UAJIIN24","null","","","","learningBlock2","","","","<div style=""font-size:60px;""> </div>","null","FL","learning/Slide105.JPG","That was a dep.","",""
"","image-keyboard-response","323","427894","0.0-8.0-0.25","FL","0e2jb9zq47","1440","900","en","UAJIIN24","null","","","","","","","","learning/Slide106.JPG","null","","","","",""
"","html-keyboard-response","324","429048","0.0-8.0-1.25","FL","0e2jb9zq47","1440","900","en","UAJIIN24","null","","","","learningBlock2","","","","That was a wug.","null","","","","",""
"","html-keyboard-response","325","430051","0.0-8.0-2.25","FL","0e2jb9zq47","1440","900","en","UAJIIN24","null","","","","learningBlock2","","","","<div style=""font-size:60px;""> </div>","null","FL","learning/Slide106.JPG","That was a wug.","",""
"","image-keyboard-response","326","430227","0.0-8.0-0.26","FL","0e2jb9zq47","1440","900","en","UAJIIN24","null","","","","","","","","learning/Slide107.JPG","null","","","","",""
"","html-keyboard-response","327","431382","0.0-8.0-1.26","FL","0e2jb9zq47","1440","900","en","UAJIIN24","null","","","","learningBlock2","","","","That was a bim.","null","","","","",""
"","html-keyboard-response","328","432385","0.0-8.0-2.26","FL","0e2jb9zq47","1440","900","en","UAJIIN24","null","","","","learningBlock2","","","","<div style=""font-size:60px;""> </div>","null","FL","learning/Slide107.JPG","That was a bim.","",""
"","image-keyboard-response","329","432560","0.0-8.0-0.27","FL","0e2jb9zq47","1440","900","en","UAJIIN24","null","","","","","","","","learning/Slide108.JPG","null","","","","",""
"","html-keyboard-response","330","433712","0.0-8.0-1.27","FL","0e2jb9zq47","1440","900","en","UAJIIN24","null","","","","learningBlock2","","","","That was a dep.","null","","","","",""
"","html-keyboard-response","331","434713","0.0-8.0-2.27","FL","0e2jb9zq47","1440","900","en","UAJIIN24","null","","","","learningBlock2","","","","<div style=""font-size:60px;""> </div>","null","FL","learning/Slide108.JPG","That was a dep.","",""
"","image-keyboard-response","332","434891","0.0-8.0-0.28","FL","0e2jb9zq47","1440","900","en","UAJIIN24","null","","","","","","","","learning/Slide109.JPG","null","","","","",""
"","html-keyboard-response","333","436043","0.0-8.0-1.28","FL","0e2jb9zq47","1440","900","en","UAJIIN24","null","","","","learningBlock2","","","","That was a wug.","null","","","","",""
"","html-keyboard-response","334","437046","0.0-8.0-2.28","FL","0e2jb9zq47","1440","900","en","UAJIIN24","null","","","","learningBlock2","","","","<div style=""font-size:60px;""> </div>","null","FL","learning/Slide109.JPG","That was a wug.","",""
"","image-keyboard-response","335","437222","0.0-8.0-0.29","FL","0e2jb9zq47","1440","900","en","UAJIIN24","null","","","","","","","","learning/Slide110.JPG","null","","","","",""
"","html-keyboard-response","336","438376","0.0-8.0-1.29","FL","0e2jb9zq47","1440","900","en","UAJIIN24","null","","","","learningBlock2","","","","That was a bim.","null","","","","",""
"","html-keyboard-response","337","439379","0.0-8.0-2.29","FL","0e2jb9zq47","1440","900","en","UAJIIN24","null","","","","learningBlock2","","","","<div style=""font-size:60px;""> </div>","null","FL","learning/Slide110.JPG","That was a bim.","",""
"","image-keyboard-response","338","439557","0.0-8.0-0.30","FL","0e2jb9zq47","1440","900","en","UAJIIN24","null","","","","","","","","learning/Slide111.JPG","null","","","","",""
"","html-keyboard-response","339","440712","0.0-8.0-1.30","FL","0e2jb9zq47","1440","900","en","UAJIIN24","null","","","","learningBlock2","","","","That was a tob.","null","","","","",""
"","html-keyboard-response","340","441715","0.0-8.0-2.30","FL","0e2jb9zq47","1440","900","en","UAJIIN24","null","","","","learningBlock2","","","","<div style=""font-size:60px;""> </div>","null","FL","learning/Slide111.JPG","That was a tob.","",""
"","image-keyboard-response","341","441891","0.0-8.0-0.31","FL","0e2jb9zq47","1440","900","en","UAJIIN24","null","","","","","","","","learning/Slide112.JPG","null","","","","",""
"","html-keyboard-response","342","443045","0.0-8.0-1.31","FL","0e2jb9zq47","1440","900","en","UAJIIN24","null","","","","learningBlock2","","","","That was a wug.","null","","","","",""
"","html-keyboard-response","343","444048","0.0-8.0-2.31","FL","0e2jb9zq47","1440","900","en","UAJIIN24","null","","","","learningBlock2","","","","<div style=""font-size:60px;""> </div>","null","FL","learning/Slide112.JPG","That was a wug.","",""
"","image-keyboard-response","344","444224","0.0-8.0-0.32","FL","0e2jb9zq47","1440","900","en","UAJIIN24","null","","","","","","","","learning/Slide113.JPG","null","","","","",""
"","html-keyboard-response","345","445381","0.0-8.0-1.32","FL","0e2jb9zq47","1440","900","en","UAJIIN24","null","","","","learningBlock2","","","","That was a tob.","null","","","","",""
"","html-keyboard-response","346","446383","0.0-8.0-2.32","FL","0e2jb9zq47","1440","900","en","UAJIIN24","null","","","","learningBlock2","","","","<div style=""font-size:60px;""> </div>","null","FL","learning/Slide113.JPG","That was a tob.","",""
"","image-keyboard-response","347","446563","0.0-8.0-0.33","FL","0e2jb9zq47","1440","900","en","UAJIIN24","null","","","","","","","","learning/Slide114.JPG","null","","","","",""
"","html-keyboard-response","348","447717","0.0-8.0-1.33","FL","0e2jb9zq47","1440","900","en","UAJIIN24","null","","","","learningBlock2","","","","That was a wug.","null","","","","",""
"","html-keyboard-response","349","448720","0.0-8.0-2.33","FL","0e2jb9zq47","1440","900","en","UAJIIN24","null","","","","learningBlock2","","","","<div style=""font-size:60px;""> </div>","null","FL","learning/Slide114.JPG","That was a wug.","",""
"","image-keyboard-response","350","448900","0.0-8.0-0.34","FL","0e2jb9zq47","1440","900","en","UAJIIN24","null","","","","","","","","learning/Slide115.JPG","null","","","","",""
"","html-keyboard-response","351","450054","0.0-8.0-1.34","FL","0e2jb9zq47","1440","900","en","UAJIIN24","null","","","","learningBlock2","","","","That was a bim.","null","","","","",""
"","html-keyboard-response","352","451058","0.0-8.0-2.34","FL","0e2jb9zq47","1440","900","en","UAJIIN24","null","","","","learningBlock2","","","","<div style=""font-size:60px;""> </div>","null","FL","learning/Slide115.JPG","That was a bim.","",""
"","image-keyboard-response","353","451239","0.0-8.0-0.35","FL","0e2jb9zq47","1440","900","en","UAJIIN24","null","","","","","","","","learning/Slide116.JPG","null","","","","",""
"","html-keyboard-response","354","452392","0.0-8.0-1.35","FL","0e2jb9zq47","1440","900","en","UAJIIN24","null","","","","learningBlock2","","","","That was a dep.","null","","","","",""
"","html-keyboard-response","355","453394","0.0-8.0-2.35","FL","0e2jb9zq47","1440","900","en","UAJIIN24","null","","","","learningBlock2","","","","<div style=""font-size:60px;""> </div>","null","FL","learning/Slide116.JPG","That was a dep.","",""
"","image-keyboard-response","356","453571","0.0-8.0-0.36","FL","0e2jb9zq47","1440","900","en","UAJIIN24","null","","","","","","","","learning/Slide117.JPG","null","","","","",""
"","html-keyboard-response","357","454723","0.0-8.0-1.36","FL","0e2jb9zq47","1440","900","en","UAJIIN24","null","","","","learningBlock2","","","","That was a tob.","null","","","","",""
"","html-keyboard-response","358","455725","0.0-8.0-2.36","FL","0e2jb9zq47","1440","900","en","UAJIIN24","null","","","","learningBlock2","","","","<div style=""font-size:60px;""> </div>","null","FL","learning/Slide117.JPG","That was a tob.","",""
"","image-keyboard-response","359","455901","0.0-8.0-0.37","FL","0e2jb9zq47","1440","900","en","UAJIIN24","null","","","","","","","","learning/Slide118.JPG","null","","","","",""
"","html-keyboard-response","360","457056","0.0-8.0-1.37","FL","0e2jb9zq47","1440","900","en","UAJIIN24","null","","","","learningBlock2","","","","That was a dep.","null","","","","",""
"","html-keyboard-response","361","458058","0.0-8.0-2.37","FL","0e2jb9zq47","1440","900","en","UAJIIN24","null","","","","learningBlock2","","","","<div style=""font-size:60px;""> </div>","null","FL","learning/Slide118.JPG","That was a dep.","",""
"","image-keyboard-response","362","458237","0.0-8.0-0.38","FL","0e2jb9zq47","1440","900","en","UAJIIN24","null","","","","","","","","learning/Slide119.JPG","null","","","","",""
"","html-keyboard-response","363","459392","0.0-8.0-1.38","FL","0e2jb9zq47","1440","900","en","UAJIIN24","null","","","","learningBlock2","","","","That was a wug.","null","","","","",""
"","html-keyboard-response","364","460394","0.0-8.0-2.38","FL","0e2jb9zq47","1440","900","en","UAJIIN24","null","","","","learningBlock2","","","","<div style=""font-size:60px;""> </div>","null","FL","learning/Slide119.JPG","That was a wug.","",""
"","image-keyboard-response","365","460570","0.0-8.0-0.39","FL","0e2jb9zq47","1440","900","en","UAJIIN24","null","","","","","","","","learning/Slide120.JPG","null","","","","",""
"","html-keyboard-response","366","461727","0.0-8.0-1.39","FL","0e2jb9zq47","1440","900","en","UAJIIN24","null","","","","learningBlock2","","","","That was a dep.","null","","","","",""
"","html-keyboard-response","367","462730","0.0-8.0-2.39","FL","0e2jb9zq47","1440","900","en","UAJIIN24","null","","","","learningBlock2","","","","<div style=""font-size:60px;""> </div>","null","FL","learning/Slide120.JPG","That was a dep.","",""
"","image-keyboard-response","368","462910","0.0-8.0-0.40","FL","0e2jb9zq47","1440","900","en","UAJIIN24","null","","","","","","","","learning/Slide121.JPG","null","","","","",""
"","html-keyboard-response","369","464063","0.0-8.0-1.40","FL","0e2jb9zq47","1440","900","en","UAJIIN24","null","","","","learningBlock2","","","","That was a bim.","null","","","","",""
"","html-keyboard-response","370","465066","0.0-8.0-2.40","FL","0e2jb9zq47","1440","900","en","UAJIIN24","null","","","","learningBlock2","","","","<div style=""font-size:60px;""> </div>","null","FL","learning/Slide121.JPG","That was a bim.","",""
"","image-keyboard-response","371","465242","0.0-8.0-0.41","FL","0e2jb9zq47","1440","900","en","UAJIIN24","null","","","","","","","","learning/Slide122.JPG","null","","","","",""
"","html-keyboard-response","372","466396","0.0-8.0-1.41","FL","0e2jb9zq47","1440","900","en","UAJIIN24","null","","","","learningBlock2","","","","That was a wug.","null","","","","",""
"","html-keyboard-response","373","467399","0.0-8.0-2.41","FL","0e2jb9zq47","1440","900","en","UAJIIN24","null","","","","learningBlock2","","","","<div style=""font-size:60px;""> </div>","null","FL","learning/Slide122.JPG","That was a wug.","",""
"","image-keyboard-response","374","467575","0.0-8.0-0.42","FL","0e2jb9zq47","1440","900","en","UAJIIN24","null","","","","","","","","learning/Slide123.JPG","null","","","","",""
"","html-keyboard-response","375","468730","0.0-8.0-1.42","FL","0e2jb9zq47","1440","900","en","UAJIIN24","null","","","","learningBlock2","","","","That was a bim.","null","","","","",""
"","html-keyboard-response","376","469732","0.0-8.0-2.42","FL","0e2jb9zq47","1440","900","en","UAJIIN24","null","","","","learningBlock2","","","","<div style=""font-size:60px;""> </div>","null","FL","learning/Slide123.JPG","That was a bim.","",""
"","image-keyboard-response","377","469913","0.0-8.0-0.43","FL","0e2jb9zq47","1440","900","en","UAJIIN24","null","","","","","","","","learning/Slide124.JPG","null","","","","",""
"","html-keyboard-response","378","471065","0.0-8.0-1.43","FL","0e2jb9zq47","1440","900","en","UAJIIN24","null","","","","learningBlock2","","","","That was a tob.","null","","","","",""
"","html-keyboard-response","379","472068","0.0-8.0-2.43","FL","0e2jb9zq47","1440","900","en","UAJIIN24","null","","","","learningBlock2","","","","<div style=""font-size:60px;""> </div>","null","FL","learning/Slide124.JPG","That was a tob.","",""
"","image-keyboard-response","380","472245","0.0-8.0-0.44","FL","0e2jb9zq47","1440","900","en","UAJIIN24","null","","","","","","","","learning/Slide125.JPG","null","","","","",""
"","html-keyboard-response","381","473399","0.0-8.0-1.44","FL","0e2jb9zq47","1440","900","en","UAJIIN24","null","","","","learningBlock2","","","","That was a bim.","null","","","","",""
"","html-keyboard-response","382","474401","0.0-8.0-2.44","FL","0e2jb9zq47","1440","900","en","UAJIIN24","null","","","","learningBlock2","","","","<div style=""font-size:60px;""> </div>","null","FL","learning/Slide125.JPG","That was a bim.","",""
"","image-keyboard-response","383","474577","0.0-8.0-0.45","FL","0e2jb9zq47","1440","900","en","UAJIIN24","null","","","","","","","","learning/Slide126.JPG","null","","","","",""
"","html-keyboard-response","384","475733","0.0-8.0-1.45","FL","0e2jb9zq47","1440","900","en","UAJIIN24","null","","","","learningBlock2","","","","That was a tob.","null","","","","",""
"","html-keyboard-response","385","476735","0.0-8.0-2.45","FL","0e2jb9zq47","1440","900","en","UAJIIN24","null","","","","learningBlock2","","","","<div style=""font-size:60px;""> </div>","null","FL","learning/Slide126.JPG","That was a tob.","",""
"","image-keyboard-response","386","476914","0.0-8.0-0.46","FL","0e2jb9zq47","1440","900","en","UAJIIN24","null","","","","","","","","learning/Slide127.JPG","null","","","","",""
"","html-keyboard-response","387","478068","0.0-8.0-1.46","FL","0e2jb9zq47","1440","900","en","UAJIIN24","null","","","","learningBlock2","","","","That was a dep.","null","","","","",""
"","html-keyboard-response","388","479070","0.0-8.0-2.46","FL","0e2jb9zq47","1440","900","en","UAJIIN24","null","","","","learningBlock2","","","","<div style=""font-size:60px;""> </div>","null","FL","learning/Slide127.JPG","That was a dep.","",""
"","image-keyboard-response","389","479246","0.0-8.0-0.47","FL","0e2jb9zq47","1440","900","en","UAJIIN24","null","","","","","","","","learning/Slide128.JPG","null","","","","",""
"","html-keyboard-response","390","480399","0.0-8.0-1.47","FL","0e2jb9zq47","1440","900","en","UAJIIN24","null","","","","learningBlock2","","","","That was a wug.","null","","","","",""
"","html-keyboard-response","391","481401","0.0-8.0-2.47","FL","0e2jb9zq47","1440","900","en","UAJIIN24","null","","","","learningBlock2","","","","<div style=""font-size:60px;""> </div>","null","FL","learning/Slide128.JPG","That was a wug.","",""
"","image-keyboard-response","392","481580","0.0-8.0-0.48","FL","0e2jb9zq47","1440","900","en","UAJIIN24","null","","","","","","","","learning/Slide129.JPG","null","","","","",""
"","html-keyboard-response","393","482735","0.0-8.0-1.48","FL","0e2jb9zq47","1440","900","en","UAJIIN24","null","","","","learningBlock2","","","","That was a tob.","null","","","","",""
"","html-keyboard-response","394","483738","0.0-8.0-2.48","FL","0e2jb9zq47","1440","900","en","UAJIIN24","null","","","","learningBlock2","","","","<div style=""font-size:60px;""> </div>","null","FL","learning/Slide129.JPG","That was a tob.","",""
"","image-keyboard-response","395","483913","0.0-8.0-0.49","FL","0e2jb9zq47","1440","900","en","UAJIIN24","null","","","","","","","","learning/Slide130.JPG","null","","","","",""
"","html-keyboard-response","396","485065","0.0-8.0-1.49","FL","0e2jb9zq47","1440","900","en","UAJIIN24","null","","","","learningBlock2","","","","That was a wug.","null","","","","",""
"","html-keyboard-response","397","486068","0.0-8.0-2.49","FL","0e2jb9zq47","1440","900","en","UAJIIN24","null","","","","learningBlock2","","","","<div style=""font-size:60px;""> </div>","null","FL","learning/Slide130.JPG","That was a wug.","",""
"","image-keyboard-response","398","486247","0.0-8.0-0.50","FL","0e2jb9zq47","1440","900","en","UAJIIN24","null","","","","","","","","learning/Slide131.JPG","null","","","","",""
"","html-keyboard-response","399","487401","0.0-8.0-1.50","FL","0e2jb9zq47","1440","900","en","UAJIIN24","null","","","","learningBlock2","","","","That was a bim.","null","","","","",""
"","html-keyboard-response","400","488406","0.0-8.0-2.50","FL","0e2jb9zq47","1440","900","en","UAJIIN24","null","","","","learningBlock2","","","","<div style=""font-size:60px;""> </div>","null","FL","learning/Slide131.JPG","That was a bim.","",""
"","image-keyboard-response","401","488586","0.0-8.0-0.51","FL","0e2jb9zq47","1440","900","en","UAJIIN24","null","","","","","","","","learning/Slide132.JPG","null","","","","",""
"","html-keyboard-response","402","489740","0.0-8.0-1.51","FL","0e2jb9zq47","1440","900","en","UAJIIN24","null","","","","learningBlock2","","","","That was a dep.","null","","","","",""
"","html-keyboard-response","403","490741","0.0-8.0-2.51","FL","0e2jb9zq47","1440","900","en","UAJIIN24","null","","","","learningBlock2","","","","<div style=""font-size:60px;""> </div>","null","FL","learning/Slide132.JPG","That was a dep.","",""
"","image-keyboard-response","404","490918","0.0-8.0-0.52","FL","0e2jb9zq47","1440","900","en","UAJIIN24","null","","","","","","","","learning/Slide133.JPG","null","","","","",""
"","html-keyboard-response","405","492073","0.0-8.0-1.52","FL","0e2jb9zq47","1440","900","en","UAJIIN24","null","","","","learningBlock2","","","","That was a tob.","null","","","","",""
"","html-keyboard-response","406","493076","0.0-8.0-2.52","FL","0e2jb9zq47","1440","900","en","UAJIIN24","null","","","","learningBlock2","","","","<div style=""font-size:60px;""> </div>","null","FL","learning/Slide133.JPG","That was a tob.","",""
"","image-keyboard-response","407","493257","0.0-8.0-0.53","FL","0e2jb9zq47","1440","900","en","UAJIIN24","null","","","","","","","","learning/Slide134.JPG","null","","","","",""
"","html-keyboard-response","408","494414","0.0-8.0-1.53","FL","0e2jb9zq47","1440","900","en","UAJIIN24","null","","","","learningBlock2","","","","That was a dep.","null","","","","",""
"","html-keyboard-response","409","495414","0.0-8.0-2.53","FL","0e2jb9zq47","1440","900","en","UAJIIN24","null","","","","learningBlock2","","","","<div style=""font-size:60px;""> </div>","null","FL","learning/Slide134.JPG","That was a dep.","",""
"","image-keyboard-response","410","495590","0.0-8.0-0.54","FL","0e2jb9zq47","1440","900","en","UAJIIN24","null","","","","","","","","learning/Slide135.JPG","null","","","","",""
"","html-keyboard-response","411","496742","0.0-8.0-1.54","FL","0e2jb9zq47","1440","900","en","UAJIIN24","null","","","","learningBlock2","","","","That was a tob.","null","","","","",""
"","html-keyboard-response","412","497746","0.0-8.0-2.54","FL","0e2jb9zq47","1440","900","en","UAJIIN24","null","","","","learningBlock2","","","","<div style=""font-size:60px;""> </div>","null","FL","learning/Slide135.JPG","That was a tob.","",""
"","image-keyboard-response","413","497924","0.0-8.0-0.55","FL","0e2jb9zq47","1440","900","en","UAJIIN24","null","","","","","","","","learning/Slide136.JPG","null","","","","",""
"","html-keyboard-response","414","499079","0.0-8.0-1.55","FL","0e2jb9zq47","1440","900","en","UAJIIN24","null","","","","learningBlock2","","","","That was a wug.","null","","","","",""
"","html-keyboard-response","415","500080","0.0-8.0-2.55","FL","0e2jb9zq47","1440","900","en","UAJIIN24","null","","","","learningBlock2","","","","<div style=""font-size:60px;""> </div>","null","FL","learning/Slide136.JPG","That was a wug.","",""
"","image-keyboard-response","416","500257","0.0-8.0-0.56","FL","0e2jb9zq47","1440","900","en","UAJIIN24","null","","","","","","","","learning/Slide137.JPG","null","","","","",""
"","html-keyboard-response","417","501414","0.0-8.0-1.56","FL","0e2jb9zq47","1440","900","en","UAJIIN24","null","","","","learningBlock2","","","","That was a tob.","null","","","","",""
"","html-keyboard-response","418","502416","0.0-8.0-2.56","FL","0e2jb9zq47","1440","900","en","UAJIIN24","null","","","","learningBlock2","","","","<div style=""font-size:60px;""> </div>","null","FL","learning/Slide137.JPG","That was a tob.","",""
"","image-keyboard-response","419","502596","0.0-8.0-0.57","FL","0e2jb9zq47","1440","900","en","UAJIIN24","null","","","","","","","","learning/Slide138.JPG","null","","","","",""
"","html-keyboard-response","420","503749","0.0-8.0-1.57","FL","0e2jb9zq47","1440","900","en","UAJIIN24","null","","","","learningBlock2","","","","That was a bim.","null","","","","",""
"","html-keyboard-response","421","504752","0.0-8.0-2.57","FL","0e2jb9zq47","1440","900","en","UAJIIN24","null","","","","learningBlock2","","","","<div style=""font-size:60px;""> </div>","null","FL","learning/Slide138.JPG","That was a bim.","",""
"","image-keyboard-response","422","504928","0.0-8.0-0.58","FL","0e2jb9zq47","1440","900","en","UAJIIN24","null","","","","","","","","learning/Slide139.JPG","null","","","","",""
"","html-keyboard-response","423","506081","0.0-8.0-1.58","FL","0e2jb9zq47","1440","900","en","UAJIIN24","null","","","","learningBlock2","","","","That was a wug.","null","","","","",""
"","html-keyboard-response","424","507085","0.0-8.0-2.58","FL","0e2jb9zq47","1440","900","en","UAJIIN24","null","","","","learningBlock2","","","","<div style=""font-size:60px;""> </div>","null","FL","learning/Slide139.JPG","That was a wug.","",""
"","image-keyboard-response","425","507262","0.0-8.0-0.59","FL","0e2jb9zq47","1440","900","en","UAJIIN24","null","","","","","","","","learning/Slide140.JPG","null","","","","",""
"","html-keyboard-response","426","508414","0.0-8.0-1.59","FL","0e2jb9zq47","1440","900","en","UAJIIN24","null","","","","learningBlock2","","","","That was a dep.","null","","","","",""
"","html-keyboard-response","427","509417","0.0-8.0-2.59","FL","0e2jb9zq47","1440","900","en","UAJIIN24","null","","","","learningBlock2","","","","<div style=""font-size:60px;""> </div>","null","FL","learning/Slide140.JPG","That was a dep.","",""
"","image-keyboard-response","428","509595","0.0-8.0-0.60","FL","0e2jb9zq47","1440","900","en","UAJIIN24","null","","","","","","","","learning/Slide141.JPG","null","","","","",""
"","html-keyboard-response","429","510747","0.0-8.0-1.60","FL","0e2jb9zq47","1440","900","en","UAJIIN24","null","","","","learningBlock2","","","","That was a tob.","null","","","","",""
"","html-keyboard-response","430","511749","0.0-8.0-2.60","FL","0e2jb9zq47","1440","900","en","UAJIIN24","null","","","","learningBlock2","","","","<div style=""font-size:60px;""> </div>","null","FL","learning/Slide141.JPG","That was a tob.","",""
"","image-keyboard-response","431","511928","0.0-8.0-0.61","FL","0e2jb9zq47","1440","900","en","UAJIIN24","null","","","","","","","","learning/Slide142.JPG","null","","","","",""
"","html-keyboard-response","432","513082","0.0-8.0-1.61","FL","0e2jb9zq47","1440","900","en","UAJIIN24","null","","","","learningBlock2","","","","That was a wug.","null","","","","",""
"","html-keyboard-response","433","514088","0.0-8.0-2.61","FL","0e2jb9zq47","1440","900","en","UAJIIN24","null","","","","learningBlock2","","","","<div style=""font-size:60px;""> </div>","null","FL","learning/Slide142.JPG","That was a wug.","",""
"","image-keyboard-response","434","514269","0.0-8.0-0.62","FL","0e2jb9zq47","1440","900","en","UAJIIN24","null","","","","","","","","learning/Slide143.JPG","null","","","","",""
"","html-keyboard-response","435","515422","0.0-8.0-1.62","FL","0e2jb9zq47","1440","900","en","UAJIIN24","null","","","","learningBlock2","","","","That was a bim.","null","","","","",""
"","html-keyboard-response","436","516422","0.0-8.0-2.62","FL","0e2jb9zq47","1440","900","en","UAJIIN24","null","","","","learningBlock2","","","","<div style=""font-size:60px;""> </div>","null","FL","learning/Slide143.JPG","That was a bim.","",""
"","image-keyboard-response","437","516601","0.0-8.0-0.63","FL","0e2jb9zq47","1440","900","en","UAJIIN24","null","","","","","","","","learning/Slide144.JPG","null","","","","",""
"","html-keyboard-response","438","517752","0.0-8.0-1.63","FL","0e2jb9zq47","1440","900","en","UAJIIN24","null","","","","learningBlock2","","","","That was a dep.","null","","","","",""
"","html-keyboard-response","439","518755","0.0-8.0-2.63","FL","0e2jb9zq47","1440","900","en","UAJIIN24","null","","","","learningBlock2","","","","<div style=""font-size:60px;""> </div>","null","FL","learning/Slide144.JPG","That was a dep.","",""
"","image-keyboard-response","440","518931","0.0-8.0-0.64","FL","0e2jb9zq47","1440","900","en","UAJIIN24","null","","","","","","","","learning/Slide145.JPG","null","","","","",""
"","html-keyboard-response","441","520086","0.0-8.0-1.64","FL","0e2jb9zq47","1440","900","en","UAJIIN24","null","","","","learningBlock2","","","","That was a bim.","null","","","","",""
"","html-keyboard-response","442","521088","0.0-8.0-2.64","FL","0e2jb9zq47","1440","900","en","UAJIIN24","null","","","","learningBlock2","","","","<div style=""font-size:60px;""> </div>","null","FL","learning/Slide145.JPG","That was a bim.","",""
"","image-keyboard-response","443","521264","0.0-8.0-0.65","FL","0e2jb9zq47","1440","900","en","UAJIIN24","null","","","","","","","","learning/Slide146.JPG","null","","","","",""
"","html-keyboard-response","444","522416","0.0-8.0-1.65","FL","0e2jb9zq47","1440","900","en","UAJIIN24","null","","","","learningBlock2","","","","That was a tob.","null","","","","",""
"","html-keyboard-response","445","523419","0.0-8.0-2.65","FL","0e2jb9zq47","1440","900","en","UAJIIN24","null","","","","learningBlock2","","","","<div style=""font-size:60px;""> </div>","null","FL","learning/Slide146.JPG","That was a tob.","",""
"","image-keyboard-response","446","523597","0.0-8.0-0.66","FL","0e2jb9zq47","1440","900","en","UAJIIN24","null","","","","","","","","learning/Slide147.JPG","null","","","","",""
"","html-keyboard-response","447","524750","0.0-8.0-1.66","FL","0e2jb9zq47","1440","900","en","UAJIIN24","null","","","","learningBlock2","","","","That was a wug.","null","","","","",""
"","html-keyboard-response","448","525752","0.0-8.0-2.66","FL","0e2jb9zq47","1440","900","en","UAJIIN24","null","","","","learningBlock2","","","","<div style=""font-size:60px;""> </div>","null","FL","learning/Slide147.JPG","That was a wug.","",""
"","image-keyboard-response","449","525932","0.0-8.0-0.67","FL","0e2jb9zq47","1440","900","en","UAJIIN24","null","","","","","","","","learning/Slide148.JPG","null","","","","",""
"","html-keyboard-response","450","527085","0.0-8.0-1.67","FL","0e2jb9zq47","1440","900","en","UAJIIN24","null","","","","learningBlock2","","","","That was a bim.","null","","","","",""
"","html-keyboard-response","451","528087","0.0-8.0-2.67","FL","0e2jb9zq47","1440","900","en","UAJIIN24","null","","","","learningBlock2","","","","<div style=""font-size:60px;""> </div>","null","FL","learning/Slide148.JPG","That was a bim.","",""
"","image-keyboard-response","452","528264","0.0-8.0-0.68","FL","0e2jb9zq47","1440","900","en","UAJIIN24","null","","","","","","","","learning/Slide149.JPG","null","","","","",""
"","html-keyboard-response","453","529416","0.0-8.0-1.68","FL","0e2jb9zq47","1440","900","en","UAJIIN24","null","","","","learningBlock2","","","","That was a dep.","null","","","","",""
"","html-keyboard-response","454","530418","0.0-8.0-2.68","FL","0e2jb9zq47","1440","900","en","UAJIIN24","null","","","","learningBlock2","","","","<div style=""font-size:60px;""> </div>","null","FL","learning/Slide149.JPG","That was a dep.","",""
"","image-keyboard-response","455","530594","0.0-8.0-0.69","FL","0e2jb9zq47","1440","900","en","UAJIIN24","null","","","","","","","","learning/Slide150.JPG","null","","","","",""
"","html-keyboard-response","456","531746","0.0-8.0-1.69","FL","0e2jb9zq47","1440","900","en","UAJIIN24","null","","","","learningBlock2","","","","That was a wug.","null","","","","",""
"","html-keyboard-response","457","532749","0.0-8.0-2.69","FL","0e2jb9zq47","1440","900","en","UAJIIN24","null","","","","learningBlock2","","","","<div style=""font-size:60px;""> </div>","null","FL","learning/Slide150.JPG","That was a wug.","",""
"","image-keyboard-response","458","532925","0.0-8.0-0.70","FL","0e2jb9zq47","1440","900","en","UAJIIN24","null","","","","","","","","learning/Slide151.JPG","null","","","","",""
"","html-keyboard-response","459","534079","0.0-8.0-1.70","FL","0e2jb9zq47","1440","900","en","UAJIIN24","null","","","","learningBlock2","","","","That was a dep.","null","","","","",""
"","html-keyboard-response","460","535085","0.0-8.0-2.70","FL","0e2jb9zq47","1440","900","en","UAJIIN24","null","","","","learningBlock2","","","","<div style=""font-size:60px;""> </div>","null","FL","learning/Slide151.JPG","That was a dep.","",""
"","image-keyboard-response","461","535264","0.0-8.0-0.71","FL","0e2jb9zq47","1440","900","en","UAJIIN24","null","","","","","","","","learning/Slide152.JPG","null","","","","",""
"","html-keyboard-response","462","536420","0.0-8.0-1.71","FL","0e2jb9zq47","1440","900","en","UAJIIN24","null","","","","learningBlock2","","","","That was a wug.","null","","","","",""
"","html-keyboard-response","463","537421","0.0-8.0-2.71","FL","0e2jb9zq47","1440","900","en","UAJIIN24","null","","","","learningBlock2","","","","<div style=""font-size:60px;""> </div>","null","FL","learning/Slide152.JPG","That was a wug.","",""
"","image-keyboard-response","464","537597","0.0-8.0-0.72","FL","0e2jb9zq47","1440","900","en","UAJIIN24","null","","","","","","","","learning/Slide153.JPG","null","","","","",""
"","html-keyboard-response","465","538752","0.0-8.0-1.72","FL","0e2jb9zq47","1440","900","en","UAJIIN24","null","","","","learningBlock2","","","","That was a bim.","null","","","","",""
"","html-keyboard-response","466","539754","0.0-8.0-2.72","FL","0e2jb9zq47","1440","900","en","UAJIIN24","null","","","","learningBlock2","","","","<div style=""font-size:60px;""> </div>","null","FL","learning/Slide153.JPG","That was a bim.","",""
"","image-keyboard-response","467","539933","0.0-8.0-0.73","FL","0e2jb9zq47","1440","900","en","UAJIIN24","null","","","","","","","","learning/Slide154.JPG","null","","","","",""
"","html-keyboard-response","468","541087","0.0-8.0-1.73","FL","0e2jb9zq47","1440","900","en","UAJIIN24","null","","","","learningBlock2","","","","That was a tob.","null","","","","",""
"","html-keyboard-response","469","542092","0.0-8.0-2.73","FL","0e2jb9zq47","1440","900","en","UAJIIN24","null","","","","learningBlock2","","","","<div style=""font-size:60px;""> </div>","null","FL","learning/Slide154.JPG","That was a tob.","",""
"","image-keyboard-response","470","542268","0.0-8.0-0.74","FL","0e2jb9zq47","1440","900","en","UAJIIN24","null","","","","","","","","learning/Slide155.JPG","null","","","","",""
"","html-keyboard-response","471","543423","0.0-8.0-1.74","FL","0e2jb9zq47","1440","900","en","UAJIIN24","null","","","","learningBlock2","","","","That was a dep.","null","","","","",""
"","html-keyboard-response","472","544426","0.0-8.0-2.74","FL","0e2jb9zq47","1440","900","en","UAJIIN24","null","","","","learningBlock2","","","","<div style=""font-size:60px;""> </div>","null","FL","learning/Slide155.JPG","That was a dep.","",""
"","image-keyboard-response","473","544602","0.0-8.0-0.75","FL","0e2jb9zq47","1440","900","en","UAJIIN24","null","","","","","","","","learning/Slide156.JPG","null","","","","",""
"","html-keyboard-response","474","545756","0.0-8.0-1.75","FL","0e2jb9zq47","1440","900","en","UAJIIN24","null","","","","learningBlock2","","","","That was a bim.","null","","","","",""
"","html-keyboard-response","475","546759","0.0-8.0-2.75","FL","0e2jb9zq47","1440","900","en","UAJIIN24","null","","","","learningBlock2","","","","<div style=""font-size:60px;""> </div>","null","FL","learning/Slide156.JPG","That was a bim.","",""
"","image-keyboard-response","476","546936","0.0-8.0-0.76","FL","0e2jb9zq47","1440","900","en","UAJIIN24","null","","","","","","","","learning/Slide157.JPG","null","","","","",""
"","html-keyboard-response","477","548087","0.0-8.0-1.76","FL","0e2jb9zq47","1440","900","en","UAJIIN24","null","","","","learningBlock2","","","","That was a dep.","null","","","","",""
"","html-keyboard-response","478","549088","0.0-8.0-2.76","FL","0e2jb9zq47","1440","900","en","UAJIIN24","null","","","","learningBlock2","","","","<div style=""font-size:60px;""> </div>","null","FL","learning/Slide157.JPG","That was a dep.","",""
"","image-keyboard-response","479","549266","0.0-8.0-0.77","FL","0e2jb9zq47","1440","900","en","UAJIIN24","null","","","","","","","","learning/Slide158.JPG","null","","","","",""
"","html-keyboard-response","480","550418","0.0-8.0-1.77","FL","0e2jb9zq47","1440","900","en","UAJIIN24","null","","","","learningBlock2","","","","That was a tob.","null","","","","",""
"","html-keyboard-response","481","551420","0.0-8.0-2.77","FL","0e2jb9zq47","1440","900","en","UAJIIN24","null","","","","learningBlock2","","","","<div style=""font-size:60px;""> </div>","null","FL","learning/Slide158.JPG","That was a tob.","",""
"","image-keyboard-response","482","551596","0.0-8.0-0.78","FL","0e2jb9zq47","1440","900","en","UAJIIN24","null","","","","","","","","learning/Slide159.JPG","null","","","","",""
"","html-keyboard-response","483","552754","0.0-8.0-1.78","FL","0e2jb9zq47","1440","900","en","UAJIIN24","null","","","","learningBlock2","","","","That was a dep.","null","","","","",""
"","html-keyboard-response","484","553756","0.0-8.0-2.78","FL","0e2jb9zq47","1440","900","en","UAJIIN24","null","","","","learningBlock2","","","","<div style=""font-size:60px;""> </div>","null","FL","learning/Slide159.JPG","That was a dep.","",""
"","image-keyboard-response","485","553932","0.0-8.0-0.79","FL","0e2jb9zq47","1440","900","en","UAJIIN24","null","","","","","","","","learning/Slide160.JPG","null","","","","",""
"","html-keyboard-response","486","555087","0.0-8.0-1.79","FL","0e2jb9zq47","1440","900","en","UAJIIN24","null","","","","learningBlock2","","","","That was a wug.","null","","","","",""
"","html-keyboard-response","487","556090","0.0-8.0-2.79","FL","0e2jb9zq47","1440","900","en","UAJIIN24","null","","","","learningBlock2","","","","<div style=""font-size:60px;""> </div>","null","FL","learning/Slide160.JPG","That was a wug.","",""
"","resize2","488","560412","0.0-9.0","FL","0e2jb9zq47","1440","900","en","UAJIIN24","","","","","","","104","1.04","","","","","","",""
