"success","trial_type","trial_index","time_elapsed","internal_node_id","condition","subject","screen_width","screen_height","language","codeword","rt","responses","url","view_history","test_part","final_height_px","final_width_px","scale_factor","stimulus","key_press","learningType","presentedImage","presentedLabel","button_pressed","response"
"true","fullscreen","0","3509","0.0-0.0","LF","408x5p8cy7","2560","1440","en","va08ar03","","","","","","","","","","","","","","",""
"","survey-html-form","1","8644","0.0-1.0","LF","408x5p8cy7","2560","1440","en","va08ar03","5130.360000010114","{""language"":""en""}","","","","","","","","","","","","",""
"","external-html","2","86875","0.0-3.0-0.0","LF","408x5p8cy7","2560","1440","en","va08ar03","78209.85499996459","","text/information_english.html","","","","","","","","","","","",""
"","external-html","3","111409","0.0-3.0-1.0","LF","408x5p8cy7","2560","1440","en","va08ar03","24468.244999996386","","text/consent_english.html","","","","","","","","","","","",""
"","survey-html-form","4","238779","0.0-3.0-2.0","LF","408x5p8cy7","2560","1440","en","va08ar03","127360.4499999783","{""codeword_enter"":""va08ar03""}","","","","","","","","","","","","",""
"","instructions","5","257988","0.0-4.0","LF","408x5p8cy7","2560","1440","en","va08ar03","NA","","","[{""page_index"":0,""viewing_time"":4537.160000007134},{""page_index"":1,""viewing_time"":13169.304999988526}]","instructions","","","","","","","","","",""
"","resize","6","331370","0.0-5.0","LF","408x5p8cy7","2560","1440","en","va08ar03","","","","","","","299","1.8984126984126986","","","","","","",""
"","html-keyboard-response","7","332374","0.0-6.0-0.0","LF","408x5p8cy7","2560","1440","en","va08ar03","null","","","","learningBlock1","","","","This is a tob:","null","","","","",""
"","image-keyboard-response","8","332704","0.0-6.0-1.0","LF","408x5p8cy7","2560","1440","en","va08ar03","null","","","","","","","","learning/Slide1.JPG","null","","","","",""
"","html-keyboard-response","9","333705","0.0-6.0-2.0","LF","408x5p8cy7","2560","1440","en","va08ar03","null","","","","learningBlock1","","","","<div style=""font-size:60px;""> </div>","null","LF","learning/Slide1.JPG","This is a tob:","",""
"","html-keyboard-response","10","334707","0.0-6.0-0.1","LF","408x5p8cy7","2560","1440","en","va08ar03","null","","","","learningBlock1","","","","This is a wug:","null","","","","",""
"","image-keyboard-response","11","335034","0.0-6.0-1.1","LF","408x5p8cy7","2560","1440","en","va08ar03","null","","","","","","","","learning/Slide2.JPG","null","","","","",""
"","html-keyboard-response","12","336037","0.0-6.0-2.1","LF","408x5p8cy7","2560","1440","en","va08ar03","null","","","","learningBlock1","","","","<div style=""font-size:60px;""> </div>","null","LF","learning/Slide2.JPG","This is a wug:","",""
"","html-keyboard-response","13","337039","0.0-6.0-0.2","LF","408x5p8cy7","2560","1440","en","va08ar03","null","","","","learningBlock1","","","","This is a bim:","null","","","","",""
"","image-keyboard-response","14","337367","0.0-6.0-1.2","LF","408x5p8cy7","2560","1440","en","va08ar03","null","","","","","","","","learning/Slide3.JPG","null","","","","",""
"","html-keyboard-response","15","338369","0.0-6.0-2.2","LF","408x5p8cy7","2560","1440","en","va08ar03","null","","","","learningBlock1","","","","<div style=""font-size:60px;""> </div>","null","LF","learning/Slide3.JPG","This is a bim:","",""
"","html-keyboard-response","16","339370","0.0-6.0-0.3","LF","408x5p8cy7","2560","1440","en","va08ar03","null","","","","learningBlock1","","","","This is a dep:","null","","","","",""
"","image-keyboard-response","17","339697","0.0-6.0-1.3","LF","408x5p8cy7","2560","1440","en","va08ar03","null","","","","","","","","learning/Slide4.JPG","null","","","","",""
"","html-keyboard-response","18","340700","0.0-6.0-2.3","LF","408x5p8cy7","2560","1440","en","va08ar03","null","","","","learningBlock1","","","","<div style=""font-size:60px;""> </div>","null","LF","learning/Slide4.JPG","This is a dep:","",""
"","html-keyboard-response","19","341701","0.0-6.0-0.4","LF","408x5p8cy7","2560","1440","en","va08ar03","null","","","","learningBlock1","","","","This is a wug:","null","","","","",""
"","image-keyboard-response","20","342029","0.0-6.0-1.4","LF","408x5p8cy7","2560","1440","en","va08ar03","null","","","","","","","","learning/Slide5.JPG","null","","","","",""
"","html-keyboard-response","21","343042","0.0-6.0-2.4","LF","408x5p8cy7","2560","1440","en","va08ar03","null","","","","learningBlock1","","","","<div style=""font-size:60px;""> </div>","null","LF","learning/Slide5.JPG","This is a wug:","",""
"","html-keyboard-response","22","344043","0.0-6.0-0.5","LF","408x5p8cy7","2560","1440","en","va08ar03","null","","","","learningBlock1","","","","This is a dep:","null","","","","",""
"","image-keyboard-response","23","344371","0.0-6.0-1.5","LF","408x5p8cy7","2560","1440","en","va08ar03","null","","","","","","","","learning/Slide6.JPG","null","","","","",""
"","html-keyboard-response","24","345372","0.0-6.0-2.5","LF","408x5p8cy7","2560","1440","en","va08ar03","null","","","","learningBlock1","","","","<div style=""font-size:60px;""> </div>","null","LF","learning/Slide6.JPG","This is a dep:","",""
"","html-keyboard-response","25","346375","0.0-6.0-0.6","LF","408x5p8cy7","2560","1440","en","va08ar03","null","","","","learningBlock1","","","","This is a wug:","null","","","","",""
"","image-keyboard-response","26","346702","0.0-6.0-1.6","LF","408x5p8cy7","2560","1440","en","va08ar03","null","","","","","","","","learning/Slide7.JPG","null","","","","",""
"","html-keyboard-response","27","347703","0.0-6.0-2.6","LF","408x5p8cy7","2560","1440","en","va08ar03","null","","","","learningBlock1","","","","<div style=""font-size:60px;""> </div>","null","LF","learning/Slide7.JPG","This is a wug:","",""
"","html-keyboard-response","28","348705","0.0-6.0-0.7","LF","408x5p8cy7","2560","1440","en","va08ar03","null","","","","learningBlock1","","","","This is a bim:","null","","","","",""
"","image-keyboard-response","29","349033","0.0-6.0-1.7","LF","408x5p8cy7","2560","1440","en","va08ar03","null","","","","","","","","learning/Slide8.JPG","null","","","","",""
"","html-keyboard-response","30","350034","0.0-6.0-2.7","LF","408x5p8cy7","2560","1440","en","va08ar03","null","","","","learningBlock1","","","","<div style=""font-size:60px;""> </div>","null","LF","learning/Slide8.JPG","This is a bim:","",""
"","html-keyboard-response","31","351037","0.0-6.0-0.8","LF","408x5p8cy7","2560","1440","en","va08ar03","null","","","","learningBlock1","","","","This is a wug:","null","","","","",""
"","image-keyboard-response","32","351365","0.0-6.0-1.8","LF","408x5p8cy7","2560","1440","en","va08ar03","null","","","","","","","","learning/Slide9.JPG","null","","","","",""
"","html-keyboard-response","33","352368","0.0-6.0-2.8","LF","408x5p8cy7","2560","1440","en","va08ar03","null","","","","learningBlock1","","","","<div style=""font-size:60px;""> </div>","null","LF","learning/Slide9.JPG","This is a wug:","",""
"","html-keyboard-response","34","353369","0.0-6.0-0.9","LF","408x5p8cy7","2560","1440","en","va08ar03","null","","","","learningBlock1","","","","This is a dep:","null","","","","",""
"","image-keyboard-response","35","353697","0.0-6.0-1.9","LF","408x5p8cy7","2560","1440","en","va08ar03","null","","","","","","","","learning/Slide10.JPG","null","","","","",""
"","html-keyboard-response","36","354699","0.0-6.0-2.9","LF","408x5p8cy7","2560","1440","en","va08ar03","null","","","","learningBlock1","","","","<div style=""font-size:60px;""> </div>","null","LF","learning/Slide10.JPG","This is a dep:","",""
"","html-keyboard-response","37","355701","0.0-6.0-0.10","LF","408x5p8cy7","2560","1440","en","va08ar03","null","","","","learningBlock1","","","","This is a tob:","null","","","","",""
"","image-keyboard-response","38","356028","0.0-6.0-1.10","LF","408x5p8cy7","2560","1440","en","va08ar03","null","","","","","","","","learning/Slide11.JPG","null","","","","",""
"","html-keyboard-response","39","357030","0.0-6.0-2.10","LF","408x5p8cy7","2560","1440","en","va08ar03","null","","","","learningBlock1","","","","<div style=""font-size:60px;""> </div>","null","LF","learning/Slide11.JPG","This is a tob:","",""
"","html-keyboard-response","40","358032","0.0-6.0-0.11","LF","408x5p8cy7","2560","1440","en","va08ar03","null","","","","learningBlock1","","","","This is a dep:","null","","","","",""
"","image-keyboard-response","41","358359","0.0-6.0-1.11","LF","408x5p8cy7","2560","1440","en","va08ar03","null","","","","","","","","learning/Slide12.JPG","null","","","","",""
"","html-keyboard-response","42","359360","0.0-6.0-2.11","LF","408x5p8cy7","2560","1440","en","va08ar03","null","","","","learningBlock1","","","","<div style=""font-size:60px;""> </div>","null","LF","learning/Slide12.JPG","This is a dep:","",""
"","html-keyboard-response","43","360362","0.0-6.0-0.12","LF","408x5p8cy7","2560","1440","en","va08ar03","null","","","","learningBlock1","","","","This is a bim:","null","","","","",""
"","image-keyboard-response","44","360689","0.0-6.0-1.12","LF","408x5p8cy7","2560","1440","en","va08ar03","null","","","","","","","","learning/Slide13.JPG","null","","","","",""
"","html-keyboard-response","45","361690","0.0-6.0-2.12","LF","408x5p8cy7","2560","1440","en","va08ar03","null","","","","learningBlock1","","","","<div style=""font-size:60px;""> </div>","null","LF","learning/Slide13.JPG","This is a bim:","",""
"","html-keyboard-response","46","362692","0.0-6.0-0.13","LF","408x5p8cy7","2560","1440","en","va08ar03","null","","","","learningBlock1","","","","This is a wug:","null","","","","",""
"","image-keyboard-response","47","363019","0.0-6.0-1.13","LF","408x5p8cy7","2560","1440","en","va08ar03","null","","","","","","","","learning/Slide14.JPG","null","","","","",""
"","html-keyboard-response","48","364021","0.0-6.0-2.13","LF","408x5p8cy7","2560","1440","en","va08ar03","null","","","","learningBlock1","","","","<div style=""font-size:60px;""> </div>","null","LF","learning/Slide14.JPG","This is a wug:","",""
"","html-keyboard-response","49","365025","0.0-6.0-0.14","LF","408x5p8cy7","2560","1440","en","va08ar03","null","","","","learningBlock1","","","","This is a tob:","null","","","","",""
"","image-keyboard-response","50","365352","0.0-6.0-1.14","LF","408x5p8cy7","2560","1440","en","va08ar03","null","","","","","","","","learning/Slide15.JPG","null","","","","",""
"","html-keyboard-response","51","366354","0.0-6.0-2.14","LF","408x5p8cy7","2560","1440","en","va08ar03","null","","","","learningBlock1","","","","<div style=""font-size:60px;""> </div>","null","LF","learning/Slide15.JPG","This is a tob:","",""
"","html-keyboard-response","52","367356","0.0-6.0-0.15","LF","408x5p8cy7","2560","1440","en","va08ar03","null","","","","learningBlock1","","","","This is a dep:","null","","","","",""
"","image-keyboard-response","53","367684","0.0-6.0-1.15","LF","408x5p8cy7","2560","1440","en","va08ar03","null","","","","","","","","learning/Slide16.JPG","null","","","","",""
"","html-keyboard-response","54","368686","0.0-6.0-2.15","LF","408x5p8cy7","2560","1440","en","va08ar03","null","","","","learningBlock1","","","","<div style=""font-size:60px;""> </div>","null","LF","learning/Slide16.JPG","This is a dep:","",""
"","html-keyboard-response","55","369689","0.0-6.0-0.16","LF","408x5p8cy7","2560","1440","en","va08ar03","null","","","","learningBlock1","","","","This is a bim:","null","","","","",""
"","image-keyboard-response","56","370018","0.0-6.0-1.16","LF","408x5p8cy7","2560","1440","en","va08ar03","null","","","","","","","","learning/Slide17.JPG","null","","","","",""
"","html-keyboard-response","57","371021","0.0-6.0-2.16","LF","408x5p8cy7","2560","1440","en","va08ar03","null","","","","learningBlock1","","","","<div style=""font-size:60px;""> </div>","null","LF","learning/Slide17.JPG","This is a bim:","",""
"","html-keyboard-response","58","372023","0.0-6.0-0.17","LF","408x5p8cy7","2560","1440","en","va08ar03","null","","","","learningBlock1","","","","This is a tob:","null","","","","",""
"","image-keyboard-response","59","372352","0.0-6.0-1.17","LF","408x5p8cy7","2560","1440","en","va08ar03","null","","","","","","","","learning/Slide18.JPG","null","","","","",""
"","html-keyboard-response","60","373354","0.0-6.0-2.17","LF","408x5p8cy7","2560","1440","en","va08ar03","null","","","","learningBlock1","","","","<div style=""font-size:60px;""> </div>","null","LF","learning/Slide18.JPG","This is a tob:","",""
"","html-keyboard-response","61","374355","0.0-6.0-0.18","LF","408x5p8cy7","2560","1440","en","va08ar03","null","","","","learningBlock1","","","","This is a wug:","null","","","","",""
"","image-keyboard-response","62","374685","0.0-6.0-1.18","LF","408x5p8cy7","2560","1440","en","va08ar03","null","","","","","","","","learning/Slide19.JPG","null","","","","",""
"","html-keyboard-response","63","375687","0.0-6.0-2.18","LF","408x5p8cy7","2560","1440","en","va08ar03","null","","","","learningBlock1","","","","<div style=""font-size:60px;""> </div>","null","LF","learning/Slide19.JPG","This is a wug:","",""
"","html-keyboard-response","64","376689","0.0-6.0-0.19","LF","408x5p8cy7","2560","1440","en","va08ar03","null","","","","learningBlock1","","","","This is a bim:","null","","","","",""
"","image-keyboard-response","65","377017","0.0-6.0-1.19","LF","408x5p8cy7","2560","1440","en","va08ar03","null","","","","","","","","learning/Slide20.JPG","null","","","","",""
"","html-keyboard-response","66","378020","0.0-6.0-2.19","LF","408x5p8cy7","2560","1440","en","va08ar03","null","","","","learningBlock1","","","","<div style=""font-size:60px;""> </div>","null","LF","learning/Slide20.JPG","This is a bim:","",""
"","html-keyboard-response","67","379021","0.0-6.0-0.20","LF","408x5p8cy7","2560","1440","en","va08ar03","null","","","","learningBlock1","","","","This is a dep:","null","","","","",""
"","image-keyboard-response","68","379348","0.0-6.0-1.20","LF","408x5p8cy7","2560","1440","en","va08ar03","null","","","","","","","","learning/Slide21.JPG","null","","","","",""
"","html-keyboard-response","69","380350","0.0-6.0-2.20","LF","408x5p8cy7","2560","1440","en","va08ar03","null","","","","learningBlock1","","","","<div style=""font-size:60px;""> </div>","null","LF","learning/Slide21.JPG","This is a dep:","",""
"","html-keyboard-response","70","381353","0.0-6.0-0.21","LF","408x5p8cy7","2560","1440","en","va08ar03","null","","","","learningBlock1","","","","This is a bim:","null","","","","",""
"","image-keyboard-response","71","381680","0.0-6.0-1.21","LF","408x5p8cy7","2560","1440","en","va08ar03","null","","","","","","","","learning/Slide22.JPG","null","","","","",""
"","html-keyboard-response","72","382682","0.0-6.0-2.21","LF","408x5p8cy7","2560","1440","en","va08ar03","null","","","","learningBlock1","","","","<div style=""font-size:60px;""> </div>","null","LF","learning/Slide22.JPG","This is a bim:","",""
"","html-keyboard-response","73","383683","0.0-6.0-0.22","LF","408x5p8cy7","2560","1440","en","va08ar03","null","","","","learningBlock1","","","","This is a tob:","null","","","","",""
"","image-keyboard-response","74","384012","0.0-6.0-1.22","LF","408x5p8cy7","2560","1440","en","va08ar03","null","","","","","","","","learning/Slide23.JPG","null","","","","",""
"","html-keyboard-response","75","385015","0.0-6.0-2.22","LF","408x5p8cy7","2560","1440","en","va08ar03","null","","","","learningBlock1","","","","<div style=""font-size:60px;""> </div>","null","LF","learning/Slide23.JPG","This is a tob:","",""
"","html-keyboard-response","76","386018","0.0-6.0-0.23","LF","408x5p8cy7","2560","1440","en","va08ar03","null","","","","learningBlock1","","","","This is a wug:","null","","","","",""
"","image-keyboard-response","77","386345","0.0-6.0-1.23","LF","408x5p8cy7","2560","1440","en","va08ar03","null","","","","","","","","learning/Slide24.JPG","null","","","","",""
"","html-keyboard-response","78","387347","0.0-6.0-2.23","LF","408x5p8cy7","2560","1440","en","va08ar03","null","","","","learningBlock1","","","","<div style=""font-size:60px;""> </div>","null","LF","learning/Slide24.JPG","This is a wug:","",""
"","html-keyboard-response","79","388349","0.0-6.0-0.24","LF","408x5p8cy7","2560","1440","en","va08ar03","null","","","","learningBlock1","","","","This is a dep:","null","","","","",""
"","image-keyboard-response","80","388683","0.0-6.0-1.24","LF","408x5p8cy7","2560","1440","en","va08ar03","null","","","","","","","","learning/Slide25.JPG","null","","","","",""
"","html-keyboard-response","81","389684","0.0-6.0-2.24","LF","408x5p8cy7","2560","1440","en","va08ar03","null","","","","learningBlock1","","","","<div style=""font-size:60px;""> </div>","null","LF","learning/Slide25.JPG","This is a dep:","",""
"","html-keyboard-response","82","390686","0.0-6.0-0.25","LF","408x5p8cy7","2560","1440","en","va08ar03","null","","","","learningBlock1","","","","This is a wug:","null","","","","",""
"","image-keyboard-response","83","391013","0.0-6.0-1.25","LF","408x5p8cy7","2560","1440","en","va08ar03","null","","","","","","","","learning/Slide26.JPG","null","","","","",""
"","html-keyboard-response","84","392015","0.0-6.0-2.25","LF","408x5p8cy7","2560","1440","en","va08ar03","null","","","","learningBlock1","","","","<div style=""font-size:60px;""> </div>","null","LF","learning/Slide26.JPG","This is a wug:","",""
"","html-keyboard-response","85","393017","0.0-6.0-0.26","LF","408x5p8cy7","2560","1440","en","va08ar03","null","","","","learningBlock1","","","","This is a bim:","null","","","","",""
"","image-keyboard-response","86","393345","0.0-6.0-1.26","LF","408x5p8cy7","2560","1440","en","va08ar03","null","","","","","","","","learning/Slide27.JPG","null","","","","",""
"","html-keyboard-response","87","394347","0.0-6.0-2.26","LF","408x5p8cy7","2560","1440","en","va08ar03","null","","","","learningBlock1","","","","<div style=""font-size:60px;""> </div>","null","LF","learning/Slide27.JPG","This is a bim:","",""
"","html-keyboard-response","88","395349","0.0-6.0-0.27","LF","408x5p8cy7","2560","1440","en","va08ar03","null","","","","learningBlock1","","","","This is a dep:","null","","","","",""
"","image-keyboard-response","89","395678","0.0-6.0-1.27","LF","408x5p8cy7","2560","1440","en","va08ar03","null","","","","","","","","learning/Slide28.JPG","null","","","","",""
"","html-keyboard-response","90","396678","0.0-6.0-2.27","LF","408x5p8cy7","2560","1440","en","va08ar03","null","","","","learningBlock1","","","","<div style=""font-size:60px;""> </div>","null","LF","learning/Slide28.JPG","This is a dep:","",""
"","html-keyboard-response","91","397680","0.0-6.0-0.28","LF","408x5p8cy7","2560","1440","en","va08ar03","null","","","","learningBlock1","","","","This is a tob:","null","","","","",""
"","image-keyboard-response","92","398008","0.0-6.0-1.28","LF","408x5p8cy7","2560","1440","en","va08ar03","null","","","","","","","","learning/Slide29.JPG","null","","","","",""
"","html-keyboard-response","93","399010","0.0-6.0-2.28","LF","408x5p8cy7","2560","1440","en","va08ar03","null","","","","learningBlock1","","","","<div style=""font-size:60px;""> </div>","null","LF","learning/Slide29.JPG","This is a tob:","",""
"","html-keyboard-response","94","400011","0.0-6.0-0.29","LF","408x5p8cy7","2560","1440","en","va08ar03","null","","","","learningBlock1","","","","This is a dep:","null","","","","",""
"","image-keyboard-response","95","400339","0.0-6.0-1.29","LF","408x5p8cy7","2560","1440","en","va08ar03","null","","","","","","","","learning/Slide30.JPG","null","","","","",""
"","html-keyboard-response","96","401341","0.0-6.0-2.29","LF","408x5p8cy7","2560","1440","en","va08ar03","null","","","","learningBlock1","","","","<div style=""font-size:60px;""> </div>","null","LF","learning/Slide30.JPG","This is a dep:","",""
"","html-keyboard-response","97","402343","0.0-6.0-0.30","LF","408x5p8cy7","2560","1440","en","va08ar03","null","","","","learningBlock1","","","","This is a wug:","null","","","","",""
"","image-keyboard-response","98","402670","0.0-6.0-1.30","LF","408x5p8cy7","2560","1440","en","va08ar03","null","","","","","","","","learning/Slide31.JPG","null","","","","",""
"","html-keyboard-response","99","403672","0.0-6.0-2.30","LF","408x5p8cy7","2560","1440","en","va08ar03","null","","","","learningBlock1","","","","<div style=""font-size:60px;""> </div>","null","LF","learning/Slide31.JPG","This is a wug:","",""
"","html-keyboard-response","100","404673","0.0-6.0-0.31","LF","408x5p8cy7","2560","1440","en","va08ar03","null","","","","learningBlock1","","","","This is a tob:","null","","","","",""
"","image-keyboard-response","101","405001","0.0-6.0-1.31","LF","408x5p8cy7","2560","1440","en","va08ar03","null","","","","","","","","learning/Slide32.JPG","null","","","","",""
"","html-keyboard-response","102","406002","0.0-6.0-2.31","LF","408x5p8cy7","2560","1440","en","va08ar03","null","","","","learningBlock1","","","","<div style=""font-size:60px;""> </div>","null","LF","learning/Slide32.JPG","This is a tob:","",""
"","html-keyboard-response","103","407004","0.0-6.0-0.32","LF","408x5p8cy7","2560","1440","en","va08ar03","null","","","","learningBlock1","","","","This is a bim:","null","","","","",""
"","image-keyboard-response","104","407333","0.0-6.0-1.32","LF","408x5p8cy7","2560","1440","en","va08ar03","null","","","","","","","","learning/Slide33.JPG","null","","","","",""
"","html-keyboard-response","105","408341","0.0-6.0-2.32","LF","408x5p8cy7","2560","1440","en","va08ar03","null","","","","learningBlock1","","","","<div style=""font-size:60px;""> </div>","null","LF","learning/Slide33.JPG","This is a bim:","",""
"","html-keyboard-response","106","409344","0.0-6.0-0.33","LF","408x5p8cy7","2560","1440","en","va08ar03","null","","","","learningBlock1","","","","This is a tob:","null","","","","",""
"","image-keyboard-response","107","409672","0.0-6.0-1.33","LF","408x5p8cy7","2560","1440","en","va08ar03","null","","","","","","","","learning/Slide34.JPG","null","","","","",""
"","html-keyboard-response","108","410674","0.0-6.0-2.33","LF","408x5p8cy7","2560","1440","en","va08ar03","null","","","","learningBlock1","","","","<div style=""font-size:60px;""> </div>","null","LF","learning/Slide34.JPG","This is a tob:","",""
"","html-keyboard-response","109","411676","0.0-6.0-0.34","LF","408x5p8cy7","2560","1440","en","va08ar03","null","","","","learningBlock1","","","","This is a bim:","null","","","","",""
"","image-keyboard-response","110","412004","0.0-6.0-1.34","LF","408x5p8cy7","2560","1440","en","va08ar03","null","","","","","","","","learning/Slide35.JPG","null","","","","",""
"","html-keyboard-response","111","413005","0.0-6.0-2.34","LF","408x5p8cy7","2560","1440","en","va08ar03","null","","","","learningBlock1","","","","<div style=""font-size:60px;""> </div>","null","LF","learning/Slide35.JPG","This is a bim:","",""
"","html-keyboard-response","112","414008","0.0-6.0-0.35","LF","408x5p8cy7","2560","1440","en","va08ar03","null","","","","learningBlock1","","","","This is a dep:","null","","","","",""
"","image-keyboard-response","113","414336","0.0-6.0-1.35","LF","408x5p8cy7","2560","1440","en","va08ar03","null","","","","","","","","learning/Slide36.JPG","null","","","","",""
"","html-keyboard-response","114","415338","0.0-6.0-2.35","LF","408x5p8cy7","2560","1440","en","va08ar03","null","","","","learningBlock1","","","","<div style=""font-size:60px;""> </div>","null","LF","learning/Slide36.JPG","This is a dep:","",""
"","html-keyboard-response","115","416340","0.0-6.0-0.36","LF","408x5p8cy7","2560","1440","en","va08ar03","null","","","","learningBlock1","","","","This is a tob:","null","","","","",""
"","image-keyboard-response","116","416668","0.0-6.0-1.36","LF","408x5p8cy7","2560","1440","en","va08ar03","null","","","","","","","","learning/Slide37.JPG","null","","","","",""
"","html-keyboard-response","117","417669","0.0-6.0-2.36","LF","408x5p8cy7","2560","1440","en","va08ar03","null","","","","learningBlock1","","","","<div style=""font-size:60px;""> </div>","null","LF","learning/Slide37.JPG","This is a tob:","",""
"","html-keyboard-response","118","418671","0.0-6.0-0.37","LF","408x5p8cy7","2560","1440","en","va08ar03","null","","","","learningBlock1","","","","This is a wug:","null","","","","",""
"","image-keyboard-response","119","418998","0.0-6.0-1.37","LF","408x5p8cy7","2560","1440","en","va08ar03","null","","","","","","","","learning/Slide38.JPG","null","","","","",""
"","html-keyboard-response","120","420000","0.0-6.0-2.37","LF","408x5p8cy7","2560","1440","en","va08ar03","null","","","","learningBlock1","","","","<div style=""font-size:60px;""> </div>","null","LF","learning/Slide38.JPG","This is a wug:","",""
"","html-keyboard-response","121","421002","0.0-6.0-0.38","LF","408x5p8cy7","2560","1440","en","va08ar03","null","","","","learningBlock1","","","","This is a bim:","null","","","","",""
"","image-keyboard-response","122","421331","0.0-6.0-1.38","LF","408x5p8cy7","2560","1440","en","va08ar03","null","","","","","","","","learning/Slide39.JPG","null","","","","",""
"","html-keyboard-response","123","422332","0.0-6.0-2.38","LF","408x5p8cy7","2560","1440","en","va08ar03","null","","","","learningBlock1","","","","<div style=""font-size:60px;""> </div>","null","LF","learning/Slide39.JPG","This is a bim:","",""
"","html-keyboard-response","124","423335","0.0-6.0-0.39","LF","408x5p8cy7","2560","1440","en","va08ar03","null","","","","learningBlock1","","","","This is a tob:","null","","","","",""
"","image-keyboard-response","125","423662","0.0-6.0-1.39","LF","408x5p8cy7","2560","1440","en","va08ar03","null","","","","","","","","learning/Slide40.JPG","null","","","","",""
"","html-keyboard-response","126","424664","0.0-6.0-2.39","LF","408x5p8cy7","2560","1440","en","va08ar03","null","","","","learningBlock1","","","","<div style=""font-size:60px;""> </div>","null","LF","learning/Slide40.JPG","This is a tob:","",""
"","html-keyboard-response","127","425667","0.0-6.0-0.40","LF","408x5p8cy7","2560","1440","en","va08ar03","null","","","","learningBlock1","","","","This is a bim:","null","","","","",""
"","image-keyboard-response","128","425994","0.0-6.0-1.40","LF","408x5p8cy7","2560","1440","en","va08ar03","null","","","","","","","","learning/Slide41.JPG","null","","","","",""
"","html-keyboard-response","129","426997","0.0-6.0-2.40","LF","408x5p8cy7","2560","1440","en","va08ar03","null","","","","learningBlock1","","","","<div style=""font-size:60px;""> </div>","null","LF","learning/Slide41.JPG","This is a bim:","",""
"","html-keyboard-response","130","427998","0.0-6.0-0.41","LF","408x5p8cy7","2560","1440","en","va08ar03","null","","","","learningBlock1","","","","This is a dep:","null","","","","",""
"","image-keyboard-response","131","428325","0.0-6.0-1.41","LF","408x5p8cy7","2560","1440","en","va08ar03","null","","","","","","","","learning/Slide42.JPG","null","","","","",""
"","html-keyboard-response","132","429326","0.0-6.0-2.41","LF","408x5p8cy7","2560","1440","en","va08ar03","null","","","","learningBlock1","","","","<div style=""font-size:60px;""> </div>","null","LF","learning/Slide42.JPG","This is a dep:","",""
"","html-keyboard-response","133","430341","0.0-6.0-0.42","LF","408x5p8cy7","2560","1440","en","va08ar03","null","","","","learningBlock1","","","","This is a wug:","null","","","","",""
"","image-keyboard-response","134","430669","0.0-6.0-1.42","LF","408x5p8cy7","2560","1440","en","va08ar03","null","","","","","","","","learning/Slide43.JPG","null","","","","",""
"","html-keyboard-response","135","431670","0.0-6.0-2.42","LF","408x5p8cy7","2560","1440","en","va08ar03","null","","","","learningBlock1","","","","<div style=""font-size:60px;""> </div>","null","LF","learning/Slide43.JPG","This is a wug:","",""
"","html-keyboard-response","136","432672","0.0-6.0-0.43","LF","408x5p8cy7","2560","1440","en","va08ar03","null","","","","learningBlock1","","","","This is a bim:","null","","","","",""
"","image-keyboard-response","137","433000","0.0-6.0-1.43","LF","408x5p8cy7","2560","1440","en","va08ar03","null","","","","","","","","learning/Slide44.JPG","null","","","","",""
"","html-keyboard-response","138","434003","0.0-6.0-2.43","LF","408x5p8cy7","2560","1440","en","va08ar03","null","","","","learningBlock1","","","","<div style=""font-size:60px;""> </div>","null","LF","learning/Slide44.JPG","This is a bim:","",""
"","html-keyboard-response","139","435005","0.0-6.0-0.44","LF","408x5p8cy7","2560","1440","en","va08ar03","null","","","","learningBlock1","","","","This is a wug:","null","","","","",""
"","image-keyboard-response","140","435332","0.0-6.0-1.44","LF","408x5p8cy7","2560","1440","en","va08ar03","null","","","","","","","","learning/Slide45.JPG","null","","","","",""
"","html-keyboard-response","141","436333","0.0-6.0-2.44","LF","408x5p8cy7","2560","1440","en","va08ar03","null","","","","learningBlock1","","","","<div style=""font-size:60px;""> </div>","null","LF","learning/Slide45.JPG","This is a wug:","",""
"","html-keyboard-response","142","437335","0.0-6.0-0.45","LF","408x5p8cy7","2560","1440","en","va08ar03","null","","","","learningBlock1","","","","This is a dep:","null","","","","",""
"","image-keyboard-response","143","437664","0.0-6.0-1.45","LF","408x5p8cy7","2560","1440","en","va08ar03","null","","","","","","","","learning/Slide46.JPG","null","","","","",""
"","html-keyboard-response","144","438666","0.0-6.0-2.45","LF","408x5p8cy7","2560","1440","en","va08ar03","null","","","","learningBlock1","","","","<div style=""font-size:60px;""> </div>","null","LF","learning/Slide46.JPG","This is a dep:","",""
"","html-keyboard-response","145","439668","0.0-6.0-0.46","LF","408x5p8cy7","2560","1440","en","va08ar03","null","","","","learningBlock1","","","","This is a tob:","null","","","","",""
"","image-keyboard-response","146","439995","0.0-6.0-1.46","LF","408x5p8cy7","2560","1440","en","va08ar03","null","","","","","","","","learning/Slide47.JPG","null","","","","",""
"","html-keyboard-response","147","440997","0.0-6.0-2.46","LF","408x5p8cy7","2560","1440","en","va08ar03","null","","","","learningBlock1","","","","<div style=""font-size:60px;""> </div>","null","LF","learning/Slide47.JPG","This is a tob:","",""
"","html-keyboard-response","148","441999","0.0-6.0-0.47","LF","408x5p8cy7","2560","1440","en","va08ar03","null","","","","learningBlock1","","","","This is a bim:","null","","","","",""
"","image-keyboard-response","149","442338","0.0-6.0-1.47","LF","408x5p8cy7","2560","1440","en","va08ar03","null","","","","","","","","learning/Slide48.JPG","null","","","","",""
"","html-keyboard-response","150","443340","0.0-6.0-2.47","LF","408x5p8cy7","2560","1440","en","va08ar03","null","","","","learningBlock1","","","","<div style=""font-size:60px;""> </div>","null","LF","learning/Slide48.JPG","This is a bim:","",""
"","html-keyboard-response","151","444342","0.0-6.0-0.48","LF","408x5p8cy7","2560","1440","en","va08ar03","null","","","","learningBlock1","","","","This is a dep:","null","","","","",""
"","image-keyboard-response","152","444669","0.0-6.0-1.48","LF","408x5p8cy7","2560","1440","en","va08ar03","null","","","","","","","","learning/Slide49.JPG","null","","","","",""
"","html-keyboard-response","153","445670","0.0-6.0-2.48","LF","408x5p8cy7","2560","1440","en","va08ar03","null","","","","learningBlock1","","","","<div style=""font-size:60px;""> </div>","null","LF","learning/Slide49.JPG","This is a dep:","",""
"","html-keyboard-response","154","446671","0.0-6.0-0.49","LF","408x5p8cy7","2560","1440","en","va08ar03","null","","","","learningBlock1","","","","This is a tob:","null","","","","",""
"","image-keyboard-response","155","446999","0.0-6.0-1.49","LF","408x5p8cy7","2560","1440","en","va08ar03","null","","","","","","","","learning/Slide50.JPG","null","","","","",""
"","html-keyboard-response","156","448001","0.0-6.0-2.49","LF","408x5p8cy7","2560","1440","en","va08ar03","null","","","","learningBlock1","","","","<div style=""font-size:60px;""> </div>","null","LF","learning/Slide50.JPG","This is a tob:","",""
"","html-keyboard-response","157","449002","0.0-6.0-0.50","LF","408x5p8cy7","2560","1440","en","va08ar03","null","","","","learningBlock1","","","","This is a bim:","null","","","","",""
"","image-keyboard-response","158","449329","0.0-6.0-1.50","LF","408x5p8cy7","2560","1440","en","va08ar03","null","","","","","","","","learning/Slide51.JPG","null","","","","",""
"","html-keyboard-response","159","450331","0.0-6.0-2.50","LF","408x5p8cy7","2560","1440","en","va08ar03","null","","","","learningBlock1","","","","<div style=""font-size:60px;""> </div>","null","LF","learning/Slide51.JPG","This is a bim:","",""
"","html-keyboard-response","160","451340","0.0-6.0-0.51","LF","408x5p8cy7","2560","1440","en","va08ar03","null","","","","learningBlock1","","","","This is a wug:","null","","","","",""
"","image-keyboard-response","161","451668","0.0-6.0-1.51","LF","408x5p8cy7","2560","1440","en","va08ar03","null","","","","","","","","learning/Slide52.JPG","null","","","","",""
"","html-keyboard-response","162","452669","0.0-6.0-2.51","LF","408x5p8cy7","2560","1440","en","va08ar03","null","","","","learningBlock1","","","","<div style=""font-size:60px;""> </div>","null","LF","learning/Slide52.JPG","This is a wug:","",""
"","html-keyboard-response","163","453672","0.0-6.0-0.52","LF","408x5p8cy7","2560","1440","en","va08ar03","null","","","","learningBlock1","","","","This is a tob:","null","","","","",""
"","image-keyboard-response","164","453999","0.0-6.0-1.52","LF","408x5p8cy7","2560","1440","en","va08ar03","null","","","","","","","","learning/Slide53.JPG","null","","","","",""
"","html-keyboard-response","165","455002","0.0-6.0-2.52","LF","408x5p8cy7","2560","1440","en","va08ar03","null","","","","learningBlock1","","","","<div style=""font-size:60px;""> </div>","null","LF","learning/Slide53.JPG","This is a tob:","",""
"","html-keyboard-response","166","456004","0.0-6.0-0.53","LF","408x5p8cy7","2560","1440","en","va08ar03","null","","","","learningBlock1","","","","This is a dep:","null","","","","",""
"","image-keyboard-response","167","456333","0.0-6.0-1.53","LF","408x5p8cy7","2560","1440","en","va08ar03","null","","","","","","","","learning/Slide54.JPG","null","","","","",""
"","html-keyboard-response","168","457335","0.0-6.0-2.53","LF","408x5p8cy7","2560","1440","en","va08ar03","null","","","","learningBlock1","","","","<div style=""font-size:60px;""> </div>","null","LF","learning/Slide54.JPG","This is a dep:","",""
"","html-keyboard-response","169","458338","0.0-6.0-0.54","LF","408x5p8cy7","2560","1440","en","va08ar03","null","","","","learningBlock1","","","","This is a bim:","null","","","","",""
"","image-keyboard-response","170","458667","0.0-6.0-1.54","LF","408x5p8cy7","2560","1440","en","va08ar03","null","","","","","","","","learning/Slide55.JPG","null","","","","",""
"","html-keyboard-response","171","459669","0.0-6.0-2.54","LF","408x5p8cy7","2560","1440","en","va08ar03","null","","","","learningBlock1","","","","<div style=""font-size:60px;""> </div>","null","LF","learning/Slide55.JPG","This is a bim:","",""
"","html-keyboard-response","172","460671","0.0-6.0-0.55","LF","408x5p8cy7","2560","1440","en","va08ar03","null","","","","learningBlock1","","","","This is a tob:","null","","","","",""
"","image-keyboard-response","173","460998","0.0-6.0-1.55","LF","408x5p8cy7","2560","1440","en","va08ar03","null","","","","","","","","learning/Slide56.JPG","null","","","","",""
"","html-keyboard-response","174","462000","0.0-6.0-2.55","LF","408x5p8cy7","2560","1440","en","va08ar03","null","","","","learningBlock1","","","","<div style=""font-size:60px;""> </div>","null","LF","learning/Slide56.JPG","This is a tob:","",""
"","html-keyboard-response","175","463002","0.0-6.0-0.56","LF","408x5p8cy7","2560","1440","en","va08ar03","null","","","","learningBlock1","","","","This is a dep:","null","","","","",""
"","image-keyboard-response","176","463330","0.0-6.0-1.56","LF","408x5p8cy7","2560","1440","en","va08ar03","null","","","","","","","","learning/Slide57.JPG","null","","","","",""
"","html-keyboard-response","177","464332","0.0-6.0-2.56","LF","408x5p8cy7","2560","1440","en","va08ar03","null","","","","learningBlock1","","","","<div style=""font-size:60px;""> </div>","null","LF","learning/Slide57.JPG","This is a dep:","",""
"","html-keyboard-response","178","465334","0.0-6.0-0.57","LF","408x5p8cy7","2560","1440","en","va08ar03","null","","","","learningBlock1","","","","This is a wug:","null","","","","",""
"","image-keyboard-response","179","465661","0.0-6.0-1.57","LF","408x5p8cy7","2560","1440","en","va08ar03","null","","","","","","","","learning/Slide58.JPG","null","","","","",""
"","html-keyboard-response","180","466663","0.0-6.0-2.57","LF","408x5p8cy7","2560","1440","en","va08ar03","null","","","","learningBlock1","","","","<div style=""font-size:60px;""> </div>","null","LF","learning/Slide58.JPG","This is a wug:","",""
"","html-keyboard-response","181","467664","0.0-6.0-0.58","LF","408x5p8cy7","2560","1440","en","va08ar03","null","","","","learningBlock1","","","","This is a dep:","null","","","","",""
"","image-keyboard-response","182","467992","0.0-6.0-1.58","LF","408x5p8cy7","2560","1440","en","va08ar03","null","","","","","","","","learning/Slide59.JPG","null","","","","",""
"","html-keyboard-response","183","468993","0.0-6.0-2.58","LF","408x5p8cy7","2560","1440","en","va08ar03","null","","","","learningBlock1","","","","<div style=""font-size:60px;""> </div>","null","LF","learning/Slide59.JPG","This is a dep:","",""
"","html-keyboard-response","184","469994","0.0-6.0-0.59","LF","408x5p8cy7","2560","1440","en","va08ar03","null","","","","learningBlock1","","","","This is a wug:","null","","","","",""
"","image-keyboard-response","185","470322","0.0-6.0-1.59","LF","408x5p8cy7","2560","1440","en","va08ar03","null","","","","","","","","learning/Slide60.JPG","null","","","","",""
"","html-keyboard-response","186","471324","0.0-6.0-2.59","LF","408x5p8cy7","2560","1440","en","va08ar03","null","","","","learningBlock1","","","","<div style=""font-size:60px;""> </div>","null","LF","learning/Slide60.JPG","This is a wug:","",""
"","html-keyboard-response","187","472326","0.0-6.0-0.60","LF","408x5p8cy7","2560","1440","en","va08ar03","null","","","","learningBlock1","","","","This is a bim:","null","","","","",""
"","image-keyboard-response","188","472655","0.0-6.0-1.60","LF","408x5p8cy7","2560","1440","en","va08ar03","null","","","","","","","","learning/Slide61.JPG","null","","","","",""
"","html-keyboard-response","189","473657","0.0-6.0-2.60","LF","408x5p8cy7","2560","1440","en","va08ar03","null","","","","learningBlock1","","","","<div style=""font-size:60px;""> </div>","null","LF","learning/Slide61.JPG","This is a bim:","",""
"","html-keyboard-response","190","474660","0.0-6.0-0.61","LF","408x5p8cy7","2560","1440","en","va08ar03","null","","","","learningBlock1","","","","This is a dep:","null","","","","",""
"","image-keyboard-response","191","474988","0.0-6.0-1.61","LF","408x5p8cy7","2560","1440","en","va08ar03","null","","","","","","","","learning/Slide62.JPG","null","","","","",""
"","html-keyboard-response","192","475990","0.0-6.0-2.61","LF","408x5p8cy7","2560","1440","en","va08ar03","null","","","","learningBlock1","","","","<div style=""font-size:60px;""> </div>","null","LF","learning/Slide62.JPG","This is a dep:","",""
"","html-keyboard-response","193","476992","0.0-6.0-0.62","LF","408x5p8cy7","2560","1440","en","va08ar03","null","","","","learningBlock1","","","","This is a bim:","null","","","","",""
"","image-keyboard-response","194","477321","0.0-6.0-1.62","LF","408x5p8cy7","2560","1440","en","va08ar03","null","","","","","","","","learning/Slide63.JPG","null","","","","",""
"","html-keyboard-response","195","478322","0.0-6.0-2.62","LF","408x5p8cy7","2560","1440","en","va08ar03","null","","","","learningBlock1","","","","<div style=""font-size:60px;""> </div>","null","LF","learning/Slide63.JPG","This is a bim:","",""
"","html-keyboard-response","196","479324","0.0-6.0-0.63","LF","408x5p8cy7","2560","1440","en","va08ar03","null","","","","learningBlock1","","","","This is a tob:","null","","","","",""
"","image-keyboard-response","197","479652","0.0-6.0-1.63","LF","408x5p8cy7","2560","1440","en","va08ar03","null","","","","","","","","learning/Slide64.JPG","null","","","","",""
"","html-keyboard-response","198","480654","0.0-6.0-2.63","LF","408x5p8cy7","2560","1440","en","va08ar03","null","","","","learningBlock1","","","","<div style=""font-size:60px;""> </div>","null","LF","learning/Slide64.JPG","This is a tob:","",""
"","html-keyboard-response","199","481658","0.0-6.0-0.64","LF","408x5p8cy7","2560","1440","en","va08ar03","null","","","","learningBlock1","","","","This is a wug:","null","","","","",""
"","image-keyboard-response","200","481986","0.0-6.0-1.64","LF","408x5p8cy7","2560","1440","en","va08ar03","null","","","","","","","","learning/Slide65.JPG","null","","","","",""
"","html-keyboard-response","201","482988","0.0-6.0-2.64","LF","408x5p8cy7","2560","1440","en","va08ar03","null","","","","learningBlock1","","","","<div style=""font-size:60px;""> </div>","null","LF","learning/Slide65.JPG","This is a wug:","",""
"","html-keyboard-response","202","483989","0.0-6.0-0.65","LF","408x5p8cy7","2560","1440","en","va08ar03","null","","","","learningBlock1","","","","This is a dep:","null","","","","",""
"","image-keyboard-response","203","484317","0.0-6.0-1.65","LF","408x5p8cy7","2560","1440","en","va08ar03","null","","","","","","","","learning/Slide66.JPG","null","","","","",""
"","html-keyboard-response","204","485319","0.0-6.0-2.65","LF","408x5p8cy7","2560","1440","en","va08ar03","null","","","","learningBlock1","","","","<div style=""font-size:60px;""> </div>","null","LF","learning/Slide66.JPG","This is a dep:","",""
"","html-keyboard-response","205","486321","0.0-6.0-0.66","LF","408x5p8cy7","2560","1440","en","va08ar03","null","","","","learningBlock1","","","","This is a tob:","null","","","","",""
"","image-keyboard-response","206","486649","0.0-6.0-1.66","LF","408x5p8cy7","2560","1440","en","va08ar03","null","","","","","","","","learning/Slide67.JPG","null","","","","",""
"","html-keyboard-response","207","487650","0.0-6.0-2.66","LF","408x5p8cy7","2560","1440","en","va08ar03","null","","","","learningBlock1","","","","<div style=""font-size:60px;""> </div>","null","LF","learning/Slide67.JPG","This is a tob:","",""
"","html-keyboard-response","208","488652","0.0-6.0-0.67","LF","408x5p8cy7","2560","1440","en","va08ar03","null","","","","learningBlock1","","","","This is a wug:","null","","","","",""
"","image-keyboard-response","209","488980","0.0-6.0-1.67","LF","408x5p8cy7","2560","1440","en","va08ar03","null","","","","","","","","learning/Slide68.JPG","null","","","","",""
"","html-keyboard-response","210","489981","0.0-6.0-2.67","LF","408x5p8cy7","2560","1440","en","va08ar03","null","","","","learningBlock1","","","","<div style=""font-size:60px;""> </div>","null","LF","learning/Slide68.JPG","This is a wug:","",""
"","html-keyboard-response","211","490983","0.0-6.0-0.68","LF","408x5p8cy7","2560","1440","en","va08ar03","null","","","","learningBlock1","","","","This is a tob:","null","","","","",""
"","image-keyboard-response","212","491312","0.0-6.0-1.68","LF","408x5p8cy7","2560","1440","en","va08ar03","null","","","","","","","","learning/Slide69.JPG","null","","","","",""
"","html-keyboard-response","213","492313","0.0-6.0-2.68","LF","408x5p8cy7","2560","1440","en","va08ar03","null","","","","learningBlock1","","","","<div style=""font-size:60px;""> </div>","null","LF","learning/Slide69.JPG","This is a tob:","",""
"","html-keyboard-response","214","493318","0.0-6.0-0.69","LF","408x5p8cy7","2560","1440","en","va08ar03","null","","","","learningBlock1","","","","This is a dep:","null","","","","",""
"","image-keyboard-response","215","493646","0.0-6.0-1.69","LF","408x5p8cy7","2560","1440","en","va08ar03","null","","","","","","","","learning/Slide70.JPG","null","","","","",""
"","html-keyboard-response","216","494648","0.0-6.0-2.69","LF","408x5p8cy7","2560","1440","en","va08ar03","null","","","","learningBlock1","","","","<div style=""font-size:60px;""> </div>","null","LF","learning/Slide70.JPG","This is a dep:","",""
"","html-keyboard-response","217","495651","0.0-6.0-0.70","LF","408x5p8cy7","2560","1440","en","va08ar03","null","","","","learningBlock1","","","","This is a wug:","null","","","","",""
"","image-keyboard-response","218","495979","0.0-6.0-1.70","LF","408x5p8cy7","2560","1440","en","va08ar03","null","","","","","","","","learning/Slide71.JPG","null","","","","",""
"","html-keyboard-response","219","496981","0.0-6.0-2.70","LF","408x5p8cy7","2560","1440","en","va08ar03","null","","","","learningBlock1","","","","<div style=""font-size:60px;""> </div>","null","LF","learning/Slide71.JPG","This is a wug:","",""
"","html-keyboard-response","220","497982","0.0-6.0-0.71","LF","408x5p8cy7","2560","1440","en","va08ar03","null","","","","learningBlock1","","","","This is a bim:","null","","","","",""
"","image-keyboard-response","221","498310","0.0-6.0-1.71","LF","408x5p8cy7","2560","1440","en","va08ar03","null","","","","","","","","learning/Slide72.JPG","null","","","","",""
"","html-keyboard-response","222","499313","0.0-6.0-2.71","LF","408x5p8cy7","2560","1440","en","va08ar03","null","","","","learningBlock1","","","","<div style=""font-size:60px;""> </div>","null","LF","learning/Slide72.JPG","This is a bim:","",""
"","html-keyboard-response","223","500314","0.0-6.0-0.72","LF","408x5p8cy7","2560","1440","en","va08ar03","null","","","","learningBlock1","","","","This is a wug:","null","","","","",""
"","image-keyboard-response","224","500644","0.0-6.0-1.72","LF","408x5p8cy7","2560","1440","en","va08ar03","null","","","","","","","","learning/Slide73.JPG","null","","","","",""
"","html-keyboard-response","225","501646","0.0-6.0-2.72","LF","408x5p8cy7","2560","1440","en","va08ar03","null","","","","learningBlock1","","","","<div style=""font-size:60px;""> </div>","null","LF","learning/Slide73.JPG","This is a wug:","",""
"","html-keyboard-response","226","502649","0.0-6.0-0.73","LF","408x5p8cy7","2560","1440","en","va08ar03","null","","","","learningBlock1","","","","This is a dep:","null","","","","",""
"","image-keyboard-response","227","502977","0.0-6.0-1.73","LF","408x5p8cy7","2560","1440","en","va08ar03","null","","","","","","","","learning/Slide74.JPG","null","","","","",""
"","html-keyboard-response","228","503978","0.0-6.0-2.73","LF","408x5p8cy7","2560","1440","en","va08ar03","null","","","","learningBlock1","","","","<div style=""font-size:60px;""> </div>","null","LF","learning/Slide74.JPG","This is a dep:","",""
"","html-keyboard-response","229","504980","0.0-6.0-0.74","LF","408x5p8cy7","2560","1440","en","va08ar03","null","","","","learningBlock1","","","","This is a tob:","null","","","","",""
"","image-keyboard-response","230","505308","0.0-6.0-1.74","LF","408x5p8cy7","2560","1440","en","va08ar03","null","","","","","","","","learning/Slide75.JPG","null","","","","",""
"","html-keyboard-response","231","506310","0.0-6.0-2.74","LF","408x5p8cy7","2560","1440","en","va08ar03","null","","","","learningBlock1","","","","<div style=""font-size:60px;""> </div>","null","LF","learning/Slide75.JPG","This is a tob:","",""
"","html-keyboard-response","232","507313","0.0-6.0-0.75","LF","408x5p8cy7","2560","1440","en","va08ar03","null","","","","learningBlock1","","","","This is a bim:","null","","","","",""
"","image-keyboard-response","233","507641","0.0-6.0-1.75","LF","408x5p8cy7","2560","1440","en","va08ar03","null","","","","","","","","learning/Slide76.JPG","null","","","","",""
"","html-keyboard-response","234","508643","0.0-6.0-2.75","LF","408x5p8cy7","2560","1440","en","va08ar03","null","","","","learningBlock1","","","","<div style=""font-size:60px;""> </div>","null","LF","learning/Slide76.JPG","This is a bim:","",""
"","html-keyboard-response","235","509646","0.0-6.0-0.76","LF","408x5p8cy7","2560","1440","en","va08ar03","null","","","","learningBlock1","","","","This is a tob:","null","","","","",""
"","image-keyboard-response","236","509973","0.0-6.0-1.76","LF","408x5p8cy7","2560","1440","en","va08ar03","null","","","","","","","","learning/Slide77.JPG","null","","","","",""
"","html-keyboard-response","237","510975","0.0-6.0-2.76","LF","408x5p8cy7","2560","1440","en","va08ar03","null","","","","learningBlock1","","","","<div style=""font-size:60px;""> </div>","null","LF","learning/Slide77.JPG","This is a tob:","",""
"","html-keyboard-response","238","511977","0.0-6.0-0.77","LF","408x5p8cy7","2560","1440","en","va08ar03","null","","","","learningBlock1","","","","This is a wug:","null","","","","",""
"","image-keyboard-response","239","512304","0.0-6.0-1.77","LF","408x5p8cy7","2560","1440","en","va08ar03","null","","","","","","","","learning/Slide78.JPG","null","","","","",""
"","html-keyboard-response","240","513307","0.0-6.0-2.77","LF","408x5p8cy7","2560","1440","en","va08ar03","null","","","","learningBlock1","","","","<div style=""font-size:60px;""> </div>","null","LF","learning/Slide78.JPG","This is a wug:","",""
"","html-keyboard-response","241","514308","0.0-6.0-0.78","LF","408x5p8cy7","2560","1440","en","va08ar03","null","","","","learningBlock1","","","","This is a bim:","null","","","","",""
"","image-keyboard-response","242","514637","0.0-6.0-1.78","LF","408x5p8cy7","2560","1440","en","va08ar03","null","","","","","","","","learning/Slide79.JPG","null","","","","",""
"","html-keyboard-response","243","515639","0.0-6.0-2.78","LF","408x5p8cy7","2560","1440","en","va08ar03","null","","","","learningBlock1","","","","<div style=""font-size:60px;""> </div>","null","LF","learning/Slide79.JPG","This is a bim:","",""
"","html-keyboard-response","244","516640","0.0-6.0-0.79","LF","408x5p8cy7","2560","1440","en","va08ar03","null","","","","learningBlock1","","","","This is a tob:","null","","","","",""
"","image-keyboard-response","245","516967","0.0-6.0-1.79","LF","408x5p8cy7","2560","1440","en","va08ar03","null","","","","","","","","learning/Slide80.JPG","null","","","","",""
"","html-keyboard-response","246","517969","0.0-6.0-2.79","LF","408x5p8cy7","2560","1440","en","va08ar03","null","","","","learningBlock1","","","","<div style=""font-size:60px;""> </div>","null","LF","learning/Slide80.JPG","This is a tob:","",""
"","instructions","247","522410","0.0-7.0","LF","408x5p8cy7","2560","1440","en","va08ar03","NA","","","[{""page_index"":0,""viewing_time"":4439.409999991767}]","instructions","","","","","","","","","",""
"","html-keyboard-response","248","523413","0.0-8.0-0.0","LF","408x5p8cy7","2560","1440","en","va08ar03","null","","","","learningBlock2","","","","This is a wug:","null","","","","",""
"","image-keyboard-response","249","523742","0.0-8.0-1.0","LF","408x5p8cy7","2560","1440","en","va08ar03","null","","","","","","","","learning/Slide81.JPG","null","","","","",""
"","html-keyboard-response","250","524744","0.0-8.0-2.0","LF","408x5p8cy7","2560","1440","en","va08ar03","null","","","","learningBlock2","","","","<div style=""font-size:60px;""> </div>","null","LF","learning/Slide81.JPG","This is a wug:","",""
"","html-keyboard-response","251","525746","0.0-8.0-0.1","LF","408x5p8cy7","2560","1440","en","va08ar03","null","","","","learningBlock2","","","","This is a bim:","null","","","","",""
"","image-keyboard-response","252","526075","0.0-8.0-1.1","LF","408x5p8cy7","2560","1440","en","va08ar03","null","","","","","","","","learning/Slide82.JPG","null","","","","",""
"","html-keyboard-response","253","527079","0.0-8.0-2.1","LF","408x5p8cy7","2560","1440","en","va08ar03","null","","","","learningBlock2","","","","<div style=""font-size:60px;""> </div>","null","LF","learning/Slide82.JPG","This is a bim:","",""
"","html-keyboard-response","254","528081","0.0-8.0-0.2","LF","408x5p8cy7","2560","1440","en","va08ar03","null","","","","learningBlock2","","","","This is a wug:","null","","","","",""
"","image-keyboard-response","255","528410","0.0-8.0-1.2","LF","408x5p8cy7","2560","1440","en","va08ar03","null","","","","","","","","learning/Slide83.JPG","null","","","","",""
"","html-keyboard-response","256","529412","0.0-8.0-2.2","LF","408x5p8cy7","2560","1440","en","va08ar03","null","","","","learningBlock2","","","","<div style=""font-size:60px;""> </div>","null","LF","learning/Slide83.JPG","This is a wug:","",""
"","html-keyboard-response","257","530413","0.0-8.0-0.3","LF","408x5p8cy7","2560","1440","en","va08ar03","null","","","","learningBlock2","","","","This is a dep:","null","","","","",""
"","image-keyboard-response","258","530741","0.0-8.0-1.3","LF","408x5p8cy7","2560","1440","en","va08ar03","null","","","","","","","","learning/Slide84.JPG","null","","","","",""
"","html-keyboard-response","259","531744","0.0-8.0-2.3","LF","408x5p8cy7","2560","1440","en","va08ar03","null","","","","learningBlock2","","","","<div style=""font-size:60px;""> </div>","null","LF","learning/Slide84.JPG","This is a dep:","",""
"","html-keyboard-response","260","532746","0.0-8.0-0.4","LF","408x5p8cy7","2560","1440","en","va08ar03","null","","","","learningBlock2","","","","This is a bim:","null","","","","",""
"","image-keyboard-response","261","533075","0.0-8.0-1.4","LF","408x5p8cy7","2560","1440","en","va08ar03","null","","","","","","","","learning/Slide85.JPG","null","","","","",""
"","html-keyboard-response","262","534077","0.0-8.0-2.4","LF","408x5p8cy7","2560","1440","en","va08ar03","null","","","","learningBlock2","","","","<div style=""font-size:60px;""> </div>","null","LF","learning/Slide85.JPG","This is a bim:","",""
"","html-keyboard-response","263","535078","0.0-8.0-0.5","LF","408x5p8cy7","2560","1440","en","va08ar03","null","","","","learningBlock2","","","","This is a tob:","null","","","","",""
"","image-keyboard-response","264","535408","0.0-8.0-1.5","LF","408x5p8cy7","2560","1440","en","va08ar03","null","","","","","","","","learning/Slide86.JPG","null","","","","",""
"","html-keyboard-response","265","536410","0.0-8.0-2.5","LF","408x5p8cy7","2560","1440","en","va08ar03","null","","","","learningBlock2","","","","<div style=""font-size:60px;""> </div>","null","LF","learning/Slide86.JPG","This is a tob:","",""
"","html-keyboard-response","266","537412","0.0-8.0-0.6","LF","408x5p8cy7","2560","1440","en","va08ar03","null","","","","learningBlock2","","","","This is a wug:","null","","","","",""
"","image-keyboard-response","267","537740","0.0-8.0-1.6","LF","408x5p8cy7","2560","1440","en","va08ar03","null","","","","","","","","learning/Slide87.JPG","null","","","","",""
"","html-keyboard-response","268","538741","0.0-8.0-2.6","LF","408x5p8cy7","2560","1440","en","va08ar03","null","","","","learningBlock2","","","","<div style=""font-size:60px;""> </div>","null","LF","learning/Slide87.JPG","This is a wug:","",""
"","html-keyboard-response","269","539743","0.0-8.0-0.7","LF","408x5p8cy7","2560","1440","en","va08ar03","null","","","","learningBlock2","","","","This is a tob:","null","","","","",""
"","image-keyboard-response","270","540070","0.0-8.0-1.7","LF","408x5p8cy7","2560","1440","en","va08ar03","null","","","","","","","","learning/Slide88.JPG","null","","","","",""
"","html-keyboard-response","271","541073","0.0-8.0-2.7","LF","408x5p8cy7","2560","1440","en","va08ar03","null","","","","learningBlock2","","","","<div style=""font-size:60px;""> </div>","null","LF","learning/Slide88.JPG","This is a tob:","",""
"","html-keyboard-response","272","542076","0.0-8.0-0.8","LF","408x5p8cy7","2560","1440","en","va08ar03","null","","","","learningBlock2","","","","This is a bim:","null","","","","",""
"","image-keyboard-response","273","542404","0.0-8.0-1.8","LF","408x5p8cy7","2560","1440","en","va08ar03","null","","","","","","","","learning/Slide89.JPG","null","","","","",""
"","html-keyboard-response","274","543406","0.0-8.0-2.8","LF","408x5p8cy7","2560","1440","en","va08ar03","null","","","","learningBlock2","","","","<div style=""font-size:60px;""> </div>","null","LF","learning/Slide89.JPG","This is a bim:","",""
"","html-keyboard-response","275","544409","0.0-8.0-0.9","LF","408x5p8cy7","2560","1440","en","va08ar03","null","","","","learningBlock2","","","","This is a dep:","null","","","","",""
"","image-keyboard-response","276","544737","0.0-8.0-1.9","LF","408x5p8cy7","2560","1440","en","va08ar03","null","","","","","","","","learning/Slide90.JPG","null","","","","",""
"","html-keyboard-response","277","545739","0.0-8.0-2.9","LF","408x5p8cy7","2560","1440","en","va08ar03","null","","","","learningBlock2","","","","<div style=""font-size:60px;""> </div>","null","LF","learning/Slide90.JPG","This is a dep:","",""
"","html-keyboard-response","278","546741","0.0-8.0-0.10","LF","408x5p8cy7","2560","1440","en","va08ar03","null","","","","learningBlock2","","","","This is a wug:","null","","","","",""
"","image-keyboard-response","279","547068","0.0-8.0-1.10","LF","408x5p8cy7","2560","1440","en","va08ar03","null","","","","","","","","learning/Slide91.JPG","null","","","","",""
"","html-keyboard-response","280","548069","0.0-8.0-2.10","LF","408x5p8cy7","2560","1440","en","va08ar03","null","","","","learningBlock2","","","","<div style=""font-size:60px;""> </div>","null","LF","learning/Slide91.JPG","This is a wug:","",""
"","html-keyboard-response","281","549071","0.0-8.0-0.11","LF","408x5p8cy7","2560","1440","en","va08ar03","null","","","","learningBlock2","","","","This is a tob:","null","","","","",""
"","image-keyboard-response","282","549398","0.0-8.0-1.11","LF","408x5p8cy7","2560","1440","en","va08ar03","null","","","","","","","","learning/Slide92.JPG","null","","","","",""
"","html-keyboard-response","283","550401","0.0-8.0-2.11","LF","408x5p8cy7","2560","1440","en","va08ar03","null","","","","learningBlock2","","","","<div style=""font-size:60px;""> </div>","null","LF","learning/Slide92.JPG","This is a tob:","",""
"","html-keyboard-response","284","551403","0.0-8.0-0.12","LF","408x5p8cy7","2560","1440","en","va08ar03","null","","","","learningBlock2","","","","This is a bim:","null","","","","",""
"","image-keyboard-response","285","551731","0.0-8.0-1.12","LF","408x5p8cy7","2560","1440","en","va08ar03","null","","","","","","","","learning/Slide93.JPG","null","","","","",""
"","html-keyboard-response","286","552733","0.0-8.0-2.12","LF","408x5p8cy7","2560","1440","en","va08ar03","null","","","","learningBlock2","","","","<div style=""font-size:60px;""> </div>","null","LF","learning/Slide93.JPG","This is a bim:","",""
"","html-keyboard-response","287","553736","0.0-8.0-0.13","LF","408x5p8cy7","2560","1440","en","va08ar03","null","","","","learningBlock2","","","","This is a tob:","null","","","","",""
"","image-keyboard-response","288","554063","0.0-8.0-1.13","LF","408x5p8cy7","2560","1440","en","va08ar03","null","","","","","","","","learning/Slide94.JPG","null","","","","",""
"","html-keyboard-response","289","555064","0.0-8.0-2.13","LF","408x5p8cy7","2560","1440","en","va08ar03","null","","","","learningBlock2","","","","<div style=""font-size:60px;""> </div>","null","LF","learning/Slide94.JPG","This is a tob:","",""
"","html-keyboard-response","290","556068","0.0-8.0-0.14","LF","408x5p8cy7","2560","1440","en","va08ar03","null","","","","learningBlock2","","","","This is a wug:","null","","","","",""
"","image-keyboard-response","291","556398","0.0-8.0-1.14","LF","408x5p8cy7","2560","1440","en","va08ar03","null","","","","","","","","learning/Slide95.JPG","null","","","","",""
"","html-keyboard-response","292","557399","0.0-8.0-2.14","LF","408x5p8cy7","2560","1440","en","va08ar03","null","","","","learningBlock2","","","","<div style=""font-size:60px;""> </div>","null","LF","learning/Slide95.JPG","This is a wug:","",""
"","html-keyboard-response","293","558401","0.0-8.0-0.15","LF","408x5p8cy7","2560","1440","en","va08ar03","null","","","","learningBlock2","","","","This is a tob:","null","","","","",""
"","image-keyboard-response","294","558727","0.0-8.0-1.15","LF","408x5p8cy7","2560","1440","en","va08ar03","null","","","","","","","","learning/Slide96.JPG","null","","","","",""
"","html-keyboard-response","295","559729","0.0-8.0-2.15","LF","408x5p8cy7","2560","1440","en","va08ar03","null","","","","learningBlock2","","","","<div style=""font-size:60px;""> </div>","null","LF","learning/Slide96.JPG","This is a tob:","",""
"","html-keyboard-response","296","560731","0.0-8.0-0.16","LF","408x5p8cy7","2560","1440","en","va08ar03","null","","","","learningBlock2","","","","This is a dep:","null","","","","",""
"","image-keyboard-response","297","561105","0.0-8.0-1.16","LF","408x5p8cy7","2560","1440","en","va08ar03","null","","","","","","","","learning/Slide97.JPG","null","","","","",""
"","html-keyboard-response","298","562121","0.0-8.0-2.16","LF","408x5p8cy7","2560","1440","en","va08ar03","null","","","","learningBlock2","","","","<div style=""font-size:60px;""> </div>","null","LF","learning/Slide97.JPG","This is a dep:","",""
"","html-keyboard-response","299","563123","0.0-8.0-0.17","LF","408x5p8cy7","2560","1440","en","va08ar03","null","","","","learningBlock2","","","","This is a bim:","null","","","","",""
"","image-keyboard-response","300","563452","0.0-8.0-1.17","LF","408x5p8cy7","2560","1440","en","va08ar03","null","","","","","","","","learning/Slide98.JPG","null","","","","",""
"","html-keyboard-response","301","564454","0.0-8.0-2.17","LF","408x5p8cy7","2560","1440","en","va08ar03","null","","","","learningBlock2","","","","<div style=""font-size:60px;""> </div>","null","LF","learning/Slide98.JPG","This is a bim:","",""
"","html-keyboard-response","302","565455","0.0-8.0-0.18","LF","408x5p8cy7","2560","1440","en","va08ar03","null","","","","learningBlock2","","","","This is a dep:","null","","","","",""
"","image-keyboard-response","303","565783","0.0-8.0-1.18","LF","408x5p8cy7","2560","1440","en","va08ar03","null","","","","","","","","learning/Slide99.JPG","null","","","","",""
"","html-keyboard-response","304","566784","0.0-8.0-2.18","LF","408x5p8cy7","2560","1440","en","va08ar03","null","","","","learningBlock2","","","","<div style=""font-size:60px;""> </div>","null","LF","learning/Slide99.JPG","This is a dep:","",""
"","html-keyboard-response","305","567787","0.0-8.0-0.19","LF","408x5p8cy7","2560","1440","en","va08ar03","null","","","","learningBlock2","","","","This is a bim:","null","","","","",""
"","image-keyboard-response","306","568117","0.0-8.0-1.19","LF","408x5p8cy7","2560","1440","en","va08ar03","null","","","","","","","","learning/Slide100.JPG","null","","","","",""
"","html-keyboard-response","307","569118","0.0-8.0-2.19","LF","408x5p8cy7","2560","1440","en","va08ar03","null","","","","learningBlock2","","","","<div style=""font-size:60px;""> </div>","null","LF","learning/Slide100.JPG","This is a bim:","",""
"","html-keyboard-response","308","570120","0.0-8.0-0.20","LF","408x5p8cy7","2560","1440","en","va08ar03","null","","","","learningBlock2","","","","This is a tob:","null","","","","",""
"","image-keyboard-response","309","570447","0.0-8.0-1.20","LF","408x5p8cy7","2560","1440","en","va08ar03","null","","","","","","","","learning/Slide101.JPG","null","","","","",""
"","html-keyboard-response","310","571449","0.0-8.0-2.20","LF","408x5p8cy7","2560","1440","en","va08ar03","null","","","","learningBlock2","","","","<div style=""font-size:60px;""> </div>","null","LF","learning/Slide101.JPG","This is a tob:","",""
"","html-keyboard-response","311","572450","0.0-8.0-0.21","LF","408x5p8cy7","2560","1440","en","va08ar03","null","","","","learningBlock2","","","","This is a bim:","null","","","","",""
"","image-keyboard-response","312","572778","0.0-8.0-1.21","LF","408x5p8cy7","2560","1440","en","va08ar03","null","","","","","","","","learning/Slide102.JPG","null","","","","",""
"","html-keyboard-response","313","573780","0.0-8.0-2.21","LF","408x5p8cy7","2560","1440","en","va08ar03","null","","","","learningBlock2","","","","<div style=""font-size:60px;""> </div>","null","LF","learning/Slide102.JPG","This is a bim:","",""
"","html-keyboard-response","314","574783","0.0-8.0-0.22","LF","408x5p8cy7","2560","1440","en","va08ar03","null","","","","learningBlock2","","","","This is a dep:","null","","","","",""
"","image-keyboard-response","315","575110","0.0-8.0-1.22","LF","408x5p8cy7","2560","1440","en","va08ar03","null","","","","","","","","learning/Slide103.JPG","null","","","","",""
"","html-keyboard-response","316","576112","0.0-8.0-2.22","LF","408x5p8cy7","2560","1440","en","va08ar03","null","","","","learningBlock2","","","","<div style=""font-size:60px;""> </div>","null","LF","learning/Slide103.JPG","This is a dep:","",""
"","html-keyboard-response","317","577115","0.0-8.0-0.23","LF","408x5p8cy7","2560","1440","en","va08ar03","null","","","","learningBlock2","","","","This is a tob:","null","","","","",""
"","image-keyboard-response","318","577444","0.0-8.0-1.23","LF","408x5p8cy7","2560","1440","en","va08ar03","null","","","","","","","","learning/Slide104.JPG","null","","","","",""
"","html-keyboard-response","319","578446","0.0-8.0-2.23","LF","408x5p8cy7","2560","1440","en","va08ar03","null","","","","learningBlock2","","","","<div style=""font-size:60px;""> </div>","null","LF","learning/Slide104.JPG","This is a tob:","",""
"","html-keyboard-response","320","579448","0.0-8.0-0.24","LF","408x5p8cy7","2560","1440","en","va08ar03","null","","","","learningBlock2","","","","This is a dep:","null","","","","",""
"","image-keyboard-response","321","579776","0.0-8.0-1.24","LF","408x5p8cy7","2560","1440","en","va08ar03","null","","","","","","","","learning/Slide105.JPG","null","","","","",""
"","html-keyboard-response","322","580778","0.0-8.0-2.24","LF","408x5p8cy7","2560","1440","en","va08ar03","null","","","","learningBlock2","","","","<div style=""font-size:60px;""> </div>","null","LF","learning/Slide105.JPG","This is a dep:","",""
"","html-keyboard-response","323","581779","0.0-8.0-0.25","LF","408x5p8cy7","2560","1440","en","va08ar03","null","","","","learningBlock2","","","","This is a wug:","null","","","","",""
"","image-keyboard-response","324","582108","0.0-8.0-1.25","LF","408x5p8cy7","2560","1440","en","va08ar03","null","","","","","","","","learning/Slide106.JPG","null","","","","",""
"","html-keyboard-response","325","583110","0.0-8.0-2.25","LF","408x5p8cy7","2560","1440","en","va08ar03","null","","","","learningBlock2","","","","<div style=""font-size:60px;""> </div>","null","LF","learning/Slide106.JPG","This is a wug:","",""
"","html-keyboard-response","326","584111","0.0-8.0-0.26","LF","408x5p8cy7","2560","1440","en","va08ar03","null","","","","learningBlock2","","","","This is a bim:","null","","","","",""
"","image-keyboard-response","327","584439","0.0-8.0-1.26","LF","408x5p8cy7","2560","1440","en","va08ar03","null","","","","","","","","learning/Slide107.JPG","null","","","","",""
"","html-keyboard-response","328","585441","0.0-8.0-2.26","LF","408x5p8cy7","2560","1440","en","va08ar03","null","","","","learningBlock2","","","","<div style=""font-size:60px;""> </div>","null","LF","learning/Slide107.JPG","This is a bim:","",""
"","html-keyboard-response","329","586443","0.0-8.0-0.27","LF","408x5p8cy7","2560","1440","en","va08ar03","null","","","","learningBlock2","","","","This is a dep:","null","","","","",""
"","image-keyboard-response","330","586771","0.0-8.0-1.27","LF","408x5p8cy7","2560","1440","en","va08ar03","null","","","","","","","","learning/Slide108.JPG","null","","","","",""
"","html-keyboard-response","331","587773","0.0-8.0-2.27","LF","408x5p8cy7","2560","1440","en","va08ar03","null","","","","learningBlock2","","","","<div style=""font-size:60px;""> </div>","null","LF","learning/Slide108.JPG","This is a dep:","",""
"","html-keyboard-response","332","588775","0.0-8.0-0.28","LF","408x5p8cy7","2560","1440","en","va08ar03","null","","","","learningBlock2","","","","This is a wug:","null","","","","",""
"","image-keyboard-response","333","589105","0.0-8.0-1.28","LF","408x5p8cy7","2560","1440","en","va08ar03","null","","","","","","","","learning/Slide109.JPG","null","","","","",""
"","html-keyboard-response","334","590107","0.0-8.0-2.28","LF","408x5p8cy7","2560","1440","en","va08ar03","null","","","","learningBlock2","","","","<div style=""font-size:60px;""> </div>","null","LF","learning/Slide109.JPG","This is a wug:","",""
"","html-keyboard-response","335","591110","0.0-8.0-0.29","LF","408x5p8cy7","2560","1440","en","va08ar03","null","","","","learningBlock2","","","","This is a bim:","null","","","","",""
"","image-keyboard-response","336","591440","0.0-8.0-1.29","LF","408x5p8cy7","2560","1440","en","va08ar03","null","","","","","","","","learning/Slide110.JPG","null","","","","",""
"","html-keyboard-response","337","592443","0.0-8.0-2.29","LF","408x5p8cy7","2560","1440","en","va08ar03","null","","","","learningBlock2","","","","<div style=""font-size:60px;""> </div>","null","LF","learning/Slide110.JPG","This is a bim:","",""
"","html-keyboard-response","338","593445","0.0-8.0-0.30","LF","408x5p8cy7","2560","1440","en","va08ar03","null","","","","learningBlock2","","","","This is a tob:","null","","","","",""
"","image-keyboard-response","339","593773","0.0-8.0-1.30","LF","408x5p8cy7","2560","1440","en","va08ar03","null","","","","","","","","learning/Slide111.JPG","null","","","","",""
"","html-keyboard-response","340","594776","0.0-8.0-2.30","LF","408x5p8cy7","2560","1440","en","va08ar03","null","","","","learningBlock2","","","","<div style=""font-size:60px;""> </div>","null","LF","learning/Slide111.JPG","This is a tob:","",""
"","html-keyboard-response","341","595778","0.0-8.0-0.31","LF","408x5p8cy7","2560","1440","en","va08ar03","null","","","","learningBlock2","","","","This is a wug:","null","","","","",""
"","image-keyboard-response","342","596105","0.0-8.0-1.31","LF","408x5p8cy7","2560","1440","en","va08ar03","null","","","","","","","","learning/Slide112.JPG","null","","","","",""
"","html-keyboard-response","343","597109","0.0-8.0-2.31","LF","408x5p8cy7","2560","1440","en","va08ar03","null","","","","learningBlock2","","","","<div style=""font-size:60px;""> </div>","null","LF","learning/Slide112.JPG","This is a wug:","",""
"","html-keyboard-response","344","598110","0.0-8.0-0.32","LF","408x5p8cy7","2560","1440","en","va08ar03","null","","","","learningBlock2","","","","This is a tob:","null","","","","",""
"","image-keyboard-response","345","598437","0.0-8.0-1.32","LF","408x5p8cy7","2560","1440","en","va08ar03","null","","","","","","","","learning/Slide113.JPG","null","","","","",""
"","html-keyboard-response","346","599439","0.0-8.0-2.32","LF","408x5p8cy7","2560","1440","en","va08ar03","null","","","","learningBlock2","","","","<div style=""font-size:60px;""> </div>","null","LF","learning/Slide113.JPG","This is a tob:","",""
"","html-keyboard-response","347","600442","0.0-8.0-0.33","LF","408x5p8cy7","2560","1440","en","va08ar03","null","","","","learningBlock2","","","","This is a wug:","null","","","","",""
"","image-keyboard-response","348","600770","0.0-8.0-1.33","LF","408x5p8cy7","2560","1440","en","va08ar03","null","","","","","","","","learning/Slide114.JPG","null","","","","",""
"","html-keyboard-response","349","601774","0.0-8.0-2.33","LF","408x5p8cy7","2560","1440","en","va08ar03","null","","","","learningBlock2","","","","<div style=""font-size:60px;""> </div>","null","LF","learning/Slide114.JPG","This is a wug:","",""
"","html-keyboard-response","350","602776","0.0-8.0-0.34","LF","408x5p8cy7","2560","1440","en","va08ar03","null","","","","learningBlock2","","","","This is a bim:","null","","","","",""
"","image-keyboard-response","351","603104","0.0-8.0-1.34","LF","408x5p8cy7","2560","1440","en","va08ar03","null","","","","","","","","learning/Slide115.JPG","null","","","","",""
"","html-keyboard-response","352","604105","0.0-8.0-2.34","LF","408x5p8cy7","2560","1440","en","va08ar03","null","","","","learningBlock2","","","","<div style=""font-size:60px;""> </div>","null","LF","learning/Slide115.JPG","This is a bim:","",""
"","html-keyboard-response","353","605108","0.0-8.0-0.35","LF","408x5p8cy7","2560","1440","en","va08ar03","null","","","","learningBlock2","","","","This is a dep:","null","","","","",""
"","image-keyboard-response","354","605435","0.0-8.0-1.35","LF","408x5p8cy7","2560","1440","en","va08ar03","null","","","","","","","","learning/Slide116.JPG","null","","","","",""
"","html-keyboard-response","355","606438","0.0-8.0-2.35","LF","408x5p8cy7","2560","1440","en","va08ar03","null","","","","learningBlock2","","","","<div style=""font-size:60px;""> </div>","null","LF","learning/Slide116.JPG","This is a dep:","",""
"","html-keyboard-response","356","607439","0.0-8.0-0.36","LF","408x5p8cy7","2560","1440","en","va08ar03","null","","","","learningBlock2","","","","This is a tob:","null","","","","",""
"","image-keyboard-response","357","607765","0.0-8.0-1.36","LF","408x5p8cy7","2560","1440","en","va08ar03","null","","","","","","","","learning/Slide117.JPG","null","","","","",""
"","html-keyboard-response","358","608768","0.0-8.0-2.36","LF","408x5p8cy7","2560","1440","en","va08ar03","null","","","","learningBlock2","","","","<div style=""font-size:60px;""> </div>","null","LF","learning/Slide117.JPG","This is a tob:","",""
"","html-keyboard-response","359","609769","0.0-8.0-0.37","LF","408x5p8cy7","2560","1440","en","va08ar03","null","","","","learningBlock2","","","","This is a dep:","null","","","","",""
"","image-keyboard-response","360","610099","0.0-8.0-1.37","LF","408x5p8cy7","2560","1440","en","va08ar03","null","","","","","","","","learning/Slide118.JPG","null","","","","",""
"","html-keyboard-response","361","611100","0.0-8.0-2.37","LF","408x5p8cy7","2560","1440","en","va08ar03","null","","","","learningBlock2","","","","<div style=""font-size:60px;""> </div>","null","LF","learning/Slide118.JPG","This is a dep:","",""
"","html-keyboard-response","362","612102","0.0-8.0-0.38","LF","408x5p8cy7","2560","1440","en","va08ar03","null","","","","learningBlock2","","","","This is a wug:","null","","","","",""
"","image-keyboard-response","363","612429","0.0-8.0-1.38","LF","408x5p8cy7","2560","1440","en","va08ar03","null","","","","","","","","learning/Slide119.JPG","null","","","","",""
"","html-keyboard-response","364","613431","0.0-8.0-2.38","LF","408x5p8cy7","2560","1440","en","va08ar03","null","","","","learningBlock2","","","","<div style=""font-size:60px;""> </div>","null","LF","learning/Slide119.JPG","This is a wug:","",""
"","html-keyboard-response","365","614432","0.0-8.0-0.39","LF","408x5p8cy7","2560","1440","en","va08ar03","null","","","","learningBlock2","","","","This is a dep:","null","","","","",""
"","image-keyboard-response","366","614759","0.0-8.0-1.39","LF","408x5p8cy7","2560","1440","en","va08ar03","null","","","","","","","","learning/Slide120.JPG","null","","","","",""
"","html-keyboard-response","367","615761","0.0-8.0-2.39","LF","408x5p8cy7","2560","1440","en","va08ar03","null","","","","learningBlock2","","","","<div style=""font-size:60px;""> </div>","null","LF","learning/Slide120.JPG","This is a dep:","",""
"","html-keyboard-response","368","616762","0.0-8.0-0.40","LF","408x5p8cy7","2560","1440","en","va08ar03","null","","","","learningBlock2","","","","This is a bim:","null","","","","",""
"","image-keyboard-response","369","617090","0.0-8.0-1.40","LF","408x5p8cy7","2560","1440","en","va08ar03","null","","","","","","","","learning/Slide121.JPG","null","","","","",""
"","html-keyboard-response","370","618092","0.0-8.0-2.40","LF","408x5p8cy7","2560","1440","en","va08ar03","null","","","","learningBlock2","","","","<div style=""font-size:60px;""> </div>","null","LF","learning/Slide121.JPG","This is a bim:","",""
"","html-keyboard-response","371","619093","0.0-8.0-0.41","LF","408x5p8cy7","2560","1440","en","va08ar03","null","","","","learningBlock2","","","","This is a wug:","null","","","","",""
"","image-keyboard-response","372","619422","0.0-8.0-1.41","LF","408x5p8cy7","2560","1440","en","va08ar03","null","","","","","","","","learning/Slide122.JPG","null","","","","",""
"","html-keyboard-response","373","620423","0.0-8.0-2.41","LF","408x5p8cy7","2560","1440","en","va08ar03","null","","","","learningBlock2","","","","<div style=""font-size:60px;""> </div>","null","LF","learning/Slide122.JPG","This is a wug:","",""
"","html-keyboard-response","374","621424","0.0-8.0-0.42","LF","408x5p8cy7","2560","1440","en","va08ar03","null","","","","learningBlock2","","","","This is a bim:","null","","","","",""
"","image-keyboard-response","375","621753","0.0-8.0-1.42","LF","408x5p8cy7","2560","1440","en","va08ar03","null","","","","","","","","learning/Slide123.JPG","null","","","","",""
"","html-keyboard-response","376","622755","0.0-8.0-2.42","LF","408x5p8cy7","2560","1440","en","va08ar03","null","","","","learningBlock2","","","","<div style=""font-size:60px;""> </div>","null","LF","learning/Slide123.JPG","This is a bim:","",""
"","html-keyboard-response","377","623759","0.0-8.0-0.43","LF","408x5p8cy7","2560","1440","en","va08ar03","null","","","","learningBlock2","","","","This is a tob:","null","","","","",""
"","image-keyboard-response","378","624088","0.0-8.0-1.43","LF","408x5p8cy7","2560","1440","en","va08ar03","null","","","","","","","","learning/Slide124.JPG","null","","","","",""
"","html-keyboard-response","379","625090","0.0-8.0-2.43","LF","408x5p8cy7","2560","1440","en","va08ar03","null","","","","learningBlock2","","","","<div style=""font-size:60px;""> </div>","null","LF","learning/Slide124.JPG","This is a tob:","",""
"","html-keyboard-response","380","626091","0.0-8.0-0.44","LF","408x5p8cy7","2560","1440","en","va08ar03","null","","","","learningBlock2","","","","This is a bim:","null","","","","",""
"","image-keyboard-response","381","626418","0.0-8.0-1.44","LF","408x5p8cy7","2560","1440","en","va08ar03","null","","","","","","","","learning/Slide125.JPG","null","","","","",""
"","html-keyboard-response","382","627419","0.0-8.0-2.44","LF","408x5p8cy7","2560","1440","en","va08ar03","null","","","","learningBlock2","","","","<div style=""font-size:60px;""> </div>","null","LF","learning/Slide125.JPG","This is a bim:","",""
"","html-keyboard-response","383","628421","0.0-8.0-0.45","LF","408x5p8cy7","2560","1440","en","va08ar03","null","","","","learningBlock2","","","","This is a tob:","null","","","","",""
"","image-keyboard-response","384","628748","0.0-8.0-1.45","LF","408x5p8cy7","2560","1440","en","va08ar03","null","","","","","","","","learning/Slide126.JPG","null","","","","",""
"","html-keyboard-response","385","629750","0.0-8.0-2.45","LF","408x5p8cy7","2560","1440","en","va08ar03","null","","","","learningBlock2","","","","<div style=""font-size:60px;""> </div>","null","LF","learning/Slide126.JPG","This is a tob:","",""
"","html-keyboard-response","386","630753","0.0-8.0-0.46","LF","408x5p8cy7","2560","1440","en","va08ar03","null","","","","learningBlock2","","","","This is a dep:","null","","","","",""
"","image-keyboard-response","387","631081","0.0-8.0-1.46","LF","408x5p8cy7","2560","1440","en","va08ar03","null","","","","","","","","learning/Slide127.JPG","null","","","","",""
"","html-keyboard-response","388","632084","0.0-8.0-2.46","LF","408x5p8cy7","2560","1440","en","va08ar03","null","","","","learningBlock2","","","","<div style=""font-size:60px;""> </div>","null","LF","learning/Slide127.JPG","This is a dep:","",""
"","html-keyboard-response","389","633086","0.0-8.0-0.47","LF","408x5p8cy7","2560","1440","en","va08ar03","null","","","","learningBlock2","","","","This is a wug:","null","","","","",""
"","image-keyboard-response","390","633413","0.0-8.0-1.47","LF","408x5p8cy7","2560","1440","en","va08ar03","null","","","","","","","","learning/Slide128.JPG","null","","","","",""
"","html-keyboard-response","391","634415","0.0-8.0-2.47","LF","408x5p8cy7","2560","1440","en","va08ar03","null","","","","learningBlock2","","","","<div style=""font-size:60px;""> </div>","null","LF","learning/Slide128.JPG","This is a wug:","",""
"","html-keyboard-response","392","635418","0.0-8.0-0.48","LF","408x5p8cy7","2560","1440","en","va08ar03","null","","","","learningBlock2","","","","This is a tob:","null","","","","",""
"","image-keyboard-response","393","635746","0.0-8.0-1.48","LF","408x5p8cy7","2560","1440","en","va08ar03","null","","","","","","","","learning/Slide129.JPG","null","","","","",""
"","html-keyboard-response","394","636748","0.0-8.0-2.48","LF","408x5p8cy7","2560","1440","en","va08ar03","null","","","","learningBlock2","","","","<div style=""font-size:60px;""> </div>","null","LF","learning/Slide129.JPG","This is a tob:","",""
"","html-keyboard-response","395","637751","0.0-8.0-0.49","LF","408x5p8cy7","2560","1440","en","va08ar03","null","","","","learningBlock2","","","","This is a wug:","null","","","","",""
"","image-keyboard-response","396","638080","0.0-8.0-1.49","LF","408x5p8cy7","2560","1440","en","va08ar03","null","","","","","","","","learning/Slide130.JPG","null","","","","",""
"","html-keyboard-response","397","639083","0.0-8.0-2.49","LF","408x5p8cy7","2560","1440","en","va08ar03","null","","","","learningBlock2","","","","<div style=""font-size:60px;""> </div>","null","LF","learning/Slide130.JPG","This is a wug:","",""
"","html-keyboard-response","398","640088","0.0-8.0-0.50","LF","408x5p8cy7","2560","1440","en","va08ar03","null","","","","learningBlock2","","","","This is a bim:","null","","","","",""
"","image-keyboard-response","399","640415","0.0-8.0-1.50","LF","408x5p8cy7","2560","1440","en","va08ar03","null","","","","","","","","learning/Slide131.JPG","null","","","","",""
"","html-keyboard-response","400","641417","0.0-8.0-2.50","LF","408x5p8cy7","2560","1440","en","va08ar03","null","","","","learningBlock2","","","","<div style=""font-size:60px;""> </div>","null","LF","learning/Slide131.JPG","This is a bim:","",""
"","html-keyboard-response","401","642419","0.0-8.0-0.51","LF","408x5p8cy7","2560","1440","en","va08ar03","null","","","","learningBlock2","","","","This is a dep:","null","","","","",""
"","image-keyboard-response","402","642748","0.0-8.0-1.51","LF","408x5p8cy7","2560","1440","en","va08ar03","null","","","","","","","","learning/Slide132.JPG","null","","","","",""
"","html-keyboard-response","403","643750","0.0-8.0-2.51","LF","408x5p8cy7","2560","1440","en","va08ar03","null","","","","learningBlock2","","","","<div style=""font-size:60px;""> </div>","null","LF","learning/Slide132.JPG","This is a dep:","",""
"","html-keyboard-response","404","644754","0.0-8.0-0.52","LF","408x5p8cy7","2560","1440","en","va08ar03","null","","","","learningBlock2","","","","This is a tob:","null","","","","",""
"","image-keyboard-response","405","645084","0.0-8.0-1.52","LF","408x5p8cy7","2560","1440","en","va08ar03","null","","","","","","","","learning/Slide133.JPG","null","","","","",""
"","html-keyboard-response","406","646086","0.0-8.0-2.52","LF","408x5p8cy7","2560","1440","en","va08ar03","null","","","","learningBlock2","","","","<div style=""font-size:60px;""> </div>","null","LF","learning/Slide133.JPG","This is a tob:","",""
"","html-keyboard-response","407","647088","0.0-8.0-0.53","LF","408x5p8cy7","2560","1440","en","va08ar03","null","","","","learningBlock2","","","","This is a dep:","null","","","","",""
"","image-keyboard-response","408","647415","0.0-8.0-1.53","LF","408x5p8cy7","2560","1440","en","va08ar03","null","","","","","","","","learning/Slide134.JPG","null","","","","",""
"","html-keyboard-response","409","648417","0.0-8.0-2.53","LF","408x5p8cy7","2560","1440","en","va08ar03","null","","","","learningBlock2","","","","<div style=""font-size:60px;""> </div>","null","LF","learning/Slide134.JPG","This is a dep:","",""
"","html-keyboard-response","410","649419","0.0-8.0-0.54","LF","408x5p8cy7","2560","1440","en","va08ar03","null","","","","learningBlock2","","","","This is a tob:","null","","","","",""
"","image-keyboard-response","411","649747","0.0-8.0-1.54","LF","408x5p8cy7","2560","1440","en","va08ar03","null","","","","","","","","learning/Slide135.JPG","null","","","","",""
"","html-keyboard-response","412","650749","0.0-8.0-2.54","LF","408x5p8cy7","2560","1440","en","va08ar03","null","","","","learningBlock2","","","","<div style=""font-size:60px;""> </div>","null","LF","learning/Slide135.JPG","This is a tob:","",""
"","html-keyboard-response","413","651750","0.0-8.0-0.55","LF","408x5p8cy7","2560","1440","en","va08ar03","null","","","","learningBlock2","","","","This is a wug:","null","","","","",""
"","image-keyboard-response","414","652078","0.0-8.0-1.55","LF","408x5p8cy7","2560","1440","en","va08ar03","null","","","","","","","","learning/Slide136.JPG","null","","","","",""
"","html-keyboard-response","415","653079","0.0-8.0-2.55","LF","408x5p8cy7","2560","1440","en","va08ar03","null","","","","learningBlock2","","","","<div style=""font-size:60px;""> </div>","null","LF","learning/Slide136.JPG","This is a wug:","",""
"","html-keyboard-response","416","654082","0.0-8.0-0.56","LF","408x5p8cy7","2560","1440","en","va08ar03","null","","","","learningBlock2","","","","This is a tob:","null","","","","",""
"","image-keyboard-response","417","654410","0.0-8.0-1.56","LF","408x5p8cy7","2560","1440","en","va08ar03","null","","","","","","","","learning/Slide137.JPG","null","","","","",""
"","html-keyboard-response","418","655411","0.0-8.0-2.56","LF","408x5p8cy7","2560","1440","en","va08ar03","null","","","","learningBlock2","","","","<div style=""font-size:60px;""> </div>","null","LF","learning/Slide137.JPG","This is a tob:","",""
"","html-keyboard-response","419","656413","0.0-8.0-0.57","LF","408x5p8cy7","2560","1440","en","va08ar03","null","","","","learningBlock2","","","","This is a bim:","null","","","","",""
"","image-keyboard-response","420","656739","0.0-8.0-1.57","LF","408x5p8cy7","2560","1440","en","va08ar03","null","","","","","","","","learning/Slide138.JPG","null","","","","",""
"","html-keyboard-response","421","657742","0.0-8.0-2.57","LF","408x5p8cy7","2560","1440","en","va08ar03","null","","","","learningBlock2","","","","<div style=""font-size:60px;""> </div>","null","LF","learning/Slide138.JPG","This is a bim:","",""
"","html-keyboard-response","422","658743","0.0-8.0-0.58","LF","408x5p8cy7","2560","1440","en","va08ar03","null","","","","learningBlock2","","","","This is a wug:","null","","","","",""
"","image-keyboard-response","423","659071","0.0-8.0-1.58","LF","408x5p8cy7","2560","1440","en","va08ar03","null","","","","","","","","learning/Slide139.JPG","null","","","","",""
"","html-keyboard-response","424","660074","0.0-8.0-2.58","LF","408x5p8cy7","2560","1440","en","va08ar03","null","","","","learningBlock2","","","","<div style=""font-size:60px;""> </div>","null","LF","learning/Slide139.JPG","This is a wug:","",""
"","html-keyboard-response","425","661076","0.0-8.0-0.59","LF","408x5p8cy7","2560","1440","en","va08ar03","null","","","","learningBlock2","","","","This is a dep:","null","","","","",""
"","image-keyboard-response","426","661403","0.0-8.0-1.59","LF","408x5p8cy7","2560","1440","en","va08ar03","null","","","","","","","","learning/Slide140.JPG","null","","","","",""
"","html-keyboard-response","427","662405","0.0-8.0-2.59","LF","408x5p8cy7","2560","1440","en","va08ar03","null","","","","learningBlock2","","","","<div style=""font-size:60px;""> </div>","null","LF","learning/Slide140.JPG","This is a dep:","",""
"","html-keyboard-response","428","663407","0.0-8.0-0.60","LF","408x5p8cy7","2560","1440","en","va08ar03","null","","","","learningBlock2","","","","This is a tob:","null","","","","",""
"","image-keyboard-response","429","663735","0.0-8.0-1.60","LF","408x5p8cy7","2560","1440","en","va08ar03","null","","","","","","","","learning/Slide141.JPG","null","","","","",""
"","html-keyboard-response","430","664737","0.0-8.0-2.60","LF","408x5p8cy7","2560","1440","en","va08ar03","null","","","","learningBlock2","","","","<div style=""font-size:60px;""> </div>","null","LF","learning/Slide141.JPG","This is a tob:","",""
"","html-keyboard-response","431","665739","0.0-8.0-0.61","LF","408x5p8cy7","2560","1440","en","va08ar03","null","","","","learningBlock2","","","","This is a wug:","null","","","","",""
"","image-keyboard-response","432","666067","0.0-8.0-1.61","LF","408x5p8cy7","2560","1440","en","va08ar03","null","","","","","","","","learning/Slide142.JPG","null","","","","",""
"","html-keyboard-response","433","667068","0.0-8.0-2.61","LF","408x5p8cy7","2560","1440","en","va08ar03","null","","","","learningBlock2","","","","<div style=""font-size:60px;""> </div>","null","LF","learning/Slide142.JPG","This is a wug:","",""
"","html-keyboard-response","434","668070","0.0-8.0-0.62","LF","408x5p8cy7","2560","1440","en","va08ar03","null","","","","learningBlock2","","","","This is a bim:","null","","","","",""
"","image-keyboard-response","435","668398","0.0-8.0-1.62","LF","408x5p8cy7","2560","1440","en","va08ar03","null","","","","","","","","learning/Slide143.JPG","null","","","","",""
"","html-keyboard-response","436","669400","0.0-8.0-2.62","LF","408x5p8cy7","2560","1440","en","va08ar03","null","","","","learningBlock2","","","","<div style=""font-size:60px;""> </div>","null","LF","learning/Slide143.JPG","This is a bim:","",""
"","html-keyboard-response","437","670401","0.0-8.0-0.63","LF","408x5p8cy7","2560","1440","en","va08ar03","null","","","","learningBlock2","","","","This is a dep:","null","","","","",""
"","image-keyboard-response","438","670728","0.0-8.0-1.63","LF","408x5p8cy7","2560","1440","en","va08ar03","null","","","","","","","","learning/Slide144.JPG","null","","","","",""
"","html-keyboard-response","439","671730","0.0-8.0-2.63","LF","408x5p8cy7","2560","1440","en","va08ar03","null","","","","learningBlock2","","","","<div style=""font-size:60px;""> </div>","null","LF","learning/Slide144.JPG","This is a dep:","",""
"","html-keyboard-response","440","672732","0.0-8.0-0.64","LF","408x5p8cy7","2560","1440","en","va08ar03","null","","","","learningBlock2","","","","This is a bim:","null","","","","",""
"","image-keyboard-response","441","673059","0.0-8.0-1.64","LF","408x5p8cy7","2560","1440","en","va08ar03","null","","","","","","","","learning/Slide145.JPG","null","","","","",""
"","html-keyboard-response","442","674061","0.0-8.0-2.64","LF","408x5p8cy7","2560","1440","en","va08ar03","null","","","","learningBlock2","","","","<div style=""font-size:60px;""> </div>","null","LF","learning/Slide145.JPG","This is a bim:","",""
"","html-keyboard-response","443","675062","0.0-8.0-0.65","LF","408x5p8cy7","2560","1440","en","va08ar03","null","","","","learningBlock2","","","","This is a tob:","null","","","","",""
"","image-keyboard-response","444","675389","0.0-8.0-1.65","LF","408x5p8cy7","2560","1440","en","va08ar03","null","","","","","","","","learning/Slide146.JPG","null","","","","",""
"","html-keyboard-response","445","676392","0.0-8.0-2.65","LF","408x5p8cy7","2560","1440","en","va08ar03","null","","","","learningBlock2","","","","<div style=""font-size:60px;""> </div>","null","LF","learning/Slide146.JPG","This is a tob:","",""
"","html-keyboard-response","446","677393","0.0-8.0-0.66","LF","408x5p8cy7","2560","1440","en","va08ar03","null","","","","learningBlock2","","","","This is a wug:","null","","","","",""
"","image-keyboard-response","447","677721","0.0-8.0-1.66","LF","408x5p8cy7","2560","1440","en","va08ar03","null","","","","","","","","learning/Slide147.JPG","null","","","","",""
"","html-keyboard-response","448","678723","0.0-8.0-2.66","LF","408x5p8cy7","2560","1440","en","va08ar03","null","","","","learningBlock2","","","","<div style=""font-size:60px;""> </div>","null","LF","learning/Slide147.JPG","This is a wug:","",""
"","html-keyboard-response","449","679725","0.0-8.0-0.67","LF","408x5p8cy7","2560","1440","en","va08ar03","null","","","","learningBlock2","","","","This is a bim:","null","","","","",""
"","image-keyboard-response","450","680053","0.0-8.0-1.67","LF","408x5p8cy7","2560","1440","en","va08ar03","null","","","","","","","","learning/Slide148.JPG","null","","","","",""
"","html-keyboard-response","451","681055","0.0-8.0-2.67","LF","408x5p8cy7","2560","1440","en","va08ar03","null","","","","learningBlock2","","","","<div style=""font-size:60px;""> </div>","null","LF","learning/Slide148.JPG","This is a bim:","",""
"","html-keyboard-response","452","682057","0.0-8.0-0.68","LF","408x5p8cy7","2560","1440","en","va08ar03","null","","","","learningBlock2","","","","This is a dep:","null","","","","",""
"","image-keyboard-response","453","682385","0.0-8.0-1.68","LF","408x5p8cy7","2560","1440","en","va08ar03","null","","","","","","","","learning/Slide149.JPG","null","","","","",""
"","html-keyboard-response","454","683387","0.0-8.0-2.68","LF","408x5p8cy7","2560","1440","en","va08ar03","null","","","","learningBlock2","","","","<div style=""font-size:60px;""> </div>","null","LF","learning/Slide149.JPG","This is a dep:","",""
"","html-keyboard-response","455","684389","0.0-8.0-0.69","LF","408x5p8cy7","2560","1440","en","va08ar03","null","","","","learningBlock2","","","","This is a wug:","null","","","","",""
"","image-keyboard-response","456","684717","0.0-8.0-1.69","LF","408x5p8cy7","2560","1440","en","va08ar03","null","","","","","","","","learning/Slide150.JPG","null","","","","",""
"","html-keyboard-response","457","685719","0.0-8.0-2.69","LF","408x5p8cy7","2560","1440","en","va08ar03","null","","","","learningBlock2","","","","<div style=""font-size:60px;""> </div>","null","LF","learning/Slide150.JPG","This is a wug:","",""
"","html-keyboard-response","458","686721","0.0-8.0-0.70","LF","408x5p8cy7","2560","1440","en","va08ar03","null","","","","learningBlock2","","","","This is a dep:","null","","","","",""
"","image-keyboard-response","459","687048","0.0-8.0-1.70","LF","408x5p8cy7","2560","1440","en","va08ar03","null","","","","","","","","learning/Slide151.JPG","null","","","","",""
"","html-keyboard-response","460","688050","0.0-8.0-2.70","LF","408x5p8cy7","2560","1440","en","va08ar03","null","","","","learningBlock2","","","","<div style=""font-size:60px;""> </div>","null","LF","learning/Slide151.JPG","This is a dep:","",""
"","html-keyboard-response","461","689052","0.0-8.0-0.71","LF","408x5p8cy7","2560","1440","en","va08ar03","null","","","","learningBlock2","","","","This is a wug:","null","","","","",""
"","image-keyboard-response","462","689379","0.0-8.0-1.71","LF","408x5p8cy7","2560","1440","en","va08ar03","null","","","","","","","","learning/Slide152.JPG","null","","","","",""
"","html-keyboard-response","463","690381","0.0-8.0-2.71","LF","408x5p8cy7","2560","1440","en","va08ar03","null","","","","learningBlock2","","","","<div style=""font-size:60px;""> </div>","null","LF","learning/Slide152.JPG","This is a wug:","",""
"","html-keyboard-response","464","691382","0.0-8.0-0.72","LF","408x5p8cy7","2560","1440","en","va08ar03","null","","","","learningBlock2","","","","This is a bim:","null","","","","",""
"","image-keyboard-response","465","691711","0.0-8.0-1.72","LF","408x5p8cy7","2560","1440","en","va08ar03","null","","","","","","","","learning/Slide153.JPG","null","","","","",""
"","html-keyboard-response","466","692714","0.0-8.0-2.72","LF","408x5p8cy7","2560","1440","en","va08ar03","null","","","","learningBlock2","","","","<div style=""font-size:60px;""> </div>","null","LF","learning/Slide153.JPG","This is a bim:","",""
"","html-keyboard-response","467","693715","0.0-8.0-0.73","LF","408x5p8cy7","2560","1440","en","va08ar03","null","","","","learningBlock2","","","","This is a tob:","null","","","","",""
"","image-keyboard-response","468","694043","0.0-8.0-1.73","LF","408x5p8cy7","2560","1440","en","va08ar03","null","","","","","","","","learning/Slide154.JPG","null","","","","",""
"","html-keyboard-response","469","695045","0.0-8.0-2.73","LF","408x5p8cy7","2560","1440","en","va08ar03","null","","","","learningBlock2","","","","<div style=""font-size:60px;""> </div>","null","LF","learning/Slide154.JPG","This is a tob:","",""
"","html-keyboard-response","470","696046","0.0-8.0-0.74","LF","408x5p8cy7","2560","1440","en","va08ar03","null","","","","learningBlock2","","","","This is a dep:","null","","","","",""
"","image-keyboard-response","471","696384","0.0-8.0-1.74","LF","408x5p8cy7","2560","1440","en","va08ar03","null","","","","","","","","learning/Slide155.JPG","null","","","","",""
"","html-keyboard-response","472","697385","0.0-8.0-2.74","LF","408x5p8cy7","2560","1440","en","va08ar03","null","","","","learningBlock2","","","","<div style=""font-size:60px;""> </div>","null","LF","learning/Slide155.JPG","This is a dep:","",""
"","html-keyboard-response","473","698387","0.0-8.0-0.75","LF","408x5p8cy7","2560","1440","en","va08ar03","null","","","","learningBlock2","","","","This is a bim:","null","","","","",""
"","image-keyboard-response","474","698716","0.0-8.0-1.75","LF","408x5p8cy7","2560","1440","en","va08ar03","null","","","","","","","","learning/Slide156.JPG","null","","","","",""
"","html-keyboard-response","475","699718","0.0-8.0-2.75","LF","408x5p8cy7","2560","1440","en","va08ar03","null","","","","learningBlock2","","","","<div style=""font-size:60px;""> </div>","null","LF","learning/Slide156.JPG","This is a bim:","",""
"","html-keyboard-response","476","700721","0.0-8.0-0.76","LF","408x5p8cy7","2560","1440","en","va08ar03","null","","","","learningBlock2","","","","This is a dep:","null","","","","",""
"","image-keyboard-response","477","701049","0.0-8.0-1.76","LF","408x5p8cy7","2560","1440","en","va08ar03","null","","","","","","","","learning/Slide157.JPG","null","","","","",""
"","html-keyboard-response","478","702050","0.0-8.0-2.76","LF","408x5p8cy7","2560","1440","en","va08ar03","null","","","","learningBlock2","","","","<div style=""font-size:60px;""> </div>","null","LF","learning/Slide157.JPG","This is a dep:","",""
"","html-keyboard-response","479","703052","0.0-8.0-0.77","LF","408x5p8cy7","2560","1440","en","va08ar03","null","","","","learningBlock2","","","","This is a tob:","null","","","","",""
"","image-keyboard-response","480","703380","0.0-8.0-1.77","LF","408x5p8cy7","2560","1440","en","va08ar03","null","","","","","","","","learning/Slide158.JPG","null","","","","",""
"","html-keyboard-response","481","704382","0.0-8.0-2.77","LF","408x5p8cy7","2560","1440","en","va08ar03","null","","","","learningBlock2","","","","<div style=""font-size:60px;""> </div>","null","LF","learning/Slide158.JPG","This is a tob:","",""
"","html-keyboard-response","482","705383","0.0-8.0-0.78","LF","408x5p8cy7","2560","1440","en","va08ar03","null","","","","learningBlock2","","","","This is a dep:","null","","","","",""
"","image-keyboard-response","483","705709","0.0-8.0-1.78","LF","408x5p8cy7","2560","1440","en","va08ar03","null","","","","","","","","learning/Slide159.JPG","null","","","","",""
"","html-keyboard-response","484","706711","0.0-8.0-2.78","LF","408x5p8cy7","2560","1440","en","va08ar03","null","","","","learningBlock2","","","","<div style=""font-size:60px;""> </div>","null","LF","learning/Slide159.JPG","This is a dep:","",""
"","html-keyboard-response","485","707712","0.0-8.0-0.79","LF","408x5p8cy7","2560","1440","en","va08ar03","null","","","","learningBlock2","","","","This is a wug:","null","","","","",""
"","image-keyboard-response","486","708041","0.0-8.0-1.79","LF","408x5p8cy7","2560","1440","en","va08ar03","null","","","","","","","","learning/Slide160.JPG","null","","","","",""
