"success","trial_type","trial_index","time_elapsed","internal_node_id","condition","subject","screen_width","screen_height","language","codeword","rt","responses","url","view_history","test_part","final_height_px","final_width_px","scale_factor","stimulus","key_press","learningType","presentedImage","presentedLabel","button_pressed","response"
"true","fullscreen","0","6800","0.0-0.0","LF","temg3es1km","1920","976","de","VA04RG03","","","","","","","","","","","","","","",""
"","survey-html-form","1","13000","0.0-1.0","LF","temg3es1km","1920","976","de","VA04RG03","6300","{""language"":""de""}","","","","","","","","","","","","",""
"","external-html","2","32500","0.0-2.0-0.0","LF","temg3es1km","1920","976","de","VA04RG03","19500","","text/information.html","","","","","","","","","","","",""
"","external-html","3","39500","0.0-2.0-1.0","LF","temg3es1km","1920","976","de","VA04RG03","6900","","text/consent.html","","","","","","","","","","","",""
"","survey-html-form","4","85600","0.0-2.0-2.0","LF","temg3es1km","1920","976","de","VA04RG03","46100","{""codeword_enter"":""VA04RG03""}","","","","","","","","","","","","",""
"","instructions","5","105300","0.0-4.0","LF","temg3es1km","1920","976","de","VA04RG03","NA","","","[{""page_index"":0,""viewing_time"":1500},{""page_index"":1,""viewing_time"":16700}]","instructions","","","","","","","","","",""
"","resize","6","131400","0.0-5.0","LF","temg3es1km","1920","976","de","VA04RG03","","","","","","","304","1.9301587301587302","","","","","","",""
"","html-keyboard-response","7","132400","0.0-6.0-0.0","LF","temg3es1km","1920","976","de","VA04RG03","null","","","","learningBlock1","","","","This is a tob:","null","","","","",""
"","image-keyboard-response","8","132800","0.0-6.0-1.0","LF","temg3es1km","1920","976","de","VA04RG03","null","","","","","","","","learning/Slide1.JPG","null","","","","",""
"","html-keyboard-response","9","133800","0.0-6.0-2.0","LF","temg3es1km","1920","976","de","VA04RG03","null","","","","learningBlock1","","","","<div style=""font-size:60px;""> </div>","null","LF","learning/Slide1.JPG","This is a tob:","",""
"","html-keyboard-response","10","134800","0.0-6.0-0.1","LF","temg3es1km","1920","976","de","VA04RG03","null","","","","learningBlock1","","","","This is a wug:","null","","","","",""
"","image-keyboard-response","11","135100","0.0-6.0-1.1","LF","temg3es1km","1920","976","de","VA04RG03","null","","","","","","","","learning/Slide2.JPG","null","","","","",""
"","html-keyboard-response","12","136100","0.0-6.0-2.1","LF","temg3es1km","1920","976","de","VA04RG03","null","","","","learningBlock1","","","","<div style=""font-size:60px;""> </div>","null","LF","learning/Slide2.JPG","This is a wug:","",""
"","html-keyboard-response","13","137200","0.0-6.0-0.2","LF","temg3es1km","1920","976","de","VA04RG03","null","","","","learningBlock1","","","","This is a bim:","null","","","","",""
"","image-keyboard-response","14","137500","0.0-6.0-1.2","LF","temg3es1km","1920","976","de","VA04RG03","null","","","","","","","","learning/Slide3.JPG","null","","","","",""
"","html-keyboard-response","15","138500","0.0-6.0-2.2","LF","temg3es1km","1920","976","de","VA04RG03","null","","","","learningBlock1","","","","<div style=""font-size:60px;""> </div>","null","LF","learning/Slide3.JPG","This is a bim:","",""
"","html-keyboard-response","16","139500","0.0-6.0-0.3","LF","temg3es1km","1920","976","de","VA04RG03","null","","","","learningBlock1","","","","This is a dep:","null","","","","",""
"","image-keyboard-response","17","139900","0.0-6.0-1.3","LF","temg3es1km","1920","976","de","VA04RG03","null","","","","","","","","learning/Slide4.JPG","null","","","","",""
"","html-keyboard-response","18","140900","0.0-6.0-2.3","LF","temg3es1km","1920","976","de","VA04RG03","null","","","","learningBlock1","","","","<div style=""font-size:60px;""> </div>","null","LF","learning/Slide4.JPG","This is a dep:","",""
"","html-keyboard-response","19","141900","0.0-6.0-0.4","LF","temg3es1km","1920","976","de","VA04RG03","null","","","","learningBlock1","","","","This is a wug:","null","","","","",""
"","image-keyboard-response","20","142200","0.0-6.0-1.4","LF","temg3es1km","1920","976","de","VA04RG03","null","","","","","","","","learning/Slide5.JPG","null","","","","",""
"","html-keyboard-response","21","143300","0.0-6.0-2.4","LF","temg3es1km","1920","976","de","VA04RG03","null","","","","learningBlock1","","","","<div style=""font-size:60px;""> </div>","null","LF","learning/Slide5.JPG","This is a wug:","",""
"","html-keyboard-response","22","144200","0.0-6.0-0.5","LF","temg3es1km","1920","976","de","VA04RG03","null","","","","learningBlock1","","","","This is a dep:","null","","","","",""
"","image-keyboard-response","23","144600","0.0-6.0-1.5","LF","temg3es1km","1920","976","de","VA04RG03","null","","","","","","","","learning/Slide6.JPG","null","","","","",""
"","html-keyboard-response","24","145600","0.0-6.0-2.5","LF","temg3es1km","1920","976","de","VA04RG03","null","","","","learningBlock1","","","","<div style=""font-size:60px;""> </div>","null","LF","learning/Slide6.JPG","This is a dep:","",""
"","html-keyboard-response","25","146600","0.0-6.0-0.6","LF","temg3es1km","1920","976","de","VA04RG03","null","","","","learningBlock1","","","","This is a wug:","null","","","","",""
"","image-keyboard-response","26","147000","0.0-6.0-1.6","LF","temg3es1km","1920","976","de","VA04RG03","null","","","","","","","","learning/Slide7.JPG","null","","","","",""
"","html-keyboard-response","27","147900","0.0-6.0-2.6","LF","temg3es1km","1920","976","de","VA04RG03","null","","","","learningBlock1","","","","<div style=""font-size:60px;""> </div>","null","LF","learning/Slide7.JPG","This is a wug:","",""
"","html-keyboard-response","28","149000","0.0-6.0-0.7","LF","temg3es1km","1920","976","de","VA04RG03","null","","","","learningBlock1","","","","This is a bim:","null","","","","",""
"","image-keyboard-response","29","149400","0.0-6.0-1.7","LF","temg3es1km","1920","976","de","VA04RG03","null","","","","","","","","learning/Slide8.JPG","null","","","","",""
"","html-keyboard-response","30","150400","0.0-6.0-2.7","LF","temg3es1km","1920","976","de","VA04RG03","null","","","","learningBlock1","","","","<div style=""font-size:60px;""> </div>","null","LF","learning/Slide8.JPG","This is a bim:","",""
"","html-keyboard-response","31","151400","0.0-6.0-0.8","LF","temg3es1km","1920","976","de","VA04RG03","null","","","","learningBlock1","","","","This is a wug:","null","","","","",""
"","image-keyboard-response","32","151700","0.0-6.0-1.8","LF","temg3es1km","1920","976","de","VA04RG03","null","","","","","","","","learning/Slide9.JPG","null","","","","",""
"","html-keyboard-response","33","152700","0.0-6.0-2.8","LF","temg3es1km","1920","976","de","VA04RG03","null","","","","learningBlock1","","","","<div style=""font-size:60px;""> </div>","null","LF","learning/Slide9.JPG","This is a wug:","",""
"","html-keyboard-response","34","153700","0.0-6.0-0.9","LF","temg3es1km","1920","976","de","VA04RG03","null","","","","learningBlock1","","","","This is a dep:","null","","","","",""
"","image-keyboard-response","35","154100","0.0-6.0-1.9","LF","temg3es1km","1920","976","de","VA04RG03","null","","","","","","","","learning/Slide10.JPG","null","","","","",""
"","html-keyboard-response","36","155000","0.0-6.0-2.9","LF","temg3es1km","1920","976","de","VA04RG03","null","","","","learningBlock1","","","","<div style=""font-size:60px;""> </div>","null","LF","learning/Slide10.JPG","This is a dep:","",""
"","html-keyboard-response","37","156100","0.0-6.0-0.10","LF","temg3es1km","1920","976","de","VA04RG03","null","","","","learningBlock1","","","","This is a tob:","null","","","","",""
"","image-keyboard-response","38","156400","0.0-6.0-1.10","LF","temg3es1km","1920","976","de","VA04RG03","null","","","","","","","","learning/Slide11.JPG","null","","","","",""
"","html-keyboard-response","39","157500","0.0-6.0-2.10","LF","temg3es1km","1920","976","de","VA04RG03","null","","","","learningBlock1","","","","<div style=""font-size:60px;""> </div>","null","LF","learning/Slide11.JPG","This is a tob:","",""
"","html-keyboard-response","40","158400","0.0-6.0-0.11","LF","temg3es1km","1920","976","de","VA04RG03","null","","","","learningBlock1","","","","This is a dep:","null","","","","",""
"","image-keyboard-response","41","158800","0.0-6.0-1.11","LF","temg3es1km","1920","976","de","VA04RG03","null","","","","","","","","learning/Slide12.JPG","null","","","","",""
"","html-keyboard-response","42","159800","0.0-6.0-2.11","LF","temg3es1km","1920","976","de","VA04RG03","null","","","","learningBlock1","","","","<div style=""font-size:60px;""> </div>","null","LF","learning/Slide12.JPG","This is a dep:","",""
"","html-keyboard-response","43","160800","0.0-6.0-0.12","LF","temg3es1km","1920","976","de","VA04RG03","null","","","","learningBlock1","","","","This is a bim:","null","","","","",""
"","image-keyboard-response","44","161200","0.0-6.0-1.12","LF","temg3es1km","1920","976","de","VA04RG03","null","","","","","","","","learning/Slide13.JPG","null","","","","",""
"","html-keyboard-response","45","162100","0.0-6.0-2.12","LF","temg3es1km","1920","976","de","VA04RG03","null","","","","learningBlock1","","","","<div style=""font-size:60px;""> </div>","null","LF","learning/Slide13.JPG","This is a bim:","",""
"","html-keyboard-response","46","163200","0.0-6.0-0.13","LF","temg3es1km","1920","976","de","VA04RG03","null","","","","learningBlock1","","","","This is a wug:","null","","","","",""
"","image-keyboard-response","47","163500","0.0-6.0-1.13","LF","temg3es1km","1920","976","de","VA04RG03","null","","","","","","","","learning/Slide14.JPG","null","","","","",""
"","html-keyboard-response","48","164500","0.0-6.0-2.13","LF","temg3es1km","1920","976","de","VA04RG03","null","","","","learningBlock1","","","","<div style=""font-size:60px;""> </div>","null","LF","learning/Slide14.JPG","This is a wug:","",""
"","html-keyboard-response","49","165500","0.0-6.0-0.14","LF","temg3es1km","1920","976","de","VA04RG03","null","","","","learningBlock1","","","","This is a tob:","null","","","","",""
"","image-keyboard-response","50","165800","0.0-6.0-1.14","LF","temg3es1km","1920","976","de","VA04RG03","null","","","","","","","","learning/Slide15.JPG","null","","","","",""
"","html-keyboard-response","51","166900","0.0-6.0-2.14","LF","temg3es1km","1920","976","de","VA04RG03","null","","","","learningBlock1","","","","<div style=""font-size:60px;""> </div>","null","LF","learning/Slide15.JPG","This is a tob:","",""
"","html-keyboard-response","52","167900","0.0-6.0-0.15","LF","temg3es1km","1920","976","de","VA04RG03","null","","","","learningBlock1","","","","This is a dep:","null","","","","",""
"","image-keyboard-response","53","168200","0.0-6.0-1.15","LF","temg3es1km","1920","976","de","VA04RG03","null","","","","","","","","learning/Slide16.JPG","null","","","","",""
"","html-keyboard-response","54","169300","0.0-6.0-2.15","LF","temg3es1km","1920","976","de","VA04RG03","null","","","","learningBlock1","","","","<div style=""font-size:60px;""> </div>","null","LF","learning/Slide16.JPG","This is a dep:","",""
"","html-keyboard-response","55","170200","0.0-6.0-0.16","LF","temg3es1km","1920","976","de","VA04RG03","null","","","","learningBlock1","","","","This is a bim:","null","","","","",""
"","image-keyboard-response","56","170600","0.0-6.0-1.16","LF","temg3es1km","1920","976","de","VA04RG03","null","","","","","","","","learning/Slide17.JPG","null","","","","",""
"","html-keyboard-response","57","171600","0.0-6.0-2.16","LF","temg3es1km","1920","976","de","VA04RG03","null","","","","learningBlock1","","","","<div style=""font-size:60px;""> </div>","null","LF","learning/Slide17.JPG","This is a bim:","",""
"","html-keyboard-response","58","172600","0.0-6.0-0.17","LF","temg3es1km","1920","976","de","VA04RG03","null","","","","learningBlock1","","","","This is a tob:","null","","","","",""
"","image-keyboard-response","59","172900","0.0-6.0-1.17","LF","temg3es1km","1920","976","de","VA04RG03","null","","","","","","","","learning/Slide18.JPG","null","","","","",""
"","html-keyboard-response","60","174000","0.0-6.0-2.17","LF","temg3es1km","1920","976","de","VA04RG03","null","","","","learningBlock1","","","","<div style=""font-size:60px;""> </div>","null","LF","learning/Slide18.JPG","This is a tob:","",""
"","html-keyboard-response","61","175000","0.0-6.0-0.18","LF","temg3es1km","1920","976","de","VA04RG03","null","","","","learningBlock1","","","","This is a wug:","null","","","","",""
"","image-keyboard-response","62","175300","0.0-6.0-1.18","LF","temg3es1km","1920","976","de","VA04RG03","null","","","","","","","","learning/Slide19.JPG","null","","","","",""
"","html-keyboard-response","63","176300","0.0-6.0-2.18","LF","temg3es1km","1920","976","de","VA04RG03","null","","","","learningBlock1","","","","<div style=""font-size:60px;""> </div>","null","LF","learning/Slide19.JPG","This is a wug:","",""
"","html-keyboard-response","64","177300","0.0-6.0-0.19","LF","temg3es1km","1920","976","de","VA04RG03","null","","","","learningBlock1","","","","This is a bim:","null","","","","",""
"","image-keyboard-response","65","177600","0.0-6.0-1.19","LF","temg3es1km","1920","976","de","VA04RG03","null","","","","","","","","learning/Slide20.JPG","null","","","","",""
"","html-keyboard-response","66","178700","0.0-6.0-2.19","LF","temg3es1km","1920","976","de","VA04RG03","null","","","","learningBlock1","","","","<div style=""font-size:60px;""> </div>","null","LF","learning/Slide20.JPG","This is a bim:","",""
"","html-keyboard-response","67","179700","0.0-6.0-0.20","LF","temg3es1km","1920","976","de","VA04RG03","null","","","","learningBlock1","","","","This is a dep:","null","","","","",""
"","image-keyboard-response","68","180100","0.0-6.0-1.20","LF","temg3es1km","1920","976","de","VA04RG03","null","","","","","","","","learning/Slide21.JPG","null","","","","",""
"","html-keyboard-response","69","181000","0.0-6.0-2.20","LF","temg3es1km","1920","976","de","VA04RG03","null","","","","learningBlock1","","","","<div style=""font-size:60px;""> </div>","null","LF","learning/Slide21.JPG","This is a dep:","",""
"","html-keyboard-response","70","182100","0.0-6.0-0.21","LF","temg3es1km","1920","976","de","VA04RG03","null","","","","learningBlock1","","","","This is a bim:","null","","","","",""
"","image-keyboard-response","71","182400","0.0-6.0-1.21","LF","temg3es1km","1920","976","de","VA04RG03","null","","","","","","","","learning/Slide22.JPG","null","","","","",""
"","html-keyboard-response","72","183400","0.0-6.0-2.21","LF","temg3es1km","1920","976","de","VA04RG03","null","","","","learningBlock1","","","","<div style=""font-size:60px;""> </div>","null","LF","learning/Slide22.JPG","This is a bim:","",""
"","html-keyboard-response","73","184500","0.0-6.0-0.22","LF","temg3es1km","1920","976","de","VA04RG03","null","","","","learningBlock1","","","","This is a tob:","null","","","","",""
"","image-keyboard-response","74","184800","0.0-6.0-1.22","LF","temg3es1km","1920","976","de","VA04RG03","null","","","","","","","","learning/Slide23.JPG","null","","","","",""
"","html-keyboard-response","75","185800","0.0-6.0-2.22","LF","temg3es1km","1920","976","de","VA04RG03","null","","","","learningBlock1","","","","<div style=""font-size:60px;""> </div>","null","LF","learning/Slide23.JPG","This is a tob:","",""
"","html-keyboard-response","76","186800","0.0-6.0-0.23","LF","temg3es1km","1920","976","de","VA04RG03","null","","","","learningBlock1","","","","This is a wug:","null","","","","",""
"","image-keyboard-response","77","187100","0.0-6.0-1.23","LF","temg3es1km","1920","976","de","VA04RG03","null","","","","","","","","learning/Slide24.JPG","null","","","","",""
"","html-keyboard-response","78","188100","0.0-6.0-2.23","LF","temg3es1km","1920","976","de","VA04RG03","null","","","","learningBlock1","","","","<div style=""font-size:60px;""> </div>","null","LF","learning/Slide24.JPG","This is a wug:","",""
"","html-keyboard-response","79","189100","0.0-6.0-0.24","LF","temg3es1km","1920","976","de","VA04RG03","null","","","","learningBlock1","","","","This is a dep:","null","","","","",""
"","image-keyboard-response","80","189500","0.0-6.0-1.24","LF","temg3es1km","1920","976","de","VA04RG03","null","","","","","","","","learning/Slide25.JPG","null","","","","",""
"","html-keyboard-response","81","190500","0.0-6.0-2.24","LF","temg3es1km","1920","976","de","VA04RG03","null","","","","learningBlock1","","","","<div style=""font-size:60px;""> </div>","null","LF","learning/Slide25.JPG","This is a dep:","",""
"","html-keyboard-response","82","191500","0.0-6.0-0.25","LF","temg3es1km","1920","976","de","VA04RG03","null","","","","learningBlock1","","","","This is a wug:","null","","","","",""
"","image-keyboard-response","83","191800","0.0-6.0-1.25","LF","temg3es1km","1920","976","de","VA04RG03","null","","","","","","","","learning/Slide26.JPG","null","","","","",""
"","html-keyboard-response","84","192900","0.0-6.0-2.25","LF","temg3es1km","1920","976","de","VA04RG03","null","","","","learningBlock1","","","","<div style=""font-size:60px;""> </div>","null","LF","learning/Slide26.JPG","This is a wug:","",""
"","html-keyboard-response","85","193900","0.0-6.0-0.26","LF","temg3es1km","1920","976","de","VA04RG03","null","","","","learningBlock1","","","","This is a bim:","null","","","","",""
"","image-keyboard-response","86","194300","0.0-6.0-1.26","LF","temg3es1km","1920","976","de","VA04RG03","null","","","","","","","","learning/Slide27.JPG","null","","","","",""
"","html-keyboard-response","87","195300","0.0-6.0-2.26","LF","temg3es1km","1920","976","de","VA04RG03","null","","","","learningBlock1","","","","<div style=""font-size:60px;""> </div>","null","LF","learning/Slide27.JPG","This is a bim:","",""
"","html-keyboard-response","88","196300","0.0-6.0-0.27","LF","temg3es1km","1920","976","de","VA04RG03","null","","","","learningBlock1","","","","This is a dep:","null","","","","",""
"","image-keyboard-response","89","196600","0.0-6.0-1.27","LF","temg3es1km","1920","976","de","VA04RG03","null","","","","","","","","learning/Slide28.JPG","null","","","","",""
"","html-keyboard-response","90","197600","0.0-6.0-2.27","LF","temg3es1km","1920","976","de","VA04RG03","null","","","","learningBlock1","","","","<div style=""font-size:60px;""> </div>","null","LF","learning/Slide28.JPG","This is a dep:","",""
"","html-keyboard-response","91","198600","0.0-6.0-0.28","LF","temg3es1km","1920","976","de","VA04RG03","null","","","","learningBlock1","","","","This is a tob:","null","","","","",""
"","image-keyboard-response","92","199000","0.0-6.0-1.28","LF","temg3es1km","1920","976","de","VA04RG03","null","","","","","","","","learning/Slide29.JPG","null","","","","",""
"","html-keyboard-response","93","200000","0.0-6.0-2.28","LF","temg3es1km","1920","976","de","VA04RG03","null","","","","learningBlock1","","","","<div style=""font-size:60px;""> </div>","null","LF","learning/Slide29.JPG","This is a tob:","",""
"","html-keyboard-response","94","201000","0.0-6.0-0.29","LF","temg3es1km","1920","976","de","VA04RG03","null","","","","learningBlock1","","","","This is a dep:","null","","","","",""
"","image-keyboard-response","95","201400","0.0-6.0-1.29","LF","temg3es1km","1920","976","de","VA04RG03","null","","","","","","","","learning/Slide30.JPG","null","","","","",""
"","html-keyboard-response","96","202300","0.0-6.0-2.29","LF","temg3es1km","1920","976","de","VA04RG03","null","","","","learningBlock1","","","","<div style=""font-size:60px;""> </div>","null","LF","learning/Slide30.JPG","This is a dep:","",""
"","html-keyboard-response","97","203400","0.0-6.0-0.30","LF","temg3es1km","1920","976","de","VA04RG03","null","","","","learningBlock1","","","","This is a wug:","null","","","","",""
"","image-keyboard-response","98","203600","0.0-6.0-1.30","LF","temg3es1km","1920","976","de","VA04RG03","null","","","","","","","","learning/Slide31.JPG","null","","","","",""
"","html-keyboard-response","99","204700","0.0-6.0-2.30","LF","temg3es1km","1920","976","de","VA04RG03","null","","","","learningBlock1","","","","<div style=""font-size:60px;""> </div>","null","LF","learning/Slide31.JPG","This is a wug:","",""
"","html-keyboard-response","100","205700","0.0-6.0-0.31","LF","temg3es1km","1920","976","de","VA04RG03","null","","","","learningBlock1","","","","This is a tob:","null","","","","",""
"","image-keyboard-response","101","206000","0.0-6.0-1.31","LF","temg3es1km","1920","976","de","VA04RG03","null","","","","","","","","learning/Slide32.JPG","null","","","","",""
"","html-keyboard-response","102","207000","0.0-6.0-2.31","LF","temg3es1km","1920","976","de","VA04RG03","null","","","","learningBlock1","","","","<div style=""font-size:60px;""> </div>","null","LF","learning/Slide32.JPG","This is a tob:","",""
"","html-keyboard-response","103","208100","0.0-6.0-0.32","LF","temg3es1km","1920","976","de","VA04RG03","null","","","","learningBlock1","","","","This is a bim:","null","","","","",""
"","image-keyboard-response","104","208400","0.0-6.0-1.32","LF","temg3es1km","1920","976","de","VA04RG03","null","","","","","","","","learning/Slide33.JPG","null","","","","",""
"","html-keyboard-response","105","209400","0.0-6.0-2.32","LF","temg3es1km","1920","976","de","VA04RG03","null","","","","learningBlock1","","","","<div style=""font-size:60px;""> </div>","null","LF","learning/Slide33.JPG","This is a bim:","",""
"","html-keyboard-response","106","210400","0.0-6.0-0.33","LF","temg3es1km","1920","976","de","VA04RG03","null","","","","learningBlock1","","","","This is a tob:","null","","","","",""
"","image-keyboard-response","107","210700","0.0-6.0-1.33","LF","temg3es1km","1920","976","de","VA04RG03","null","","","","","","","","learning/Slide34.JPG","null","","","","",""
"","html-keyboard-response","108","211800","0.0-6.0-2.33","LF","temg3es1km","1920","976","de","VA04RG03","null","","","","learningBlock1","","","","<div style=""font-size:60px;""> </div>","null","LF","learning/Slide34.JPG","This is a tob:","",""
"","html-keyboard-response","109","212800","0.0-6.0-0.34","LF","temg3es1km","1920","976","de","VA04RG03","null","","","","learningBlock1","","","","This is a bim:","null","","","","",""
"","image-keyboard-response","110","213200","0.0-6.0-1.34","LF","temg3es1km","1920","976","de","VA04RG03","null","","","","","","","","learning/Slide35.JPG","null","","","","",""
"","html-keyboard-response","111","214200","0.0-6.0-2.34","LF","temg3es1km","1920","976","de","VA04RG03","null","","","","learningBlock1","","","","<div style=""font-size:60px;""> </div>","null","LF","learning/Slide35.JPG","This is a bim:","",""
"","html-keyboard-response","112","215100","0.0-6.0-0.35","LF","temg3es1km","1920","976","de","VA04RG03","null","","","","learningBlock1","","","","This is a dep:","null","","","","",""
"","image-keyboard-response","113","215500","0.0-6.0-1.35","LF","temg3es1km","1920","976","de","VA04RG03","null","","","","","","","","learning/Slide36.JPG","null","","","","",""
"","html-keyboard-response","114","216500","0.0-6.0-2.35","LF","temg3es1km","1920","976","de","VA04RG03","null","","","","learningBlock1","","","","<div style=""font-size:60px;""> </div>","null","LF","learning/Slide36.JPG","This is a dep:","",""
"","html-keyboard-response","115","217500","0.0-6.0-0.36","LF","temg3es1km","1920","976","de","VA04RG03","null","","","","learningBlock1","","","","This is a tob:","null","","","","",""
"","image-keyboard-response","116","217800","0.0-6.0-1.36","LF","temg3es1km","1920","976","de","VA04RG03","null","","","","","","","","learning/Slide37.JPG","null","","","","",""
"","html-keyboard-response","117","218900","0.0-6.0-2.36","LF","temg3es1km","1920","976","de","VA04RG03","null","","","","learningBlock1","","","","<div style=""font-size:60px;""> </div>","null","LF","learning/Slide37.JPG","This is a tob:","",""
"","html-keyboard-response","118","219900","0.0-6.0-0.37","LF","temg3es1km","1920","976","de","VA04RG03","null","","","","learningBlock1","","","","This is a wug:","null","","","","",""
"","image-keyboard-response","119","220200","0.0-6.0-1.37","LF","temg3es1km","1920","976","de","VA04RG03","null","","","","","","","","learning/Slide38.JPG","null","","","","",""
"","html-keyboard-response","120","221200","0.0-6.0-2.37","LF","temg3es1km","1920","976","de","VA04RG03","null","","","","learningBlock1","","","","<div style=""font-size:60px;""> </div>","null","LF","learning/Slide38.JPG","This is a wug:","",""
"","html-keyboard-response","121","222200","0.0-6.0-0.38","LF","temg3es1km","1920","976","de","VA04RG03","null","","","","learningBlock1","","","","This is a bim:","null","","","","",""
"","image-keyboard-response","122","222600","0.0-6.0-1.38","LF","temg3es1km","1920","976","de","VA04RG03","null","","","","","","","","learning/Slide39.JPG","null","","","","",""
"","html-keyboard-response","123","223600","0.0-6.0-2.38","LF","temg3es1km","1920","976","de","VA04RG03","null","","","","learningBlock1","","","","<div style=""font-size:60px;""> </div>","null","LF","learning/Slide39.JPG","This is a bim:","",""
"","html-keyboard-response","124","224600","0.0-6.0-0.39","LF","temg3es1km","1920","976","de","VA04RG03","null","","","","learningBlock1","","","","This is a tob:","null","","","","",""
"","image-keyboard-response","125","225000","0.0-6.0-1.39","LF","temg3es1km","1920","976","de","VA04RG03","null","","","","","","","","learning/Slide40.JPG","null","","","","",""
"","html-keyboard-response","126","225900","0.0-6.0-2.39","LF","temg3es1km","1920","976","de","VA04RG03","null","","","","learningBlock1","","","","<div style=""font-size:60px;""> </div>","null","LF","learning/Slide40.JPG","This is a tob:","",""
"","html-keyboard-response","127","227000","0.0-6.0-0.40","LF","temg3es1km","1920","976","de","VA04RG03","null","","","","learningBlock1","","","","This is a bim:","null","","","","",""
"","image-keyboard-response","128","227300","0.0-6.0-1.40","LF","temg3es1km","1920","976","de","VA04RG03","null","","","","","","","","learning/Slide41.JPG","null","","","","",""
"","html-keyboard-response","129","228300","0.0-6.0-2.40","LF","temg3es1km","1920","976","de","VA04RG03","null","","","","learningBlock1","","","","<div style=""font-size:60px;""> </div>","null","LF","learning/Slide41.JPG","This is a bim:","",""
"","html-keyboard-response","130","229300","0.0-6.0-0.41","LF","temg3es1km","1920","976","de","VA04RG03","null","","","","learningBlock1","","","","This is a dep:","null","","","","",""
"","image-keyboard-response","131","229600","0.0-6.0-1.41","LF","temg3es1km","1920","976","de","VA04RG03","null","","","","","","","","learning/Slide42.JPG","null","","","","",""
"","html-keyboard-response","132","230700","0.0-6.0-2.41","LF","temg3es1km","1920","976","de","VA04RG03","null","","","","learningBlock1","","","","<div style=""font-size:60px;""> </div>","null","LF","learning/Slide42.JPG","This is a dep:","",""
"","html-keyboard-response","133","231700","0.0-6.0-0.42","LF","temg3es1km","1920","976","de","VA04RG03","null","","","","learningBlock1","","","","This is a wug:","null","","","","",""
"","image-keyboard-response","134","232100","0.0-6.0-1.42","LF","temg3es1km","1920","976","de","VA04RG03","null","","","","","","","","learning/Slide43.JPG","null","","","","",""
"","html-keyboard-response","135","233000","0.0-6.0-2.42","LF","temg3es1km","1920","976","de","VA04RG03","null","","","","learningBlock1","","","","<div style=""font-size:60px;""> </div>","null","LF","learning/Slide43.JPG","This is a wug:","",""
"","html-keyboard-response","136","234100","0.0-6.0-0.43","LF","temg3es1km","1920","976","de","VA04RG03","null","","","","learningBlock1","","","","This is a bim:","null","","","","",""
"","image-keyboard-response","137","234400","0.0-6.0-1.43","LF","temg3es1km","1920","976","de","VA04RG03","null","","","","","","","","learning/Slide44.JPG","null","","","","",""
"","html-keyboard-response","138","235400","0.0-6.0-2.43","LF","temg3es1km","1920","976","de","VA04RG03","null","","","","learningBlock1","","","","<div style=""font-size:60px;""> </div>","null","LF","learning/Slide44.JPG","This is a bim:","",""
"","html-keyboard-response","139","236400","0.0-6.0-0.44","LF","temg3es1km","1920","976","de","VA04RG03","null","","","","learningBlock1","","","","This is a wug:","null","","","","",""
"","image-keyboard-response","140","236800","0.0-6.0-1.44","LF","temg3es1km","1920","976","de","VA04RG03","null","","","","","","","","learning/Slide45.JPG","null","","","","",""
"","html-keyboard-response","141","237800","0.0-6.0-2.44","LF","temg3es1km","1920","976","de","VA04RG03","null","","","","learningBlock1","","","","<div style=""font-size:60px;""> </div>","null","LF","learning/Slide45.JPG","This is a wug:","",""
"","html-keyboard-response","142","238800","0.0-6.0-0.45","LF","temg3es1km","1920","976","de","VA04RG03","null","","","","learningBlock1","","","","This is a dep:","null","","","","",""
"","image-keyboard-response","143","239100","0.0-6.0-1.45","LF","temg3es1km","1920","976","de","VA04RG03","null","","","","","","","","learning/Slide46.JPG","null","","","","",""
"","html-keyboard-response","144","240100","0.0-6.0-2.45","LF","temg3es1km","1920","976","de","VA04RG03","null","","","","learningBlock1","","","","<div style=""font-size:60px;""> </div>","null","LF","learning/Slide46.JPG","This is a dep:","",""
"","html-keyboard-response","145","241100","0.0-6.0-0.46","LF","temg3es1km","1920","976","de","VA04RG03","null","","","","learningBlock1","","","","This is a tob:","null","","","","",""
"","image-keyboard-response","146","241500","0.0-6.0-1.46","LF","temg3es1km","1920","976","de","VA04RG03","null","","","","","","","","learning/Slide47.JPG","null","","","","",""
"","html-keyboard-response","147","242400","0.0-6.0-2.46","LF","temg3es1km","1920","976","de","VA04RG03","null","","","","learningBlock1","","","","<div style=""font-size:60px;""> </div>","null","LF","learning/Slide47.JPG","This is a tob:","",""
"","html-keyboard-response","148","243500","0.0-6.0-0.47","LF","temg3es1km","1920","976","de","VA04RG03","null","","","","learningBlock1","","","","This is a bim:","null","","","","",""
"","image-keyboard-response","149","243800","0.0-6.0-1.47","LF","temg3es1km","1920","976","de","VA04RG03","null","","","","","","","","learning/Slide48.JPG","null","","","","",""
"","html-keyboard-response","150","244900","0.0-6.0-2.47","LF","temg3es1km","1920","976","de","VA04RG03","null","","","","learningBlock1","","","","<div style=""font-size:60px;""> </div>","null","LF","learning/Slide48.JPG","This is a bim:","",""
"","html-keyboard-response","151","245800","0.0-6.0-0.48","LF","temg3es1km","1920","976","de","VA04RG03","null","","","","learningBlock1","","","","This is a dep:","null","","","","",""
"","image-keyboard-response","152","246200","0.0-6.0-1.48","LF","temg3es1km","1920","976","de","VA04RG03","null","","","","","","","","learning/Slide49.JPG","null","","","","",""
"","html-keyboard-response","153","247300","0.0-6.0-2.48","LF","temg3es1km","1920","976","de","VA04RG03","null","","","","learningBlock1","","","","<div style=""font-size:60px;""> </div>","null","LF","learning/Slide49.JPG","This is a dep:","",""
"","html-keyboard-response","154","248200","0.0-6.0-0.49","LF","temg3es1km","1920","976","de","VA04RG03","null","","","","learningBlock1","","","","This is a tob:","null","","","","",""
"","image-keyboard-response","155","248500","0.0-6.0-1.49","LF","temg3es1km","1920","976","de","VA04RG03","null","","","","","","","","learning/Slide50.JPG","null","","","","",""
"","html-keyboard-response","156","249500","0.0-6.0-2.49","LF","temg3es1km","1920","976","de","VA04RG03","null","","","","learningBlock1","","","","<div style=""font-size:60px;""> </div>","null","LF","learning/Slide50.JPG","This is a tob:","",""
"","html-keyboard-response","157","250600","0.0-6.0-0.50","LF","temg3es1km","1920","976","de","VA04RG03","null","","","","learningBlock1","","","","This is a bim:","null","","","","",""
"","image-keyboard-response","158","250900","0.0-6.0-1.50","LF","temg3es1km","1920","976","de","VA04RG03","null","","","","","","","","learning/Slide51.JPG","null","","","","",""
"","html-keyboard-response","159","251900","0.0-6.0-2.50","LF","temg3es1km","1920","976","de","VA04RG03","null","","","","learningBlock1","","","","<div style=""font-size:60px;""> </div>","null","LF","learning/Slide51.JPG","This is a bim:","",""
"","html-keyboard-response","160","252900","0.0-6.0-0.51","LF","temg3es1km","1920","976","de","VA04RG03","null","","","","learningBlock1","","","","This is a wug:","null","","","","",""
"","image-keyboard-response","161","253300","0.0-6.0-1.51","LF","temg3es1km","1920","976","de","VA04RG03","null","","","","","","","","learning/Slide52.JPG","null","","","","",""
"","html-keyboard-response","162","254300","0.0-6.0-2.51","LF","temg3es1km","1920","976","de","VA04RG03","null","","","","learningBlock1","","","","<div style=""font-size:60px;""> </div>","null","LF","learning/Slide52.JPG","This is a wug:","",""
"","html-keyboard-response","163","255300","0.0-6.0-0.52","LF","temg3es1km","1920","976","de","VA04RG03","null","","","","learningBlock1","","","","This is a tob:","null","","","","",""
"","image-keyboard-response","164","255600","0.0-6.0-1.52","LF","temg3es1km","1920","976","de","VA04RG03","null","","","","","","","","learning/Slide53.JPG","null","","","","",""
"","html-keyboard-response","165","256700","0.0-6.0-2.52","LF","temg3es1km","1920","976","de","VA04RG03","null","","","","learningBlock1","","","","<div style=""font-size:60px;""> </div>","null","LF","learning/Slide53.JPG","This is a tob:","",""
"","html-keyboard-response","166","257600","0.0-6.0-0.53","LF","temg3es1km","1920","976","de","VA04RG03","null","","","","learningBlock1","","","","This is a dep:","null","","","","",""
"","image-keyboard-response","167","258000","0.0-6.0-1.53","LF","temg3es1km","1920","976","de","VA04RG03","null","","","","","","","","learning/Slide54.JPG","null","","","","",""
"","html-keyboard-response","168","259000","0.0-6.0-2.53","LF","temg3es1km","1920","976","de","VA04RG03","null","","","","learningBlock1","","","","<div style=""font-size:60px;""> </div>","null","LF","learning/Slide54.JPG","This is a dep:","",""
"","html-keyboard-response","169","260000","0.0-6.0-0.54","LF","temg3es1km","1920","976","de","VA04RG03","null","","","","learningBlock1","","","","This is a bim:","null","","","","",""
"","image-keyboard-response","170","260400","0.0-6.0-1.54","LF","temg3es1km","1920","976","de","VA04RG03","null","","","","","","","","learning/Slide55.JPG","null","","","","",""
"","html-keyboard-response","171","261400","0.0-6.0-2.54","LF","temg3es1km","1920","976","de","VA04RG03","null","","","","learningBlock1","","","","<div style=""font-size:60px;""> </div>","null","LF","learning/Slide55.JPG","This is a bim:","",""
"","html-keyboard-response","172","262300","0.0-6.0-0.55","LF","temg3es1km","1920","976","de","VA04RG03","null","","","","learningBlock1","","","","This is a tob:","null","","","","",""
"","image-keyboard-response","173","262700","0.0-6.0-1.55","LF","temg3es1km","1920","976","de","VA04RG03","null","","","","","","","","learning/Slide56.JPG","null","","","","",""
"","html-keyboard-response","174","263700","0.0-6.0-2.55","LF","temg3es1km","1920","976","de","VA04RG03","null","","","","learningBlock1","","","","<div style=""font-size:60px;""> </div>","null","LF","learning/Slide56.JPG","This is a tob:","",""
"","html-keyboard-response","175","264700","0.0-6.0-0.56","LF","temg3es1km","1920","976","de","VA04RG03","null","","","","learningBlock1","","","","This is a dep:","null","","","","",""
"","image-keyboard-response","176","265100","0.0-6.0-1.56","LF","temg3es1km","1920","976","de","VA04RG03","null","","","","","","","","learning/Slide57.JPG","null","","","","",""
"","html-keyboard-response","177","266100","0.0-6.0-2.56","LF","temg3es1km","1920","976","de","VA04RG03","null","","","","learningBlock1","","","","<div style=""font-size:60px;""> </div>","null","LF","learning/Slide57.JPG","This is a dep:","",""
"","html-keyboard-response","178","267100","0.0-6.0-0.57","LF","temg3es1km","1920","976","de","VA04RG03","null","","","","learningBlock1","","","","This is a wug:","null","","","","",""
"","image-keyboard-response","179","267500","0.0-6.0-1.57","LF","temg3es1km","1920","976","de","VA04RG03","null","","","","","","","","learning/Slide58.JPG","null","","","","",""
"","html-keyboard-response","180","268400","0.0-6.0-2.57","LF","temg3es1km","1920","976","de","VA04RG03","null","","","","learningBlock1","","","","<div style=""font-size:60px;""> </div>","null","LF","learning/Slide58.JPG","This is a wug:","",""
"","html-keyboard-response","181","269500","0.0-6.0-0.58","LF","temg3es1km","1920","976","de","VA04RG03","null","","","","learningBlock1","","","","This is a dep:","null","","","","",""
"","image-keyboard-response","182","269800","0.0-6.0-1.58","LF","temg3es1km","1920","976","de","VA04RG03","null","","","","","","","","learning/Slide59.JPG","null","","","","",""
"","html-keyboard-response","183","270800","0.0-6.0-2.58","LF","temg3es1km","1920","976","de","VA04RG03","null","","","","learningBlock1","","","","<div style=""font-size:60px;""> </div>","null","LF","learning/Slide59.JPG","This is a dep:","",""
"","html-keyboard-response","184","271900","0.0-6.0-0.59","LF","temg3es1km","1920","976","de","VA04RG03","null","","","","learningBlock1","","","","This is a wug:","null","","","","",""
"","image-keyboard-response","185","272200","0.0-6.0-1.59","LF","temg3es1km","1920","976","de","VA04RG03","null","","","","","","","","learning/Slide60.JPG","null","","","","",""
"","html-keyboard-response","186","273200","0.0-6.0-2.59","LF","temg3es1km","1920","976","de","VA04RG03","null","","","","learningBlock1","","","","<div style=""font-size:60px;""> </div>","null","LF","learning/Slide60.JPG","This is a wug:","",""
"","html-keyboard-response","187","274200","0.0-6.0-0.60","LF","temg3es1km","1920","976","de","VA04RG03","null","","","","learningBlock1","","","","This is a bim:","null","","","","",""
"","image-keyboard-response","188","274500","0.0-6.0-1.60","LF","temg3es1km","1920","976","de","VA04RG03","null","","","","","","","","learning/Slide61.JPG","null","","","","",""
"","html-keyboard-response","189","275600","0.0-6.0-2.60","LF","temg3es1km","1920","976","de","VA04RG03","null","","","","learningBlock1","","","","<div style=""font-size:60px;""> </div>","null","LF","learning/Slide61.JPG","This is a bim:","",""
"","html-keyboard-response","190","276600","0.0-6.0-0.61","LF","temg3es1km","1920","976","de","VA04RG03","null","","","","learningBlock1","","","","This is a dep:","null","","","","",""
"","image-keyboard-response","191","276900","0.0-6.0-1.61","LF","temg3es1km","1920","976","de","VA04RG03","null","","","","","","","","learning/Slide62.JPG","null","","","","",""
"","html-keyboard-response","192","277900","0.0-6.0-2.61","LF","temg3es1km","1920","976","de","VA04RG03","null","","","","learningBlock1","","","","<div style=""font-size:60px;""> </div>","null","LF","learning/Slide62.JPG","This is a dep:","",""
"","html-keyboard-response","193","279000","0.0-6.0-0.62","LF","temg3es1km","1920","976","de","VA04RG03","null","","","","learningBlock1","","","","This is a bim:","null","","","","",""
"","image-keyboard-response","194","279300","0.0-6.0-1.62","LF","temg3es1km","1920","976","de","VA04RG03","null","","","","","","","","learning/Slide63.JPG","null","","","","",""
"","html-keyboard-response","195","280300","0.0-6.0-2.62","LF","temg3es1km","1920","976","de","VA04RG03","null","","","","learningBlock1","","","","<div style=""font-size:60px;""> </div>","null","LF","learning/Slide63.JPG","This is a bim:","",""
"","html-keyboard-response","196","281300","0.0-6.0-0.63","LF","temg3es1km","1920","976","de","VA04RG03","null","","","","learningBlock1","","","","This is a tob:","null","","","","",""
"","image-keyboard-response","197","281600","0.0-6.0-1.63","LF","temg3es1km","1920","976","de","VA04RG03","null","","","","","","","","learning/Slide64.JPG","null","","","","",""
"","html-keyboard-response","198","282700","0.0-6.0-2.63","LF","temg3es1km","1920","976","de","VA04RG03","null","","","","learningBlock1","","","","<div style=""font-size:60px;""> </div>","null","LF","learning/Slide64.JPG","This is a tob:","",""
"","html-keyboard-response","199","283700","0.0-6.0-0.64","LF","temg3es1km","1920","976","de","VA04RG03","null","","","","learningBlock1","","","","This is a wug:","null","","","","",""
"","image-keyboard-response","200","284000","0.0-6.0-1.64","LF","temg3es1km","1920","976","de","VA04RG03","null","","","","","","","","learning/Slide65.JPG","null","","","","",""
"","html-keyboard-response","201","285000","0.0-6.0-2.64","LF","temg3es1km","1920","976","de","VA04RG03","null","","","","learningBlock1","","","","<div style=""font-size:60px;""> </div>","null","LF","learning/Slide65.JPG","This is a wug:","",""
"","html-keyboard-response","202","286000","0.0-6.0-0.65","LF","temg3es1km","1920","976","de","VA04RG03","null","","","","learningBlock1","","","","This is a dep:","null","","","","",""
"","image-keyboard-response","203","286400","0.0-6.0-1.65","LF","temg3es1km","1920","976","de","VA04RG03","null","","","","","","","","learning/Slide66.JPG","null","","","","",""
"","html-keyboard-response","204","287400","0.0-6.0-2.65","LF","temg3es1km","1920","976","de","VA04RG03","null","","","","learningBlock1","","","","<div style=""font-size:60px;""> </div>","null","LF","learning/Slide66.JPG","This is a dep:","",""
"","html-keyboard-response","205","288400","0.0-6.0-0.66","LF","temg3es1km","1920","976","de","VA04RG03","null","","","","learningBlock1","","","","This is a tob:","null","","","","",""
"","image-keyboard-response","206","288700","0.0-6.0-1.66","LF","temg3es1km","1920","976","de","VA04RG03","null","","","","","","","","learning/Slide67.JPG","null","","","","",""
"","html-keyboard-response","207","289800","0.0-6.0-2.66","LF","temg3es1km","1920","976","de","VA04RG03","null","","","","learningBlock1","","","","<div style=""font-size:60px;""> </div>","null","LF","learning/Slide67.JPG","This is a tob:","",""
"","html-keyboard-response","208","290700","0.0-6.0-0.67","LF","temg3es1km","1920","976","de","VA04RG03","null","","","","learningBlock1","","","","This is a wug:","null","","","","",""
"","image-keyboard-response","209","291100","0.0-6.0-1.67","LF","temg3es1km","1920","976","de","VA04RG03","null","","","","","","","","learning/Slide68.JPG","null","","","","",""
"","html-keyboard-response","210","292100","0.0-6.0-2.67","LF","temg3es1km","1920","976","de","VA04RG03","null","","","","learningBlock1","","","","<div style=""font-size:60px;""> </div>","null","LF","learning/Slide68.JPG","This is a wug:","",""
"","html-keyboard-response","211","293100","0.0-6.0-0.68","LF","temg3es1km","1920","976","de","VA04RG03","null","","","","learningBlock1","","","","This is a tob:","null","","","","",""
"","image-keyboard-response","212","293500","0.0-6.0-1.68","LF","temg3es1km","1920","976","de","VA04RG03","null","","","","","","","","learning/Slide69.JPG","null","","","","",""
"","html-keyboard-response","213","294500","0.0-6.0-2.68","LF","temg3es1km","1920","976","de","VA04RG03","null","","","","learningBlock1","","","","<div style=""font-size:60px;""> </div>","null","LF","learning/Slide69.JPG","This is a tob:","",""
"","html-keyboard-response","214","295500","0.0-6.0-0.69","LF","temg3es1km","1920","976","de","VA04RG03","null","","","","learningBlock1","","","","This is a dep:","null","","","","",""
"","image-keyboard-response","215","295800","0.0-6.0-1.69","LF","temg3es1km","1920","976","de","VA04RG03","null","","","","","","","","learning/Slide70.JPG","null","","","","",""
"","html-keyboard-response","216","296800","0.0-6.0-2.69","LF","temg3es1km","1920","976","de","VA04RG03","null","","","","learningBlock1","","","","<div style=""font-size:60px;""> </div>","null","LF","learning/Slide70.JPG","This is a dep:","",""
"","html-keyboard-response","217","297900","0.0-6.0-0.70","LF","temg3es1km","1920","976","de","VA04RG03","null","","","","learningBlock1","","","","This is a wug:","null","","","","",""
"","image-keyboard-response","218","298200","0.0-6.0-1.70","LF","temg3es1km","1920","976","de","VA04RG03","null","","","","","","","","learning/Slide71.JPG","null","","","","",""
"","html-keyboard-response","219","299200","0.0-6.0-2.70","LF","temg3es1km","1920","976","de","VA04RG03","null","","","","learningBlock1","","","","<div style=""font-size:60px;""> </div>","null","LF","learning/Slide71.JPG","This is a wug:","",""
"","html-keyboard-response","220","300300","0.0-6.0-0.71","LF","temg3es1km","1920","976","de","VA04RG03","null","","","","learningBlock1","","","","This is a bim:","null","","","","",""
"","image-keyboard-response","221","300600","0.0-6.0-1.71","LF","temg3es1km","1920","976","de","VA04RG03","null","","","","","","","","learning/Slide72.JPG","null","","","","",""
"","html-keyboard-response","222","301600","0.0-6.0-2.71","LF","temg3es1km","1920","976","de","VA04RG03","null","","","","learningBlock1","","","","<div style=""font-size:60px;""> </div>","null","LF","learning/Slide72.JPG","This is a bim:","",""
"","html-keyboard-response","223","302600","0.0-6.0-0.72","LF","temg3es1km","1920","976","de","VA04RG03","null","","","","learningBlock1","","","","This is a wug:","null","","","","",""
"","image-keyboard-response","224","303000","0.0-6.0-1.72","LF","temg3es1km","1920","976","de","VA04RG03","null","","","","","","","","learning/Slide73.JPG","null","","","","",""
"","html-keyboard-response","225","304000","0.0-6.0-2.72","LF","temg3es1km","1920","976","de","VA04RG03","null","","","","learningBlock1","","","","<div style=""font-size:60px;""> </div>","null","LF","learning/Slide73.JPG","This is a wug:","",""
"","html-keyboard-response","226","304900","0.0-6.0-0.73","LF","temg3es1km","1920","976","de","VA04RG03","null","","","","learningBlock1","","","","This is a dep:","null","","","","",""
"","image-keyboard-response","227","305300","0.0-6.0-1.73","LF","temg3es1km","1920","976","de","VA04RG03","null","","","","","","","","learning/Slide74.JPG","null","","","","",""
"","html-keyboard-response","228","306300","0.0-6.0-2.73","LF","temg3es1km","1920","976","de","VA04RG03","null","","","","learningBlock1","","","","<div style=""font-size:60px;""> </div>","null","LF","learning/Slide74.JPG","This is a dep:","",""
"","html-keyboard-response","229","307300","0.0-6.0-0.74","LF","temg3es1km","1920","976","de","VA04RG03","null","","","","learningBlock1","","","","This is a tob:","null","","","","",""
"","image-keyboard-response","230","307600","0.0-6.0-1.74","LF","temg3es1km","1920","976","de","VA04RG03","null","","","","","","","","learning/Slide75.JPG","null","","","","",""
"","html-keyboard-response","231","308700","0.0-6.0-2.74","LF","temg3es1km","1920","976","de","VA04RG03","null","","","","learningBlock1","","","","<div style=""font-size:60px;""> </div>","null","LF","learning/Slide75.JPG","This is a tob:","",""
"","html-keyboard-response","232","309700","0.0-6.0-0.75","LF","temg3es1km","1920","976","de","VA04RG03","null","","","","learningBlock1","","","","This is a bim:","null","","","","",""
"","image-keyboard-response","233","310000","0.0-6.0-1.75","LF","temg3es1km","1920","976","de","VA04RG03","null","","","","","","","","learning/Slide76.JPG","null","","","","",""
"","html-keyboard-response","234","311000","0.0-6.0-2.75","LF","temg3es1km","1920","976","de","VA04RG03","null","","","","learningBlock1","","","","<div style=""font-size:60px;""> </div>","null","LF","learning/Slide76.JPG","This is a bim:","",""
"","html-keyboard-response","235","312000","0.0-6.0-0.76","LF","temg3es1km","1920","976","de","VA04RG03","null","","","","learningBlock1","","","","This is a tob:","null","","","","",""
"","image-keyboard-response","236","312400","0.0-6.0-1.76","LF","temg3es1km","1920","976","de","VA04RG03","null","","","","","","","","learning/Slide77.JPG","null","","","","",""
"","html-keyboard-response","237","313400","0.0-6.0-2.76","LF","temg3es1km","1920","976","de","VA04RG03","null","","","","learningBlock1","","","","<div style=""font-size:60px;""> </div>","null","LF","learning/Slide77.JPG","This is a tob:","",""
"","html-keyboard-response","238","314400","0.0-6.0-0.77","LF","temg3es1km","1920","976","de","VA04RG03","null","","","","learningBlock1","","","","This is a wug:","null","","","","",""
"","image-keyboard-response","239","314800","0.0-6.0-1.77","LF","temg3es1km","1920","976","de","VA04RG03","null","","","","","","","","learning/Slide78.JPG","null","","","","",""
"","html-keyboard-response","240","315800","0.0-6.0-2.77","LF","temg3es1km","1920","976","de","VA04RG03","null","","","","learningBlock1","","","","<div style=""font-size:60px;""> </div>","null","LF","learning/Slide78.JPG","This is a wug:","",""
"","html-keyboard-response","241","316800","0.0-6.0-0.78","LF","temg3es1km","1920","976","de","VA04RG03","null","","","","learningBlock1","","","","This is a bim:","null","","","","",""
"","image-keyboard-response","242","317100","0.0-6.0-1.78","LF","temg3es1km","1920","976","de","VA04RG03","null","","","","","","","","learning/Slide79.JPG","null","","","","",""
"","html-keyboard-response","243","318100","0.0-6.0-2.78","LF","temg3es1km","1920","976","de","VA04RG03","null","","","","learningBlock1","","","","<div style=""font-size:60px;""> </div>","null","LF","learning/Slide79.JPG","This is a bim:","",""
"","html-keyboard-response","244","319100","0.0-6.0-0.79","LF","temg3es1km","1920","976","de","VA04RG03","null","","","","learningBlock1","","","","This is a tob:","null","","","","",""
"","image-keyboard-response","245","319500","0.0-6.0-1.79","LF","temg3es1km","1920","976","de","VA04RG03","null","","","","","","","","learning/Slide80.JPG","null","","","","",""
"","html-keyboard-response","246","320500","0.0-6.0-2.79","LF","temg3es1km","1920","976","de","VA04RG03","null","","","","learningBlock1","","","","<div style=""font-size:60px;""> </div>","null","LF","learning/Slide80.JPG","This is a tob:","",""
"","instructions","247","323700","0.0-7.0","LF","temg3es1km","1920","976","de","VA04RG03","NA","","","[{""page_index"":0,""viewing_time"":3200}]","instructions","","","","","","","","","",""
"","html-keyboard-response","248","324700","0.0-8.0-0.0","LF","temg3es1km","1920","976","de","VA04RG03","null","","","","learningBlock2","","","","This is a wug:","null","","","","",""
"","image-keyboard-response","249","325100","0.0-8.0-1.0","LF","temg3es1km","1920","976","de","VA04RG03","null","","","","","","","","learning/Slide81.JPG","null","","","","",""
"","html-keyboard-response","250","326100","0.0-8.0-2.0","LF","temg3es1km","1920","976","de","VA04RG03","null","","","","learningBlock2","","","","<div style=""font-size:60px;""> </div>","null","LF","learning/Slide81.JPG","This is a wug:","",""
"","html-keyboard-response","251","327100","0.0-8.0-0.1","LF","temg3es1km","1920","976","de","VA04RG03","null","","","","learningBlock2","","","","This is a bim:","null","","","","",""
"","image-keyboard-response","252","327400","0.0-8.0-1.1","LF","temg3es1km","1920","976","de","VA04RG03","null","","","","","","","","learning/Slide82.JPG","null","","","","",""
"","html-keyboard-response","253","328500","0.0-8.0-2.1","LF","temg3es1km","1920","976","de","VA04RG03","null","","","","learningBlock2","","","","<div style=""font-size:60px;""> </div>","null","LF","learning/Slide82.JPG","This is a bim:","",""
"","html-keyboard-response","254","329400","0.0-8.0-0.2","LF","temg3es1km","1920","976","de","VA04RG03","null","","","","learningBlock2","","","","This is a wug:","null","","","","",""
"","image-keyboard-response","255","329800","0.0-8.0-1.2","LF","temg3es1km","1920","976","de","VA04RG03","null","","","","","","","","learning/Slide83.JPG","null","","","","",""
"","html-keyboard-response","256","330800","0.0-8.0-2.2","LF","temg3es1km","1920","976","de","VA04RG03","null","","","","learningBlock2","","","","<div style=""font-size:60px;""> </div>","null","LF","learning/Slide83.JPG","This is a wug:","",""
"","html-keyboard-response","257","331800","0.0-8.0-0.3","LF","temg3es1km","1920","976","de","VA04RG03","null","","","","learningBlock2","","","","This is a dep:","null","","","","",""
"","image-keyboard-response","258","332200","0.0-8.0-1.3","LF","temg3es1km","1920","976","de","VA04RG03","null","","","","","","","","learning/Slide84.JPG","null","","","","",""
"","html-keyboard-response","259","333200","0.0-8.0-2.3","LF","temg3es1km","1920","976","de","VA04RG03","null","","","","learningBlock2","","","","<div style=""font-size:60px;""> </div>","null","LF","learning/Slide84.JPG","This is a dep:","",""
"","html-keyboard-response","260","334200","0.0-8.0-0.4","LF","temg3es1km","1920","976","de","VA04RG03","null","","","","learningBlock2","","","","This is a bim:","null","","","","",""
"","image-keyboard-response","261","334500","0.0-8.0-1.4","LF","temg3es1km","1920","976","de","VA04RG03","null","","","","","","","","learning/Slide85.JPG","null","","","","",""
"","html-keyboard-response","262","335600","0.0-8.0-2.4","LF","temg3es1km","1920","976","de","VA04RG03","null","","","","learningBlock2","","","","<div style=""font-size:60px;""> </div>","null","LF","learning/Slide85.JPG","This is a bim:","",""
"","html-keyboard-response","263","336600","0.0-8.0-0.5","LF","temg3es1km","1920","976","de","VA04RG03","null","","","","learningBlock2","","","","This is a tob:","null","","","","",""
"","image-keyboard-response","264","336900","0.0-8.0-1.5","LF","temg3es1km","1920","976","de","VA04RG03","null","","","","","","","","learning/Slide86.JPG","null","","","","",""
"","html-keyboard-response","265","337900","0.0-8.0-2.5","LF","temg3es1km","1920","976","de","VA04RG03","null","","","","learningBlock2","","","","<div style=""font-size:60px;""> </div>","null","LF","learning/Slide86.JPG","This is a tob:","",""
"","html-keyboard-response","266","338900","0.0-8.0-0.6","LF","temg3es1km","1920","976","de","VA04RG03","null","","","","learningBlock2","","","","This is a wug:","null","","","","",""
"","image-keyboard-response","267","339300","0.0-8.0-1.6","LF","temg3es1km","1920","976","de","VA04RG03","null","","","","","","","","learning/Slide87.JPG","null","","","","",""
"","html-keyboard-response","268","340200","0.0-8.0-2.6","LF","temg3es1km","1920","976","de","VA04RG03","null","","","","learningBlock2","","","","<div style=""font-size:60px;""> </div>","null","LF","learning/Slide87.JPG","This is a wug:","",""
"","html-keyboard-response","269","341300","0.0-8.0-0.7","LF","temg3es1km","1920","976","de","VA04RG03","null","","","","learningBlock2","","","","This is a tob:","null","","","","",""
"","image-keyboard-response","270","341600","0.0-8.0-1.7","LF","temg3es1km","1920","976","de","VA04RG03","null","","","","","","","","learning/Slide88.JPG","null","","","","",""
"","html-keyboard-response","271","342700","0.0-8.0-2.7","LF","temg3es1km","1920","976","de","VA04RG03","null","","","","learningBlock2","","","","<div style=""font-size:60px;""> </div>","null","LF","learning/Slide88.JPG","This is a tob:","",""
"","html-keyboard-response","272","343600","0.0-8.0-0.8","LF","temg3es1km","1920","976","de","VA04RG03","null","","","","learningBlock2","","","","This is a bim:","null","","","","",""
"","image-keyboard-response","273","344000","0.0-8.0-1.8","LF","temg3es1km","1920","976","de","VA04RG03","null","","","","","","","","learning/Slide89.JPG","null","","","","",""
"","html-keyboard-response","274","345000","0.0-8.0-2.8","LF","temg3es1km","1920","976","de","VA04RG03","null","","","","learningBlock2","","","","<div style=""font-size:60px;""> </div>","null","LF","learning/Slide89.JPG","This is a bim:","",""
"","html-keyboard-response","275","346000","0.0-8.0-0.9","LF","temg3es1km","1920","976","de","VA04RG03","null","","","","learningBlock2","","","","This is a dep:","null","","","","",""
"","image-keyboard-response","276","346400","0.0-8.0-1.9","LF","temg3es1km","1920","976","de","VA04RG03","null","","","","","","","","learning/Slide90.JPG","null","","","","",""
"","html-keyboard-response","277","347300","0.0-8.0-2.9","LF","temg3es1km","1920","976","de","VA04RG03","null","","","","learningBlock2","","","","<div style=""font-size:60px;""> </div>","null","LF","learning/Slide90.JPG","This is a dep:","",""
"","html-keyboard-response","278","348400","0.0-8.0-0.10","LF","temg3es1km","1920","976","de","VA04RG03","null","","","","learningBlock2","","","","This is a wug:","null","","","","",""
"","image-keyboard-response","279","348700","0.0-8.0-1.10","LF","temg3es1km","1920","976","de","VA04RG03","null","","","","","","","","learning/Slide91.JPG","null","","","","",""
"","html-keyboard-response","280","349700","0.0-8.0-2.10","LF","temg3es1km","1920","976","de","VA04RG03","null","","","","learningBlock2","","","","<div style=""font-size:60px;""> </div>","null","LF","learning/Slide91.JPG","This is a wug:","",""
"","html-keyboard-response","281","350700","0.0-8.0-0.11","LF","temg3es1km","1920","976","de","VA04RG03","null","","","","learningBlock2","","","","This is a tob:","null","","","","",""
"","image-keyboard-response","282","351100","0.0-8.0-1.11","LF","temg3es1km","1920","976","de","VA04RG03","null","","","","","","","","learning/Slide92.JPG","null","","","","",""
"","html-keyboard-response","283","352100","0.0-8.0-2.11","LF","temg3es1km","1920","976","de","VA04RG03","null","","","","learningBlock2","","","","<div style=""font-size:60px;""> </div>","null","LF","learning/Slide92.JPG","This is a tob:","",""
"","html-keyboard-response","284","353100","0.0-8.0-0.12","LF","temg3es1km","1920","976","de","VA04RG03","null","","","","learningBlock2","","","","This is a bim:","null","","","","",""
"","image-keyboard-response","285","353400","0.0-8.0-1.12","LF","temg3es1km","1920","976","de","VA04RG03","null","","","","","","","","learning/Slide93.JPG","null","","","","",""
"","html-keyboard-response","286","354500","0.0-8.0-2.12","LF","temg3es1km","1920","976","de","VA04RG03","null","","","","learningBlock2","","","","<div style=""font-size:60px;""> </div>","null","LF","learning/Slide93.JPG","This is a bim:","",""
"","html-keyboard-response","287","355500","0.0-8.0-0.13","LF","temg3es1km","1920","976","de","VA04RG03","null","","","","learningBlock2","","","","This is a tob:","null","","","","",""
"","image-keyboard-response","288","355800","0.0-8.0-1.13","LF","temg3es1km","1920","976","de","VA04RG03","null","","","","","","","","learning/Slide94.JPG","null","","","","",""
"","html-keyboard-response","289","356800","0.0-8.0-2.13","LF","temg3es1km","1920","976","de","VA04RG03","null","","","","learningBlock2","","","","<div style=""font-size:60px;""> </div>","null","LF","learning/Slide94.JPG","This is a tob:","",""
"","html-keyboard-response","290","357800","0.0-8.0-0.14","LF","temg3es1km","1920","976","de","VA04RG03","null","","","","learningBlock2","","","","This is a wug:","null","","","","",""
"","image-keyboard-response","291","358200","0.0-8.0-1.14","LF","temg3es1km","1920","976","de","VA04RG03","null","","","","","","","","learning/Slide95.JPG","null","","","","",""
"","html-keyboard-response","292","359200","0.0-8.0-2.14","LF","temg3es1km","1920","976","de","VA04RG03","null","","","","learningBlock2","","","","<div style=""font-size:60px;""> </div>","null","LF","learning/Slide95.JPG","This is a wug:","",""
"","html-keyboard-response","293","360200","0.0-8.0-0.15","LF","temg3es1km","1920","976","de","VA04RG03","null","","","","learningBlock2","","","","This is a tob:","null","","","","",""
"","image-keyboard-response","294","360500","0.0-8.0-1.15","LF","temg3es1km","1920","976","de","VA04RG03","null","","","","","","","","learning/Slide96.JPG","null","","","","",""
"","html-keyboard-response","295","361500","0.0-8.0-2.15","LF","temg3es1km","1920","976","de","VA04RG03","null","","","","learningBlock2","","","","<div style=""font-size:60px;""> </div>","null","LF","learning/Slide96.JPG","This is a tob:","",""
"","html-keyboard-response","296","362600","0.0-8.0-0.16","LF","temg3es1km","1920","976","de","VA04RG03","null","","","","learningBlock2","","","","This is a dep:","null","","","","",""
"","image-keyboard-response","297","362900","0.0-8.0-1.16","LF","temg3es1km","1920","976","de","VA04RG03","null","","","","","","","","learning/Slide97.JPG","null","","","","",""
"","html-keyboard-response","298","364000","0.0-8.0-2.16","LF","temg3es1km","1920","976","de","VA04RG03","null","","","","learningBlock2","","","","<div style=""font-size:60px;""> </div>","null","LF","learning/Slide97.JPG","This is a dep:","",""
"","html-keyboard-response","299","364900","0.0-8.0-0.17","LF","temg3es1km","1920","976","de","VA04RG03","null","","","","learningBlock2","","","","This is a bim:","null","","","","",""
"","image-keyboard-response","300","365200","0.0-8.0-1.17","LF","temg3es1km","1920","976","de","VA04RG03","null","","","","","","","","learning/Slide98.JPG","null","","","","",""
"","html-keyboard-response","301","366300","0.0-8.0-2.17","LF","temg3es1km","1920","976","de","VA04RG03","null","","","","learningBlock2","","","","<div style=""font-size:60px;""> </div>","null","LF","learning/Slide98.JPG","This is a bim:","",""
"","html-keyboard-response","302","367300","0.0-8.0-0.18","LF","temg3es1km","1920","976","de","VA04RG03","null","","","","learningBlock2","","","","This is a dep:","null","","","","",""
"","image-keyboard-response","303","367600","0.0-8.0-1.18","LF","temg3es1km","1920","976","de","VA04RG03","null","","","","","","","","learning/Slide99.JPG","null","","","","",""
"","html-keyboard-response","304","368600","0.0-8.0-2.18","LF","temg3es1km","1920","976","de","VA04RG03","null","","","","learningBlock2","","","","<div style=""font-size:60px;""> </div>","null","LF","learning/Slide99.JPG","This is a dep:","",""
"","html-keyboard-response","305","369700","0.0-8.0-0.19","LF","temg3es1km","1920","976","de","VA04RG03","null","","","","learningBlock2","","","","This is a bim:","null","","","","",""
"","image-keyboard-response","306","370000","0.0-8.0-1.19","LF","temg3es1km","1920","976","de","VA04RG03","null","","","","","","","","learning/Slide100.JPG","null","","","","",""
"","html-keyboard-response","307","371000","0.0-8.0-2.19","LF","temg3es1km","1920","976","de","VA04RG03","null","","","","learningBlock2","","","","<div style=""font-size:60px;""> </div>","null","LF","learning/Slide100.JPG","This is a bim:","",""
"","html-keyboard-response","308","372000","0.0-8.0-0.20","LF","temg3es1km","1920","976","de","VA04RG03","null","","","","learningBlock2","","","","This is a tob:","null","","","","",""
"","image-keyboard-response","309","372400","0.0-8.0-1.20","LF","temg3es1km","1920","976","de","VA04RG03","null","","","","","","","","learning/Slide101.JPG","null","","","","",""
"","html-keyboard-response","310","373300","0.0-8.0-2.20","LF","temg3es1km","1920","976","de","VA04RG03","null","","","","learningBlock2","","","","<div style=""font-size:60px;""> </div>","null","LF","learning/Slide101.JPG","This is a tob:","",""
"","html-keyboard-response","311","374400","0.0-8.0-0.21","LF","temg3es1km","1920","976","de","VA04RG03","null","","","","learningBlock2","","","","This is a bim:","null","","","","",""
"","image-keyboard-response","312","374800","0.0-8.0-1.21","LF","temg3es1km","1920","976","de","VA04RG03","null","","","","","","","","learning/Slide102.JPG","null","","","","",""
"","html-keyboard-response","313","375700","0.0-8.0-2.21","LF","temg3es1km","1920","976","de","VA04RG03","null","","","","learningBlock2","","","","<div style=""font-size:60px;""> </div>","null","LF","learning/Slide102.JPG","This is a bim:","",""
"","html-keyboard-response","314","376700","0.0-8.0-0.22","LF","temg3es1km","1920","976","de","VA04RG03","null","","","","learningBlock2","","","","This is a dep:","null","","","","",""
"","image-keyboard-response","315","377100","0.0-8.0-1.22","LF","temg3es1km","1920","976","de","VA04RG03","null","","","","","","","","learning/Slide103.JPG","null","","","","",""
"","html-keyboard-response","316","378100","0.0-8.0-2.22","LF","temg3es1km","1920","976","de","VA04RG03","null","","","","learningBlock2","","","","<div style=""font-size:60px;""> </div>","null","LF","learning/Slide103.JPG","This is a dep:","",""
"","html-keyboard-response","317","379100","0.0-8.0-0.23","LF","temg3es1km","1920","976","de","VA04RG03","null","","","","learningBlock2","","","","This is a tob:","null","","","","",""
"","image-keyboard-response","318","379500","0.0-8.0-1.23","LF","temg3es1km","1920","976","de","VA04RG03","null","","","","","","","","learning/Slide104.JPG","null","","","","",""
"","html-keyboard-response","319","380500","0.0-8.0-2.23","LF","temg3es1km","1920","976","de","VA04RG03","null","","","","learningBlock2","","","","<div style=""font-size:60px;""> </div>","null","LF","learning/Slide104.JPG","This is a tob:","",""
"","html-keyboard-response","320","381500","0.0-8.0-0.24","LF","temg3es1km","1920","976","de","VA04RG03","null","","","","learningBlock2","","","","This is a dep:","null","","","","",""
"","image-keyboard-response","321","381800","0.0-8.0-1.24","LF","temg3es1km","1920","976","de","VA04RG03","null","","","","","","","","learning/Slide105.JPG","null","","","","",""
"","html-keyboard-response","322","382900","0.0-8.0-2.24","LF","temg3es1km","1920","976","de","VA04RG03","null","","","","learningBlock2","","","","<div style=""font-size:60px;""> </div>","null","LF","learning/Slide105.JPG","This is a dep:","",""
"","html-keyboard-response","323","383900","0.0-8.0-0.25","LF","temg3es1km","1920","976","de","VA04RG03","null","","","","learningBlock2","","","","This is a wug:","null","","","","",""
"","image-keyboard-response","324","384200","0.0-8.0-1.25","LF","temg3es1km","1920","976","de","VA04RG03","null","","","","","","","","learning/Slide106.JPG","null","","","","",""
"","html-keyboard-response","325","385200","0.0-8.0-2.25","LF","temg3es1km","1920","976","de","VA04RG03","null","","","","learningBlock2","","","","<div style=""font-size:60px;""> </div>","null","LF","learning/Slide106.JPG","This is a wug:","",""
"","html-keyboard-response","326","386200","0.0-8.0-0.26","LF","temg3es1km","1920","976","de","VA04RG03","null","","","","learningBlock2","","","","This is a bim:","null","","","","",""
"","image-keyboard-response","327","386600","0.0-8.0-1.26","LF","temg3es1km","1920","976","de","VA04RG03","null","","","","","","","","learning/Slide107.JPG","null","","","","",""
"","html-keyboard-response","328","387600","0.0-8.0-2.26","LF","temg3es1km","1920","976","de","VA04RG03","null","","","","learningBlock2","","","","<div style=""font-size:60px;""> </div>","null","LF","learning/Slide107.JPG","This is a bim:","",""
"","html-keyboard-response","329","388600","0.0-8.0-0.27","LF","temg3es1km","1920","976","de","VA04RG03","null","","","","learningBlock2","","","","This is a dep:","null","","","","",""
"","image-keyboard-response","330","388900","0.0-8.0-1.27","LF","temg3es1km","1920","976","de","VA04RG03","null","","","","","","","","learning/Slide108.JPG","null","","","","",""
"","html-keyboard-response","331","389900","0.0-8.0-2.27","LF","temg3es1km","1920","976","de","VA04RG03","null","","","","learningBlock2","","","","<div style=""font-size:60px;""> </div>","null","LF","learning/Slide108.JPG","This is a dep:","",""
"","html-keyboard-response","332","390900","0.0-8.0-0.28","LF","temg3es1km","1920","976","de","VA04RG03","null","","","","learningBlock2","","","","This is a wug:","null","","","","",""
"","image-keyboard-response","333","391300","0.0-8.0-1.28","LF","temg3es1km","1920","976","de","VA04RG03","null","","","","","","","","learning/Slide109.JPG","null","","","","",""
"","html-keyboard-response","334","392300","0.0-8.0-2.28","LF","temg3es1km","1920","976","de","VA04RG03","null","","","","learningBlock2","","","","<div style=""font-size:60px;""> </div>","null","LF","learning/Slide109.JPG","This is a wug:","",""
"","html-keyboard-response","335","393300","0.0-8.0-0.29","LF","temg3es1km","1920","976","de","VA04RG03","null","","","","learningBlock2","","","","This is a bim:","null","","","","",""
"","image-keyboard-response","336","393600","0.0-8.0-1.29","LF","temg3es1km","1920","976","de","VA04RG03","null","","","","","","","","learning/Slide110.JPG","null","","","","",""
"","html-keyboard-response","337","394700","0.0-8.0-2.29","LF","temg3es1km","1920","976","de","VA04RG03","null","","","","learningBlock2","","","","<div style=""font-size:60px;""> </div>","null","LF","learning/Slide110.JPG","This is a bim:","",""
"","html-keyboard-response","338","395700","0.0-8.0-0.30","LF","temg3es1km","1920","976","de","VA04RG03","null","","","","learningBlock2","","","","This is a tob:","null","","","","",""
"","image-keyboard-response","339","396000","0.0-8.0-1.30","LF","temg3es1km","1920","976","de","VA04RG03","null","","","","","","","","learning/Slide111.JPG","null","","","","",""
"","html-keyboard-response","340","397000","0.0-8.0-2.30","LF","temg3es1km","1920","976","de","VA04RG03","null","","","","learningBlock2","","","","<div style=""font-size:60px;""> </div>","null","LF","learning/Slide111.JPG","This is a tob:","",""
"","html-keyboard-response","341","398000","0.0-8.0-0.31","LF","temg3es1km","1920","976","de","VA04RG03","null","","","","learningBlock2","","","","This is a wug:","null","","","","",""
"","image-keyboard-response","342","398300","0.0-8.0-1.31","LF","temg3es1km","1920","976","de","VA04RG03","null","","","","","","","","learning/Slide112.JPG","null","","","","",""
"","html-keyboard-response","343","399400","0.0-8.0-2.31","LF","temg3es1km","1920","976","de","VA04RG03","null","","","","learningBlock2","","","","<div style=""font-size:60px;""> </div>","null","LF","learning/Slide112.JPG","This is a wug:","",""
"","html-keyboard-response","344","400400","0.0-8.0-0.32","LF","temg3es1km","1920","976","de","VA04RG03","null","","","","learningBlock2","","","","This is a tob:","null","","","","",""
"","image-keyboard-response","345","400800","0.0-8.0-1.32","LF","temg3es1km","1920","976","de","VA04RG03","null","","","","","","","","learning/Slide113.JPG","null","","","","",""
"","html-keyboard-response","346","401700","0.0-8.0-2.32","LF","temg3es1km","1920","976","de","VA04RG03","null","","","","learningBlock2","","","","<div style=""font-size:60px;""> </div>","null","LF","learning/Slide113.JPG","This is a tob:","",""
"","html-keyboard-response","347","402700","0.0-8.0-0.33","LF","temg3es1km","1920","976","de","VA04RG03","null","","","","learningBlock2","","","","This is a wug:","null","","","","",""
"","image-keyboard-response","348","403100","0.0-8.0-1.33","LF","temg3es1km","1920","976","de","VA04RG03","null","","","","","","","","learning/Slide114.JPG","null","","","","",""
"","html-keyboard-response","349","404100","0.0-8.0-2.33","LF","temg3es1km","1920","976","de","VA04RG03","null","","","","learningBlock2","","","","<div style=""font-size:60px;""> </div>","null","LF","learning/Slide114.JPG","This is a wug:","",""
"","html-keyboard-response","350","405100","0.0-8.0-0.34","LF","temg3es1km","1920","976","de","VA04RG03","null","","","","learningBlock2","","","","This is a bim:","null","","","","",""
"","image-keyboard-response","351","405500","0.0-8.0-1.34","LF","temg3es1km","1920","976","de","VA04RG03","null","","","","","","","","learning/Slide115.JPG","null","","","","",""
"","html-keyboard-response","352","406500","0.0-8.0-2.34","LF","temg3es1km","1920","976","de","VA04RG03","null","","","","learningBlock2","","","","<div style=""font-size:60px;""> </div>","null","LF","learning/Slide115.JPG","This is a bim:","",""
"","html-keyboard-response","353","407500","0.0-8.0-0.35","LF","temg3es1km","1920","976","de","VA04RG03","null","","","","learningBlock2","","","","This is a dep:","null","","","","",""
"","image-keyboard-response","354","407800","0.0-8.0-1.35","LF","temg3es1km","1920","976","de","VA04RG03","null","","","","","","","","learning/Slide116.JPG","null","","","","",""
"","html-keyboard-response","355","408800","0.0-8.0-2.35","LF","temg3es1km","1920","976","de","VA04RG03","null","","","","learningBlock2","","","","<div style=""font-size:60px;""> </div>","null","LF","learning/Slide116.JPG","This is a dep:","",""
"","html-keyboard-response","356","409900","0.0-8.0-0.36","LF","temg3es1km","1920","976","de","VA04RG03","null","","","","learningBlock2","","","","This is a tob:","null","","","","",""
"","image-keyboard-response","357","410200","0.0-8.0-1.36","LF","temg3es1km","1920","976","de","VA04RG03","null","","","","","","","","learning/Slide117.JPG","null","","","","",""
"","html-keyboard-response","358","411100","0.0-8.0-2.36","LF","temg3es1km","1920","976","de","VA04RG03","null","","","","learningBlock2","","","","<div style=""font-size:60px;""> </div>","null","LF","learning/Slide117.JPG","This is a tob:","",""
"","html-keyboard-response","359","412200","0.0-8.0-0.37","LF","temg3es1km","1920","976","de","VA04RG03","null","","","","learningBlock2","","","","This is a dep:","null","","","","",""
"","image-keyboard-response","360","412500","0.0-8.0-1.37","LF","temg3es1km","1920","976","de","VA04RG03","null","","","","","","","","learning/Slide118.JPG","null","","","","",""
"","html-keyboard-response","361","413500","0.0-8.0-2.37","LF","temg3es1km","1920","976","de","VA04RG03","null","","","","learningBlock2","","","","<div style=""font-size:60px;""> </div>","null","LF","learning/Slide118.JPG","This is a dep:","",""
"","html-keyboard-response","362","414600","0.0-8.0-0.38","LF","temg3es1km","1920","976","de","VA04RG03","null","","","","learningBlock2","","","","This is a wug:","null","","","","",""
"","image-keyboard-response","363","414900","0.0-8.0-1.38","LF","temg3es1km","1920","976","de","VA04RG03","null","","","","","","","","learning/Slide119.JPG","null","","","","",""
"","html-keyboard-response","364","415900","0.0-8.0-2.38","LF","temg3es1km","1920","976","de","VA04RG03","null","","","","learningBlock2","","","","<div style=""font-size:60px;""> </div>","null","LF","learning/Slide119.JPG","This is a wug:","",""
"","html-keyboard-response","365","416900","0.0-8.0-0.39","LF","temg3es1km","1920","976","de","VA04RG03","null","","","","learningBlock2","","","","This is a dep:","null","","","","",""
"","image-keyboard-response","366","417300","0.0-8.0-1.39","LF","temg3es1km","1920","976","de","VA04RG03","null","","","","","","","","learning/Slide120.JPG","null","","","","",""
"","html-keyboard-response","367","418200","0.0-8.0-2.39","LF","temg3es1km","1920","976","de","VA04RG03","null","","","","learningBlock2","","","","<div style=""font-size:60px;""> </div>","null","LF","learning/Slide120.JPG","This is a dep:","",""
"","html-keyboard-response","368","419300","0.0-8.0-0.40","LF","temg3es1km","1920","976","de","VA04RG03","null","","","","learningBlock2","","","","This is a bim:","null","","","","",""
"","image-keyboard-response","369","419700","0.0-8.0-1.40","LF","temg3es1km","1920","976","de","VA04RG03","null","","","","","","","","learning/Slide121.JPG","null","","","","",""
"","html-keyboard-response","370","420700","0.0-8.0-2.40","LF","temg3es1km","1920","976","de","VA04RG03","null","","","","learningBlock2","","","","<div style=""font-size:60px;""> </div>","null","LF","learning/Slide121.JPG","This is a bim:","",""
"","html-keyboard-response","371","421600","0.0-8.0-0.41","LF","temg3es1km","1920","976","de","VA04RG03","null","","","","learningBlock2","","","","This is a wug:","null","","","","",""
"","image-keyboard-response","372","421900","0.0-8.0-1.41","LF","temg3es1km","1920","976","de","VA04RG03","null","","","","","","","","learning/Slide122.JPG","null","","","","",""
"","html-keyboard-response","373","423000","0.0-8.0-2.41","LF","temg3es1km","1920","976","de","VA04RG03","null","","","","learningBlock2","","","","<div style=""font-size:60px;""> </div>","null","LF","learning/Slide122.JPG","This is a wug:","",""
"","html-keyboard-response","374","424000","0.0-8.0-0.42","LF","temg3es1km","1920","976","de","VA04RG03","null","","","","learningBlock2","","","","This is a bim:","null","","","","",""
"","image-keyboard-response","375","424400","0.0-8.0-1.42","LF","temg3es1km","1920","976","de","VA04RG03","null","","","","","","","","learning/Slide123.JPG","null","","","","",""
"","html-keyboard-response","376","425400","0.0-8.0-2.42","LF","temg3es1km","1920","976","de","VA04RG03","null","","","","learningBlock2","","","","<div style=""font-size:60px;""> </div>","null","LF","learning/Slide123.JPG","This is a bim:","",""
"","html-keyboard-response","377","426400","0.0-8.0-0.43","LF","temg3es1km","1920","976","de","VA04RG03","null","","","","learningBlock2","","","","This is a tob:","null","","","","",""
"","image-keyboard-response","378","426700","0.0-8.0-1.43","LF","temg3es1km","1920","976","de","VA04RG03","null","","","","","","","","learning/Slide124.JPG","null","","","","",""
"","html-keyboard-response","379","427700","0.0-8.0-2.43","LF","temg3es1km","1920","976","de","VA04RG03","null","","","","learningBlock2","","","","<div style=""font-size:60px;""> </div>","null","LF","learning/Slide124.JPG","This is a tob:","",""
"","html-keyboard-response","380","428700","0.0-8.0-0.44","LF","temg3es1km","1920","976","de","VA04RG03","null","","","","learningBlock2","","","","This is a bim:","null","","","","",""
"","image-keyboard-response","381","429000","0.0-8.0-1.44","LF","temg3es1km","1920","976","de","VA04RG03","null","","","","","","","","learning/Slide125.JPG","null","","","","",""
"","html-keyboard-response","382","430100","0.0-8.0-2.44","LF","temg3es1km","1920","976","de","VA04RG03","null","","","","learningBlock2","","","","<div style=""font-size:60px;""> </div>","null","LF","learning/Slide125.JPG","This is a bim:","",""
"","html-keyboard-response","383","431100","0.0-8.0-0.45","LF","temg3es1km","1920","976","de","VA04RG03","null","","","","learningBlock2","","","","This is a tob:","null","","","","",""
"","image-keyboard-response","384","431400","0.0-8.0-1.45","LF","temg3es1km","1920","976","de","VA04RG03","null","","","","","","","","learning/Slide126.JPG","null","","","","",""
"","html-keyboard-response","385","432500","0.0-8.0-2.45","LF","temg3es1km","1920","976","de","VA04RG03","null","","","","learningBlock2","","","","<div style=""font-size:60px;""> </div>","null","LF","learning/Slide126.JPG","This is a tob:","",""
"","html-keyboard-response","386","433400","0.0-8.0-0.46","LF","temg3es1km","1920","976","de","VA04RG03","null","","","","learningBlock2","","","","This is a dep:","null","","","","",""
"","image-keyboard-response","387","433800","0.0-8.0-1.46","LF","temg3es1km","1920","976","de","VA04RG03","null","","","","","","","","learning/Slide127.JPG","null","","","","",""
"","html-keyboard-response","388","434800","0.0-8.0-2.46","LF","temg3es1km","1920","976","de","VA04RG03","null","","","","learningBlock2","","","","<div style=""font-size:60px;""> </div>","null","LF","learning/Slide127.JPG","This is a dep:","",""
"","html-keyboard-response","389","435800","0.0-8.0-0.47","LF","temg3es1km","1920","976","de","VA04RG03","null","","","","learningBlock2","","","","This is a wug:","null","","","","",""
"","image-keyboard-response","390","436200","0.0-8.0-1.47","LF","temg3es1km","1920","976","de","VA04RG03","null","","","","","","","","learning/Slide128.JPG","null","","","","",""
"","html-keyboard-response","391","437100","0.0-8.0-2.47","LF","temg3es1km","1920","976","de","VA04RG03","null","","","","learningBlock2","","","","<div style=""font-size:60px;""> </div>","null","LF","learning/Slide128.JPG","This is a wug:","",""
"","html-keyboard-response","392","438200","0.0-8.0-0.48","LF","temg3es1km","1920","976","de","VA04RG03","null","","","","learningBlock2","","","","This is a tob:","null","","","","",""
"","image-keyboard-response","393","438500","0.0-8.0-1.48","LF","temg3es1km","1920","976","de","VA04RG03","null","","","","","","","","learning/Slide129.JPG","null","","","","",""
"","html-keyboard-response","394","439500","0.0-8.0-2.48","LF","temg3es1km","1920","976","de","VA04RG03","null","","","","learningBlock2","","","","<div style=""font-size:60px;""> </div>","null","LF","learning/Slide129.JPG","This is a tob:","",""
"","html-keyboard-response","395","440500","0.0-8.0-0.49","LF","temg3es1km","1920","976","de","VA04RG03","null","","","","learningBlock2","","","","This is a wug:","null","","","","",""
"","image-keyboard-response","396","440900","0.0-8.0-1.49","LF","temg3es1km","1920","976","de","VA04RG03","null","","","","","","","","learning/Slide130.JPG","null","","","","",""
"","html-keyboard-response","397","441800","0.0-8.0-2.49","LF","temg3es1km","1920","976","de","VA04RG03","null","","","","learningBlock2","","","","<div style=""font-size:60px;""> </div>","null","LF","learning/Slide130.JPG","This is a wug:","",""
"","html-keyboard-response","398","442900","0.0-8.0-0.50","LF","temg3es1km","1920","976","de","VA04RG03","null","","","","learningBlock2","","","","This is a bim:","null","","","","",""
"","image-keyboard-response","399","443200","0.0-8.0-1.50","LF","temg3es1km","1920","976","de","VA04RG03","null","","","","","","","","learning/Slide131.JPG","null","","","","",""
"","html-keyboard-response","400","444300","0.0-8.0-2.50","LF","temg3es1km","1920","976","de","VA04RG03","null","","","","learningBlock2","","","","<div style=""font-size:60px;""> </div>","null","LF","learning/Slide131.JPG","This is a bim:","",""
"","html-keyboard-response","401","445200","0.0-8.0-0.51","LF","temg3es1km","1920","976","de","VA04RG03","null","","","","learningBlock2","","","","This is a dep:","null","","","","",""
"","image-keyboard-response","402","445600","0.0-8.0-1.51","LF","temg3es1km","1920","976","de","VA04RG03","null","","","","","","","","learning/Slide132.JPG","null","","","","",""
"","html-keyboard-response","403","446600","0.0-8.0-2.51","LF","temg3es1km","1920","976","de","VA04RG03","null","","","","learningBlock2","","","","<div style=""font-size:60px;""> </div>","null","LF","learning/Slide132.JPG","This is a dep:","",""
"","html-keyboard-response","404","447700","0.0-8.0-0.52","LF","temg3es1km","1920","976","de","VA04RG03","null","","","","learningBlock2","","","","This is a tob:","null","","","","",""
"","image-keyboard-response","405","448000","0.0-8.0-1.52","LF","temg3es1km","1920","976","de","VA04RG03","null","","","","","","","","learning/Slide133.JPG","null","","","","",""
"","html-keyboard-response","406","448900","0.0-8.0-2.52","LF","temg3es1km","1920","976","de","VA04RG03","null","","","","learningBlock2","","","","<div style=""font-size:60px;""> </div>","null","LF","learning/Slide133.JPG","This is a tob:","",""
"","html-keyboard-response","407","449900","0.0-8.0-0.53","LF","temg3es1km","1920","976","de","VA04RG03","null","","","","learningBlock2","","","","This is a dep:","null","","","","",""
"","image-keyboard-response","408","450300","0.0-8.0-1.53","LF","temg3es1km","1920","976","de","VA04RG03","null","","","","","","","","learning/Slide134.JPG","null","","","","",""
"","html-keyboard-response","409","451300","0.0-8.0-2.53","LF","temg3es1km","1920","976","de","VA04RG03","null","","","","learningBlock2","","","","<div style=""font-size:60px;""> </div>","null","LF","learning/Slide134.JPG","This is a dep:","",""
"","html-keyboard-response","410","452400","0.0-8.0-0.54","LF","temg3es1km","1920","976","de","VA04RG03","null","","","","learningBlock2","","","","This is a tob:","null","","","","",""
"","image-keyboard-response","411","452600","0.0-8.0-1.54","LF","temg3es1km","1920","976","de","VA04RG03","null","","","","","","","","learning/Slide135.JPG","null","","","","",""
"","html-keyboard-response","412","453700","0.0-8.0-2.54","LF","temg3es1km","1920","976","de","VA04RG03","null","","","","learningBlock2","","","","<div style=""font-size:60px;""> </div>","null","LF","learning/Slide135.JPG","This is a tob:","",""
"","html-keyboard-response","413","454600","0.0-8.0-0.55","LF","temg3es1km","1920","976","de","VA04RG03","null","","","","learningBlock2","","","","This is a wug:","null","","","","",""
"","image-keyboard-response","414","455000","0.0-8.0-1.55","LF","temg3es1km","1920","976","de","VA04RG03","null","","","","","","","","learning/Slide136.JPG","null","","","","",""
"","html-keyboard-response","415","456100","0.0-8.0-2.55","LF","temg3es1km","1920","976","de","VA04RG03","null","","","","learningBlock2","","","","<div style=""font-size:60px;""> </div>","null","LF","learning/Slide136.JPG","This is a wug:","",""
"","html-keyboard-response","416","457100","0.0-8.0-0.56","LF","temg3es1km","1920","976","de","VA04RG03","null","","","","learningBlock2","","","","This is a tob:","null","","","","",""
"","image-keyboard-response","417","457400","0.0-8.0-1.56","LF","temg3es1km","1920","976","de","VA04RG03","null","","","","","","","","learning/Slide137.JPG","null","","","","",""
"","html-keyboard-response","418","458400","0.0-8.0-2.56","LF","temg3es1km","1920","976","de","VA04RG03","null","","","","learningBlock2","","","","<div style=""font-size:60px;""> </div>","null","LF","learning/Slide137.JPG","This is a tob:","",""
"","html-keyboard-response","419","459400","0.0-8.0-0.57","LF","temg3es1km","1920","976","de","VA04RG03","null","","","","learningBlock2","","","","This is a bim:","null","","","","",""
"","image-keyboard-response","420","459700","0.0-8.0-1.57","LF","temg3es1km","1920","976","de","VA04RG03","null","","","","","","","","learning/Slide138.JPG","null","","","","",""
"","html-keyboard-response","421","460700","0.0-8.0-2.57","LF","temg3es1km","1920","976","de","VA04RG03","null","","","","learningBlock2","","","","<div style=""font-size:60px;""> </div>","null","LF","learning/Slide138.JPG","This is a bim:","",""
"","html-keyboard-response","422","461800","0.0-8.0-0.58","LF","temg3es1km","1920","976","de","VA04RG03","null","","","","learningBlock2","","","","This is a wug:","null","","","","",""
"","image-keyboard-response","423","462200","0.0-8.0-1.58","LF","temg3es1km","1920","976","de","VA04RG03","null","","","","","","","","learning/Slide139.JPG","null","","","","",""
"","html-keyboard-response","424","463100","0.0-8.0-2.58","LF","temg3es1km","1920","976","de","VA04RG03","null","","","","learningBlock2","","","","<div style=""font-size:60px;""> </div>","null","LF","learning/Slide139.JPG","This is a wug:","",""
"","html-keyboard-response","425","464100","0.0-8.0-0.59","LF","temg3es1km","1920","976","de","VA04RG03","null","","","","learningBlock2","","","","This is a dep:","null","","","","",""
"","image-keyboard-response","426","464500","0.0-8.0-1.59","LF","temg3es1km","1920","976","de","VA04RG03","null","","","","","","","","learning/Slide140.JPG","null","","","","",""
"","html-keyboard-response","427","465400","0.0-8.0-2.59","LF","temg3es1km","1920","976","de","VA04RG03","null","","","","learningBlock2","","","","<div style=""font-size:60px;""> </div>","null","LF","learning/Slide140.JPG","This is a dep:","",""
"","html-keyboard-response","428","466500","0.0-8.0-0.60","LF","temg3es1km","1920","976","de","VA04RG03","null","","","","learningBlock2","","","","This is a tob:","null","","","","",""
"","image-keyboard-response","429","466800","0.0-8.0-1.60","LF","temg3es1km","1920","976","de","VA04RG03","null","","","","","","","","learning/Slide141.JPG","null","","","","",""
"","html-keyboard-response","430","467800","0.0-8.0-2.60","LF","temg3es1km","1920","976","de","VA04RG03","null","","","","learningBlock2","","","","<div style=""font-size:60px;""> </div>","null","LF","learning/Slide141.JPG","This is a tob:","",""
"","html-keyboard-response","431","468900","0.0-8.0-0.61","LF","temg3es1km","1920","976","de","VA04RG03","null","","","","learningBlock2","","","","This is a wug:","null","","","","",""
"","image-keyboard-response","432","469200","0.0-8.0-1.61","LF","temg3es1km","1920","976","de","VA04RG03","null","","","","","","","","learning/Slide142.JPG","null","","","","",""
"","html-keyboard-response","433","470200","0.0-8.0-2.61","LF","temg3es1km","1920","976","de","VA04RG03","null","","","","learningBlock2","","","","<div style=""font-size:60px;""> </div>","null","LF","learning/Slide142.JPG","This is a wug:","",""
"","html-keyboard-response","434","471300","0.0-8.0-0.62","LF","temg3es1km","1920","976","de","VA04RG03","null","","","","learningBlock2","","","","This is a bim:","null","","","","",""
"","image-keyboard-response","435","471500","0.0-8.0-1.62","LF","temg3es1km","1920","976","de","VA04RG03","null","","","","","","","","learning/Slide143.JPG","null","","","","",""
"","html-keyboard-response","436","472600","0.0-8.0-2.62","LF","temg3es1km","1920","976","de","VA04RG03","null","","","","learningBlock2","","","","<div style=""font-size:60px;""> </div>","null","LF","learning/Slide143.JPG","This is a bim:","",""
"","html-keyboard-response","437","473500","0.0-8.0-0.63","LF","temg3es1km","1920","976","de","VA04RG03","null","","","","learningBlock2","","","","This is a dep:","null","","","","",""
"","image-keyboard-response","438","473900","0.0-8.0-1.63","LF","temg3es1km","1920","976","de","VA04RG03","null","","","","","","","","learning/Slide144.JPG","null","","","","",""
"","html-keyboard-response","439","475000","0.0-8.0-2.63","LF","temg3es1km","1920","976","de","VA04RG03","null","","","","learningBlock2","","","","<div style=""font-size:60px;""> </div>","null","LF","learning/Slide144.JPG","This is a dep:","",""
"","html-keyboard-response","440","475900","0.0-8.0-0.64","LF","temg3es1km","1920","976","de","VA04RG03","null","","","","learningBlock2","","","","This is a bim:","null","","","","",""
"","image-keyboard-response","441","476200","0.0-8.0-1.64","LF","temg3es1km","1920","976","de","VA04RG03","null","","","","","","","","learning/Slide145.JPG","null","","","","",""
"","html-keyboard-response","442","477300","0.0-8.0-2.64","LF","temg3es1km","1920","976","de","VA04RG03","null","","","","learningBlock2","","","","<div style=""font-size:60px;""> </div>","null","LF","learning/Slide145.JPG","This is a bim:","",""
"","html-keyboard-response","443","478300","0.0-8.0-0.65","LF","temg3es1km","1920","976","de","VA04RG03","null","","","","learningBlock2","","","","This is a tob:","null","","","","",""
"","image-keyboard-response","444","478600","0.0-8.0-1.65","LF","temg3es1km","1920","976","de","VA04RG03","null","","","","","","","","learning/Slide146.JPG","null","","","","",""
"","html-keyboard-response","445","479700","0.0-8.0-2.65","LF","temg3es1km","1920","976","de","VA04RG03","null","","","","learningBlock2","","","","<div style=""font-size:60px;""> </div>","null","LF","learning/Slide146.JPG","This is a tob:","",""
"","html-keyboard-response","446","480600","0.0-8.0-0.66","LF","temg3es1km","1920","976","de","VA04RG03","null","","","","learningBlock2","","","","This is a wug:","null","","","","",""
"","image-keyboard-response","447","481000","0.0-8.0-1.66","LF","temg3es1km","1920","976","de","VA04RG03","null","","","","","","","","learning/Slide147.JPG","null","","","","",""
"","html-keyboard-response","448","482000","0.0-8.0-2.66","LF","temg3es1km","1920","976","de","VA04RG03","null","","","","learningBlock2","","","","<div style=""font-size:60px;""> </div>","null","LF","learning/Slide147.JPG","This is a wug:","",""
"","html-keyboard-response","449","483000","0.0-8.0-0.67","LF","temg3es1km","1920","976","de","VA04RG03","null","","","","learningBlock2","","","","This is a bim:","null","","","","",""
"","image-keyboard-response","450","483400","0.0-8.0-1.67","LF","temg3es1km","1920","976","de","VA04RG03","null","","","","","","","","learning/Slide148.JPG","null","","","","",""
"","html-keyboard-response","451","484400","0.0-8.0-2.67","LF","temg3es1km","1920","976","de","VA04RG03","null","","","","learningBlock2","","","","<div style=""font-size:60px;""> </div>","null","LF","learning/Slide148.JPG","This is a bim:","",""
"","html-keyboard-response","452","485400","0.0-8.0-0.68","LF","temg3es1km","1920","976","de","VA04RG03","null","","","","learningBlock2","","","","This is a dep:","null","","","","",""
"","image-keyboard-response","453","485700","0.0-8.0-1.68","LF","temg3es1km","1920","976","de","VA04RG03","null","","","","","","","","learning/Slide149.JPG","null","","","","",""
"","html-keyboard-response","454","486800","0.0-8.0-2.68","LF","temg3es1km","1920","976","de","VA04RG03","null","","","","learningBlock2","","","","<div style=""font-size:60px;""> </div>","null","LF","learning/Slide149.JPG","This is a dep:","",""
"","html-keyboard-response","455","487700","0.0-8.0-0.69","LF","temg3es1km","1920","976","de","VA04RG03","null","","","","learningBlock2","","","","This is a wug:","null","","","","",""
"","image-keyboard-response","456","488100","0.0-8.0-1.69","LF","temg3es1km","1920","976","de","VA04RG03","null","","","","","","","","learning/Slide150.JPG","null","","","","",""
"","html-keyboard-response","457","489100","0.0-8.0-2.69","LF","temg3es1km","1920","976","de","VA04RG03","null","","","","learningBlock2","","","","<div style=""font-size:60px;""> </div>","null","LF","learning/Slide150.JPG","This is a wug:","",""
"","html-keyboard-response","458","490200","0.0-8.0-0.70","LF","temg3es1km","1920","976","de","VA04RG03","null","","","","learningBlock2","","","","This is a dep:","null","","","","",""
"","image-keyboard-response","459","490500","0.0-8.0-1.70","LF","temg3es1km","1920","976","de","VA04RG03","null","","","","","","","","learning/Slide151.JPG","null","","","","",""
"","html-keyboard-response","460","491500","0.0-8.0-2.70","LF","temg3es1km","1920","976","de","VA04RG03","null","","","","learningBlock2","","","","<div style=""font-size:60px;""> </div>","null","LF","learning/Slide151.JPG","This is a dep:","",""
"","html-keyboard-response","461","492500","0.0-8.0-0.71","LF","temg3es1km","1920","976","de","VA04RG03","null","","","","learningBlock2","","","","This is a wug:","null","","","","",""
"","image-keyboard-response","462","492800","0.0-8.0-1.71","LF","temg3es1km","1920","976","de","VA04RG03","null","","","","","","","","learning/Slide152.JPG","null","","","","",""
"","html-keyboard-response","463","493800","0.0-8.0-2.71","LF","temg3es1km","1920","976","de","VA04RG03","null","","","","learningBlock2","","","","<div style=""font-size:60px;""> </div>","null","LF","learning/Slide152.JPG","This is a wug:","",""
"","html-keyboard-response","464","494800","0.0-8.0-0.72","LF","temg3es1km","1920","976","de","VA04RG03","null","","","","learningBlock2","","","","This is a bim:","null","","","","",""
"","image-keyboard-response","465","495200","0.0-8.0-1.72","LF","temg3es1km","1920","976","de","VA04RG03","null","","","","","","","","learning/Slide153.JPG","null","","","","",""
"","html-keyboard-response","466","496200","0.0-8.0-2.72","LF","temg3es1km","1920","976","de","VA04RG03","null","","","","learningBlock2","","","","<div style=""font-size:60px;""> </div>","null","LF","learning/Slide153.JPG","This is a bim:","",""
"","html-keyboard-response","467","497200","0.0-8.0-0.73","LF","temg3es1km","1920","976","de","VA04RG03","null","","","","learningBlock2","","","","This is a tob:","null","","","","",""
"","image-keyboard-response","468","497500","0.0-8.0-1.73","LF","temg3es1km","1920","976","de","VA04RG03","null","","","","","","","","learning/Slide154.JPG","null","","","","",""
"","html-keyboard-response","469","498500","0.0-8.0-2.73","LF","temg3es1km","1920","976","de","VA04RG03","null","","","","learningBlock2","","","","<div style=""font-size:60px;""> </div>","null","LF","learning/Slide154.JPG","This is a tob:","",""
"","html-keyboard-response","470","499600","0.0-8.0-0.74","LF","temg3es1km","1920","976","de","VA04RG03","null","","","","learningBlock2","","","","This is a dep:","null","","","","",""
"","image-keyboard-response","471","499900","0.0-8.0-1.74","LF","temg3es1km","1920","976","de","VA04RG03","null","","","","","","","","learning/Slide155.JPG","null","","","","",""
"","html-keyboard-response","472","501000","0.0-8.0-2.74","LF","temg3es1km","1920","976","de","VA04RG03","null","","","","learningBlock2","","","","<div style=""font-size:60px;""> </div>","null","LF","learning/Slide155.JPG","This is a dep:","",""
"","html-keyboard-response","473","501900","0.0-8.0-0.75","LF","temg3es1km","1920","976","de","VA04RG03","null","","","","learningBlock2","","","","This is a bim:","null","","","","",""
"","image-keyboard-response","474","502200","0.0-8.0-1.75","LF","temg3es1km","1920","976","de","VA04RG03","null","","","","","","","","learning/Slide156.JPG","null","","","","",""
"","html-keyboard-response","475","503300","0.0-8.0-2.75","LF","temg3es1km","1920","976","de","VA04RG03","null","","","","learningBlock2","","","","<div style=""font-size:60px;""> </div>","null","LF","learning/Slide156.JPG","This is a bim:","",""
"","html-keyboard-response","476","504300","0.0-8.0-0.76","LF","temg3es1km","1920","976","de","VA04RG03","null","","","","learningBlock2","","","","This is a dep:","null","","","","",""
"","image-keyboard-response","477","504700","0.0-8.0-1.76","LF","temg3es1km","1920","976","de","VA04RG03","null","","","","","","","","learning/Slide157.JPG","null","","","","",""
"","html-keyboard-response","478","505600","0.0-8.0-2.76","LF","temg3es1km","1920","976","de","VA04RG03","null","","","","learningBlock2","","","","<div style=""font-size:60px;""> </div>","null","LF","learning/Slide157.JPG","This is a dep:","",""
"","html-keyboard-response","479","506700","0.0-8.0-0.77","LF","temg3es1km","1920","976","de","VA04RG03","null","","","","learningBlock2","","","","This is a tob:","null","","","","",""
"","image-keyboard-response","480","507000","0.0-8.0-1.77","LF","temg3es1km","1920","976","de","VA04RG03","null","","","","","","","","learning/Slide158.JPG","null","","","","",""
"","html-keyboard-response","481","508000","0.0-8.0-2.77","LF","temg3es1km","1920","976","de","VA04RG03","null","","","","learningBlock2","","","","<div style=""font-size:60px;""> </div>","null","LF","learning/Slide158.JPG","This is a tob:","",""
"","html-keyboard-response","482","509000","0.0-8.0-0.78","LF","temg3es1km","1920","976","de","VA04RG03","null","","","","learningBlock2","","","","This is a dep:","null","","","","",""
"","image-keyboard-response","483","509400","0.0-8.0-1.78","LF","temg3es1km","1920","976","de","VA04RG03","null","","","","","","","","learning/Slide159.JPG","null","","","","",""
"","html-keyboard-response","484","510400","0.0-8.0-2.78","LF","temg3es1km","1920","976","de","VA04RG03","null","","","","learningBlock2","","","","<div style=""font-size:60px;""> </div>","null","LF","learning/Slide159.JPG","This is a dep:","",""
"","html-keyboard-response","485","511400","0.0-8.0-0.79","LF","temg3es1km","1920","976","de","VA04RG03","null","","","","learningBlock2","","","","This is a wug:","null","","","","",""
"","image-keyboard-response","486","511700","0.0-8.0-1.79","LF","temg3es1km","1920","976","de","VA04RG03","null","","","","","","","","learning/Slide160.JPG","null","","","","",""
"","html-keyboard-response","487","512800","0.0-8.0-2.79","LF","temg3es1km","1920","976","de","VA04RG03","null","","","","learningBlock2","","","","<div style=""font-size:60px;""> </div>","null","LF","learning/Slide160.JPG","This is a wug:","",""
"","resize2","488","515900","0.0-9.0","LF","temg3es1km","1920","976","de","VA04RG03","","","","","","","104","1.04","","","","","","",""
"","instructions","489","524100","0.0-10.0","LF","temg3es1km","1920","976","de","VA04RG03","NA","","","[{""page_index"":0,""viewing_time"":8200}]","instructions","","","","","","","","","",""
"","html-keyboard-response","490","525200","0.0-11.0-0.0","LF","temg3es1km","1920","976","de","VA04RG03","null","","","","","","","","<div style=""font-size:60px;"">+</div>","null","","","","",""
