"success","trial_type","trial_index","time_elapsed","internal_node_id","condition","subject","screen_width","screen_height","language","codeword","rt","responses","url","view_history","test_part","final_height_px","final_width_px","scale_factor","stimulus","key_press","learningType","presentedImage","presentedLabel","button_pressed","response"
"true","fullscreen","0","5204","0.0-0.0","LF","w1htsndwg2","1280","720","en","bo05ou27","","","","","","","","","","","","","","",""
"","survey-html-form","1","9605","0.0-1.0","LF","w1htsndwg2","1280","720","en","bo05ou27","4396.640000049956","{""language"":""en""}","","","","","","","","","","","","",""
"","external-html","2","108556","0.0-3.0-0.0","LF","w1htsndwg2","1280","720","en","bo05ou27","98916.53500008397","","text/information_english.html","","","","","","","","","","","",""
"","external-html","3","119952","0.0-3.0-1.0","LF","w1htsndwg2","1280","720","en","bo05ou27","11307.900000014342","","text/consent_english.html","","","","","","","","","","","",""
"","survey-html-form","4","199685","0.0-3.0-2.0","LF","w1htsndwg2","1280","720","en","bo05ou27","79725.47000006307","{""codeword_enter"":""bo05ou27""}","","","","","","","","","","","","",""
"","instructions","5","215916","0.0-4.0","LF","w1htsndwg2","1280","720","en","bo05ou27","NA","","","[{""page_index"":0,""viewing_time"":2944.634999963455},{""page_index"":1,""viewing_time"":11781.549999956042}]","instructions","","","","","","","","","",""
"","resize","6","263311","0.0-5.0","LF","w1htsndwg2","1280","720","en","bo05ou27","","","","","","","377","2.3936507936507936","","","","","","",""
"","html-keyboard-response","7","264317","0.0-6.0-0.0","LF","w1htsndwg2","1280","720","en","bo05ou27","null","","","","learningBlock1","","","","This is a tob:","null","","","","",""
"","image-keyboard-response","8","264646","0.0-6.0-1.0","LF","w1htsndwg2","1280","720","en","bo05ou27","null","","","","","","","","learning/Slide1.JPG","null","","","","",""
"","html-keyboard-response","9","265651","0.0-6.0-2.0","LF","w1htsndwg2","1280","720","en","bo05ou27","null","","","","learningBlock1","","","","<div style=""font-size:60px;""> </div>","null","LF","learning/Slide1.JPG","This is a tob:","",""
"","html-keyboard-response","10","266655","0.0-6.0-0.1","LF","w1htsndwg2","1280","720","en","bo05ou27","null","","","","learningBlock1","","","","This is a wug:","null","","","","",""
"","image-keyboard-response","11","266986","0.0-6.0-1.1","LF","w1htsndwg2","1280","720","en","bo05ou27","null","","","","","","","","learning/Slide2.JPG","null","","","","",""
"","html-keyboard-response","12","267989","0.0-6.0-2.1","LF","w1htsndwg2","1280","720","en","bo05ou27","null","","","","learningBlock1","","","","<div style=""font-size:60px;""> </div>","null","LF","learning/Slide2.JPG","This is a wug:","",""
"","html-keyboard-response","13","268992","0.0-6.0-0.2","LF","w1htsndwg2","1280","720","en","bo05ou27","null","","","","learningBlock1","","","","This is a bim:","null","","","","",""
"","image-keyboard-response","14","269320","0.0-6.0-1.2","LF","w1htsndwg2","1280","720","en","bo05ou27","null","","","","","","","","learning/Slide3.JPG","null","","","","",""
"","html-keyboard-response","15","270324","0.0-6.0-2.2","LF","w1htsndwg2","1280","720","en","bo05ou27","null","","","","learningBlock1","","","","<div style=""font-size:60px;""> </div>","null","LF","learning/Slide3.JPG","This is a bim:","",""
"","html-keyboard-response","16","271326","0.0-6.0-0.3","LF","w1htsndwg2","1280","720","en","bo05ou27","null","","","","learningBlock1","","","","This is a dep:","null","","","","",""
"","image-keyboard-response","17","271653","0.0-6.0-1.3","LF","w1htsndwg2","1280","720","en","bo05ou27","null","","","","","","","","learning/Slide4.JPG","null","","","","",""
"","html-keyboard-response","18","272656","0.0-6.0-2.3","LF","w1htsndwg2","1280","720","en","bo05ou27","null","","","","learningBlock1","","","","<div style=""font-size:60px;""> </div>","null","LF","learning/Slide4.JPG","This is a dep:","",""
"","html-keyboard-response","19","273659","0.0-6.0-0.4","LF","w1htsndwg2","1280","720","en","bo05ou27","null","","","","learningBlock1","","","","This is a wug:","null","","","","",""
"","image-keyboard-response","20","273985","0.0-6.0-1.4","LF","w1htsndwg2","1280","720","en","bo05ou27","null","","","","","","","","learning/Slide5.JPG","null","","","","",""
"","html-keyboard-response","21","274988","0.0-6.0-2.4","LF","w1htsndwg2","1280","720","en","bo05ou27","null","","","","learningBlock1","","","","<div style=""font-size:60px;""> </div>","null","LF","learning/Slide5.JPG","This is a wug:","",""
"","html-keyboard-response","22","275991","0.0-6.0-0.5","LF","w1htsndwg2","1280","720","en","bo05ou27","null","","","","learningBlock1","","","","This is a dep:","null","","","","",""
"","image-keyboard-response","23","276321","0.0-6.0-1.5","LF","w1htsndwg2","1280","720","en","bo05ou27","null","","","","","","","","learning/Slide6.JPG","null","","","","",""
"","html-keyboard-response","24","277322","0.0-6.0-2.5","LF","w1htsndwg2","1280","720","en","bo05ou27","null","","","","learningBlock1","","","","<div style=""font-size:60px;""> </div>","null","LF","learning/Slide6.JPG","This is a dep:","",""
"","html-keyboard-response","25","278325","0.0-6.0-0.6","LF","w1htsndwg2","1280","720","en","bo05ou27","null","","","","learningBlock1","","","","This is a wug:","null","","","","",""
"","image-keyboard-response","26","278654","0.0-6.0-1.6","LF","w1htsndwg2","1280","720","en","bo05ou27","null","","","","","","","","learning/Slide7.JPG","null","","","","",""
"","html-keyboard-response","27","279657","0.0-6.0-2.6","LF","w1htsndwg2","1280","720","en","bo05ou27","null","","","","learningBlock1","","","","<div style=""font-size:60px;""> </div>","null","LF","learning/Slide7.JPG","This is a wug:","",""
"","html-keyboard-response","28","280660","0.0-6.0-0.7","LF","w1htsndwg2","1280","720","en","bo05ou27","null","","","","learningBlock1","","","","This is a bim:","null","","","","",""
"","image-keyboard-response","29","280988","0.0-6.0-1.7","LF","w1htsndwg2","1280","720","en","bo05ou27","null","","","","","","","","learning/Slide8.JPG","null","","","","",""
"","html-keyboard-response","30","281990","0.0-6.0-2.7","LF","w1htsndwg2","1280","720","en","bo05ou27","null","","","","learningBlock1","","","","<div style=""font-size:60px;""> </div>","null","LF","learning/Slide8.JPG","This is a bim:","",""
"","html-keyboard-response","31","282992","0.0-6.0-0.8","LF","w1htsndwg2","1280","720","en","bo05ou27","null","","","","learningBlock1","","","","This is a wug:","null","","","","",""
"","image-keyboard-response","32","283319","0.0-6.0-1.8","LF","w1htsndwg2","1280","720","en","bo05ou27","null","","","","","","","","learning/Slide9.JPG","null","","","","",""
"","html-keyboard-response","33","284321","0.0-6.0-2.8","LF","w1htsndwg2","1280","720","en","bo05ou27","null","","","","learningBlock1","","","","<div style=""font-size:60px;""> </div>","null","LF","learning/Slide9.JPG","This is a wug:","",""
"","html-keyboard-response","34","285326","0.0-6.0-0.9","LF","w1htsndwg2","1280","720","en","bo05ou27","null","","","","learningBlock1","","","","This is a dep:","null","","","","",""
"","image-keyboard-response","35","285657","0.0-6.0-1.9","LF","w1htsndwg2","1280","720","en","bo05ou27","null","","","","","","","","learning/Slide10.JPG","null","","","","",""
"","html-keyboard-response","36","286660","0.0-6.0-2.9","LF","w1htsndwg2","1280","720","en","bo05ou27","null","","","","learningBlock1","","","","<div style=""font-size:60px;""> </div>","null","LF","learning/Slide10.JPG","This is a dep:","",""
"","html-keyboard-response","37","287662","0.0-6.0-0.10","LF","w1htsndwg2","1280","720","en","bo05ou27","null","","","","learningBlock1","","","","This is a tob:","null","","","","",""
"","image-keyboard-response","38","287990","0.0-6.0-1.10","LF","w1htsndwg2","1280","720","en","bo05ou27","null","","","","","","","","learning/Slide11.JPG","null","","","","",""
"","html-keyboard-response","39","288993","0.0-6.0-2.10","LF","w1htsndwg2","1280","720","en","bo05ou27","null","","","","learningBlock1","","","","<div style=""font-size:60px;""> </div>","null","LF","learning/Slide11.JPG","This is a tob:","",""
"","html-keyboard-response","40","289996","0.0-6.0-0.11","LF","w1htsndwg2","1280","720","en","bo05ou27","null","","","","learningBlock1","","","","This is a dep:","null","","","","",""
"","image-keyboard-response","41","290326","0.0-6.0-1.11","LF","w1htsndwg2","1280","720","en","bo05ou27","null","","","","","","","","learning/Slide12.JPG","null","","","","",""
"","html-keyboard-response","42","291329","0.0-6.0-2.11","LF","w1htsndwg2","1280","720","en","bo05ou27","null","","","","learningBlock1","","","","<div style=""font-size:60px;""> </div>","null","LF","learning/Slide12.JPG","This is a dep:","",""
"","html-keyboard-response","43","292331","0.0-6.0-0.12","LF","w1htsndwg2","1280","720","en","bo05ou27","null","","","","learningBlock1","","","","This is a bim:","null","","","","",""
"","image-keyboard-response","44","292659","0.0-6.0-1.12","LF","w1htsndwg2","1280","720","en","bo05ou27","null","","","","","","","","learning/Slide13.JPG","null","","","","",""
"","html-keyboard-response","45","293662","0.0-6.0-2.12","LF","w1htsndwg2","1280","720","en","bo05ou27","null","","","","learningBlock1","","","","<div style=""font-size:60px;""> </div>","null","LF","learning/Slide13.JPG","This is a bim:","",""
"","html-keyboard-response","46","294665","0.0-6.0-0.13","LF","w1htsndwg2","1280","720","en","bo05ou27","null","","","","learningBlock1","","","","This is a wug:","null","","","","",""
"","image-keyboard-response","47","294993","0.0-6.0-1.13","LF","w1htsndwg2","1280","720","en","bo05ou27","null","","","","","","","","learning/Slide14.JPG","null","","","","",""
"","html-keyboard-response","48","295995","0.0-6.0-2.13","LF","w1htsndwg2","1280","720","en","bo05ou27","null","","","","learningBlock1","","","","<div style=""font-size:60px;""> </div>","null","LF","learning/Slide14.JPG","This is a wug:","",""
"","html-keyboard-response","49","296997","0.0-6.0-0.14","LF","w1htsndwg2","1280","720","en","bo05ou27","null","","","","learningBlock1","","","","This is a tob:","null","","","","",""
"","image-keyboard-response","50","297326","0.0-6.0-1.14","LF","w1htsndwg2","1280","720","en","bo05ou27","null","","","","","","","","learning/Slide15.JPG","null","","","","",""
"","html-keyboard-response","51","298328","0.0-6.0-2.14","LF","w1htsndwg2","1280","720","en","bo05ou27","null","","","","learningBlock1","","","","<div style=""font-size:60px;""> </div>","null","LF","learning/Slide15.JPG","This is a tob:","",""
"","html-keyboard-response","52","299330","0.0-6.0-0.15","LF","w1htsndwg2","1280","720","en","bo05ou27","null","","","","learningBlock1","","","","This is a dep:","null","","","","",""
"","image-keyboard-response","53","299659","0.0-6.0-1.15","LF","w1htsndwg2","1280","720","en","bo05ou27","null","","","","","","","","learning/Slide16.JPG","null","","","","",""
"","html-keyboard-response","54","300661","0.0-6.0-2.15","LF","w1htsndwg2","1280","720","en","bo05ou27","null","","","","learningBlock1","","","","<div style=""font-size:60px;""> </div>","null","LF","learning/Slide16.JPG","This is a dep:","",""
"","html-keyboard-response","55","301664","0.0-6.0-0.16","LF","w1htsndwg2","1280","720","en","bo05ou27","null","","","","learningBlock1","","","","This is a bim:","null","","","","",""
"","image-keyboard-response","56","301992","0.0-6.0-1.16","LF","w1htsndwg2","1280","720","en","bo05ou27","null","","","","","","","","learning/Slide17.JPG","null","","","","",""
"","html-keyboard-response","57","302995","0.0-6.0-2.16","LF","w1htsndwg2","1280","720","en","bo05ou27","null","","","","learningBlock1","","","","<div style=""font-size:60px;""> </div>","null","LF","learning/Slide17.JPG","This is a bim:","",""
"","html-keyboard-response","58","303998","0.0-6.0-0.17","LF","w1htsndwg2","1280","720","en","bo05ou27","null","","","","learningBlock1","","","","This is a tob:","null","","","","",""
"","image-keyboard-response","59","304327","0.0-6.0-1.17","LF","w1htsndwg2","1280","720","en","bo05ou27","null","","","","","","","","learning/Slide18.JPG","null","","","","",""
"","html-keyboard-response","60","305329","0.0-6.0-2.17","LF","w1htsndwg2","1280","720","en","bo05ou27","null","","","","learningBlock1","","","","<div style=""font-size:60px;""> </div>","null","LF","learning/Slide18.JPG","This is a tob:","",""
"","html-keyboard-response","61","306332","0.0-6.0-0.18","LF","w1htsndwg2","1280","720","en","bo05ou27","null","","","","learningBlock1","","","","This is a wug:","null","","","","",""
"","image-keyboard-response","62","306661","0.0-6.0-1.18","LF","w1htsndwg2","1280","720","en","bo05ou27","null","","","","","","","","learning/Slide19.JPG","null","","","","",""
"","html-keyboard-response","63","307664","0.0-6.0-2.18","LF","w1htsndwg2","1280","720","en","bo05ou27","null","","","","learningBlock1","","","","<div style=""font-size:60px;""> </div>","null","LF","learning/Slide19.JPG","This is a wug:","",""
"","html-keyboard-response","64","308667","0.0-6.0-0.19","LF","w1htsndwg2","1280","720","en","bo05ou27","null","","","","learningBlock1","","","","This is a bim:","null","","","","",""
"","image-keyboard-response","65","308995","0.0-6.0-1.19","LF","w1htsndwg2","1280","720","en","bo05ou27","null","","","","","","","","learning/Slide20.JPG","null","","","","",""
"","html-keyboard-response","66","309997","0.0-6.0-2.19","LF","w1htsndwg2","1280","720","en","bo05ou27","null","","","","learningBlock1","","","","<div style=""font-size:60px;""> </div>","null","LF","learning/Slide20.JPG","This is a bim:","",""
"","html-keyboard-response","67","311000","0.0-6.0-0.20","LF","w1htsndwg2","1280","720","en","bo05ou27","null","","","","learningBlock1","","","","This is a dep:","null","","","","",""
"","image-keyboard-response","68","311328","0.0-6.0-1.20","LF","w1htsndwg2","1280","720","en","bo05ou27","null","","","","","","","","learning/Slide21.JPG","null","","","","",""
"","html-keyboard-response","69","312330","0.0-6.0-2.20","LF","w1htsndwg2","1280","720","en","bo05ou27","null","","","","learningBlock1","","","","<div style=""font-size:60px;""> </div>","null","LF","learning/Slide21.JPG","This is a dep:","",""
"","html-keyboard-response","70","313332","0.0-6.0-0.21","LF","w1htsndwg2","1280","720","en","bo05ou27","null","","","","learningBlock1","","","","This is a bim:","null","","","","",""
"","image-keyboard-response","71","313660","0.0-6.0-1.21","LF","w1htsndwg2","1280","720","en","bo05ou27","null","","","","","","","","learning/Slide22.JPG","null","","","","",""
"","html-keyboard-response","72","314663","0.0-6.0-2.21","LF","w1htsndwg2","1280","720","en","bo05ou27","null","","","","learningBlock1","","","","<div style=""font-size:60px;""> </div>","null","LF","learning/Slide22.JPG","This is a bim:","",""
"","html-keyboard-response","73","315666","0.0-6.0-0.22","LF","w1htsndwg2","1280","720","en","bo05ou27","null","","","","learningBlock1","","","","This is a tob:","null","","","","",""
"","image-keyboard-response","74","315993","0.0-6.0-1.22","LF","w1htsndwg2","1280","720","en","bo05ou27","null","","","","","","","","learning/Slide23.JPG","null","","","","",""
"","html-keyboard-response","75","316997","0.0-6.0-2.22","LF","w1htsndwg2","1280","720","en","bo05ou27","null","","","","learningBlock1","","","","<div style=""font-size:60px;""> </div>","null","LF","learning/Slide23.JPG","This is a tob:","",""
"","html-keyboard-response","76","317999","0.0-6.0-0.23","LF","w1htsndwg2","1280","720","en","bo05ou27","null","","","","learningBlock1","","","","This is a wug:","null","","","","",""
"","image-keyboard-response","77","318327","0.0-6.0-1.23","LF","w1htsndwg2","1280","720","en","bo05ou27","null","","","","","","","","learning/Slide24.JPG","null","","","","",""
"","html-keyboard-response","78","319329","0.0-6.0-2.23","LF","w1htsndwg2","1280","720","en","bo05ou27","null","","","","learningBlock1","","","","<div style=""font-size:60px;""> </div>","null","LF","learning/Slide24.JPG","This is a wug:","",""
"","html-keyboard-response","79","320331","0.0-6.0-0.24","LF","w1htsndwg2","1280","720","en","bo05ou27","null","","","","learningBlock1","","","","This is a dep:","null","","","","",""
"","image-keyboard-response","80","320660","0.0-6.0-1.24","LF","w1htsndwg2","1280","720","en","bo05ou27","null","","","","","","","","learning/Slide25.JPG","null","","","","",""
"","html-keyboard-response","81","321662","0.0-6.0-2.24","LF","w1htsndwg2","1280","720","en","bo05ou27","null","","","","learningBlock1","","","","<div style=""font-size:60px;""> </div>","null","LF","learning/Slide25.JPG","This is a dep:","",""
"","html-keyboard-response","82","322665","0.0-6.0-0.25","LF","w1htsndwg2","1280","720","en","bo05ou27","null","","","","learningBlock1","","","","This is a wug:","null","","","","",""
"","image-keyboard-response","83","322993","0.0-6.0-1.25","LF","w1htsndwg2","1280","720","en","bo05ou27","null","","","","","","","","learning/Slide26.JPG","null","","","","",""
"","html-keyboard-response","84","323996","0.0-6.0-2.25","LF","w1htsndwg2","1280","720","en","bo05ou27","null","","","","learningBlock1","","","","<div style=""font-size:60px;""> </div>","null","LF","learning/Slide26.JPG","This is a wug:","",""
"","html-keyboard-response","85","324998","0.0-6.0-0.26","LF","w1htsndwg2","1280","720","en","bo05ou27","null","","","","learningBlock1","","","","This is a bim:","null","","","","",""
"","image-keyboard-response","86","325327","0.0-6.0-1.26","LF","w1htsndwg2","1280","720","en","bo05ou27","null","","","","","","","","learning/Slide27.JPG","null","","","","",""
"","html-keyboard-response","87","326330","0.0-6.0-2.26","LF","w1htsndwg2","1280","720","en","bo05ou27","null","","","","learningBlock1","","","","<div style=""font-size:60px;""> </div>","null","LF","learning/Slide27.JPG","This is a bim:","",""
"","html-keyboard-response","88","327331","0.0-6.0-0.27","LF","w1htsndwg2","1280","720","en","bo05ou27","null","","","","learningBlock1","","","","This is a dep:","null","","","","",""
"","image-keyboard-response","89","327659","0.0-6.0-1.27","LF","w1htsndwg2","1280","720","en","bo05ou27","null","","","","","","","","learning/Slide28.JPG","null","","","","",""
"","html-keyboard-response","90","328661","0.0-6.0-2.27","LF","w1htsndwg2","1280","720","en","bo05ou27","null","","","","learningBlock1","","","","<div style=""font-size:60px;""> </div>","null","LF","learning/Slide28.JPG","This is a dep:","",""
"","html-keyboard-response","91","329664","0.0-6.0-0.28","LF","w1htsndwg2","1280","720","en","bo05ou27","null","","","","learningBlock1","","","","This is a tob:","null","","","","",""
"","image-keyboard-response","92","329994","0.0-6.0-1.28","LF","w1htsndwg2","1280","720","en","bo05ou27","null","","","","","","","","learning/Slide29.JPG","null","","","","",""
"","html-keyboard-response","93","330996","0.0-6.0-2.28","LF","w1htsndwg2","1280","720","en","bo05ou27","null","","","","learningBlock1","","","","<div style=""font-size:60px;""> </div>","null","LF","learning/Slide29.JPG","This is a tob:","",""
"","html-keyboard-response","94","331998","0.0-6.0-0.29","LF","w1htsndwg2","1280","720","en","bo05ou27","null","","","","learningBlock1","","","","This is a dep:","null","","","","",""
"","image-keyboard-response","95","332327","0.0-6.0-1.29","LF","w1htsndwg2","1280","720","en","bo05ou27","null","","","","","","","","learning/Slide30.JPG","null","","","","",""
"","html-keyboard-response","96","333329","0.0-6.0-2.29","LF","w1htsndwg2","1280","720","en","bo05ou27","null","","","","learningBlock1","","","","<div style=""font-size:60px;""> </div>","null","LF","learning/Slide30.JPG","This is a dep:","",""
"","html-keyboard-response","97","334330","0.0-6.0-0.30","LF","w1htsndwg2","1280","720","en","bo05ou27","null","","","","learningBlock1","","","","This is a wug:","null","","","","",""
"","image-keyboard-response","98","334659","0.0-6.0-1.30","LF","w1htsndwg2","1280","720","en","bo05ou27","null","","","","","","","","learning/Slide31.JPG","null","","","","",""
"","html-keyboard-response","99","335662","0.0-6.0-2.30","LF","w1htsndwg2","1280","720","en","bo05ou27","null","","","","learningBlock1","","","","<div style=""font-size:60px;""> </div>","null","LF","learning/Slide31.JPG","This is a wug:","",""
"","html-keyboard-response","100","336664","0.0-6.0-0.31","LF","w1htsndwg2","1280","720","en","bo05ou27","null","","","","learningBlock1","","","","This is a tob:","null","","","","",""
"","image-keyboard-response","101","336994","0.0-6.0-1.31","LF","w1htsndwg2","1280","720","en","bo05ou27","null","","","","","","","","learning/Slide32.JPG","null","","","","",""
"","html-keyboard-response","102","337995","0.0-6.0-2.31","LF","w1htsndwg2","1280","720","en","bo05ou27","null","","","","learningBlock1","","","","<div style=""font-size:60px;""> </div>","null","LF","learning/Slide32.JPG","This is a tob:","",""
"","html-keyboard-response","103","338997","0.0-6.0-0.32","LF","w1htsndwg2","1280","720","en","bo05ou27","null","","","","learningBlock1","","","","This is a bim:","null","","","","",""
"","image-keyboard-response","104","339326","0.0-6.0-1.32","LF","w1htsndwg2","1280","720","en","bo05ou27","null","","","","","","","","learning/Slide33.JPG","null","","","","",""
"","html-keyboard-response","105","340328","0.0-6.0-2.32","LF","w1htsndwg2","1280","720","en","bo05ou27","null","","","","learningBlock1","","","","<div style=""font-size:60px;""> </div>","null","LF","learning/Slide33.JPG","This is a bim:","",""
"","html-keyboard-response","106","341330","0.0-6.0-0.33","LF","w1htsndwg2","1280","720","en","bo05ou27","null","","","","learningBlock1","","","","This is a tob:","null","","","","",""
"","image-keyboard-response","107","341660","0.0-6.0-1.33","LF","w1htsndwg2","1280","720","en","bo05ou27","null","","","","","","","","learning/Slide34.JPG","null","","","","",""
"","html-keyboard-response","108","342662","0.0-6.0-2.33","LF","w1htsndwg2","1280","720","en","bo05ou27","null","","","","learningBlock1","","","","<div style=""font-size:60px;""> </div>","null","LF","learning/Slide34.JPG","This is a tob:","",""
"","html-keyboard-response","109","343665","0.0-6.0-0.34","LF","w1htsndwg2","1280","720","en","bo05ou27","null","","","","learningBlock1","","","","This is a bim:","null","","","","",""
"","image-keyboard-response","110","343993","0.0-6.0-1.34","LF","w1htsndwg2","1280","720","en","bo05ou27","null","","","","","","","","learning/Slide35.JPG","null","","","","",""
"","html-keyboard-response","111","344996","0.0-6.0-2.34","LF","w1htsndwg2","1280","720","en","bo05ou27","null","","","","learningBlock1","","","","<div style=""font-size:60px;""> </div>","null","LF","learning/Slide35.JPG","This is a bim:","",""
"","html-keyboard-response","112","345999","0.0-6.0-0.35","LF","w1htsndwg2","1280","720","en","bo05ou27","null","","","","learningBlock1","","","","This is a dep:","null","","","","",""
"","image-keyboard-response","113","346326","0.0-6.0-1.35","LF","w1htsndwg2","1280","720","en","bo05ou27","null","","","","","","","","learning/Slide36.JPG","null","","","","",""
"","html-keyboard-response","114","347328","0.0-6.0-2.35","LF","w1htsndwg2","1280","720","en","bo05ou27","null","","","","learningBlock1","","","","<div style=""font-size:60px;""> </div>","null","LF","learning/Slide36.JPG","This is a dep:","",""
"","html-keyboard-response","115","348330","0.0-6.0-0.36","LF","w1htsndwg2","1280","720","en","bo05ou27","null","","","","learningBlock1","","","","This is a tob:","null","","","","",""
"","image-keyboard-response","116","348659","0.0-6.0-1.36","LF","w1htsndwg2","1280","720","en","bo05ou27","null","","","","","","","","learning/Slide37.JPG","null","","","","",""
"","html-keyboard-response","117","349661","0.0-6.0-2.36","LF","w1htsndwg2","1280","720","en","bo05ou27","null","","","","learningBlock1","","","","<div style=""font-size:60px;""> </div>","null","LF","learning/Slide37.JPG","This is a tob:","",""
"","html-keyboard-response","118","350665","0.0-6.0-0.37","LF","w1htsndwg2","1280","720","en","bo05ou27","null","","","","learningBlock1","","","","This is a wug:","null","","","","",""
"","image-keyboard-response","119","350994","0.0-6.0-1.37","LF","w1htsndwg2","1280","720","en","bo05ou27","null","","","","","","","","learning/Slide38.JPG","null","","","","",""
"","html-keyboard-response","120","351995","0.0-6.0-2.37","LF","w1htsndwg2","1280","720","en","bo05ou27","null","","","","learningBlock1","","","","<div style=""font-size:60px;""> </div>","null","LF","learning/Slide38.JPG","This is a wug:","",""
"","html-keyboard-response","121","352997","0.0-6.0-0.38","LF","w1htsndwg2","1280","720","en","bo05ou27","null","","","","learningBlock1","","","","This is a bim:","null","","","","",""
"","image-keyboard-response","122","353326","0.0-6.0-1.38","LF","w1htsndwg2","1280","720","en","bo05ou27","null","","","","","","","","learning/Slide39.JPG","null","","","","",""
"","html-keyboard-response","123","354328","0.0-6.0-2.38","LF","w1htsndwg2","1280","720","en","bo05ou27","null","","","","learningBlock1","","","","<div style=""font-size:60px;""> </div>","null","LF","learning/Slide39.JPG","This is a bim:","",""
"","html-keyboard-response","124","355330","0.0-6.0-0.39","LF","w1htsndwg2","1280","720","en","bo05ou27","null","","","","learningBlock1","","","","This is a tob:","null","","","","",""
"","image-keyboard-response","125","355660","0.0-6.0-1.39","LF","w1htsndwg2","1280","720","en","bo05ou27","null","","","","","","","","learning/Slide40.JPG","null","","","","",""
"","html-keyboard-response","126","356663","0.0-6.0-2.39","LF","w1htsndwg2","1280","720","en","bo05ou27","null","","","","learningBlock1","","","","<div style=""font-size:60px;""> </div>","null","LF","learning/Slide40.JPG","This is a tob:","",""
"","html-keyboard-response","127","357666","0.0-6.0-0.40","LF","w1htsndwg2","1280","720","en","bo05ou27","null","","","","learningBlock1","","","","This is a bim:","null","","","","",""
"","image-keyboard-response","128","357995","0.0-6.0-1.40","LF","w1htsndwg2","1280","720","en","bo05ou27","null","","","","","","","","learning/Slide41.JPG","null","","","","",""
"","html-keyboard-response","129","358998","0.0-6.0-2.40","LF","w1htsndwg2","1280","720","en","bo05ou27","null","","","","learningBlock1","","","","<div style=""font-size:60px;""> </div>","null","LF","learning/Slide41.JPG","This is a bim:","",""
"","html-keyboard-response","130","360000","0.0-6.0-0.41","LF","w1htsndwg2","1280","720","en","bo05ou27","null","","","","learningBlock1","","","","This is a dep:","null","","","","",""
"","image-keyboard-response","131","360327","0.0-6.0-1.41","LF","w1htsndwg2","1280","720","en","bo05ou27","null","","","","","","","","learning/Slide42.JPG","null","","","","",""
"","html-keyboard-response","132","361328","0.0-6.0-2.41","LF","w1htsndwg2","1280","720","en","bo05ou27","null","","","","learningBlock1","","","","<div style=""font-size:60px;""> </div>","null","LF","learning/Slide42.JPG","This is a dep:","",""
"","html-keyboard-response","133","362331","0.0-6.0-0.42","LF","w1htsndwg2","1280","720","en","bo05ou27","null","","","","learningBlock1","","","","This is a wug:","null","","","","",""
"","image-keyboard-response","134","362660","0.0-6.0-1.42","LF","w1htsndwg2","1280","720","en","bo05ou27","null","","","","","","","","learning/Slide43.JPG","null","","","","",""
"","html-keyboard-response","135","363663","0.0-6.0-2.42","LF","w1htsndwg2","1280","720","en","bo05ou27","null","","","","learningBlock1","","","","<div style=""font-size:60px;""> </div>","null","LF","learning/Slide43.JPG","This is a wug:","",""
"","html-keyboard-response","136","364666","0.0-6.0-0.43","LF","w1htsndwg2","1280","720","en","bo05ou27","null","","","","learningBlock1","","","","This is a bim:","null","","","","",""
"","image-keyboard-response","137","364994","0.0-6.0-1.43","LF","w1htsndwg2","1280","720","en","bo05ou27","null","","","","","","","","learning/Slide44.JPG","null","","","","",""
"","html-keyboard-response","138","365997","0.0-6.0-2.43","LF","w1htsndwg2","1280","720","en","bo05ou27","null","","","","learningBlock1","","","","<div style=""font-size:60px;""> </div>","null","LF","learning/Slide44.JPG","This is a bim:","",""
"","html-keyboard-response","139","366999","0.0-6.0-0.44","LF","w1htsndwg2","1280","720","en","bo05ou27","null","","","","learningBlock1","","","","This is a wug:","null","","","","",""
"","image-keyboard-response","140","367328","0.0-6.0-1.44","LF","w1htsndwg2","1280","720","en","bo05ou27","null","","","","","","","","learning/Slide45.JPG","null","","","","",""
"","html-keyboard-response","141","368331","0.0-6.0-2.44","LF","w1htsndwg2","1280","720","en","bo05ou27","null","","","","learningBlock1","","","","<div style=""font-size:60px;""> </div>","null","LF","learning/Slide45.JPG","This is a wug:","",""
"","html-keyboard-response","142","369334","0.0-6.0-0.45","LF","w1htsndwg2","1280","720","en","bo05ou27","null","","","","learningBlock1","","","","This is a dep:","null","","","","",""
"","image-keyboard-response","143","369661","0.0-6.0-1.45","LF","w1htsndwg2","1280","720","en","bo05ou27","null","","","","","","","","learning/Slide46.JPG","null","","","","",""
"","html-keyboard-response","144","370664","0.0-6.0-2.45","LF","w1htsndwg2","1280","720","en","bo05ou27","null","","","","learningBlock1","","","","<div style=""font-size:60px;""> </div>","null","LF","learning/Slide46.JPG","This is a dep:","",""
"","html-keyboard-response","145","371667","0.0-6.0-0.46","LF","w1htsndwg2","1280","720","en","bo05ou27","null","","","","learningBlock1","","","","This is a tob:","null","","","","",""
"","image-keyboard-response","146","371996","0.0-6.0-1.46","LF","w1htsndwg2","1280","720","en","bo05ou27","null","","","","","","","","learning/Slide47.JPG","null","","","","",""
"","html-keyboard-response","147","372999","0.0-6.0-2.46","LF","w1htsndwg2","1280","720","en","bo05ou27","null","","","","learningBlock1","","","","<div style=""font-size:60px;""> </div>","null","LF","learning/Slide47.JPG","This is a tob:","",""
"","html-keyboard-response","148","374001","0.0-6.0-0.47","LF","w1htsndwg2","1280","720","en","bo05ou27","null","","","","learningBlock1","","","","This is a bim:","null","","","","",""
"","image-keyboard-response","149","374329","0.0-6.0-1.47","LF","w1htsndwg2","1280","720","en","bo05ou27","null","","","","","","","","learning/Slide48.JPG","null","","","","",""
"","html-keyboard-response","150","375330","0.0-6.0-2.47","LF","w1htsndwg2","1280","720","en","bo05ou27","null","","","","learningBlock1","","","","<div style=""font-size:60px;""> </div>","null","LF","learning/Slide48.JPG","This is a bim:","",""
"","html-keyboard-response","151","376332","0.0-6.0-0.48","LF","w1htsndwg2","1280","720","en","bo05ou27","null","","","","learningBlock1","","","","This is a dep:","null","","","","",""
"","image-keyboard-response","152","376660","0.0-6.0-1.48","LF","w1htsndwg2","1280","720","en","bo05ou27","null","","","","","","","","learning/Slide49.JPG","null","","","","",""
"","html-keyboard-response","153","377662","0.0-6.0-2.48","LF","w1htsndwg2","1280","720","en","bo05ou27","null","","","","learningBlock1","","","","<div style=""font-size:60px;""> </div>","null","LF","learning/Slide49.JPG","This is a dep:","",""
"","html-keyboard-response","154","378665","0.0-6.0-0.49","LF","w1htsndwg2","1280","720","en","bo05ou27","null","","","","learningBlock1","","","","This is a tob:","null","","","","",""
"","image-keyboard-response","155","378993","0.0-6.0-1.49","LF","w1htsndwg2","1280","720","en","bo05ou27","null","","","","","","","","learning/Slide50.JPG","null","","","","",""
"","html-keyboard-response","156","379994","0.0-6.0-2.49","LF","w1htsndwg2","1280","720","en","bo05ou27","null","","","","learningBlock1","","","","<div style=""font-size:60px;""> </div>","null","LF","learning/Slide50.JPG","This is a tob:","",""
"","html-keyboard-response","157","381008","0.0-6.0-0.50","LF","w1htsndwg2","1280","720","en","bo05ou27","null","","","","learningBlock1","","","","This is a bim:","null","","","","",""
"","image-keyboard-response","158","381335","0.0-6.0-1.50","LF","w1htsndwg2","1280","720","en","bo05ou27","null","","","","","","","","learning/Slide51.JPG","null","","","","",""
"","html-keyboard-response","159","382337","0.0-6.0-2.50","LF","w1htsndwg2","1280","720","en","bo05ou27","null","","","","learningBlock1","","","","<div style=""font-size:60px;""> </div>","null","LF","learning/Slide51.JPG","This is a bim:","",""
"","html-keyboard-response","160","383339","0.0-6.0-0.51","LF","w1htsndwg2","1280","720","en","bo05ou27","null","","","","learningBlock1","","","","This is a wug:","null","","","","",""
"","image-keyboard-response","161","383667","0.0-6.0-1.51","LF","w1htsndwg2","1280","720","en","bo05ou27","null","","","","","","","","learning/Slide52.JPG","null","","","","",""
"","html-keyboard-response","162","384671","0.0-6.0-2.51","LF","w1htsndwg2","1280","720","en","bo05ou27","null","","","","learningBlock1","","","","<div style=""font-size:60px;""> </div>","null","LF","learning/Slide52.JPG","This is a wug:","",""
"","html-keyboard-response","163","385679","0.0-6.0-0.52","LF","w1htsndwg2","1280","720","en","bo05ou27","null","","","","learningBlock1","","","","This is a tob:","null","","","","",""
"","image-keyboard-response","164","386006","0.0-6.0-1.52","LF","w1htsndwg2","1280","720","en","bo05ou27","null","","","","","","","","learning/Slide53.JPG","null","","","","",""
"","html-keyboard-response","165","387010","0.0-6.0-2.52","LF","w1htsndwg2","1280","720","en","bo05ou27","null","","","","learningBlock1","","","","<div style=""font-size:60px;""> </div>","null","LF","learning/Slide53.JPG","This is a tob:","",""
"","html-keyboard-response","166","388015","0.0-6.0-0.53","LF","w1htsndwg2","1280","720","en","bo05ou27","null","","","","learningBlock1","","","","This is a dep:","null","","","","",""
"","image-keyboard-response","167","388345","0.0-6.0-1.53","LF","w1htsndwg2","1280","720","en","bo05ou27","null","","","","","","","","learning/Slide54.JPG","null","","","","",""
"","html-keyboard-response","168","389351","0.0-6.0-2.53","LF","w1htsndwg2","1280","720","en","bo05ou27","null","","","","learningBlock1","","","","<div style=""font-size:60px;""> </div>","null","LF","learning/Slide54.JPG","This is a dep:","",""
"","html-keyboard-response","169","390354","0.0-6.0-0.54","LF","w1htsndwg2","1280","720","en","bo05ou27","null","","","","learningBlock1","","","","This is a bim:","null","","","","",""
"","image-keyboard-response","170","390683","0.0-6.0-1.54","LF","w1htsndwg2","1280","720","en","bo05ou27","null","","","","","","","","learning/Slide55.JPG","null","","","","",""
"","html-keyboard-response","171","391687","0.0-6.0-2.54","LF","w1htsndwg2","1280","720","en","bo05ou27","null","","","","learningBlock1","","","","<div style=""font-size:60px;""> </div>","null","LF","learning/Slide55.JPG","This is a bim:","",""
"","html-keyboard-response","172","392690","0.0-6.0-0.55","LF","w1htsndwg2","1280","720","en","bo05ou27","null","","","","learningBlock1","","","","This is a tob:","null","","","","",""
"","image-keyboard-response","173","393018","0.0-6.0-1.55","LF","w1htsndwg2","1280","720","en","bo05ou27","null","","","","","","","","learning/Slide56.JPG","null","","","","",""
"","html-keyboard-response","174","394020","0.0-6.0-2.55","LF","w1htsndwg2","1280","720","en","bo05ou27","null","","","","learningBlock1","","","","<div style=""font-size:60px;""> </div>","null","LF","learning/Slide56.JPG","This is a tob:","",""
"","html-keyboard-response","175","395023","0.0-6.0-0.56","LF","w1htsndwg2","1280","720","en","bo05ou27","null","","","","learningBlock1","","","","This is a dep:","null","","","","",""
"","image-keyboard-response","176","395351","0.0-6.0-1.56","LF","w1htsndwg2","1280","720","en","bo05ou27","null","","","","","","","","learning/Slide57.JPG","null","","","","",""
"","html-keyboard-response","177","396354","0.0-6.0-2.56","LF","w1htsndwg2","1280","720","en","bo05ou27","null","","","","learningBlock1","","","","<div style=""font-size:60px;""> </div>","null","LF","learning/Slide57.JPG","This is a dep:","",""
"","html-keyboard-response","178","397356","0.0-6.0-0.57","LF","w1htsndwg2","1280","720","en","bo05ou27","null","","","","learningBlock1","","","","This is a wug:","null","","","","",""
"","image-keyboard-response","179","397683","0.0-6.0-1.57","LF","w1htsndwg2","1280","720","en","bo05ou27","null","","","","","","","","learning/Slide58.JPG","null","","","","",""
"","html-keyboard-response","180","398687","0.0-6.0-2.57","LF","w1htsndwg2","1280","720","en","bo05ou27","null","","","","learningBlock1","","","","<div style=""font-size:60px;""> </div>","null","LF","learning/Slide58.JPG","This is a wug:","",""
"","html-keyboard-response","181","399698","0.0-6.0-0.58","LF","w1htsndwg2","1280","720","en","bo05ou27","null","","","","learningBlock1","","","","This is a dep:","null","","","","",""
"","image-keyboard-response","182","400027","0.0-6.0-1.58","LF","w1htsndwg2","1280","720","en","bo05ou27","null","","","","","","","","learning/Slide59.JPG","null","","","","",""
"","html-keyboard-response","183","401029","0.0-6.0-2.58","LF","w1htsndwg2","1280","720","en","bo05ou27","null","","","","learningBlock1","","","","<div style=""font-size:60px;""> </div>","null","LF","learning/Slide59.JPG","This is a dep:","",""
"","html-keyboard-response","184","402032","0.0-6.0-0.59","LF","w1htsndwg2","1280","720","en","bo05ou27","null","","","","learningBlock1","","","","This is a wug:","null","","","","",""
"","image-keyboard-response","185","402360","0.0-6.0-1.59","LF","w1htsndwg2","1280","720","en","bo05ou27","null","","","","","","","","learning/Slide60.JPG","null","","","","",""
"","html-keyboard-response","186","403362","0.0-6.0-2.59","LF","w1htsndwg2","1280","720","en","bo05ou27","null","","","","learningBlock1","","","","<div style=""font-size:60px;""> </div>","null","LF","learning/Slide60.JPG","This is a wug:","",""
"","html-keyboard-response","187","404364","0.0-6.0-0.60","LF","w1htsndwg2","1280","720","en","bo05ou27","null","","","","learningBlock1","","","","This is a bim:","null","","","","",""
"","image-keyboard-response","188","404692","0.0-6.0-1.60","LF","w1htsndwg2","1280","720","en","bo05ou27","null","","","","","","","","learning/Slide61.JPG","null","","","","",""
"","html-keyboard-response","189","405695","0.0-6.0-2.60","LF","w1htsndwg2","1280","720","en","bo05ou27","null","","","","learningBlock1","","","","<div style=""font-size:60px;""> </div>","null","LF","learning/Slide61.JPG","This is a bim:","",""
"","html-keyboard-response","190","406698","0.0-6.0-0.61","LF","w1htsndwg2","1280","720","en","bo05ou27","null","","","","learningBlock1","","","","This is a dep:","null","","","","",""
"","image-keyboard-response","191","407026","0.0-6.0-1.61","LF","w1htsndwg2","1280","720","en","bo05ou27","null","","","","","","","","learning/Slide62.JPG","null","","","","",""
"","html-keyboard-response","192","408029","0.0-6.0-2.61","LF","w1htsndwg2","1280","720","en","bo05ou27","null","","","","learningBlock1","","","","<div style=""font-size:60px;""> </div>","null","LF","learning/Slide62.JPG","This is a dep:","",""
"","html-keyboard-response","193","409031","0.0-6.0-0.62","LF","w1htsndwg2","1280","720","en","bo05ou27","null","","","","learningBlock1","","","","This is a bim:","null","","","","",""
"","image-keyboard-response","194","409361","0.0-6.0-1.62","LF","w1htsndwg2","1280","720","en","bo05ou27","null","","","","","","","","learning/Slide63.JPG","null","","","","",""
"","html-keyboard-response","195","410363","0.0-6.0-2.62","LF","w1htsndwg2","1280","720","en","bo05ou27","null","","","","learningBlock1","","","","<div style=""font-size:60px;""> </div>","null","LF","learning/Slide63.JPG","This is a bim:","",""
"","html-keyboard-response","196","411366","0.0-6.0-0.63","LF","w1htsndwg2","1280","720","en","bo05ou27","null","","","","learningBlock1","","","","This is a tob:","null","","","","",""
"","image-keyboard-response","197","411694","0.0-6.0-1.63","LF","w1htsndwg2","1280","720","en","bo05ou27","null","","","","","","","","learning/Slide64.JPG","null","","","","",""
"","html-keyboard-response","198","412697","0.0-6.0-2.63","LF","w1htsndwg2","1280","720","en","bo05ou27","null","","","","learningBlock1","","","","<div style=""font-size:60px;""> </div>","null","LF","learning/Slide64.JPG","This is a tob:","",""
"","html-keyboard-response","199","413700","0.0-6.0-0.64","LF","w1htsndwg2","1280","720","en","bo05ou27","null","","","","learningBlock1","","","","This is a wug:","null","","","","",""
"","image-keyboard-response","200","414028","0.0-6.0-1.64","LF","w1htsndwg2","1280","720","en","bo05ou27","null","","","","","","","","learning/Slide65.JPG","null","","","","",""
"","html-keyboard-response","201","415031","0.0-6.0-2.64","LF","w1htsndwg2","1280","720","en","bo05ou27","null","","","","learningBlock1","","","","<div style=""font-size:60px;""> </div>","null","LF","learning/Slide65.JPG","This is a wug:","",""
"","html-keyboard-response","202","416033","0.0-6.0-0.65","LF","w1htsndwg2","1280","720","en","bo05ou27","null","","","","learningBlock1","","","","This is a dep:","null","","","","",""
"","image-keyboard-response","203","416361","0.0-6.0-1.65","LF","w1htsndwg2","1280","720","en","bo05ou27","null","","","","","","","","learning/Slide66.JPG","null","","","","",""
"","html-keyboard-response","204","417364","0.0-6.0-2.65","LF","w1htsndwg2","1280","720","en","bo05ou27","null","","","","learningBlock1","","","","<div style=""font-size:60px;""> </div>","null","LF","learning/Slide66.JPG","This is a dep:","",""
"","html-keyboard-response","205","418366","0.0-6.0-0.66","LF","w1htsndwg2","1280","720","en","bo05ou27","null","","","","learningBlock1","","","","This is a tob:","null","","","","",""
"","image-keyboard-response","206","418693","0.0-6.0-1.66","LF","w1htsndwg2","1280","720","en","bo05ou27","null","","","","","","","","learning/Slide67.JPG","null","","","","",""
"","html-keyboard-response","207","419695","0.0-6.0-2.66","LF","w1htsndwg2","1280","720","en","bo05ou27","null","","","","learningBlock1","","","","<div style=""font-size:60px;""> </div>","null","LF","learning/Slide67.JPG","This is a tob:","",""
"","html-keyboard-response","208","420697","0.0-6.0-0.67","LF","w1htsndwg2","1280","720","en","bo05ou27","null","","","","learningBlock1","","","","This is a wug:","null","","","","",""
"","image-keyboard-response","209","421027","0.0-6.0-1.67","LF","w1htsndwg2","1280","720","en","bo05ou27","null","","","","","","","","learning/Slide68.JPG","null","","","","",""
"","html-keyboard-response","210","422028","0.0-6.0-2.67","LF","w1htsndwg2","1280","720","en","bo05ou27","null","","","","learningBlock1","","","","<div style=""font-size:60px;""> </div>","null","LF","learning/Slide68.JPG","This is a wug:","",""
"","html-keyboard-response","211","423031","0.0-6.0-0.68","LF","w1htsndwg2","1280","720","en","bo05ou27","null","","","","learningBlock1","","","","This is a tob:","null","","","","",""
"","image-keyboard-response","212","423361","0.0-6.0-1.68","LF","w1htsndwg2","1280","720","en","bo05ou27","null","","","","","","","","learning/Slide69.JPG","null","","","","",""
"","html-keyboard-response","213","424364","0.0-6.0-2.68","LF","w1htsndwg2","1280","720","en","bo05ou27","null","","","","learningBlock1","","","","<div style=""font-size:60px;""> </div>","null","LF","learning/Slide69.JPG","This is a tob:","",""
"","html-keyboard-response","214","425366","0.0-6.0-0.69","LF","w1htsndwg2","1280","720","en","bo05ou27","null","","","","learningBlock1","","","","This is a dep:","null","","","","",""
"","image-keyboard-response","215","425694","0.0-6.0-1.69","LF","w1htsndwg2","1280","720","en","bo05ou27","null","","","","","","","","learning/Slide70.JPG","null","","","","",""
"","html-keyboard-response","216","426697","0.0-6.0-2.69","LF","w1htsndwg2","1280","720","en","bo05ou27","null","","","","learningBlock1","","","","<div style=""font-size:60px;""> </div>","null","LF","learning/Slide70.JPG","This is a dep:","",""
"","html-keyboard-response","217","427699","0.0-6.0-0.70","LF","w1htsndwg2","1280","720","en","bo05ou27","null","","","","learningBlock1","","","","This is a wug:","null","","","","",""
"","image-keyboard-response","218","428027","0.0-6.0-1.70","LF","w1htsndwg2","1280","720","en","bo05ou27","null","","","","","","","","learning/Slide71.JPG","null","","","","",""
"","html-keyboard-response","219","429029","0.0-6.0-2.70","LF","w1htsndwg2","1280","720","en","bo05ou27","null","","","","learningBlock1","","","","<div style=""font-size:60px;""> </div>","null","LF","learning/Slide71.JPG","This is a wug:","",""
"","html-keyboard-response","220","430032","0.0-6.0-0.71","LF","w1htsndwg2","1280","720","en","bo05ou27","null","","","","learningBlock1","","","","This is a bim:","null","","","","",""
"","image-keyboard-response","221","430360","0.0-6.0-1.71","LF","w1htsndwg2","1280","720","en","bo05ou27","null","","","","","","","","learning/Slide72.JPG","null","","","","",""
"","html-keyboard-response","222","431362","0.0-6.0-2.71","LF","w1htsndwg2","1280","720","en","bo05ou27","null","","","","learningBlock1","","","","<div style=""font-size:60px;""> </div>","null","LF","learning/Slide72.JPG","This is a bim:","",""
"","html-keyboard-response","223","432365","0.0-6.0-0.72","LF","w1htsndwg2","1280","720","en","bo05ou27","null","","","","learningBlock1","","","","This is a wug:","null","","","","",""
"","image-keyboard-response","224","432694","0.0-6.0-1.72","LF","w1htsndwg2","1280","720","en","bo05ou27","null","","","","","","","","learning/Slide73.JPG","null","","","","",""
"","html-keyboard-response","225","433697","0.0-6.0-2.72","LF","w1htsndwg2","1280","720","en","bo05ou27","null","","","","learningBlock1","","","","<div style=""font-size:60px;""> </div>","null","LF","learning/Slide73.JPG","This is a wug:","",""
"","html-keyboard-response","226","434700","0.0-6.0-0.73","LF","w1htsndwg2","1280","720","en","bo05ou27","null","","","","learningBlock1","","","","This is a dep:","null","","","","",""
"","image-keyboard-response","227","435027","0.0-6.0-1.73","LF","w1htsndwg2","1280","720","en","bo05ou27","null","","","","","","","","learning/Slide74.JPG","null","","","","",""
"","html-keyboard-response","228","436029","0.0-6.0-2.73","LF","w1htsndwg2","1280","720","en","bo05ou27","null","","","","learningBlock1","","","","<div style=""font-size:60px;""> </div>","null","LF","learning/Slide74.JPG","This is a dep:","",""
"","html-keyboard-response","229","437031","0.0-6.0-0.74","LF","w1htsndwg2","1280","720","en","bo05ou27","null","","","","learningBlock1","","","","This is a tob:","null","","","","",""
"","image-keyboard-response","230","437362","0.0-6.0-1.74","LF","w1htsndwg2","1280","720","en","bo05ou27","null","","","","","","","","learning/Slide75.JPG","null","","","","",""
"","html-keyboard-response","231","438365","0.0-6.0-2.74","LF","w1htsndwg2","1280","720","en","bo05ou27","null","","","","learningBlock1","","","","<div style=""font-size:60px;""> </div>","null","LF","learning/Slide75.JPG","This is a tob:","",""
"","html-keyboard-response","232","439367","0.0-6.0-0.75","LF","w1htsndwg2","1280","720","en","bo05ou27","null","","","","learningBlock1","","","","This is a bim:","null","","","","",""
"","image-keyboard-response","233","439695","0.0-6.0-1.75","LF","w1htsndwg2","1280","720","en","bo05ou27","null","","","","","","","","learning/Slide76.JPG","null","","","","",""
"","html-keyboard-response","234","440698","0.0-6.0-2.75","LF","w1htsndwg2","1280","720","en","bo05ou27","null","","","","learningBlock1","","","","<div style=""font-size:60px;""> </div>","null","LF","learning/Slide76.JPG","This is a bim:","",""
"","html-keyboard-response","235","441701","0.0-6.0-0.76","LF","w1htsndwg2","1280","720","en","bo05ou27","null","","","","learningBlock1","","","","This is a tob:","null","","","","",""
"","image-keyboard-response","236","442029","0.0-6.0-1.76","LF","w1htsndwg2","1280","720","en","bo05ou27","null","","","","","","","","learning/Slide77.JPG","null","","","","",""
"","html-keyboard-response","237","443032","0.0-6.0-2.76","LF","w1htsndwg2","1280","720","en","bo05ou27","null","","","","learningBlock1","","","","<div style=""font-size:60px;""> </div>","null","LF","learning/Slide77.JPG","This is a tob:","",""
"","html-keyboard-response","238","444034","0.0-6.0-0.77","LF","w1htsndwg2","1280","720","en","bo05ou27","null","","","","learningBlock1","","","","This is a wug:","null","","","","",""
"","image-keyboard-response","239","444362","0.0-6.0-1.77","LF","w1htsndwg2","1280","720","en","bo05ou27","null","","","","","","","","learning/Slide78.JPG","null","","","","",""
"","html-keyboard-response","240","445366","0.0-6.0-2.77","LF","w1htsndwg2","1280","720","en","bo05ou27","null","","","","learningBlock1","","","","<div style=""font-size:60px;""> </div>","null","LF","learning/Slide78.JPG","This is a wug:","",""
"","html-keyboard-response","241","446368","0.0-6.0-0.78","LF","w1htsndwg2","1280","720","en","bo05ou27","null","","","","learningBlock1","","","","This is a bim:","null","","","","",""
"","image-keyboard-response","242","446695","0.0-6.0-1.78","LF","w1htsndwg2","1280","720","en","bo05ou27","null","","","","","","","","learning/Slide79.JPG","null","","","","",""
"","html-keyboard-response","243","447697","0.0-6.0-2.78","LF","w1htsndwg2","1280","720","en","bo05ou27","null","","","","learningBlock1","","","","<div style=""font-size:60px;""> </div>","null","LF","learning/Slide79.JPG","This is a bim:","",""
"","html-keyboard-response","244","448700","0.0-6.0-0.79","LF","w1htsndwg2","1280","720","en","bo05ou27","null","","","","learningBlock1","","","","This is a tob:","null","","","","",""
"","image-keyboard-response","245","449027","0.0-6.0-1.79","LF","w1htsndwg2","1280","720","en","bo05ou27","null","","","","","","","","learning/Slide80.JPG","null","","","","",""
"","html-keyboard-response","246","450029","0.0-6.0-2.79","LF","w1htsndwg2","1280","720","en","bo05ou27","null","","","","learningBlock1","","","","<div style=""font-size:60px;""> </div>","null","LF","learning/Slide80.JPG","This is a tob:","",""
"","instructions","247","482319","0.0-7.0","LF","w1htsndwg2","1280","720","en","bo05ou27","NA","","","[{""page_index"":0,""viewing_time"":32288.50499994587}]","instructions","","","","","","","","","",""
"","html-keyboard-response","248","483322","0.0-8.0-0.0","LF","w1htsndwg2","1280","720","en","bo05ou27","null","","","","learningBlock2","","","","This is a wug:","null","","","","",""
"","image-keyboard-response","249","483651","0.0-8.0-1.0","LF","w1htsndwg2","1280","720","en","bo05ou27","null","","","","","","","","learning/Slide81.JPG","null","","","","",""
"","html-keyboard-response","250","484653","0.0-8.0-2.0","LF","w1htsndwg2","1280","720","en","bo05ou27","null","","","","learningBlock2","","","","<div style=""font-size:60px;""> </div>","null","LF","learning/Slide81.JPG","This is a wug:","",""
"","html-keyboard-response","251","485656","0.0-8.0-0.1","LF","w1htsndwg2","1280","720","en","bo05ou27","null","","","","learningBlock2","","","","This is a bim:","null","","","","",""
"","image-keyboard-response","252","485985","0.0-8.0-1.1","LF","w1htsndwg2","1280","720","en","bo05ou27","null","","","","","","","","learning/Slide82.JPG","null","","","","",""
"","html-keyboard-response","253","486987","0.0-8.0-2.1","LF","w1htsndwg2","1280","720","en","bo05ou27","null","","","","learningBlock2","","","","<div style=""font-size:60px;""> </div>","null","LF","learning/Slide82.JPG","This is a bim:","",""
"","html-keyboard-response","254","487990","0.0-8.0-0.2","LF","w1htsndwg2","1280","720","en","bo05ou27","null","","","","learningBlock2","","","","This is a wug:","null","","","","",""
"","image-keyboard-response","255","488318","0.0-8.0-1.2","LF","w1htsndwg2","1280","720","en","bo05ou27","null","","","","","","","","learning/Slide83.JPG","null","","","","",""
"","html-keyboard-response","256","489321","0.0-8.0-2.2","LF","w1htsndwg2","1280","720","en","bo05ou27","null","","","","learningBlock2","","","","<div style=""font-size:60px;""> </div>","null","LF","learning/Slide83.JPG","This is a wug:","",""
"","html-keyboard-response","257","490325","0.0-8.0-0.3","LF","w1htsndwg2","1280","720","en","bo05ou27","null","","","","learningBlock2","","","","This is a dep:","null","","","","",""
"","image-keyboard-response","258","490653","0.0-8.0-1.3","LF","w1htsndwg2","1280","720","en","bo05ou27","null","","","","","","","","learning/Slide84.JPG","null","","","","",""
"","html-keyboard-response","259","491655","0.0-8.0-2.3","LF","w1htsndwg2","1280","720","en","bo05ou27","null","","","","learningBlock2","","","","<div style=""font-size:60px;""> </div>","null","LF","learning/Slide84.JPG","This is a dep:","",""
"","html-keyboard-response","260","492657","0.0-8.0-0.4","LF","w1htsndwg2","1280","720","en","bo05ou27","null","","","","learningBlock2","","","","This is a bim:","null","","","","",""
"","image-keyboard-response","261","492986","0.0-8.0-1.4","LF","w1htsndwg2","1280","720","en","bo05ou27","null","","","","","","","","learning/Slide85.JPG","null","","","","",""
"","html-keyboard-response","262","493990","0.0-8.0-2.4","LF","w1htsndwg2","1280","720","en","bo05ou27","null","","","","learningBlock2","","","","<div style=""font-size:60px;""> </div>","null","LF","learning/Slide85.JPG","This is a bim:","",""
"","html-keyboard-response","263","494993","0.0-8.0-0.5","LF","w1htsndwg2","1280","720","en","bo05ou27","null","","","","learningBlock2","","","","This is a tob:","null","","","","",""
"","image-keyboard-response","264","495321","0.0-8.0-1.5","LF","w1htsndwg2","1280","720","en","bo05ou27","null","","","","","","","","learning/Slide86.JPG","null","","","","",""
"","html-keyboard-response","265","496324","0.0-8.0-2.5","LF","w1htsndwg2","1280","720","en","bo05ou27","null","","","","learningBlock2","","","","<div style=""font-size:60px;""> </div>","null","LF","learning/Slide86.JPG","This is a tob:","",""
"","html-keyboard-response","266","497327","0.0-8.0-0.6","LF","w1htsndwg2","1280","720","en","bo05ou27","null","","","","learningBlock2","","","","This is a wug:","null","","","","",""
"","image-keyboard-response","267","497656","0.0-8.0-1.6","LF","w1htsndwg2","1280","720","en","bo05ou27","null","","","","","","","","learning/Slide87.JPG","null","","","","",""
"","html-keyboard-response","268","498659","0.0-8.0-2.6","LF","w1htsndwg2","1280","720","en","bo05ou27","null","","","","learningBlock2","","","","<div style=""font-size:60px;""> </div>","null","LF","learning/Slide87.JPG","This is a wug:","",""
"","html-keyboard-response","269","499661","0.0-8.0-0.7","LF","w1htsndwg2","1280","720","en","bo05ou27","null","","","","learningBlock2","","","","This is a tob:","null","","","","",""
"","image-keyboard-response","270","499988","0.0-8.0-1.7","LF","w1htsndwg2","1280","720","en","bo05ou27","null","","","","","","","","learning/Slide88.JPG","null","","","","",""
"","html-keyboard-response","271","500990","0.0-8.0-2.7","LF","w1htsndwg2","1280","720","en","bo05ou27","null","","","","learningBlock2","","","","<div style=""font-size:60px;""> </div>","null","LF","learning/Slide88.JPG","This is a tob:","",""
"","html-keyboard-response","272","501992","0.0-8.0-0.8","LF","w1htsndwg2","1280","720","en","bo05ou27","null","","","","learningBlock2","","","","This is a bim:","null","","","","",""
"","image-keyboard-response","273","502320","0.0-8.0-1.8","LF","w1htsndwg2","1280","720","en","bo05ou27","null","","","","","","","","learning/Slide89.JPG","null","","","","",""
"","html-keyboard-response","274","503322","0.0-8.0-2.8","LF","w1htsndwg2","1280","720","en","bo05ou27","null","","","","learningBlock2","","","","<div style=""font-size:60px;""> </div>","null","LF","learning/Slide89.JPG","This is a bim:","",""
"","html-keyboard-response","275","504325","0.0-8.0-0.9","LF","w1htsndwg2","1280","720","en","bo05ou27","null","","","","learningBlock2","","","","This is a dep:","null","","","","",""
"","image-keyboard-response","276","504654","0.0-8.0-1.9","LF","w1htsndwg2","1280","720","en","bo05ou27","null","","","","","","","","learning/Slide90.JPG","null","","","","",""
"","html-keyboard-response","277","505657","0.0-8.0-2.9","LF","w1htsndwg2","1280","720","en","bo05ou27","null","","","","learningBlock2","","","","<div style=""font-size:60px;""> </div>","null","LF","learning/Slide90.JPG","This is a dep:","",""
"","html-keyboard-response","278","506660","0.0-8.0-0.10","LF","w1htsndwg2","1280","720","en","bo05ou27","null","","","","learningBlock2","","","","This is a wug:","null","","","","",""
"","image-keyboard-response","279","506988","0.0-8.0-1.10","LF","w1htsndwg2","1280","720","en","bo05ou27","null","","","","","","","","learning/Slide91.JPG","null","","","","",""
"","html-keyboard-response","280","507990","0.0-8.0-2.10","LF","w1htsndwg2","1280","720","en","bo05ou27","null","","","","learningBlock2","","","","<div style=""font-size:60px;""> </div>","null","LF","learning/Slide91.JPG","This is a wug:","",""
"","html-keyboard-response","281","508992","0.0-8.0-0.11","LF","w1htsndwg2","1280","720","en","bo05ou27","null","","","","learningBlock2","","","","This is a tob:","null","","","","",""
"","image-keyboard-response","282","509321","0.0-8.0-1.11","LF","w1htsndwg2","1280","720","en","bo05ou27","null","","","","","","","","learning/Slide92.JPG","null","","","","",""
"","html-keyboard-response","283","510324","0.0-8.0-2.11","LF","w1htsndwg2","1280","720","en","bo05ou27","null","","","","learningBlock2","","","","<div style=""font-size:60px;""> </div>","null","LF","learning/Slide92.JPG","This is a tob:","",""
"","html-keyboard-response","284","511327","0.0-8.0-0.12","LF","w1htsndwg2","1280","720","en","bo05ou27","null","","","","learningBlock2","","","","This is a bim:","null","","","","",""
"","image-keyboard-response","285","511656","0.0-8.0-1.12","LF","w1htsndwg2","1280","720","en","bo05ou27","null","","","","","","","","learning/Slide93.JPG","null","","","","",""
"","html-keyboard-response","286","512658","0.0-8.0-2.12","LF","w1htsndwg2","1280","720","en","bo05ou27","null","","","","learningBlock2","","","","<div style=""font-size:60px;""> </div>","null","LF","learning/Slide93.JPG","This is a bim:","",""
"","html-keyboard-response","287","513661","0.0-8.0-0.13","LF","w1htsndwg2","1280","720","en","bo05ou27","null","","","","learningBlock2","","","","This is a tob:","null","","","","",""
"","image-keyboard-response","288","513989","0.0-8.0-1.13","LF","w1htsndwg2","1280","720","en","bo05ou27","null","","","","","","","","learning/Slide94.JPG","null","","","","",""
"","html-keyboard-response","289","514992","0.0-8.0-2.13","LF","w1htsndwg2","1280","720","en","bo05ou27","null","","","","learningBlock2","","","","<div style=""font-size:60px;""> </div>","null","LF","learning/Slide94.JPG","This is a tob:","",""
"","html-keyboard-response","290","515994","0.0-8.0-0.14","LF","w1htsndwg2","1280","720","en","bo05ou27","null","","","","learningBlock2","","","","This is a wug:","null","","","","",""
"","image-keyboard-response","291","516321","0.0-8.0-1.14","LF","w1htsndwg2","1280","720","en","bo05ou27","null","","","","","","","","learning/Slide95.JPG","null","","","","",""
"","html-keyboard-response","292","517323","0.0-8.0-2.14","LF","w1htsndwg2","1280","720","en","bo05ou27","null","","","","learningBlock2","","","","<div style=""font-size:60px;""> </div>","null","LF","learning/Slide95.JPG","This is a wug:","",""
"","html-keyboard-response","293","518337","0.0-8.0-0.15","LF","w1htsndwg2","1280","720","en","bo05ou27","null","","","","learningBlock2","","","","This is a tob:","null","","","","",""
"","image-keyboard-response","294","518665","0.0-8.0-1.15","LF","w1htsndwg2","1280","720","en","bo05ou27","null","","","","","","","","learning/Slide96.JPG","null","","","","",""
"","html-keyboard-response","295","519668","0.0-8.0-2.15","LF","w1htsndwg2","1280","720","en","bo05ou27","null","","","","learningBlock2","","","","<div style=""font-size:60px;""> </div>","null","LF","learning/Slide96.JPG","This is a tob:","",""
"","html-keyboard-response","296","520670","0.0-8.0-0.16","LF","w1htsndwg2","1280","720","en","bo05ou27","null","","","","learningBlock2","","","","This is a dep:","null","","","","",""
"","image-keyboard-response","297","520998","0.0-8.0-1.16","LF","w1htsndwg2","1280","720","en","bo05ou27","null","","","","","","","","learning/Slide97.JPG","null","","","","",""
"","html-keyboard-response","298","522000","0.0-8.0-2.16","LF","w1htsndwg2","1280","720","en","bo05ou27","null","","","","learningBlock2","","","","<div style=""font-size:60px;""> </div>","null","LF","learning/Slide97.JPG","This is a dep:","",""
"","html-keyboard-response","299","523003","0.0-8.0-0.17","LF","w1htsndwg2","1280","720","en","bo05ou27","null","","","","learningBlock2","","","","This is a bim:","null","","","","",""
"","image-keyboard-response","300","523330","0.0-8.0-1.17","LF","w1htsndwg2","1280","720","en","bo05ou27","null","","","","","","","","learning/Slide98.JPG","null","","","","",""
"","html-keyboard-response","301","524333","0.0-8.0-2.17","LF","w1htsndwg2","1280","720","en","bo05ou27","null","","","","learningBlock2","","","","<div style=""font-size:60px;""> </div>","null","LF","learning/Slide98.JPG","This is a bim:","",""
"","html-keyboard-response","302","525336","0.0-8.0-0.18","LF","w1htsndwg2","1280","720","en","bo05ou27","null","","","","learningBlock2","","","","This is a dep:","null","","","","",""
"","image-keyboard-response","303","525664","0.0-8.0-1.18","LF","w1htsndwg2","1280","720","en","bo05ou27","null","","","","","","","","learning/Slide99.JPG","null","","","","",""
"","html-keyboard-response","304","526678","0.0-8.0-2.18","LF","w1htsndwg2","1280","720","en","bo05ou27","null","","","","learningBlock2","","","","<div style=""font-size:60px;""> </div>","null","LF","learning/Slide99.JPG","This is a dep:","",""
"","html-keyboard-response","305","527680","0.0-8.0-0.19","LF","w1htsndwg2","1280","720","en","bo05ou27","null","","","","learningBlock2","","","","This is a bim:","null","","","","",""
"","image-keyboard-response","306","528009","0.0-8.0-1.19","LF","w1htsndwg2","1280","720","en","bo05ou27","null","","","","","","","","learning/Slide100.JPG","null","","","","",""
"","html-keyboard-response","307","529012","0.0-8.0-2.19","LF","w1htsndwg2","1280","720","en","bo05ou27","null","","","","learningBlock2","","","","<div style=""font-size:60px;""> </div>","null","LF","learning/Slide100.JPG","This is a bim:","",""
"","html-keyboard-response","308","530014","0.0-8.0-0.20","LF","w1htsndwg2","1280","720","en","bo05ou27","null","","","","learningBlock2","","","","This is a tob:","null","","","","",""
"","image-keyboard-response","309","530341","0.0-8.0-1.20","LF","w1htsndwg2","1280","720","en","bo05ou27","null","","","","","","","","learning/Slide101.JPG","null","","","","",""
"","html-keyboard-response","310","531343","0.0-8.0-2.20","LF","w1htsndwg2","1280","720","en","bo05ou27","null","","","","learningBlock2","","","","<div style=""font-size:60px;""> </div>","null","LF","learning/Slide101.JPG","This is a tob:","",""
"","html-keyboard-response","311","532346","0.0-8.0-0.21","LF","w1htsndwg2","1280","720","en","bo05ou27","null","","","","learningBlock2","","","","This is a bim:","null","","","","",""
"","image-keyboard-response","312","532675","0.0-8.0-1.21","LF","w1htsndwg2","1280","720","en","bo05ou27","null","","","","","","","","learning/Slide102.JPG","null","","","","",""
"","html-keyboard-response","313","533677","0.0-8.0-2.21","LF","w1htsndwg2","1280","720","en","bo05ou27","null","","","","learningBlock2","","","","<div style=""font-size:60px;""> </div>","null","LF","learning/Slide102.JPG","This is a bim:","",""
"","html-keyboard-response","314","534680","0.0-8.0-0.22","LF","w1htsndwg2","1280","720","en","bo05ou27","null","","","","learningBlock2","","","","This is a dep:","null","","","","",""
"","image-keyboard-response","315","535009","0.0-8.0-1.22","LF","w1htsndwg2","1280","720","en","bo05ou27","null","","","","","","","","learning/Slide103.JPG","null","","","","",""
"","html-keyboard-response","316","536013","0.0-8.0-2.22","LF","w1htsndwg2","1280","720","en","bo05ou27","null","","","","learningBlock2","","","","<div style=""font-size:60px;""> </div>","null","LF","learning/Slide103.JPG","This is a dep:","",""
"","html-keyboard-response","317","537017","0.0-8.0-0.23","LF","w1htsndwg2","1280","720","en","bo05ou27","null","","","","learningBlock2","","","","This is a tob:","null","","","","",""
"","image-keyboard-response","318","537346","0.0-8.0-1.23","LF","w1htsndwg2","1280","720","en","bo05ou27","null","","","","","","","","learning/Slide104.JPG","null","","","","",""
"","html-keyboard-response","319","538348","0.0-8.0-2.23","LF","w1htsndwg2","1280","720","en","bo05ou27","null","","","","learningBlock2","","","","<div style=""font-size:60px;""> </div>","null","LF","learning/Slide104.JPG","This is a tob:","",""
"","html-keyboard-response","320","539352","0.0-8.0-0.24","LF","w1htsndwg2","1280","720","en","bo05ou27","null","","","","learningBlock2","","","","This is a dep:","null","","","","",""
"","image-keyboard-response","321","539680","0.0-8.0-1.24","LF","w1htsndwg2","1280","720","en","bo05ou27","null","","","","","","","","learning/Slide105.JPG","null","","","","",""
"","html-keyboard-response","322","540684","0.0-8.0-2.24","LF","w1htsndwg2","1280","720","en","bo05ou27","null","","","","learningBlock2","","","","<div style=""font-size:60px;""> </div>","null","LF","learning/Slide105.JPG","This is a dep:","",""
"","html-keyboard-response","323","541686","0.0-8.0-0.25","LF","w1htsndwg2","1280","720","en","bo05ou27","null","","","","learningBlock2","","","","This is a wug:","null","","","","",""
"","image-keyboard-response","324","542018","0.0-8.0-1.25","LF","w1htsndwg2","1280","720","en","bo05ou27","null","","","","","","","","learning/Slide106.JPG","null","","","","",""
"","html-keyboard-response","325","543021","0.0-8.0-2.25","LF","w1htsndwg2","1280","720","en","bo05ou27","null","","","","learningBlock2","","","","<div style=""font-size:60px;""> </div>","null","LF","learning/Slide106.JPG","This is a wug:","",""
"","html-keyboard-response","326","544024","0.0-8.0-0.26","LF","w1htsndwg2","1280","720","en","bo05ou27","null","","","","learningBlock2","","","","This is a bim:","null","","","","",""
"","image-keyboard-response","327","544352","0.0-8.0-1.26","LF","w1htsndwg2","1280","720","en","bo05ou27","null","","","","","","","","learning/Slide107.JPG","null","","","","",""
"","html-keyboard-response","328","545354","0.0-8.0-2.26","LF","w1htsndwg2","1280","720","en","bo05ou27","null","","","","learningBlock2","","","","<div style=""font-size:60px;""> </div>","null","LF","learning/Slide107.JPG","This is a bim:","",""
"","html-keyboard-response","329","546357","0.0-8.0-0.27","LF","w1htsndwg2","1280","720","en","bo05ou27","null","","","","learningBlock2","","","","This is a dep:","null","","","","",""
"","image-keyboard-response","330","546685","0.0-8.0-1.27","LF","w1htsndwg2","1280","720","en","bo05ou27","null","","","","","","","","learning/Slide108.JPG","null","","","","",""
"","html-keyboard-response","331","547688","0.0-8.0-2.27","LF","w1htsndwg2","1280","720","en","bo05ou27","null","","","","learningBlock2","","","","<div style=""font-size:60px;""> </div>","null","LF","learning/Slide108.JPG","This is a dep:","",""
"","html-keyboard-response","332","548691","0.0-8.0-0.28","LF","w1htsndwg2","1280","720","en","bo05ou27","null","","","","learningBlock2","","","","This is a wug:","null","","","","",""
"","image-keyboard-response","333","549018","0.0-8.0-1.28","LF","w1htsndwg2","1280","720","en","bo05ou27","null","","","","","","","","learning/Slide109.JPG","null","","","","",""
"","html-keyboard-response","334","550021","0.0-8.0-2.28","LF","w1htsndwg2","1280","720","en","bo05ou27","null","","","","learningBlock2","","","","<div style=""font-size:60px;""> </div>","null","LF","learning/Slide109.JPG","This is a wug:","",""
"","html-keyboard-response","335","551025","0.0-8.0-0.29","LF","w1htsndwg2","1280","720","en","bo05ou27","null","","","","learningBlock2","","","","This is a bim:","null","","","","",""
"","image-keyboard-response","336","551352","0.0-8.0-1.29","LF","w1htsndwg2","1280","720","en","bo05ou27","null","","","","","","","","learning/Slide110.JPG","null","","","","",""
"","html-keyboard-response","337","552353","0.0-8.0-2.29","LF","w1htsndwg2","1280","720","en","bo05ou27","null","","","","learningBlock2","","","","<div style=""font-size:60px;""> </div>","null","LF","learning/Slide110.JPG","This is a bim:","",""
"","html-keyboard-response","338","553356","0.0-8.0-0.30","LF","w1htsndwg2","1280","720","en","bo05ou27","null","","","","learningBlock2","","","","This is a tob:","null","","","","",""
"","image-keyboard-response","339","553685","0.0-8.0-1.30","LF","w1htsndwg2","1280","720","en","bo05ou27","null","","","","","","","","learning/Slide111.JPG","null","","","","",""
"","html-keyboard-response","340","554699","0.0-8.0-2.30","LF","w1htsndwg2","1280","720","en","bo05ou27","null","","","","learningBlock2","","","","<div style=""font-size:60px;""> </div>","null","LF","learning/Slide111.JPG","This is a tob:","",""
"","html-keyboard-response","341","555701","0.0-8.0-0.31","LF","w1htsndwg2","1280","720","en","bo05ou27","null","","","","learningBlock2","","","","This is a wug:","null","","","","",""
"","image-keyboard-response","342","556028","0.0-8.0-1.31","LF","w1htsndwg2","1280","720","en","bo05ou27","null","","","","","","","","learning/Slide112.JPG","null","","","","",""
"","html-keyboard-response","343","557030","0.0-8.0-2.31","LF","w1htsndwg2","1280","720","en","bo05ou27","null","","","","learningBlock2","","","","<div style=""font-size:60px;""> </div>","null","LF","learning/Slide112.JPG","This is a wug:","",""
"","html-keyboard-response","344","558033","0.0-8.0-0.32","LF","w1htsndwg2","1280","720","en","bo05ou27","null","","","","learningBlock2","","","","This is a tob:","null","","","","",""
"","image-keyboard-response","345","558361","0.0-8.0-1.32","LF","w1htsndwg2","1280","720","en","bo05ou27","null","","","","","","","","learning/Slide113.JPG","null","","","","",""
"","html-keyboard-response","346","559363","0.0-8.0-2.32","LF","w1htsndwg2","1280","720","en","bo05ou27","null","","","","learningBlock2","","","","<div style=""font-size:60px;""> </div>","null","LF","learning/Slide113.JPG","This is a tob:","",""
"","html-keyboard-response","347","560365","0.0-8.0-0.33","LF","w1htsndwg2","1280","720","en","bo05ou27","null","","","","learningBlock2","","","","This is a wug:","null","","","","",""
"","image-keyboard-response","348","560693","0.0-8.0-1.33","LF","w1htsndwg2","1280","720","en","bo05ou27","null","","","","","","","","learning/Slide114.JPG","null","","","","",""
"","html-keyboard-response","349","561696","0.0-8.0-2.33","LF","w1htsndwg2","1280","720","en","bo05ou27","null","","","","learningBlock2","","","","<div style=""font-size:60px;""> </div>","null","LF","learning/Slide114.JPG","This is a wug:","",""
"","html-keyboard-response","350","562698","0.0-8.0-0.34","LF","w1htsndwg2","1280","720","en","bo05ou27","null","","","","learningBlock2","","","","This is a bim:","null","","","","",""
"","image-keyboard-response","351","563027","0.0-8.0-1.34","LF","w1htsndwg2","1280","720","en","bo05ou27","null","","","","","","","","learning/Slide115.JPG","null","","","","",""
"","html-keyboard-response","352","564029","0.0-8.0-2.34","LF","w1htsndwg2","1280","720","en","bo05ou27","null","","","","learningBlock2","","","","<div style=""font-size:60px;""> </div>","null","LF","learning/Slide115.JPG","This is a bim:","",""
"","html-keyboard-response","353","565031","0.0-8.0-0.35","LF","w1htsndwg2","1280","720","en","bo05ou27","null","","","","learningBlock2","","","","This is a dep:","null","","","","",""
"","image-keyboard-response","354","565360","0.0-8.0-1.35","LF","w1htsndwg2","1280","720","en","bo05ou27","null","","","","","","","","learning/Slide116.JPG","null","","","","",""
"","html-keyboard-response","355","566362","0.0-8.0-2.35","LF","w1htsndwg2","1280","720","en","bo05ou27","null","","","","learningBlock2","","","","<div style=""font-size:60px;""> </div>","null","LF","learning/Slide116.JPG","This is a dep:","",""
"","html-keyboard-response","356","567364","0.0-8.0-0.36","LF","w1htsndwg2","1280","720","en","bo05ou27","null","","","","learningBlock2","","","","This is a tob:","null","","","","",""
"","image-keyboard-response","357","567694","0.0-8.0-1.36","LF","w1htsndwg2","1280","720","en","bo05ou27","null","","","","","","","","learning/Slide117.JPG","null","","","","",""
"","html-keyboard-response","358","568696","0.0-8.0-2.36","LF","w1htsndwg2","1280","720","en","bo05ou27","null","","","","learningBlock2","","","","<div style=""font-size:60px;""> </div>","null","LF","learning/Slide117.JPG","This is a tob:","",""
"","html-keyboard-response","359","569699","0.0-8.0-0.37","LF","w1htsndwg2","1280","720","en","bo05ou27","null","","","","learningBlock2","","","","This is a dep:","null","","","","",""
"","image-keyboard-response","360","570028","0.0-8.0-1.37","LF","w1htsndwg2","1280","720","en","bo05ou27","null","","","","","","","","learning/Slide118.JPG","null","","","","",""
"","html-keyboard-response","361","571031","0.0-8.0-2.37","LF","w1htsndwg2","1280","720","en","bo05ou27","null","","","","learningBlock2","","","","<div style=""font-size:60px;""> </div>","null","LF","learning/Slide118.JPG","This is a dep:","",""
"","html-keyboard-response","362","572034","0.0-8.0-0.38","LF","w1htsndwg2","1280","720","en","bo05ou27","null","","","","learningBlock2","","","","This is a wug:","null","","","","",""
"","image-keyboard-response","363","572362","0.0-8.0-1.38","LF","w1htsndwg2","1280","720","en","bo05ou27","null","","","","","","","","learning/Slide119.JPG","null","","","","",""
"","html-keyboard-response","364","573364","0.0-8.0-2.38","LF","w1htsndwg2","1280","720","en","bo05ou27","null","","","","learningBlock2","","","","<div style=""font-size:60px;""> </div>","null","LF","learning/Slide119.JPG","This is a wug:","",""
"","html-keyboard-response","365","574367","0.0-8.0-0.39","LF","w1htsndwg2","1280","720","en","bo05ou27","null","","","","learningBlock2","","","","This is a dep:","null","","","","",""
"","image-keyboard-response","366","574695","0.0-8.0-1.39","LF","w1htsndwg2","1280","720","en","bo05ou27","null","","","","","","","","learning/Slide120.JPG","null","","","","",""
"","html-keyboard-response","367","575698","0.0-8.0-2.39","LF","w1htsndwg2","1280","720","en","bo05ou27","null","","","","learningBlock2","","","","<div style=""font-size:60px;""> </div>","null","LF","learning/Slide120.JPG","This is a dep:","",""
"","html-keyboard-response","368","576701","0.0-8.0-0.40","LF","w1htsndwg2","1280","720","en","bo05ou27","null","","","","learningBlock2","","","","This is a bim:","null","","","","",""
"","image-keyboard-response","369","577030","0.0-8.0-1.40","LF","w1htsndwg2","1280","720","en","bo05ou27","null","","","","","","","","learning/Slide121.JPG","null","","","","",""
"","html-keyboard-response","370","578032","0.0-8.0-2.40","LF","w1htsndwg2","1280","720","en","bo05ou27","null","","","","learningBlock2","","","","<div style=""font-size:60px;""> </div>","null","LF","learning/Slide121.JPG","This is a bim:","",""
"","html-keyboard-response","371","579034","0.0-8.0-0.41","LF","w1htsndwg2","1280","720","en","bo05ou27","null","","","","learningBlock2","","","","This is a wug:","null","","","","",""
"","image-keyboard-response","372","579363","0.0-8.0-1.41","LF","w1htsndwg2","1280","720","en","bo05ou27","null","","","","","","","","learning/Slide122.JPG","null","","","","",""
"","html-keyboard-response","373","580364","0.0-8.0-2.41","LF","w1htsndwg2","1280","720","en","bo05ou27","null","","","","learningBlock2","","","","<div style=""font-size:60px;""> </div>","null","LF","learning/Slide122.JPG","This is a wug:","",""
"","html-keyboard-response","374","581367","0.0-8.0-0.42","LF","w1htsndwg2","1280","720","en","bo05ou27","null","","","","learningBlock2","","","","This is a bim:","null","","","","",""
"","image-keyboard-response","375","581695","0.0-8.0-1.42","LF","w1htsndwg2","1280","720","en","bo05ou27","null","","","","","","","","learning/Slide123.JPG","null","","","","",""
"","html-keyboard-response","376","582697","0.0-8.0-2.42","LF","w1htsndwg2","1280","720","en","bo05ou27","null","","","","learningBlock2","","","","<div style=""font-size:60px;""> </div>","null","LF","learning/Slide123.JPG","This is a bim:","",""
"","html-keyboard-response","377","583700","0.0-8.0-0.43","LF","w1htsndwg2","1280","720","en","bo05ou27","null","","","","learningBlock2","","","","This is a tob:","null","","","","",""
"","image-keyboard-response","378","584028","0.0-8.0-1.43","LF","w1htsndwg2","1280","720","en","bo05ou27","null","","","","","","","","learning/Slide124.JPG","null","","","","",""
"","html-keyboard-response","379","585030","0.0-8.0-2.43","LF","w1htsndwg2","1280","720","en","bo05ou27","null","","","","learningBlock2","","","","<div style=""font-size:60px;""> </div>","null","LF","learning/Slide124.JPG","This is a tob:","",""
"","html-keyboard-response","380","586032","0.0-8.0-0.44","LF","w1htsndwg2","1280","720","en","bo05ou27","null","","","","learningBlock2","","","","This is a bim:","null","","","","",""
"","image-keyboard-response","381","586361","0.0-8.0-1.44","LF","w1htsndwg2","1280","720","en","bo05ou27","null","","","","","","","","learning/Slide125.JPG","null","","","","",""
"","html-keyboard-response","382","587363","0.0-8.0-2.44","LF","w1htsndwg2","1280","720","en","bo05ou27","null","","","","learningBlock2","","","","<div style=""font-size:60px;""> </div>","null","LF","learning/Slide125.JPG","This is a bim:","",""
"","html-keyboard-response","383","588366","0.0-8.0-0.45","LF","w1htsndwg2","1280","720","en","bo05ou27","null","","","","learningBlock2","","","","This is a tob:","null","","","","",""
"","image-keyboard-response","384","588694","0.0-8.0-1.45","LF","w1htsndwg2","1280","720","en","bo05ou27","null","","","","","","","","learning/Slide126.JPG","null","","","","",""
"","html-keyboard-response","385","589697","0.0-8.0-2.45","LF","w1htsndwg2","1280","720","en","bo05ou27","null","","","","learningBlock2","","","","<div style=""font-size:60px;""> </div>","null","LF","learning/Slide126.JPG","This is a tob:","",""
"","html-keyboard-response","386","590699","0.0-8.0-0.46","LF","w1htsndwg2","1280","720","en","bo05ou27","null","","","","learningBlock2","","","","This is a dep:","null","","","","",""
"","image-keyboard-response","387","591027","0.0-8.0-1.46","LF","w1htsndwg2","1280","720","en","bo05ou27","null","","","","","","","","learning/Slide127.JPG","null","","","","",""
"","html-keyboard-response","388","592029","0.0-8.0-2.46","LF","w1htsndwg2","1280","720","en","bo05ou27","null","","","","learningBlock2","","","","<div style=""font-size:60px;""> </div>","null","LF","learning/Slide127.JPG","This is a dep:","",""
"","html-keyboard-response","389","593031","0.0-8.0-0.47","LF","w1htsndwg2","1280","720","en","bo05ou27","null","","","","learningBlock2","","","","This is a wug:","null","","","","",""
"","image-keyboard-response","390","593360","0.0-8.0-1.47","LF","w1htsndwg2","1280","720","en","bo05ou27","null","","","","","","","","learning/Slide128.JPG","null","","","","",""
"","html-keyboard-response","391","594361","0.0-8.0-2.47","LF","w1htsndwg2","1280","720","en","bo05ou27","null","","","","learningBlock2","","","","<div style=""font-size:60px;""> </div>","null","LF","learning/Slide128.JPG","This is a wug:","",""
"","html-keyboard-response","392","595364","0.0-8.0-0.48","LF","w1htsndwg2","1280","720","en","bo05ou27","null","","","","learningBlock2","","","","This is a tob:","null","","","","",""
"","image-keyboard-response","393","595693","0.0-8.0-1.48","LF","w1htsndwg2","1280","720","en","bo05ou27","null","","","","","","","","learning/Slide129.JPG","null","","","","",""
"","html-keyboard-response","394","596697","0.0-8.0-2.48","LF","w1htsndwg2","1280","720","en","bo05ou27","null","","","","learningBlock2","","","","<div style=""font-size:60px;""> </div>","null","LF","learning/Slide129.JPG","This is a tob:","",""
"","html-keyboard-response","395","597700","0.0-8.0-0.49","LF","w1htsndwg2","1280","720","en","bo05ou27","null","","","","learningBlock2","","","","This is a wug:","null","","","","",""
"","image-keyboard-response","396","598028","0.0-8.0-1.49","LF","w1htsndwg2","1280","720","en","bo05ou27","null","","","","","","","","learning/Slide130.JPG","null","","","","",""
"","html-keyboard-response","397","599030","0.0-8.0-2.49","LF","w1htsndwg2","1280","720","en","bo05ou27","null","","","","learningBlock2","","","","<div style=""font-size:60px;""> </div>","null","LF","learning/Slide130.JPG","This is a wug:","",""
"","html-keyboard-response","398","600031","0.0-8.0-0.50","LF","w1htsndwg2","1280","720","en","bo05ou27","null","","","","learningBlock2","","","","This is a bim:","null","","","","",""
"","image-keyboard-response","399","600360","0.0-8.0-1.50","LF","w1htsndwg2","1280","720","en","bo05ou27","null","","","","","","","","learning/Slide131.JPG","null","","","","",""
"","html-keyboard-response","400","601362","0.0-8.0-2.50","LF","w1htsndwg2","1280","720","en","bo05ou27","null","","","","learningBlock2","","","","<div style=""font-size:60px;""> </div>","null","LF","learning/Slide131.JPG","This is a bim:","",""
"","html-keyboard-response","401","602365","0.0-8.0-0.51","LF","w1htsndwg2","1280","720","en","bo05ou27","null","","","","learningBlock2","","","","This is a dep:","null","","","","",""
"","image-keyboard-response","402","602694","0.0-8.0-1.51","LF","w1htsndwg2","1280","720","en","bo05ou27","null","","","","","","","","learning/Slide132.JPG","null","","","","",""
"","html-keyboard-response","403","603697","0.0-8.0-2.51","LF","w1htsndwg2","1280","720","en","bo05ou27","null","","","","learningBlock2","","","","<div style=""font-size:60px;""> </div>","null","LF","learning/Slide132.JPG","This is a dep:","",""
"","html-keyboard-response","404","604703","0.0-8.0-0.52","LF","w1htsndwg2","1280","720","en","bo05ou27","null","","","","learningBlock2","","","","This is a tob:","null","","","","",""
"","image-keyboard-response","405","605031","0.0-8.0-1.52","LF","w1htsndwg2","1280","720","en","bo05ou27","null","","","","","","","","learning/Slide133.JPG","null","","","","",""
"","html-keyboard-response","406","606033","0.0-8.0-2.52","LF","w1htsndwg2","1280","720","en","bo05ou27","null","","","","learningBlock2","","","","<div style=""font-size:60px;""> </div>","null","LF","learning/Slide133.JPG","This is a tob:","",""
"","html-keyboard-response","407","607036","0.0-8.0-0.53","LF","w1htsndwg2","1280","720","en","bo05ou27","null","","","","learningBlock2","","","","This is a dep:","null","","","","",""
"","image-keyboard-response","408","607364","0.0-8.0-1.53","LF","w1htsndwg2","1280","720","en","bo05ou27","null","","","","","","","","learning/Slide134.JPG","null","","","","",""
"","html-keyboard-response","409","608366","0.0-8.0-2.53","LF","w1htsndwg2","1280","720","en","bo05ou27","null","","","","learningBlock2","","","","<div style=""font-size:60px;""> </div>","null","LF","learning/Slide134.JPG","This is a dep:","",""
"","html-keyboard-response","410","609369","0.0-8.0-0.54","LF","w1htsndwg2","1280","720","en","bo05ou27","null","","","","learningBlock2","","","","This is a tob:","null","","","","",""
"","image-keyboard-response","411","609697","0.0-8.0-1.54","LF","w1htsndwg2","1280","720","en","bo05ou27","null","","","","","","","","learning/Slide135.JPG","null","","","","",""
"","html-keyboard-response","412","610699","0.0-8.0-2.54","LF","w1htsndwg2","1280","720","en","bo05ou27","null","","","","learningBlock2","","","","<div style=""font-size:60px;""> </div>","null","LF","learning/Slide135.JPG","This is a tob:","",""
"","html-keyboard-response","413","611702","0.0-8.0-0.55","LF","w1htsndwg2","1280","720","en","bo05ou27","null","","","","learningBlock2","","","","This is a wug:","null","","","","",""
"","image-keyboard-response","414","612029","0.0-8.0-1.55","LF","w1htsndwg2","1280","720","en","bo05ou27","null","","","","","","","","learning/Slide136.JPG","null","","","","",""
"","html-keyboard-response","415","613031","0.0-8.0-2.55","LF","w1htsndwg2","1280","720","en","bo05ou27","null","","","","learningBlock2","","","","<div style=""font-size:60px;""> </div>","null","LF","learning/Slide136.JPG","This is a wug:","",""
"","html-keyboard-response","416","614033","0.0-8.0-0.56","LF","w1htsndwg2","1280","720","en","bo05ou27","null","","","","learningBlock2","","","","This is a tob:","null","","","","",""
"","image-keyboard-response","417","614361","0.0-8.0-1.56","LF","w1htsndwg2","1280","720","en","bo05ou27","null","","","","","","","","learning/Slide137.JPG","null","","","","",""
"","html-keyboard-response","418","615364","0.0-8.0-2.56","LF","w1htsndwg2","1280","720","en","bo05ou27","null","","","","learningBlock2","","","","<div style=""font-size:60px;""> </div>","null","LF","learning/Slide137.JPG","This is a tob:","",""
"","html-keyboard-response","419","616367","0.0-8.0-0.57","LF","w1htsndwg2","1280","720","en","bo05ou27","null","","","","learningBlock2","","","","This is a bim:","null","","","","",""
"","image-keyboard-response","420","616695","0.0-8.0-1.57","LF","w1htsndwg2","1280","720","en","bo05ou27","null","","","","","","","","learning/Slide138.JPG","null","","","","",""
"","html-keyboard-response","421","617699","0.0-8.0-2.57","LF","w1htsndwg2","1280","720","en","bo05ou27","null","","","","learningBlock2","","","","<div style=""font-size:60px;""> </div>","null","LF","learning/Slide138.JPG","This is a bim:","",""
"","html-keyboard-response","422","618702","0.0-8.0-0.58","LF","w1htsndwg2","1280","720","en","bo05ou27","null","","","","learningBlock2","","","","This is a wug:","null","","","","",""
"","image-keyboard-response","423","619030","0.0-8.0-1.58","LF","w1htsndwg2","1280","720","en","bo05ou27","null","","","","","","","","learning/Slide139.JPG","null","","","","",""
"","html-keyboard-response","424","620032","0.0-8.0-2.58","LF","w1htsndwg2","1280","720","en","bo05ou27","null","","","","learningBlock2","","","","<div style=""font-size:60px;""> </div>","null","LF","learning/Slide139.JPG","This is a wug:","",""
"","html-keyboard-response","425","621035","0.0-8.0-0.59","LF","w1htsndwg2","1280","720","en","bo05ou27","null","","","","learningBlock2","","","","This is a dep:","null","","","","",""
"","image-keyboard-response","426","621363","0.0-8.0-1.59","LF","w1htsndwg2","1280","720","en","bo05ou27","null","","","","","","","","learning/Slide140.JPG","null","","","","",""
"","html-keyboard-response","427","622378","0.0-8.0-2.59","LF","w1htsndwg2","1280","720","en","bo05ou27","null","","","","learningBlock2","","","","<div style=""font-size:60px;""> </div>","null","LF","learning/Slide140.JPG","This is a dep:","",""
"","html-keyboard-response","428","623381","0.0-8.0-0.60","LF","w1htsndwg2","1280","720","en","bo05ou27","null","","","","learningBlock2","","","","This is a tob:","null","","","","",""
"","image-keyboard-response","429","623708","0.0-8.0-1.60","LF","w1htsndwg2","1280","720","en","bo05ou27","null","","","","","","","","learning/Slide141.JPG","null","","","","",""
"","html-keyboard-response","430","624711","0.0-8.0-2.60","LF","w1htsndwg2","1280","720","en","bo05ou27","null","","","","learningBlock2","","","","<div style=""font-size:60px;""> </div>","null","LF","learning/Slide141.JPG","This is a tob:","",""
"","html-keyboard-response","431","625714","0.0-8.0-0.61","LF","w1htsndwg2","1280","720","en","bo05ou27","null","","","","learningBlock2","","","","This is a wug:","null","","","","",""
"","image-keyboard-response","432","626042","0.0-8.0-1.61","LF","w1htsndwg2","1280","720","en","bo05ou27","null","","","","","","","","learning/Slide142.JPG","null","","","","",""
"","html-keyboard-response","433","627045","0.0-8.0-2.61","LF","w1htsndwg2","1280","720","en","bo05ou27","null","","","","learningBlock2","","","","<div style=""font-size:60px;""> </div>","null","LF","learning/Slide142.JPG","This is a wug:","",""
"","html-keyboard-response","434","628048","0.0-8.0-0.62","LF","w1htsndwg2","1280","720","en","bo05ou27","null","","","","learningBlock2","","","","This is a bim:","null","","","","",""
"","image-keyboard-response","435","628376","0.0-8.0-1.62","LF","w1htsndwg2","1280","720","en","bo05ou27","null","","","","","","","","learning/Slide143.JPG","null","","","","",""
"","html-keyboard-response","436","629378","0.0-8.0-2.62","LF","w1htsndwg2","1280","720","en","bo05ou27","null","","","","learningBlock2","","","","<div style=""font-size:60px;""> </div>","null","LF","learning/Slide143.JPG","This is a bim:","",""
"","html-keyboard-response","437","630381","0.0-8.0-0.63","LF","w1htsndwg2","1280","720","en","bo05ou27","null","","","","learningBlock2","","","","This is a dep:","null","","","","",""
"","image-keyboard-response","438","630709","0.0-8.0-1.63","LF","w1htsndwg2","1280","720","en","bo05ou27","null","","","","","","","","learning/Slide144.JPG","null","","","","",""
"","html-keyboard-response","439","631713","0.0-8.0-2.63","LF","w1htsndwg2","1280","720","en","bo05ou27","null","","","","learningBlock2","","","","<div style=""font-size:60px;""> </div>","null","LF","learning/Slide144.JPG","This is a dep:","",""
"","html-keyboard-response","440","632718","0.0-8.0-0.64","LF","w1htsndwg2","1280","720","en","bo05ou27","null","","","","learningBlock2","","","","This is a bim:","null","","","","",""
"","image-keyboard-response","441","633046","0.0-8.0-1.64","LF","w1htsndwg2","1280","720","en","bo05ou27","null","","","","","","","","learning/Slide145.JPG","null","","","","",""
"","html-keyboard-response","442","634050","0.0-8.0-2.64","LF","w1htsndwg2","1280","720","en","bo05ou27","null","","","","learningBlock2","","","","<div style=""font-size:60px;""> </div>","null","LF","learning/Slide145.JPG","This is a bim:","",""
"","html-keyboard-response","443","635053","0.0-8.0-0.65","LF","w1htsndwg2","1280","720","en","bo05ou27","null","","","","learningBlock2","","","","This is a tob:","null","","","","",""
"","image-keyboard-response","444","635381","0.0-8.0-1.65","LF","w1htsndwg2","1280","720","en","bo05ou27","null","","","","","","","","learning/Slide146.JPG","null","","","","",""
"","html-keyboard-response","445","636384","0.0-8.0-2.65","LF","w1htsndwg2","1280","720","en","bo05ou27","null","","","","learningBlock2","","","","<div style=""font-size:60px;""> </div>","null","LF","learning/Slide146.JPG","This is a tob:","",""
"","html-keyboard-response","446","637388","0.0-8.0-0.66","LF","w1htsndwg2","1280","720","en","bo05ou27","null","","","","learningBlock2","","","","This is a wug:","null","","","","",""
"","image-keyboard-response","447","637717","0.0-8.0-1.66","LF","w1htsndwg2","1280","720","en","bo05ou27","null","","","","","","","","learning/Slide147.JPG","null","","","","",""
"","html-keyboard-response","448","638720","0.0-8.0-2.66","LF","w1htsndwg2","1280","720","en","bo05ou27","null","","","","learningBlock2","","","","<div style=""font-size:60px;""> </div>","null","LF","learning/Slide147.JPG","This is a wug:","",""
"","html-keyboard-response","449","639723","0.0-8.0-0.67","LF","w1htsndwg2","1280","720","en","bo05ou27","null","","","","learningBlock2","","","","This is a bim:","null","","","","",""
"","image-keyboard-response","450","640051","0.0-8.0-1.67","LF","w1htsndwg2","1280","720","en","bo05ou27","null","","","","","","","","learning/Slide148.JPG","null","","","","",""
"","html-keyboard-response","451","641054","0.0-8.0-2.67","LF","w1htsndwg2","1280","720","en","bo05ou27","null","","","","learningBlock2","","","","<div style=""font-size:60px;""> </div>","null","LF","learning/Slide148.JPG","This is a bim:","",""
"","html-keyboard-response","452","642057","0.0-8.0-0.68","LF","w1htsndwg2","1280","720","en","bo05ou27","null","","","","learningBlock2","","","","This is a dep:","null","","","","",""
"","image-keyboard-response","453","642386","0.0-8.0-1.68","LF","w1htsndwg2","1280","720","en","bo05ou27","null","","","","","","","","learning/Slide149.JPG","null","","","","",""
"","html-keyboard-response","454","643389","0.0-8.0-2.68","LF","w1htsndwg2","1280","720","en","bo05ou27","null","","","","learningBlock2","","","","<div style=""font-size:60px;""> </div>","null","LF","learning/Slide149.JPG","This is a dep:","",""
"","html-keyboard-response","455","644391","0.0-8.0-0.69","LF","w1htsndwg2","1280","720","en","bo05ou27","null","","","","learningBlock2","","","","This is a wug:","null","","","","",""
"","image-keyboard-response","456","644720","0.0-8.0-1.69","LF","w1htsndwg2","1280","720","en","bo05ou27","null","","","","","","","","learning/Slide150.JPG","null","","","","",""
"","html-keyboard-response","457","645723","0.0-8.0-2.69","LF","w1htsndwg2","1280","720","en","bo05ou27","null","","","","learningBlock2","","","","<div style=""font-size:60px;""> </div>","null","LF","learning/Slide150.JPG","This is a wug:","",""
"","html-keyboard-response","458","646726","0.0-8.0-0.70","LF","w1htsndwg2","1280","720","en","bo05ou27","null","","","","learningBlock2","","","","This is a dep:","null","","","","",""
"","image-keyboard-response","459","647053","0.0-8.0-1.70","LF","w1htsndwg2","1280","720","en","bo05ou27","null","","","","","","","","learning/Slide151.JPG","null","","","","",""
"","html-keyboard-response","460","648056","0.0-8.0-2.70","LF","w1htsndwg2","1280","720","en","bo05ou27","null","","","","learningBlock2","","","","<div style=""font-size:60px;""> </div>","null","LF","learning/Slide151.JPG","This is a dep:","",""
"","html-keyboard-response","461","649058","0.0-8.0-0.71","LF","w1htsndwg2","1280","720","en","bo05ou27","null","","","","learningBlock2","","","","This is a wug:","null","","","","",""
"","image-keyboard-response","462","649385","0.0-8.0-1.71","LF","w1htsndwg2","1280","720","en","bo05ou27","null","","","","","","","","learning/Slide152.JPG","null","","","","",""
"","html-keyboard-response","463","650386","0.0-8.0-2.71","LF","w1htsndwg2","1280","720","en","bo05ou27","null","","","","learningBlock2","","","","<div style=""font-size:60px;""> </div>","null","LF","learning/Slide152.JPG","This is a wug:","",""
"","html-keyboard-response","464","651388","0.0-8.0-0.72","LF","w1htsndwg2","1280","720","en","bo05ou27","null","","","","learningBlock2","","","","This is a bim:","null","","","","",""
"","image-keyboard-response","465","651716","0.0-8.0-1.72","LF","w1htsndwg2","1280","720","en","bo05ou27","null","","","","","","","","learning/Slide153.JPG","null","","","","",""
"","html-keyboard-response","466","652720","0.0-8.0-2.72","LF","w1htsndwg2","1280","720","en","bo05ou27","null","","","","learningBlock2","","","","<div style=""font-size:60px;""> </div>","null","LF","learning/Slide153.JPG","This is a bim:","",""
"","html-keyboard-response","467","653723","0.0-8.0-0.73","LF","w1htsndwg2","1280","720","en","bo05ou27","null","","","","learningBlock2","","","","This is a tob:","null","","","","",""
"","image-keyboard-response","468","654051","0.0-8.0-1.73","LF","w1htsndwg2","1280","720","en","bo05ou27","null","","","","","","","","learning/Slide154.JPG","null","","","","",""
"","html-keyboard-response","469","655054","0.0-8.0-2.73","LF","w1htsndwg2","1280","720","en","bo05ou27","null","","","","learningBlock2","","","","<div style=""font-size:60px;""> </div>","null","LF","learning/Slide154.JPG","This is a tob:","",""
"","html-keyboard-response","470","656056","0.0-8.0-0.74","LF","w1htsndwg2","1280","720","en","bo05ou27","null","","","","learningBlock2","","","","This is a dep:","null","","","","",""
"","image-keyboard-response","471","656384","0.0-8.0-1.74","LF","w1htsndwg2","1280","720","en","bo05ou27","null","","","","","","","","learning/Slide155.JPG","null","","","","",""
"","html-keyboard-response","472","657387","0.0-8.0-2.74","LF","w1htsndwg2","1280","720","en","bo05ou27","null","","","","learningBlock2","","","","<div style=""font-size:60px;""> </div>","null","LF","learning/Slide155.JPG","This is a dep:","",""
"","html-keyboard-response","473","658389","0.0-8.0-0.75","LF","w1htsndwg2","1280","720","en","bo05ou27","null","","","","learningBlock2","","","","This is a bim:","null","","","","",""
"","image-keyboard-response","474","658717","0.0-8.0-1.75","LF","w1htsndwg2","1280","720","en","bo05ou27","null","","","","","","","","learning/Slide156.JPG","null","","","","",""
"","html-keyboard-response","475","659721","0.0-8.0-2.75","LF","w1htsndwg2","1280","720","en","bo05ou27","null","","","","learningBlock2","","","","<div style=""font-size:60px;""> </div>","null","LF","learning/Slide156.JPG","This is a bim:","",""
"","html-keyboard-response","476","660723","0.0-8.0-0.76","LF","w1htsndwg2","1280","720","en","bo05ou27","null","","","","learningBlock2","","","","This is a dep:","null","","","","",""
"","image-keyboard-response","477","661050","0.0-8.0-1.76","LF","w1htsndwg2","1280","720","en","bo05ou27","null","","","","","","","","learning/Slide157.JPG","null","","","","",""
"","html-keyboard-response","478","662053","0.0-8.0-2.76","LF","w1htsndwg2","1280","720","en","bo05ou27","null","","","","learningBlock2","","","","<div style=""font-size:60px;""> </div>","null","LF","learning/Slide157.JPG","This is a dep:","",""
"","html-keyboard-response","479","663056","0.0-8.0-0.77","LF","w1htsndwg2","1280","720","en","bo05ou27","null","","","","learningBlock2","","","","This is a tob:","null","","","","",""
"","image-keyboard-response","480","663384","0.0-8.0-1.77","LF","w1htsndwg2","1280","720","en","bo05ou27","null","","","","","","","","learning/Slide158.JPG","null","","","","",""
"","html-keyboard-response","481","664386","0.0-8.0-2.77","LF","w1htsndwg2","1280","720","en","bo05ou27","null","","","","learningBlock2","","","","<div style=""font-size:60px;""> </div>","null","LF","learning/Slide158.JPG","This is a tob:","",""
"","html-keyboard-response","482","665387","0.0-8.0-0.78","LF","w1htsndwg2","1280","720","en","bo05ou27","null","","","","learningBlock2","","","","This is a dep:","null","","","","",""
"","image-keyboard-response","483","665716","0.0-8.0-1.78","LF","w1htsndwg2","1280","720","en","bo05ou27","null","","","","","","","","learning/Slide159.JPG","null","","","","",""
"","html-keyboard-response","484","666720","0.0-8.0-2.78","LF","w1htsndwg2","1280","720","en","bo05ou27","null","","","","learningBlock2","","","","<div style=""font-size:60px;""> </div>","null","LF","learning/Slide159.JPG","This is a dep:","",""
"","html-keyboard-response","485","667722","0.0-8.0-0.79","LF","w1htsndwg2","1280","720","en","bo05ou27","null","","","","learningBlock2","","","","This is a wug:","null","","","","",""
"","image-keyboard-response","486","668051","0.0-8.0-1.79","LF","w1htsndwg2","1280","720","en","bo05ou27","null","","","","","","","","learning/Slide160.JPG","null","","","","",""
"","html-keyboard-response","487","669054","0.0-8.0-2.79","LF","w1htsndwg2","1280","720","en","bo05ou27","null","","","","learningBlock2","","","","<div style=""font-size:60px;""> </div>","null","LF","learning/Slide160.JPG","This is a wug:","",""
"","resize2","488","674718","0.0-9.0","LF","w1htsndwg2","1280","720","en","bo05ou27","","","","","","","104","1.04","","","","","","",""
"","instructions","489","688431","0.0-10.0","LF","w1htsndwg2","1280","720","en","bo05ou27","NA","","","[{""page_index"":0,""viewing_time"":13711.629999917932}]","instructions","","","","","","","","","",""
