"success","trial_type","trial_index","time_elapsed","internal_node_id","condition","subject","screen_width","screen_height","language","codeword","rt","responses","url","view_history","test_part","final_height_px","final_width_px","scale_factor","stimulus","key_press","learningType","presentedImage","presentedLabel","button_pressed","response"
"true","fullscreen","0","6030","0.0-0.0","FL","1nbemfkd3a","1536","864","de","KE05KO08","","","","","","","","","","","","","","",""
"","survey-html-form","1","19100","0.0-1.0","FL","1nbemfkd3a","1536","864","de","KE05KO08","13060.244999825954","{""language"":""de""}","","","","","","","","","","","","",""
"","external-html","2","80102","0.0-2.0-0.0","FL","1nbemfkd3a","1536","864","de","KE05KO08","60867.935000220314","","text/information.html","","","","","","","","","","","",""
"","external-html","3","91724","0.0-2.0-1.0","FL","1nbemfkd3a","1536","864","de","KE05KO08","11408.850000007078","","text/consent.html","","","","","","","","","","","",""
"","survey-html-form","4","175105","0.0-2.0-2.0","FL","1nbemfkd3a","1536","864","de","KE05KO08","83375.99000008777","{""codeword_enter"":""KE05KO08""}","","","","","","","","","","","","",""
"","instructions","5","206203","0.0-4.0","FL","1nbemfkd3a","1536","864","de","KE05KO08","NA","","","[{""page_index"":0,""viewing_time"":4569.134999997914},{""page_index"":1,""viewing_time"":25017.035000026226}]","instructions","","","","","","","","","",""
"","resize","6","313807","0.0-5.0","FL","1nbemfkd3a","1536","864","de","KE05KO08","","","","","","","426","2.7047619047619045","","","","","","",""
"","image-keyboard-response","7","313995","0.0-6.0-0.0","FL","1nbemfkd3a","1536","864","de","KE05KO08","null","","","","","","","","learning/Slide1.JPG","null","","","","",""
"","html-keyboard-response","8","315153","0.0-6.0-1.0","FL","1nbemfkd3a","1536","864","de","KE05KO08","null","","","","learningBlock1","","","","That was a tob.","null","","","","",""
"","html-keyboard-response","9","316158","0.0-6.0-2.0","FL","1nbemfkd3a","1536","864","de","KE05KO08","null","","","","learningBlock1","","","","<div style=""font-size:60px;""> </div>","null","FL","learning/Slide1.JPG","That was a tob.","",""
"","image-keyboard-response","10","316342","0.0-6.0-0.1","FL","1nbemfkd3a","1536","864","de","KE05KO08","null","","","","","","","","learning/Slide2.JPG","null","","","","",""
"","html-keyboard-response","11","317500","0.0-6.0-1.1","FL","1nbemfkd3a","1536","864","de","KE05KO08","null","","","","learningBlock1","","","","That was a wug.","null","","","","",""
"","html-keyboard-response","12","318504","0.0-6.0-2.1","FL","1nbemfkd3a","1536","864","de","KE05KO08","null","","","","learningBlock1","","","","<div style=""font-size:60px;""> </div>","null","FL","learning/Slide2.JPG","That was a wug.","",""
"","image-keyboard-response","13","318688","0.0-6.0-0.2","FL","1nbemfkd3a","1536","864","de","KE05KO08","null","","","","","","","","learning/Slide3.JPG","null","","","","",""
"","html-keyboard-response","14","319847","0.0-6.0-1.2","FL","1nbemfkd3a","1536","864","de","KE05KO08","null","","","","learningBlock1","","","","That was a bim.","null","","","","",""
"","html-keyboard-response","15","320852","0.0-6.0-2.2","FL","1nbemfkd3a","1536","864","de","KE05KO08","null","","","","learningBlock1","","","","<div style=""font-size:60px;""> </div>","null","FL","learning/Slide3.JPG","That was a bim.","",""
"","image-keyboard-response","16","321032","0.0-6.0-0.3","FL","1nbemfkd3a","1536","864","de","KE05KO08","null","","","","","","","","learning/Slide4.JPG","null","","","","",""
"","html-keyboard-response","17","322189","0.0-6.0-1.3","FL","1nbemfkd3a","1536","864","de","KE05KO08","null","","","","learningBlock1","","","","That was a dep.","null","","","","",""
"","html-keyboard-response","18","323192","0.0-6.0-2.3","FL","1nbemfkd3a","1536","864","de","KE05KO08","null","","","","learningBlock1","","","","<div style=""font-size:60px;""> </div>","null","FL","learning/Slide4.JPG","That was a dep.","",""
"","image-keyboard-response","19","323371","0.0-6.0-0.4","FL","1nbemfkd3a","1536","864","de","KE05KO08","null","","","","","","","","learning/Slide5.JPG","null","","","","",""
"","html-keyboard-response","20","324528","0.0-6.0-1.4","FL","1nbemfkd3a","1536","864","de","KE05KO08","null","","","","learningBlock1","","","","That was a wug.","null","","","","",""
"","html-keyboard-response","21","325537","0.0-6.0-2.4","FL","1nbemfkd3a","1536","864","de","KE05KO08","null","","","","learningBlock1","","","","<div style=""font-size:60px;""> </div>","null","FL","learning/Slide5.JPG","That was a wug.","",""
"","image-keyboard-response","22","325718","0.0-6.0-0.5","FL","1nbemfkd3a","1536","864","de","KE05KO08","null","","","","","","","","learning/Slide6.JPG","null","","","","",""
"","html-keyboard-response","23","326877","0.0-6.0-1.5","FL","1nbemfkd3a","1536","864","de","KE05KO08","null","","","","learningBlock1","","","","That was a dep.","null","","","","",""
"","html-keyboard-response","24","327880","0.0-6.0-2.5","FL","1nbemfkd3a","1536","864","de","KE05KO08","null","","","","learningBlock1","","","","<div style=""font-size:60px;""> </div>","null","FL","learning/Slide6.JPG","That was a dep.","",""
"","image-keyboard-response","25","328064","0.0-6.0-0.6","FL","1nbemfkd3a","1536","864","de","KE05KO08","null","","","","","","","","learning/Slide7.JPG","null","","","","",""
"","html-keyboard-response","26","329222","0.0-6.0-1.6","FL","1nbemfkd3a","1536","864","de","KE05KO08","null","","","","learningBlock1","","","","That was a wug.","null","","","","",""
"","html-keyboard-response","27","330231","0.0-6.0-2.6","FL","1nbemfkd3a","1536","864","de","KE05KO08","null","","","","learningBlock1","","","","<div style=""font-size:60px;""> </div>","null","FL","learning/Slide7.JPG","That was a wug.","",""
"","image-keyboard-response","28","330414","0.0-6.0-0.7","FL","1nbemfkd3a","1536","864","de","KE05KO08","null","","","","","","","","learning/Slide8.JPG","null","","","","",""
"","html-keyboard-response","29","331570","0.0-6.0-1.7","FL","1nbemfkd3a","1536","864","de","KE05KO08","null","","","","learningBlock1","","","","That was a bim.","null","","","","",""
"","html-keyboard-response","30","332576","0.0-6.0-2.7","FL","1nbemfkd3a","1536","864","de","KE05KO08","null","","","","learningBlock1","","","","<div style=""font-size:60px;""> </div>","null","FL","learning/Slide8.JPG","That was a bim.","",""
"","image-keyboard-response","31","332755","0.0-6.0-0.8","FL","1nbemfkd3a","1536","864","de","KE05KO08","null","","","","","","","","learning/Slide9.JPG","null","","","","",""
"","html-keyboard-response","32","333913","0.0-6.0-1.8","FL","1nbemfkd3a","1536","864","de","KE05KO08","null","","","","learningBlock1","","","","That was a wug.","null","","","","",""
"","html-keyboard-response","33","334917","0.0-6.0-2.8","FL","1nbemfkd3a","1536","864","de","KE05KO08","null","","","","learningBlock1","","","","<div style=""font-size:60px;""> </div>","null","FL","learning/Slide9.JPG","That was a wug.","",""
"","image-keyboard-response","34","335103","0.0-6.0-0.9","FL","1nbemfkd3a","1536","864","de","KE05KO08","null","","","","","","","","learning/Slide10.JPG","null","","","","",""
"","html-keyboard-response","35","336258","0.0-6.0-1.9","FL","1nbemfkd3a","1536","864","de","KE05KO08","null","","","","learningBlock1","","","","That was a dep.","null","","","","",""
"","html-keyboard-response","36","337263","0.0-6.0-2.9","FL","1nbemfkd3a","1536","864","de","KE05KO08","null","","","","learningBlock1","","","","<div style=""font-size:60px;""> </div>","null","FL","learning/Slide10.JPG","That was a dep.","",""
"","image-keyboard-response","37","337444","0.0-6.0-0.10","FL","1nbemfkd3a","1536","864","de","KE05KO08","null","","","","","","","","learning/Slide11.JPG","null","","","","",""
"","html-keyboard-response","38","338601","0.0-6.0-1.10","FL","1nbemfkd3a","1536","864","de","KE05KO08","null","","","","learningBlock1","","","","That was a tob.","null","","","","",""
"","html-keyboard-response","39","339608","0.0-6.0-2.10","FL","1nbemfkd3a","1536","864","de","KE05KO08","null","","","","learningBlock1","","","","<div style=""font-size:60px;""> </div>","null","FL","learning/Slide11.JPG","That was a tob.","",""
"","image-keyboard-response","40","339790","0.0-6.0-0.11","FL","1nbemfkd3a","1536","864","de","KE05KO08","null","","","","","","","","learning/Slide12.JPG","null","","","","",""
"","html-keyboard-response","41","340947","0.0-6.0-1.11","FL","1nbemfkd3a","1536","864","de","KE05KO08","null","","","","learningBlock1","","","","That was a dep.","null","","","","",""
"","html-keyboard-response","42","341952","0.0-6.0-2.11","FL","1nbemfkd3a","1536","864","de","KE05KO08","null","","","","learningBlock1","","","","<div style=""font-size:60px;""> </div>","null","FL","learning/Slide12.JPG","That was a dep.","",""
"","image-keyboard-response","43","342134","0.0-6.0-0.12","FL","1nbemfkd3a","1536","864","de","KE05KO08","null","","","","","","","","learning/Slide13.JPG","null","","","","",""
"","html-keyboard-response","44","343295","0.0-6.0-1.12","FL","1nbemfkd3a","1536","864","de","KE05KO08","null","","","","learningBlock1","","","","That was a bim.","null","","","","",""
"","html-keyboard-response","45","344301","0.0-6.0-2.12","FL","1nbemfkd3a","1536","864","de","KE05KO08","null","","","","learningBlock1","","","","<div style=""font-size:60px;""> </div>","null","FL","learning/Slide13.JPG","That was a bim.","",""
"","image-keyboard-response","46","344485","0.0-6.0-0.13","FL","1nbemfkd3a","1536","864","de","KE05KO08","null","","","","","","","","learning/Slide14.JPG","null","","","","",""
"","html-keyboard-response","47","345645","0.0-6.0-1.13","FL","1nbemfkd3a","1536","864","de","KE05KO08","null","","","","learningBlock1","","","","That was a wug.","null","","","","",""
"","html-keyboard-response","48","346651","0.0-6.0-2.13","FL","1nbemfkd3a","1536","864","de","KE05KO08","null","","","","learningBlock1","","","","<div style=""font-size:60px;""> </div>","null","FL","learning/Slide14.JPG","That was a wug.","",""
"","image-keyboard-response","49","346834","0.0-6.0-0.14","FL","1nbemfkd3a","1536","864","de","KE05KO08","null","","","","","","","","learning/Slide15.JPG","null","","","","",""
"","html-keyboard-response","50","347994","0.0-6.0-1.14","FL","1nbemfkd3a","1536","864","de","KE05KO08","null","","","","learningBlock1","","","","That was a tob.","null","","","","",""
"","html-keyboard-response","51","349000","0.0-6.0-2.14","FL","1nbemfkd3a","1536","864","de","KE05KO08","null","","","","learningBlock1","","","","<div style=""font-size:60px;""> </div>","null","FL","learning/Slide15.JPG","That was a tob.","",""
"","image-keyboard-response","52","349184","0.0-6.0-0.15","FL","1nbemfkd3a","1536","864","de","KE05KO08","null","","","","","","","","learning/Slide16.JPG","null","","","","",""
"","html-keyboard-response","53","350343","0.0-6.0-1.15","FL","1nbemfkd3a","1536","864","de","KE05KO08","null","","","","learningBlock1","","","","That was a dep.","null","","","","",""
"","html-keyboard-response","54","351349","0.0-6.0-2.15","FL","1nbemfkd3a","1536","864","de","KE05KO08","null","","","","learningBlock1","","","","<div style=""font-size:60px;""> </div>","null","FL","learning/Slide16.JPG","That was a dep.","",""
"","image-keyboard-response","55","351532","0.0-6.0-0.16","FL","1nbemfkd3a","1536","864","de","KE05KO08","null","","","","","","","","learning/Slide17.JPG","null","","","","",""
"","html-keyboard-response","56","352689","0.0-6.0-1.16","FL","1nbemfkd3a","1536","864","de","KE05KO08","null","","","","learningBlock1","","","","That was a bim.","null","","","","",""
"","html-keyboard-response","57","353695","0.0-6.0-2.16","FL","1nbemfkd3a","1536","864","de","KE05KO08","null","","","","learningBlock1","","","","<div style=""font-size:60px;""> </div>","null","FL","learning/Slide17.JPG","That was a bim.","",""
"","image-keyboard-response","58","353878","0.0-6.0-0.17","FL","1nbemfkd3a","1536","864","de","KE05KO08","null","","","","","","","","learning/Slide18.JPG","null","","","","",""
"","html-keyboard-response","59","355035","0.0-6.0-1.17","FL","1nbemfkd3a","1536","864","de","KE05KO08","null","","","","learningBlock1","","","","That was a tob.","null","","","","",""
"","html-keyboard-response","60","356039","0.0-6.0-2.17","FL","1nbemfkd3a","1536","864","de","KE05KO08","null","","","","learningBlock1","","","","<div style=""font-size:60px;""> </div>","null","FL","learning/Slide18.JPG","That was a tob.","",""
"","image-keyboard-response","61","356220","0.0-6.0-0.18","FL","1nbemfkd3a","1536","864","de","KE05KO08","null","","","","","","","","learning/Slide19.JPG","null","","","","",""
"","html-keyboard-response","62","357382","0.0-6.0-1.18","FL","1nbemfkd3a","1536","864","de","KE05KO08","null","","","","learningBlock1","","","","That was a wug.","null","","","","",""
"","html-keyboard-response","63","358386","0.0-6.0-2.18","FL","1nbemfkd3a","1536","864","de","KE05KO08","null","","","","learningBlock1","","","","<div style=""font-size:60px;""> </div>","null","FL","learning/Slide19.JPG","That was a wug.","",""
"","image-keyboard-response","64","358567","0.0-6.0-0.19","FL","1nbemfkd3a","1536","864","de","KE05KO08","null","","","","","","","","learning/Slide20.JPG","null","","","","",""
"","html-keyboard-response","65","359725","0.0-6.0-1.19","FL","1nbemfkd3a","1536","864","de","KE05KO08","null","","","","learningBlock1","","","","That was a bim.","null","","","","",""
"","html-keyboard-response","66","360735","0.0-6.0-2.19","FL","1nbemfkd3a","1536","864","de","KE05KO08","null","","","","learningBlock1","","","","<div style=""font-size:60px;""> </div>","null","FL","learning/Slide20.JPG","That was a bim.","",""
"","image-keyboard-response","67","360915","0.0-6.0-0.20","FL","1nbemfkd3a","1536","864","de","KE05KO08","null","","","","","","","","learning/Slide21.JPG","null","","","","",""
"","html-keyboard-response","68","362076","0.0-6.0-1.20","FL","1nbemfkd3a","1536","864","de","KE05KO08","null","","","","learningBlock1","","","","That was a dep.","null","","","","",""
"","html-keyboard-response","69","363088","0.0-6.0-2.20","FL","1nbemfkd3a","1536","864","de","KE05KO08","null","","","","learningBlock1","","","","<div style=""font-size:60px;""> </div>","null","FL","learning/Slide21.JPG","That was a dep.","",""
"","image-keyboard-response","70","363266","0.0-6.0-0.21","FL","1nbemfkd3a","1536","864","de","KE05KO08","null","","","","","","","","learning/Slide22.JPG","null","","","","",""
"","html-keyboard-response","71","364427","0.0-6.0-1.21","FL","1nbemfkd3a","1536","864","de","KE05KO08","null","","","","learningBlock1","","","","That was a bim.","null","","","","",""
"","html-keyboard-response","72","365434","0.0-6.0-2.21","FL","1nbemfkd3a","1536","864","de","KE05KO08","null","","","","learningBlock1","","","","<div style=""font-size:60px;""> </div>","null","FL","learning/Slide22.JPG","That was a bim.","",""
"","image-keyboard-response","73","365617","0.0-6.0-0.22","FL","1nbemfkd3a","1536","864","de","KE05KO08","null","","","","","","","","learning/Slide23.JPG","null","","","","",""
"","html-keyboard-response","74","366775","0.0-6.0-1.22","FL","1nbemfkd3a","1536","864","de","KE05KO08","null","","","","learningBlock1","","","","That was a tob.","null","","","","",""
"","html-keyboard-response","75","367782","0.0-6.0-2.22","FL","1nbemfkd3a","1536","864","de","KE05KO08","null","","","","learningBlock1","","","","<div style=""font-size:60px;""> </div>","null","FL","learning/Slide23.JPG","That was a tob.","",""
"","image-keyboard-response","76","367964","0.0-6.0-0.23","FL","1nbemfkd3a","1536","864","de","KE05KO08","null","","","","","","","","learning/Slide24.JPG","null","","","","",""
"","html-keyboard-response","77","369119","0.0-6.0-1.23","FL","1nbemfkd3a","1536","864","de","KE05KO08","null","","","","learningBlock1","","","","That was a wug.","null","","","","",""
"","html-keyboard-response","78","370125","0.0-6.0-2.23","FL","1nbemfkd3a","1536","864","de","KE05KO08","null","","","","learningBlock1","","","","<div style=""font-size:60px;""> </div>","null","FL","learning/Slide24.JPG","That was a wug.","",""
"","image-keyboard-response","79","370307","0.0-6.0-0.24","FL","1nbemfkd3a","1536","864","de","KE05KO08","null","","","","","","","","learning/Slide25.JPG","null","","","","",""
"","html-keyboard-response","80","371467","0.0-6.0-1.24","FL","1nbemfkd3a","1536","864","de","KE05KO08","null","","","","learningBlock1","","","","That was a dep.","null","","","","",""
"","html-keyboard-response","81","372475","0.0-6.0-2.24","FL","1nbemfkd3a","1536","864","de","KE05KO08","null","","","","learningBlock1","","","","<div style=""font-size:60px;""> </div>","null","FL","learning/Slide25.JPG","That was a dep.","",""
"","image-keyboard-response","82","372655","0.0-6.0-0.25","FL","1nbemfkd3a","1536","864","de","KE05KO08","null","","","","","","","","learning/Slide26.JPG","null","","","","",""
"","html-keyboard-response","83","373815","0.0-6.0-1.25","FL","1nbemfkd3a","1536","864","de","KE05KO08","null","","","","learningBlock1","","","","That was a wug.","null","","","","",""
"","html-keyboard-response","84","374820","0.0-6.0-2.25","FL","1nbemfkd3a","1536","864","de","KE05KO08","null","","","","learningBlock1","","","","<div style=""font-size:60px;""> </div>","null","FL","learning/Slide26.JPG","That was a wug.","",""
"","image-keyboard-response","85","375001","0.0-6.0-0.26","FL","1nbemfkd3a","1536","864","de","KE05KO08","null","","","","","","","","learning/Slide27.JPG","null","","","","",""
"","html-keyboard-response","86","376156","0.0-6.0-1.26","FL","1nbemfkd3a","1536","864","de","KE05KO08","null","","","","learningBlock1","","","","That was a bim.","null","","","","",""
"","html-keyboard-response","87","377164","0.0-6.0-2.26","FL","1nbemfkd3a","1536","864","de","KE05KO08","null","","","","learningBlock1","","","","<div style=""font-size:60px;""> </div>","null","FL","learning/Slide27.JPG","That was a bim.","",""
"","image-keyboard-response","88","377342","0.0-6.0-0.27","FL","1nbemfkd3a","1536","864","de","KE05KO08","null","","","","","","","","learning/Slide28.JPG","null","","","","",""
"","html-keyboard-response","89","378499","0.0-6.0-1.27","FL","1nbemfkd3a","1536","864","de","KE05KO08","null","","","","learningBlock1","","","","That was a dep.","null","","","","",""
"","html-keyboard-response","90","379503","0.0-6.0-2.27","FL","1nbemfkd3a","1536","864","de","KE05KO08","null","","","","learningBlock1","","","","<div style=""font-size:60px;""> </div>","null","FL","learning/Slide28.JPG","That was a dep.","",""
"","image-keyboard-response","91","379683","0.0-6.0-0.28","FL","1nbemfkd3a","1536","864","de","KE05KO08","null","","","","","","","","learning/Slide29.JPG","null","","","","",""
"","html-keyboard-response","92","380848","0.0-6.0-1.28","FL","1nbemfkd3a","1536","864","de","KE05KO08","null","","","","learningBlock1","","","","That was a tob.","null","","","","",""
"","html-keyboard-response","93","381851","0.0-6.0-2.28","FL","1nbemfkd3a","1536","864","de","KE05KO08","null","","","","learningBlock1","","","","<div style=""font-size:60px;""> </div>","null","FL","learning/Slide29.JPG","That was a tob.","",""
"","image-keyboard-response","94","382030","0.0-6.0-0.29","FL","1nbemfkd3a","1536","864","de","KE05KO08","null","","","","","","","","learning/Slide30.JPG","null","","","","",""
"","html-keyboard-response","95","383184","0.0-6.0-1.29","FL","1nbemfkd3a","1536","864","de","KE05KO08","null","","","","learningBlock1","","","","That was a dep.","null","","","","",""
"","html-keyboard-response","96","384188","0.0-6.0-2.29","FL","1nbemfkd3a","1536","864","de","KE05KO08","null","","","","learningBlock1","","","","<div style=""font-size:60px;""> </div>","null","FL","learning/Slide30.JPG","That was a dep.","",""
"","image-keyboard-response","97","384367","0.0-6.0-0.30","FL","1nbemfkd3a","1536","864","de","KE05KO08","null","","","","","","","","learning/Slide31.JPG","null","","","","",""
"","html-keyboard-response","98","385528","0.0-6.0-1.30","FL","1nbemfkd3a","1536","864","de","KE05KO08","null","","","","learningBlock1","","","","That was a wug.","null","","","","",""
"","html-keyboard-response","99","386533","0.0-6.0-2.30","FL","1nbemfkd3a","1536","864","de","KE05KO08","null","","","","learningBlock1","","","","<div style=""font-size:60px;""> </div>","null","FL","learning/Slide31.JPG","That was a wug.","",""
"","image-keyboard-response","100","386715","0.0-6.0-0.31","FL","1nbemfkd3a","1536","864","de","KE05KO08","null","","","","","","","","learning/Slide32.JPG","null","","","","",""
"","html-keyboard-response","101","387872","0.0-6.0-1.31","FL","1nbemfkd3a","1536","864","de","KE05KO08","null","","","","learningBlock1","","","","That was a tob.","null","","","","",""
"","html-keyboard-response","102","388878","0.0-6.0-2.31","FL","1nbemfkd3a","1536","864","de","KE05KO08","null","","","","learningBlock1","","","","<div style=""font-size:60px;""> </div>","null","FL","learning/Slide32.JPG","That was a tob.","",""
"","image-keyboard-response","103","389058","0.0-6.0-0.32","FL","1nbemfkd3a","1536","864","de","KE05KO08","null","","","","","","","","learning/Slide33.JPG","null","","","","",""
"","html-keyboard-response","104","390215","0.0-6.0-1.32","FL","1nbemfkd3a","1536","864","de","KE05KO08","null","","","","learningBlock1","","","","That was a bim.","null","","","","",""
"","html-keyboard-response","105","391223","0.0-6.0-2.32","FL","1nbemfkd3a","1536","864","de","KE05KO08","null","","","","learningBlock1","","","","<div style=""font-size:60px;""> </div>","null","FL","learning/Slide33.JPG","That was a bim.","",""
"","image-keyboard-response","106","391405","0.0-6.0-0.33","FL","1nbemfkd3a","1536","864","de","KE05KO08","null","","","","","","","","learning/Slide34.JPG","null","","","","",""
"","html-keyboard-response","107","392566","0.0-6.0-1.33","FL","1nbemfkd3a","1536","864","de","KE05KO08","null","","","","learningBlock1","","","","That was a tob.","null","","","","",""
"","html-keyboard-response","108","393572","0.0-6.0-2.33","FL","1nbemfkd3a","1536","864","de","KE05KO08","null","","","","learningBlock1","","","","<div style=""font-size:60px;""> </div>","null","FL","learning/Slide34.JPG","That was a tob.","",""
"","image-keyboard-response","109","393750","0.0-6.0-0.34","FL","1nbemfkd3a","1536","864","de","KE05KO08","null","","","","","","","","learning/Slide35.JPG","null","","","","",""
"","html-keyboard-response","110","394911","0.0-6.0-1.34","FL","1nbemfkd3a","1536","864","de","KE05KO08","null","","","","learningBlock1","","","","That was a bim.","null","","","","",""
"","html-keyboard-response","111","395918","0.0-6.0-2.34","FL","1nbemfkd3a","1536","864","de","KE05KO08","null","","","","learningBlock1","","","","<div style=""font-size:60px;""> </div>","null","FL","learning/Slide35.JPG","That was a bim.","",""
"","image-keyboard-response","112","396096","0.0-6.0-0.35","FL","1nbemfkd3a","1536","864","de","KE05KO08","null","","","","","","","","learning/Slide36.JPG","null","","","","",""
"","html-keyboard-response","113","397255","0.0-6.0-1.35","FL","1nbemfkd3a","1536","864","de","KE05KO08","null","","","","learningBlock1","","","","That was a dep.","null","","","","",""
"","html-keyboard-response","114","398260","0.0-6.0-2.35","FL","1nbemfkd3a","1536","864","de","KE05KO08","null","","","","learningBlock1","","","","<div style=""font-size:60px;""> </div>","null","FL","learning/Slide36.JPG","That was a dep.","",""
"","image-keyboard-response","115","398444","0.0-6.0-0.36","FL","1nbemfkd3a","1536","864","de","KE05KO08","null","","","","","","","","learning/Slide37.JPG","null","","","","",""
"","html-keyboard-response","116","399599","0.0-6.0-1.36","FL","1nbemfkd3a","1536","864","de","KE05KO08","null","","","","learningBlock1","","","","That was a tob.","null","","","","",""
"","html-keyboard-response","117","400604","0.0-6.0-2.36","FL","1nbemfkd3a","1536","864","de","KE05KO08","null","","","","learningBlock1","","","","<div style=""font-size:60px;""> </div>","null","FL","learning/Slide37.JPG","That was a tob.","",""
"","image-keyboard-response","118","400787","0.0-6.0-0.37","FL","1nbemfkd3a","1536","864","de","KE05KO08","null","","","","","","","","learning/Slide38.JPG","null","","","","",""
"","html-keyboard-response","119","401949","0.0-6.0-1.37","FL","1nbemfkd3a","1536","864","de","KE05KO08","null","","","","learningBlock1","","","","That was a wug.","null","","","","",""
"","html-keyboard-response","120","402955","0.0-6.0-2.37","FL","1nbemfkd3a","1536","864","de","KE05KO08","null","","","","learningBlock1","","","","<div style=""font-size:60px;""> </div>","null","FL","learning/Slide38.JPG","That was a wug.","",""
"","image-keyboard-response","121","403138","0.0-6.0-0.38","FL","1nbemfkd3a","1536","864","de","KE05KO08","null","","","","","","","","learning/Slide39.JPG","null","","","","",""
"","html-keyboard-response","122","404292","0.0-6.0-1.38","FL","1nbemfkd3a","1536","864","de","KE05KO08","null","","","","learningBlock1","","","","That was a bim.","null","","","","",""
"","html-keyboard-response","123","405298","0.0-6.0-2.38","FL","1nbemfkd3a","1536","864","de","KE05KO08","null","","","","learningBlock1","","","","<div style=""font-size:60px;""> </div>","null","FL","learning/Slide39.JPG","That was a bim.","",""
"","image-keyboard-response","124","405479","0.0-6.0-0.39","FL","1nbemfkd3a","1536","864","de","KE05KO08","null","","","","","","","","learning/Slide40.JPG","null","","","","",""
"","html-keyboard-response","125","406637","0.0-6.0-1.39","FL","1nbemfkd3a","1536","864","de","KE05KO08","null","","","","learningBlock1","","","","That was a tob.","null","","","","",""
"","html-keyboard-response","126","407644","0.0-6.0-2.39","FL","1nbemfkd3a","1536","864","de","KE05KO08","null","","","","learningBlock1","","","","<div style=""font-size:60px;""> </div>","null","FL","learning/Slide40.JPG","That was a tob.","",""
"","image-keyboard-response","127","407826","0.0-6.0-0.40","FL","1nbemfkd3a","1536","864","de","KE05KO08","null","","","","","","","","learning/Slide41.JPG","null","","","","",""
"","html-keyboard-response","128","408987","0.0-6.0-1.40","FL","1nbemfkd3a","1536","864","de","KE05KO08","null","","","","learningBlock1","","","","That was a bim.","null","","","","",""
"","html-keyboard-response","129","409994","0.0-6.0-2.40","FL","1nbemfkd3a","1536","864","de","KE05KO08","null","","","","learningBlock1","","","","<div style=""font-size:60px;""> </div>","null","FL","learning/Slide41.JPG","That was a bim.","",""
"","image-keyboard-response","130","410174","0.0-6.0-0.41","FL","1nbemfkd3a","1536","864","de","KE05KO08","null","","","","","","","","learning/Slide42.JPG","null","","","","",""
"","html-keyboard-response","131","411331","0.0-6.0-1.41","FL","1nbemfkd3a","1536","864","de","KE05KO08","null","","","","learningBlock1","","","","That was a dep.","null","","","","",""
"","html-keyboard-response","132","412337","0.0-6.0-2.41","FL","1nbemfkd3a","1536","864","de","KE05KO08","null","","","","learningBlock1","","","","<div style=""font-size:60px;""> </div>","null","FL","learning/Slide42.JPG","That was a dep.","",""
"","image-keyboard-response","133","412520","0.0-6.0-0.42","FL","1nbemfkd3a","1536","864","de","KE05KO08","null","","","","","","","","learning/Slide43.JPG","null","","","","",""
"","html-keyboard-response","134","413677","0.0-6.0-1.42","FL","1nbemfkd3a","1536","864","de","KE05KO08","null","","","","learningBlock1","","","","That was a wug.","null","","","","",""
"","html-keyboard-response","135","414685","0.0-6.0-2.42","FL","1nbemfkd3a","1536","864","de","KE05KO08","null","","","","learningBlock1","","","","<div style=""font-size:60px;""> </div>","null","FL","learning/Slide43.JPG","That was a wug.","",""
"","image-keyboard-response","136","414870","0.0-6.0-0.43","FL","1nbemfkd3a","1536","864","de","KE05KO08","null","","","","","","","","learning/Slide44.JPG","null","","","","",""
"","html-keyboard-response","137","416023","0.0-6.0-1.43","FL","1nbemfkd3a","1536","864","de","KE05KO08","null","","","","learningBlock1","","","","That was a bim.","null","","","","",""
"","html-keyboard-response","138","417031","0.0-6.0-2.43","FL","1nbemfkd3a","1536","864","de","KE05KO08","null","","","","learningBlock1","","","","<div style=""font-size:60px;""> </div>","null","FL","learning/Slide44.JPG","That was a bim.","",""
"","image-keyboard-response","139","417210","0.0-6.0-0.44","FL","1nbemfkd3a","1536","864","de","KE05KO08","null","","","","","","","","learning/Slide45.JPG","null","","","","",""
"","html-keyboard-response","140","418367","0.0-6.0-1.44","FL","1nbemfkd3a","1536","864","de","KE05KO08","null","","","","learningBlock1","","","","That was a wug.","null","","","","",""
"","html-keyboard-response","141","419371","0.0-6.0-2.44","FL","1nbemfkd3a","1536","864","de","KE05KO08","null","","","","learningBlock1","","","","<div style=""font-size:60px;""> </div>","null","FL","learning/Slide45.JPG","That was a wug.","",""
"","image-keyboard-response","142","419552","0.0-6.0-0.45","FL","1nbemfkd3a","1536","864","de","KE05KO08","null","","","","","","","","learning/Slide46.JPG","null","","","","",""
"","html-keyboard-response","143","420712","0.0-6.0-1.45","FL","1nbemfkd3a","1536","864","de","KE05KO08","null","","","","learningBlock1","","","","That was a dep.","null","","","","",""
"","html-keyboard-response","144","421719","0.0-6.0-2.45","FL","1nbemfkd3a","1536","864","de","KE05KO08","null","","","","learningBlock1","","","","<div style=""font-size:60px;""> </div>","null","FL","learning/Slide46.JPG","That was a dep.","",""
"","image-keyboard-response","145","421902","0.0-6.0-0.46","FL","1nbemfkd3a","1536","864","de","KE05KO08","null","","","","","","","","learning/Slide47.JPG","null","","","","",""
"","html-keyboard-response","146","423060","0.0-6.0-1.46","FL","1nbemfkd3a","1536","864","de","KE05KO08","null","","","","learningBlock1","","","","That was a tob.","null","","","","",""
"","html-keyboard-response","147","424068","0.0-6.0-2.46","FL","1nbemfkd3a","1536","864","de","KE05KO08","null","","","","learningBlock1","","","","<div style=""font-size:60px;""> </div>","null","FL","learning/Slide47.JPG","That was a tob.","",""
"","image-keyboard-response","148","424252","0.0-6.0-0.47","FL","1nbemfkd3a","1536","864","de","KE05KO08","null","","","","","","","","learning/Slide48.JPG","null","","","","",""
"","html-keyboard-response","149","425411","0.0-6.0-1.47","FL","1nbemfkd3a","1536","864","de","KE05KO08","null","","","","learningBlock1","","","","That was a bim.","null","","","","",""
"","html-keyboard-response","150","426419","0.0-6.0-2.47","FL","1nbemfkd3a","1536","864","de","KE05KO08","null","","","","learningBlock1","","","","<div style=""font-size:60px;""> </div>","null","FL","learning/Slide48.JPG","That was a bim.","",""
"","image-keyboard-response","151","426598","0.0-6.0-0.48","FL","1nbemfkd3a","1536","864","de","KE05KO08","null","","","","","","","","learning/Slide49.JPG","null","","","","",""
"","html-keyboard-response","152","427755","0.0-6.0-1.48","FL","1nbemfkd3a","1536","864","de","KE05KO08","null","","","","learningBlock1","","","","That was a dep.","null","","","","",""
"","html-keyboard-response","153","428759","0.0-6.0-2.48","FL","1nbemfkd3a","1536","864","de","KE05KO08","null","","","","learningBlock1","","","","<div style=""font-size:60px;""> </div>","null","FL","learning/Slide49.JPG","That was a dep.","",""
"","image-keyboard-response","154","428938","0.0-6.0-0.49","FL","1nbemfkd3a","1536","864","de","KE05KO08","null","","","","","","","","learning/Slide50.JPG","null","","","","",""
"","html-keyboard-response","155","430093","0.0-6.0-1.49","FL","1nbemfkd3a","1536","864","de","KE05KO08","null","","","","learningBlock1","","","","That was a tob.","null","","","","",""
"","html-keyboard-response","156","431098","0.0-6.0-2.49","FL","1nbemfkd3a","1536","864","de","KE05KO08","null","","","","learningBlock1","","","","<div style=""font-size:60px;""> </div>","null","FL","learning/Slide50.JPG","That was a tob.","",""
"","image-keyboard-response","157","431279","0.0-6.0-0.50","FL","1nbemfkd3a","1536","864","de","KE05KO08","null","","","","","","","","learning/Slide51.JPG","null","","","","",""
"","html-keyboard-response","158","432436","0.0-6.0-1.50","FL","1nbemfkd3a","1536","864","de","KE05KO08","null","","","","learningBlock1","","","","That was a bim.","null","","","","",""
"","html-keyboard-response","159","433443","0.0-6.0-2.50","FL","1nbemfkd3a","1536","864","de","KE05KO08","null","","","","learningBlock1","","","","<div style=""font-size:60px;""> </div>","null","FL","learning/Slide51.JPG","That was a bim.","",""
"","image-keyboard-response","160","433623","0.0-6.0-0.51","FL","1nbemfkd3a","1536","864","de","KE05KO08","null","","","","","","","","learning/Slide52.JPG","null","","","","",""
"","html-keyboard-response","161","434783","0.0-6.0-1.51","FL","1nbemfkd3a","1536","864","de","KE05KO08","null","","","","learningBlock1","","","","That was a wug.","null","","","","",""
"","html-keyboard-response","162","435787","0.0-6.0-2.51","FL","1nbemfkd3a","1536","864","de","KE05KO08","null","","","","learningBlock1","","","","<div style=""font-size:60px;""> </div>","null","FL","learning/Slide52.JPG","That was a wug.","",""
"","image-keyboard-response","163","435967","0.0-6.0-0.52","FL","1nbemfkd3a","1536","864","de","KE05KO08","null","","","","","","","","learning/Slide53.JPG","null","","","","",""
"","html-keyboard-response","164","437127","0.0-6.0-1.52","FL","1nbemfkd3a","1536","864","de","KE05KO08","null","","","","learningBlock1","","","","That was a tob.","null","","","","",""
"","html-keyboard-response","165","438133","0.0-6.0-2.52","FL","1nbemfkd3a","1536","864","de","KE05KO08","null","","","","learningBlock1","","","","<div style=""font-size:60px;""> </div>","null","FL","learning/Slide53.JPG","That was a tob.","",""
"","image-keyboard-response","166","438315","0.0-6.0-0.53","FL","1nbemfkd3a","1536","864","de","KE05KO08","null","","","","","","","","learning/Slide54.JPG","null","","","","",""
"","html-keyboard-response","167","439470","0.0-6.0-1.53","FL","1nbemfkd3a","1536","864","de","KE05KO08","null","","","","learningBlock1","","","","That was a dep.","null","","","","",""
"","html-keyboard-response","168","440474","0.0-6.0-2.53","FL","1nbemfkd3a","1536","864","de","KE05KO08","null","","","","learningBlock1","","","","<div style=""font-size:60px;""> </div>","null","FL","learning/Slide54.JPG","That was a dep.","",""
"","image-keyboard-response","169","440654","0.0-6.0-0.54","FL","1nbemfkd3a","1536","864","de","KE05KO08","null","","","","","","","","learning/Slide55.JPG","null","","","","",""
"","html-keyboard-response","170","441816","0.0-6.0-1.54","FL","1nbemfkd3a","1536","864","de","KE05KO08","null","","","","learningBlock1","","","","That was a bim.","null","","","","",""
"","html-keyboard-response","171","442822","0.0-6.0-2.54","FL","1nbemfkd3a","1536","864","de","KE05KO08","null","","","","learningBlock1","","","","<div style=""font-size:60px;""> </div>","null","FL","learning/Slide55.JPG","That was a bim.","",""
"","image-keyboard-response","172","443005","0.0-6.0-0.55","FL","1nbemfkd3a","1536","864","de","KE05KO08","null","","","","","","","","learning/Slide56.JPG","null","","","","",""
"","html-keyboard-response","173","444160","0.0-6.0-1.55","FL","1nbemfkd3a","1536","864","de","KE05KO08","null","","","","learningBlock1","","","","That was a tob.","null","","","","",""
"","html-keyboard-response","174","445166","0.0-6.0-2.55","FL","1nbemfkd3a","1536","864","de","KE05KO08","null","","","","learningBlock1","","","","<div style=""font-size:60px;""> </div>","null","FL","learning/Slide56.JPG","That was a tob.","",""
"","image-keyboard-response","175","445349","0.0-6.0-0.56","FL","1nbemfkd3a","1536","864","de","KE05KO08","null","","","","","","","","learning/Slide57.JPG","null","","","","",""
"","html-keyboard-response","176","446508","0.0-6.0-1.56","FL","1nbemfkd3a","1536","864","de","KE05KO08","null","","","","learningBlock1","","","","That was a dep.","null","","","","",""
"","html-keyboard-response","177","447516","0.0-6.0-2.56","FL","1nbemfkd3a","1536","864","de","KE05KO08","null","","","","learningBlock1","","","","<div style=""font-size:60px;""> </div>","null","FL","learning/Slide57.JPG","That was a dep.","",""
"","image-keyboard-response","178","447699","0.0-6.0-0.57","FL","1nbemfkd3a","1536","864","de","KE05KO08","null","","","","","","","","learning/Slide58.JPG","null","","","","",""
"","html-keyboard-response","179","448856","0.0-6.0-1.57","FL","1nbemfkd3a","1536","864","de","KE05KO08","null","","","","learningBlock1","","","","That was a wug.","null","","","","",""
"","html-keyboard-response","180","449865","0.0-6.0-2.57","FL","1nbemfkd3a","1536","864","de","KE05KO08","null","","","","learningBlock1","","","","<div style=""font-size:60px;""> </div>","null","FL","learning/Slide58.JPG","That was a wug.","",""
"","image-keyboard-response","181","450049","0.0-6.0-0.58","FL","1nbemfkd3a","1536","864","de","KE05KO08","null","","","","","","","","learning/Slide59.JPG","null","","","","",""
"","html-keyboard-response","182","451206","0.0-6.0-1.58","FL","1nbemfkd3a","1536","864","de","KE05KO08","null","","","","learningBlock1","","","","That was a dep.","null","","","","",""
"","html-keyboard-response","183","452210","0.0-6.0-2.58","FL","1nbemfkd3a","1536","864","de","KE05KO08","null","","","","learningBlock1","","","","<div style=""font-size:60px;""> </div>","null","FL","learning/Slide59.JPG","That was a dep.","",""
"","image-keyboard-response","184","452391","0.0-6.0-0.59","FL","1nbemfkd3a","1536","864","de","KE05KO08","null","","","","","","","","learning/Slide60.JPG","null","","","","",""
"","html-keyboard-response","185","453554","0.0-6.0-1.59","FL","1nbemfkd3a","1536","864","de","KE05KO08","null","","","","learningBlock1","","","","That was a wug.","null","","","","",""
"","html-keyboard-response","186","454558","0.0-6.0-2.59","FL","1nbemfkd3a","1536","864","de","KE05KO08","null","","","","learningBlock1","","","","<div style=""font-size:60px;""> </div>","null","FL","learning/Slide60.JPG","That was a wug.","",""
"","image-keyboard-response","187","454737","0.0-6.0-0.60","FL","1nbemfkd3a","1536","864","de","KE05KO08","null","","","","","","","","learning/Slide61.JPG","null","","","","",""
"","html-keyboard-response","188","455897","0.0-6.0-1.60","FL","1nbemfkd3a","1536","864","de","KE05KO08","null","","","","learningBlock1","","","","That was a bim.","null","","","","",""
"","html-keyboard-response","189","456901","0.0-6.0-2.60","FL","1nbemfkd3a","1536","864","de","KE05KO08","null","","","","learningBlock1","","","","<div style=""font-size:60px;""> </div>","null","FL","learning/Slide61.JPG","That was a bim.","",""
"","image-keyboard-response","190","457080","0.0-6.0-0.61","FL","1nbemfkd3a","1536","864","de","KE05KO08","null","","","","","","","","learning/Slide62.JPG","null","","","","",""
"","html-keyboard-response","191","458241","0.0-6.0-1.61","FL","1nbemfkd3a","1536","864","de","KE05KO08","null","","","","learningBlock1","","","","That was a dep.","null","","","","",""
"","html-keyboard-response","192","459248","0.0-6.0-2.61","FL","1nbemfkd3a","1536","864","de","KE05KO08","null","","","","learningBlock1","","","","<div style=""font-size:60px;""> </div>","null","FL","learning/Slide62.JPG","That was a dep.","",""
"","image-keyboard-response","193","459430","0.0-6.0-0.62","FL","1nbemfkd3a","1536","864","de","KE05KO08","null","","","","","","","","learning/Slide63.JPG","null","","","","",""
"","html-keyboard-response","194","460587","0.0-6.0-1.62","FL","1nbemfkd3a","1536","864","de","KE05KO08","null","","","","learningBlock1","","","","That was a bim.","null","","","","",""
"","html-keyboard-response","195","461591","0.0-6.0-2.62","FL","1nbemfkd3a","1536","864","de","KE05KO08","null","","","","learningBlock1","","","","<div style=""font-size:60px;""> </div>","null","FL","learning/Slide63.JPG","That was a bim.","",""
"","image-keyboard-response","196","461773","0.0-6.0-0.63","FL","1nbemfkd3a","1536","864","de","KE05KO08","null","","","","","","","","learning/Slide64.JPG","null","","","","",""
"","html-keyboard-response","197","462932","0.0-6.0-1.63","FL","1nbemfkd3a","1536","864","de","KE05KO08","null","","","","learningBlock1","","","","That was a tob.","null","","","","",""
"","html-keyboard-response","198","463935","0.0-6.0-2.63","FL","1nbemfkd3a","1536","864","de","KE05KO08","null","","","","learningBlock1","","","","<div style=""font-size:60px;""> </div>","null","FL","learning/Slide64.JPG","That was a tob.","",""
"","image-keyboard-response","199","464117","0.0-6.0-0.64","FL","1nbemfkd3a","1536","864","de","KE05KO08","null","","","","","","","","learning/Slide65.JPG","null","","","","",""
"","html-keyboard-response","200","465273","0.0-6.0-1.64","FL","1nbemfkd3a","1536","864","de","KE05KO08","null","","","","learningBlock1","","","","That was a wug.","null","","","","",""
"","html-keyboard-response","201","466280","0.0-6.0-2.64","FL","1nbemfkd3a","1536","864","de","KE05KO08","null","","","","learningBlock1","","","","<div style=""font-size:60px;""> </div>","null","FL","learning/Slide65.JPG","That was a wug.","",""
"","image-keyboard-response","202","466463","0.0-6.0-0.65","FL","1nbemfkd3a","1536","864","de","KE05KO08","null","","","","","","","","learning/Slide66.JPG","null","","","","",""
"","html-keyboard-response","203","467622","0.0-6.0-1.65","FL","1nbemfkd3a","1536","864","de","KE05KO08","null","","","","learningBlock1","","","","That was a dep.","null","","","","",""
"","html-keyboard-response","204","468627","0.0-6.0-2.65","FL","1nbemfkd3a","1536","864","de","KE05KO08","null","","","","learningBlock1","","","","<div style=""font-size:60px;""> </div>","null","FL","learning/Slide66.JPG","That was a dep.","",""
"","image-keyboard-response","205","468806","0.0-6.0-0.66","FL","1nbemfkd3a","1536","864","de","KE05KO08","null","","","","","","","","learning/Slide67.JPG","null","","","","",""
"","html-keyboard-response","206","469970","0.0-6.0-1.66","FL","1nbemfkd3a","1536","864","de","KE05KO08","null","","","","learningBlock1","","","","That was a tob.","null","","","","",""
"","html-keyboard-response","207","470973","0.0-6.0-2.66","FL","1nbemfkd3a","1536","864","de","KE05KO08","null","","","","learningBlock1","","","","<div style=""font-size:60px;""> </div>","null","FL","learning/Slide67.JPG","That was a tob.","",""
"","image-keyboard-response","208","471151","0.0-6.0-0.67","FL","1nbemfkd3a","1536","864","de","KE05KO08","null","","","","","","","","learning/Slide68.JPG","null","","","","",""
"","html-keyboard-response","209","472308","0.0-6.0-1.67","FL","1nbemfkd3a","1536","864","de","KE05KO08","null","","","","learningBlock1","","","","That was a wug.","null","","","","",""
"","html-keyboard-response","210","473311","0.0-6.0-2.67","FL","1nbemfkd3a","1536","864","de","KE05KO08","null","","","","learningBlock1","","","","<div style=""font-size:60px;""> </div>","null","FL","learning/Slide68.JPG","That was a wug.","",""
"","image-keyboard-response","211","473496","0.0-6.0-0.68","FL","1nbemfkd3a","1536","864","de","KE05KO08","null","","","","","","","","learning/Slide69.JPG","null","","","","",""
"","html-keyboard-response","212","474653","0.0-6.0-1.68","FL","1nbemfkd3a","1536","864","de","KE05KO08","null","","","","learningBlock1","","","","That was a tob.","null","","","","",""
"","html-keyboard-response","213","475661","0.0-6.0-2.68","FL","1nbemfkd3a","1536","864","de","KE05KO08","null","","","","learningBlock1","","","","<div style=""font-size:60px;""> </div>","null","FL","learning/Slide69.JPG","That was a tob.","",""
"","image-keyboard-response","214","475845","0.0-6.0-0.69","FL","1nbemfkd3a","1536","864","de","KE05KO08","null","","","","","","","","learning/Slide70.JPG","null","","","","",""
"","html-keyboard-response","215","477004","0.0-6.0-1.69","FL","1nbemfkd3a","1536","864","de","KE05KO08","null","","","","learningBlock1","","","","That was a dep.","null","","","","",""
"","html-keyboard-response","216","478013","0.0-6.0-2.69","FL","1nbemfkd3a","1536","864","de","KE05KO08","null","","","","learningBlock1","","","","<div style=""font-size:60px;""> </div>","null","FL","learning/Slide70.JPG","That was a dep.","",""
"","image-keyboard-response","217","478194","0.0-6.0-0.70","FL","1nbemfkd3a","1536","864","de","KE05KO08","null","","","","","","","","learning/Slide71.JPG","null","","","","",""
"","html-keyboard-response","218","479354","0.0-6.0-1.70","FL","1nbemfkd3a","1536","864","de","KE05KO08","null","","","","learningBlock1","","","","That was a wug.","null","","","","",""
"","html-keyboard-response","219","480361","0.0-6.0-2.70","FL","1nbemfkd3a","1536","864","de","KE05KO08","null","","","","learningBlock1","","","","<div style=""font-size:60px;""> </div>","null","FL","learning/Slide71.JPG","That was a wug.","",""
"","image-keyboard-response","220","480544","0.0-6.0-0.71","FL","1nbemfkd3a","1536","864","de","KE05KO08","null","","","","","","","","learning/Slide72.JPG","null","","","","",""
"","html-keyboard-response","221","481702","0.0-6.0-1.71","FL","1nbemfkd3a","1536","864","de","KE05KO08","null","","","","learningBlock1","","","","That was a bim.","null","","","","",""
"","html-keyboard-response","222","482711","0.0-6.0-2.71","FL","1nbemfkd3a","1536","864","de","KE05KO08","null","","","","learningBlock1","","","","<div style=""font-size:60px;""> </div>","null","FL","learning/Slide72.JPG","That was a bim.","",""
"","image-keyboard-response","223","482895","0.0-6.0-0.72","FL","1nbemfkd3a","1536","864","de","KE05KO08","null","","","","","","","","learning/Slide73.JPG","null","","","","",""
"","html-keyboard-response","224","484054","0.0-6.0-1.72","FL","1nbemfkd3a","1536","864","de","KE05KO08","null","","","","learningBlock1","","","","That was a wug.","null","","","","",""
"","html-keyboard-response","225","485062","0.0-6.0-2.72","FL","1nbemfkd3a","1536","864","de","KE05KO08","null","","","","learningBlock1","","","","<div style=""font-size:60px;""> </div>","null","FL","learning/Slide73.JPG","That was a wug.","",""
"","image-keyboard-response","226","485243","0.0-6.0-0.73","FL","1nbemfkd3a","1536","864","de","KE05KO08","null","","","","","","","","learning/Slide74.JPG","null","","","","",""
"","html-keyboard-response","227","486401","0.0-6.0-1.73","FL","1nbemfkd3a","1536","864","de","KE05KO08","null","","","","learningBlock1","","","","That was a dep.","null","","","","",""
"","html-keyboard-response","228","487410","0.0-6.0-2.73","FL","1nbemfkd3a","1536","864","de","KE05KO08","null","","","","learningBlock1","","","","<div style=""font-size:60px;""> </div>","null","FL","learning/Slide74.JPG","That was a dep.","",""
"","image-keyboard-response","229","487592","0.0-6.0-0.74","FL","1nbemfkd3a","1536","864","de","KE05KO08","null","","","","","","","","learning/Slide75.JPG","null","","","","",""
"","html-keyboard-response","230","488748","0.0-6.0-1.74","FL","1nbemfkd3a","1536","864","de","KE05KO08","null","","","","learningBlock1","","","","That was a tob.","null","","","","",""
"","html-keyboard-response","231","489754","0.0-6.0-2.74","FL","1nbemfkd3a","1536","864","de","KE05KO08","null","","","","learningBlock1","","","","<div style=""font-size:60px;""> </div>","null","FL","learning/Slide75.JPG","That was a tob.","",""
"","image-keyboard-response","232","489934","0.0-6.0-0.75","FL","1nbemfkd3a","1536","864","de","KE05KO08","null","","","","","","","","learning/Slide76.JPG","null","","","","",""
"","html-keyboard-response","233","491093","0.0-6.0-1.75","FL","1nbemfkd3a","1536","864","de","KE05KO08","null","","","","learningBlock1","","","","That was a bim.","null","","","","",""
"","html-keyboard-response","234","492101","0.0-6.0-2.75","FL","1nbemfkd3a","1536","864","de","KE05KO08","null","","","","learningBlock1","","","","<div style=""font-size:60px;""> </div>","null","FL","learning/Slide76.JPG","That was a bim.","",""
"","image-keyboard-response","235","492282","0.0-6.0-0.76","FL","1nbemfkd3a","1536","864","de","KE05KO08","null","","","","","","","","learning/Slide77.JPG","null","","","","",""
"","html-keyboard-response","236","493442","0.0-6.0-1.76","FL","1nbemfkd3a","1536","864","de","KE05KO08","null","","","","learningBlock1","","","","That was a tob.","null","","","","",""
"","html-keyboard-response","237","494447","0.0-6.0-2.76","FL","1nbemfkd3a","1536","864","de","KE05KO08","null","","","","learningBlock1","","","","<div style=""font-size:60px;""> </div>","null","FL","learning/Slide77.JPG","That was a tob.","",""
"","image-keyboard-response","238","494627","0.0-6.0-0.77","FL","1nbemfkd3a","1536","864","de","KE05KO08","null","","","","","","","","learning/Slide78.JPG","null","","","","",""
"","html-keyboard-response","239","495783","0.0-6.0-1.77","FL","1nbemfkd3a","1536","864","de","KE05KO08","null","","","","learningBlock1","","","","That was a wug.","null","","","","",""
"","html-keyboard-response","240","496788","0.0-6.0-2.77","FL","1nbemfkd3a","1536","864","de","KE05KO08","null","","","","learningBlock1","","","","<div style=""font-size:60px;""> </div>","null","FL","learning/Slide78.JPG","That was a wug.","",""
"","image-keyboard-response","241","496968","0.0-6.0-0.78","FL","1nbemfkd3a","1536","864","de","KE05KO08","null","","","","","","","","learning/Slide79.JPG","null","","","","",""
"","html-keyboard-response","242","498126","0.0-6.0-1.78","FL","1nbemfkd3a","1536","864","de","KE05KO08","null","","","","learningBlock1","","","","That was a bim.","null","","","","",""
"","html-keyboard-response","243","499130","0.0-6.0-2.78","FL","1nbemfkd3a","1536","864","de","KE05KO08","null","","","","learningBlock1","","","","<div style=""font-size:60px;""> </div>","null","FL","learning/Slide79.JPG","That was a bim.","",""
"","image-keyboard-response","244","499309","0.0-6.0-0.79","FL","1nbemfkd3a","1536","864","de","KE05KO08","null","","","","","","","","learning/Slide80.JPG","null","","","","",""
"","html-keyboard-response","245","500468","0.0-6.0-1.79","FL","1nbemfkd3a","1536","864","de","KE05KO08","null","","","","learningBlock1","","","","That was a tob.","null","","","","",""
"","html-keyboard-response","246","501475","0.0-6.0-2.79","FL","1nbemfkd3a","1536","864","de","KE05KO08","null","","","","learningBlock1","","","","<div style=""font-size:60px;""> </div>","null","FL","learning/Slide80.JPG","That was a tob.","",""
"","instructions","247","510223","0.0-7.0","FL","1nbemfkd3a","1536","864","de","KE05KO08","NA","","","[{""page_index"":0,""viewing_time"":8745.445000007749}]","instructions","","","","","","","","","",""
"","image-keyboard-response","248","510408","0.0-8.0-0.0","FL","1nbemfkd3a","1536","864","de","KE05KO08","null","","","","","","","","learning/Slide81.JPG","null","","","","",""
"","html-keyboard-response","249","511565","0.0-8.0-1.0","FL","1nbemfkd3a","1536","864","de","KE05KO08","null","","","","learningBlock2","","","","That was a wug.","null","","","","",""
"","html-keyboard-response","250","512574","0.0-8.0-2.0","FL","1nbemfkd3a","1536","864","de","KE05KO08","null","","","","learningBlock2","","","","<div style=""font-size:60px;""> </div>","null","FL","learning/Slide81.JPG","That was a wug.","",""
"","image-keyboard-response","251","512756","0.0-8.0-0.1","FL","1nbemfkd3a","1536","864","de","KE05KO08","null","","","","","","","","learning/Slide82.JPG","null","","","","",""
"","html-keyboard-response","252","513916","0.0-8.0-1.1","FL","1nbemfkd3a","1536","864","de","KE05KO08","null","","","","learningBlock2","","","","That was a bim.","null","","","","",""
"","html-keyboard-response","253","514923","0.0-8.0-2.1","FL","1nbemfkd3a","1536","864","de","KE05KO08","null","","","","learningBlock2","","","","<div style=""font-size:60px;""> </div>","null","FL","learning/Slide82.JPG","That was a bim.","",""
"","image-keyboard-response","254","515106","0.0-8.0-0.2","FL","1nbemfkd3a","1536","864","de","KE05KO08","null","","","","","","","","learning/Slide83.JPG","null","","","","",""
"","html-keyboard-response","255","516264","0.0-8.0-1.2","FL","1nbemfkd3a","1536","864","de","KE05KO08","null","","","","learningBlock2","","","","That was a wug.","null","","","","",""
"","html-keyboard-response","256","517273","0.0-8.0-2.2","FL","1nbemfkd3a","1536","864","de","KE05KO08","null","","","","learningBlock2","","","","<div style=""font-size:60px;""> </div>","null","FL","learning/Slide83.JPG","That was a wug.","",""
"","image-keyboard-response","257","517456","0.0-8.0-0.3","FL","1nbemfkd3a","1536","864","de","KE05KO08","null","","","","","","","","learning/Slide84.JPG","null","","","","",""
"","html-keyboard-response","258","518615","0.0-8.0-1.3","FL","1nbemfkd3a","1536","864","de","KE05KO08","null","","","","learningBlock2","","","","That was a dep.","null","","","","",""
"","html-keyboard-response","259","519620","0.0-8.0-2.3","FL","1nbemfkd3a","1536","864","de","KE05KO08","null","","","","learningBlock2","","","","<div style=""font-size:60px;""> </div>","null","FL","learning/Slide84.JPG","That was a dep.","",""
"","image-keyboard-response","260","519805","0.0-8.0-0.4","FL","1nbemfkd3a","1536","864","de","KE05KO08","null","","","","","","","","learning/Slide85.JPG","null","","","","",""
"","html-keyboard-response","261","520961","0.0-8.0-1.4","FL","1nbemfkd3a","1536","864","de","KE05KO08","null","","","","learningBlock2","","","","That was a bim.","null","","","","",""
"","html-keyboard-response","262","521966","0.0-8.0-2.4","FL","1nbemfkd3a","1536","864","de","KE05KO08","null","","","","learningBlock2","","","","<div style=""font-size:60px;""> </div>","null","FL","learning/Slide85.JPG","That was a bim.","",""
"","image-keyboard-response","263","522145","0.0-8.0-0.5","FL","1nbemfkd3a","1536","864","de","KE05KO08","null","","","","","","","","learning/Slide86.JPG","null","","","","",""
"","html-keyboard-response","264","523306","0.0-8.0-1.5","FL","1nbemfkd3a","1536","864","de","KE05KO08","null","","","","learningBlock2","","","","That was a tob.","null","","","","",""
"","html-keyboard-response","265","524312","0.0-8.0-2.5","FL","1nbemfkd3a","1536","864","de","KE05KO08","null","","","","learningBlock2","","","","<div style=""font-size:60px;""> </div>","null","FL","learning/Slide86.JPG","That was a tob.","",""
"","image-keyboard-response","266","524492","0.0-8.0-0.6","FL","1nbemfkd3a","1536","864","de","KE05KO08","null","","","","","","","","learning/Slide87.JPG","null","","","","",""
"","html-keyboard-response","267","525650","0.0-8.0-1.6","FL","1nbemfkd3a","1536","864","de","KE05KO08","null","","","","learningBlock2","","","","That was a wug.","null","","","","",""
"","html-keyboard-response","268","526655","0.0-8.0-2.6","FL","1nbemfkd3a","1536","864","de","KE05KO08","null","","","","learningBlock2","","","","<div style=""font-size:60px;""> </div>","null","FL","learning/Slide87.JPG","That was a wug.","",""
"","image-keyboard-response","269","526838","0.0-8.0-0.7","FL","1nbemfkd3a","1536","864","de","KE05KO08","null","","","","","","","","learning/Slide88.JPG","null","","","","",""
"","html-keyboard-response","270","528001","0.0-8.0-1.7","FL","1nbemfkd3a","1536","864","de","KE05KO08","null","","","","learningBlock2","","","","That was a tob.","null","","","","",""
"","html-keyboard-response","271","529005","0.0-8.0-2.7","FL","1nbemfkd3a","1536","864","de","KE05KO08","null","","","","learningBlock2","","","","<div style=""font-size:60px;""> </div>","null","FL","learning/Slide88.JPG","That was a tob.","",""
"","image-keyboard-response","272","529186","0.0-8.0-0.8","FL","1nbemfkd3a","1536","864","de","KE05KO08","null","","","","","","","","learning/Slide89.JPG","null","","","","",""
"","html-keyboard-response","273","530344","0.0-8.0-1.8","FL","1nbemfkd3a","1536","864","de","KE05KO08","null","","","","learningBlock2","","","","That was a bim.","null","","","","",""
"","html-keyboard-response","274","531349","0.0-8.0-2.8","FL","1nbemfkd3a","1536","864","de","KE05KO08","null","","","","learningBlock2","","","","<div style=""font-size:60px;""> </div>","null","FL","learning/Slide89.JPG","That was a bim.","",""
"","image-keyboard-response","275","531528","0.0-8.0-0.9","FL","1nbemfkd3a","1536","864","de","KE05KO08","null","","","","","","","","learning/Slide90.JPG","null","","","","",""
"","html-keyboard-response","276","532687","0.0-8.0-1.9","FL","1nbemfkd3a","1536","864","de","KE05KO08","null","","","","learningBlock2","","","","That was a dep.","null","","","","",""
"","html-keyboard-response","277","533691","0.0-8.0-2.9","FL","1nbemfkd3a","1536","864","de","KE05KO08","null","","","","learningBlock2","","","","<div style=""font-size:60px;""> </div>","null","FL","learning/Slide90.JPG","That was a dep.","",""
"","image-keyboard-response","278","533870","0.0-8.0-0.10","FL","1nbemfkd3a","1536","864","de","KE05KO08","null","","","","","","","","learning/Slide91.JPG","null","","","","",""
"","html-keyboard-response","279","535026","0.0-8.0-1.10","FL","1nbemfkd3a","1536","864","de","KE05KO08","null","","","","learningBlock2","","","","That was a wug.","null","","","","",""
"","html-keyboard-response","280","536032","0.0-8.0-2.10","FL","1nbemfkd3a","1536","864","de","KE05KO08","null","","","","learningBlock2","","","","<div style=""font-size:60px;""> </div>","null","FL","learning/Slide91.JPG","That was a wug.","",""
"","image-keyboard-response","281","536213","0.0-8.0-0.11","FL","1nbemfkd3a","1536","864","de","KE05KO08","null","","","","","","","","learning/Slide92.JPG","null","","","","",""
"","html-keyboard-response","282","537376","0.0-8.0-1.11","FL","1nbemfkd3a","1536","864","de","KE05KO08","null","","","","learningBlock2","","","","That was a tob.","null","","","","",""
"","html-keyboard-response","283","538381","0.0-8.0-2.11","FL","1nbemfkd3a","1536","864","de","KE05KO08","null","","","","learningBlock2","","","","<div style=""font-size:60px;""> </div>","null","FL","learning/Slide92.JPG","That was a tob.","",""
"","image-keyboard-response","284","538561","0.0-8.0-0.12","FL","1nbemfkd3a","1536","864","de","KE05KO08","null","","","","","","","","learning/Slide93.JPG","null","","","","",""
"","html-keyboard-response","285","539720","0.0-8.0-1.12","FL","1nbemfkd3a","1536","864","de","KE05KO08","null","","","","learningBlock2","","","","That was a bim.","null","","","","",""
"","html-keyboard-response","286","540726","0.0-8.0-2.12","FL","1nbemfkd3a","1536","864","de","KE05KO08","null","","","","learningBlock2","","","","<div style=""font-size:60px;""> </div>","null","FL","learning/Slide93.JPG","That was a bim.","",""
"","image-keyboard-response","287","540907","0.0-8.0-0.13","FL","1nbemfkd3a","1536","864","de","KE05KO08","null","","","","","","","","learning/Slide94.JPG","null","","","","",""
"","html-keyboard-response","288","542069","0.0-8.0-1.13","FL","1nbemfkd3a","1536","864","de","KE05KO08","null","","","","learningBlock2","","","","That was a tob.","null","","","","",""
"","html-keyboard-response","289","543078","0.0-8.0-2.13","FL","1nbemfkd3a","1536","864","de","KE05KO08","null","","","","learningBlock2","","","","<div style=""font-size:60px;""> </div>","null","FL","learning/Slide94.JPG","That was a tob.","",""
"","image-keyboard-response","290","543261","0.0-8.0-0.14","FL","1nbemfkd3a","1536","864","de","KE05KO08","null","","","","","","","","learning/Slide95.JPG","null","","","","",""
"","html-keyboard-response","291","544424","0.0-8.0-1.14","FL","1nbemfkd3a","1536","864","de","KE05KO08","null","","","","learningBlock2","","","","That was a wug.","null","","","","",""
"","html-keyboard-response","292","545430","0.0-8.0-2.14","FL","1nbemfkd3a","1536","864","de","KE05KO08","null","","","","learningBlock2","","","","<div style=""font-size:60px;""> </div>","null","FL","learning/Slide95.JPG","That was a wug.","",""
"","image-keyboard-response","293","545613","0.0-8.0-0.15","FL","1nbemfkd3a","1536","864","de","KE05KO08","null","","","","","","","","learning/Slide96.JPG","null","","","","",""
"","html-keyboard-response","294","546775","0.0-8.0-1.15","FL","1nbemfkd3a","1536","864","de","KE05KO08","null","","","","learningBlock2","","","","That was a tob.","null","","","","",""
"","html-keyboard-response","295","547781","0.0-8.0-2.15","FL","1nbemfkd3a","1536","864","de","KE05KO08","null","","","","learningBlock2","","","","<div style=""font-size:60px;""> </div>","null","FL","learning/Slide96.JPG","That was a tob.","",""
"","image-keyboard-response","296","547963","0.0-8.0-0.16","FL","1nbemfkd3a","1536","864","de","KE05KO08","null","","","","","","","","learning/Slide97.JPG","null","","","","",""
"","html-keyboard-response","297","549118","0.0-8.0-1.16","FL","1nbemfkd3a","1536","864","de","KE05KO08","null","","","","learningBlock2","","","","That was a dep.","null","","","","",""
"","html-keyboard-response","298","550124","0.0-8.0-2.16","FL","1nbemfkd3a","1536","864","de","KE05KO08","null","","","","learningBlock2","","","","<div style=""font-size:60px;""> </div>","null","FL","learning/Slide97.JPG","That was a dep.","",""
"","image-keyboard-response","299","550304","0.0-8.0-0.17","FL","1nbemfkd3a","1536","864","de","KE05KO08","null","","","","","","","","learning/Slide98.JPG","null","","","","",""
"","html-keyboard-response","300","551460","0.0-8.0-1.17","FL","1nbemfkd3a","1536","864","de","KE05KO08","null","","","","learningBlock2","","","","That was a bim.","null","","","","",""
"","html-keyboard-response","301","552466","0.0-8.0-2.17","FL","1nbemfkd3a","1536","864","de","KE05KO08","null","","","","learningBlock2","","","","<div style=""font-size:60px;""> </div>","null","FL","learning/Slide98.JPG","That was a bim.","",""
"","image-keyboard-response","302","552644","0.0-8.0-0.18","FL","1nbemfkd3a","1536","864","de","KE05KO08","null","","","","","","","","learning/Slide99.JPG","null","","","","",""
"","html-keyboard-response","303","553804","0.0-8.0-1.18","FL","1nbemfkd3a","1536","864","de","KE05KO08","null","","","","learningBlock2","","","","That was a dep.","null","","","","",""
"","html-keyboard-response","304","554812","0.0-8.0-2.18","FL","1nbemfkd3a","1536","864","de","KE05KO08","null","","","","learningBlock2","","","","<div style=""font-size:60px;""> </div>","null","FL","learning/Slide99.JPG","That was a dep.","",""
"","image-keyboard-response","305","554993","0.0-8.0-0.19","FL","1nbemfkd3a","1536","864","de","KE05KO08","null","","","","","","","","learning/Slide100.JPG","null","","","","",""
"","html-keyboard-response","306","556151","0.0-8.0-1.19","FL","1nbemfkd3a","1536","864","de","KE05KO08","null","","","","learningBlock2","","","","That was a bim.","null","","","","",""
"","html-keyboard-response","307","557156","0.0-8.0-2.19","FL","1nbemfkd3a","1536","864","de","KE05KO08","null","","","","learningBlock2","","","","<div style=""font-size:60px;""> </div>","null","FL","learning/Slide100.JPG","That was a bim.","",""
"","image-keyboard-response","308","557340","0.0-8.0-0.20","FL","1nbemfkd3a","1536","864","de","KE05KO08","null","","","","","","","","learning/Slide101.JPG","null","","","","",""
"","html-keyboard-response","309","558501","0.0-8.0-1.20","FL","1nbemfkd3a","1536","864","de","KE05KO08","null","","","","learningBlock2","","","","That was a tob.","null","","","","",""
"","html-keyboard-response","310","559508","0.0-8.0-2.20","FL","1nbemfkd3a","1536","864","de","KE05KO08","null","","","","learningBlock2","","","","<div style=""font-size:60px;""> </div>","null","FL","learning/Slide101.JPG","That was a tob.","",""
"","image-keyboard-response","311","559688","0.0-8.0-0.21","FL","1nbemfkd3a","1536","864","de","KE05KO08","null","","","","","","","","learning/Slide102.JPG","null","","","","",""
"","html-keyboard-response","312","560844","0.0-8.0-1.21","FL","1nbemfkd3a","1536","864","de","KE05KO08","null","","","","learningBlock2","","","","That was a bim.","null","","","","",""
"","html-keyboard-response","313","561848","0.0-8.0-2.21","FL","1nbemfkd3a","1536","864","de","KE05KO08","null","","","","learningBlock2","","","","<div style=""font-size:60px;""> </div>","null","FL","learning/Slide102.JPG","That was a bim.","",""
"","image-keyboard-response","314","562027","0.0-8.0-0.22","FL","1nbemfkd3a","1536","864","de","KE05KO08","null","","","","","","","","learning/Slide103.JPG","null","","","","",""
"","html-keyboard-response","315","563186","0.0-8.0-1.22","FL","1nbemfkd3a","1536","864","de","KE05KO08","null","","","","learningBlock2","","","","That was a dep.","null","","","","",""
"","html-keyboard-response","316","564192","0.0-8.0-2.22","FL","1nbemfkd3a","1536","864","de","KE05KO08","null","","","","learningBlock2","","","","<div style=""font-size:60px;""> </div>","null","FL","learning/Slide103.JPG","That was a dep.","",""
"","image-keyboard-response","317","564373","0.0-8.0-0.23","FL","1nbemfkd3a","1536","864","de","KE05KO08","null","","","","","","","","learning/Slide104.JPG","null","","","","",""
"","html-keyboard-response","318","565534","0.0-8.0-1.23","FL","1nbemfkd3a","1536","864","de","KE05KO08","null","","","","learningBlock2","","","","That was a tob.","null","","","","",""
"","html-keyboard-response","319","566543","0.0-8.0-2.23","FL","1nbemfkd3a","1536","864","de","KE05KO08","null","","","","learningBlock2","","","","<div style=""font-size:60px;""> </div>","null","FL","learning/Slide104.JPG","That was a tob.","",""
"","image-keyboard-response","320","566724","0.0-8.0-0.24","FL","1nbemfkd3a","1536","864","de","KE05KO08","null","","","","","","","","learning/Slide105.JPG","null","","","","",""
"","html-keyboard-response","321","567885","0.0-8.0-1.24","FL","1nbemfkd3a","1536","864","de","KE05KO08","null","","","","learningBlock2","","","","That was a dep.","null","","","","",""
"","html-keyboard-response","322","568893","0.0-8.0-2.24","FL","1nbemfkd3a","1536","864","de","KE05KO08","null","","","","learningBlock2","","","","<div style=""font-size:60px;""> </div>","null","FL","learning/Slide105.JPG","That was a dep.","",""
"","image-keyboard-response","323","569072","0.0-8.0-0.25","FL","1nbemfkd3a","1536","864","de","KE05KO08","null","","","","","","","","learning/Slide106.JPG","null","","","","",""
"","html-keyboard-response","324","570234","0.0-8.0-1.25","FL","1nbemfkd3a","1536","864","de","KE05KO08","null","","","","learningBlock2","","","","That was a wug.","null","","","","",""
"","html-keyboard-response","325","571242","0.0-8.0-2.25","FL","1nbemfkd3a","1536","864","de","KE05KO08","null","","","","learningBlock2","","","","<div style=""font-size:60px;""> </div>","null","FL","learning/Slide106.JPG","That was a wug.","",""
"","image-keyboard-response","326","571420","0.0-8.0-0.26","FL","1nbemfkd3a","1536","864","de","KE05KO08","null","","","","","","","","learning/Slide107.JPG","null","","","","",""
"","html-keyboard-response","327","572583","0.0-8.0-1.26","FL","1nbemfkd3a","1536","864","de","KE05KO08","null","","","","learningBlock2","","","","That was a bim.","null","","","","",""
"","html-keyboard-response","328","573592","0.0-8.0-2.26","FL","1nbemfkd3a","1536","864","de","KE05KO08","null","","","","learningBlock2","","","","<div style=""font-size:60px;""> </div>","null","FL","learning/Slide107.JPG","That was a bim.","",""
"","image-keyboard-response","329","573771","0.0-8.0-0.27","FL","1nbemfkd3a","1536","864","de","KE05KO08","null","","","","","","","","learning/Slide108.JPG","null","","","","",""
"","html-keyboard-response","330","574925","0.0-8.0-1.27","FL","1nbemfkd3a","1536","864","de","KE05KO08","null","","","","learningBlock2","","","","That was a dep.","null","","","","",""
"","html-keyboard-response","331","575932","0.0-8.0-2.27","FL","1nbemfkd3a","1536","864","de","KE05KO08","null","","","","learningBlock2","","","","<div style=""font-size:60px;""> </div>","null","FL","learning/Slide108.JPG","That was a dep.","",""
"","image-keyboard-response","332","576115","0.0-8.0-0.28","FL","1nbemfkd3a","1536","864","de","KE05KO08","null","","","","","","","","learning/Slide109.JPG","null","","","","",""
"","html-keyboard-response","333","577273","0.0-8.0-1.28","FL","1nbemfkd3a","1536","864","de","KE05KO08","null","","","","learningBlock2","","","","That was a wug.","null","","","","",""
"","html-keyboard-response","334","578278","0.0-8.0-2.28","FL","1nbemfkd3a","1536","864","de","KE05KO08","null","","","","learningBlock2","","","","<div style=""font-size:60px;""> </div>","null","FL","learning/Slide109.JPG","That was a wug.","",""
"","image-keyboard-response","335","578457","0.0-8.0-0.29","FL","1nbemfkd3a","1536","864","de","KE05KO08","null","","","","","","","","learning/Slide110.JPG","null","","","","",""
"","html-keyboard-response","336","579615","0.0-8.0-1.29","FL","1nbemfkd3a","1536","864","de","KE05KO08","null","","","","learningBlock2","","","","That was a bim.","null","","","","",""
"","html-keyboard-response","337","580618","0.0-8.0-2.29","FL","1nbemfkd3a","1536","864","de","KE05KO08","null","","","","learningBlock2","","","","<div style=""font-size:60px;""> </div>","null","FL","learning/Slide110.JPG","That was a bim.","",""
"","image-keyboard-response","338","580798","0.0-8.0-0.30","FL","1nbemfkd3a","1536","864","de","KE05KO08","null","","","","","","","","learning/Slide111.JPG","null","","","","",""
"","html-keyboard-response","339","581955","0.0-8.0-1.30","FL","1nbemfkd3a","1536","864","de","KE05KO08","null","","","","learningBlock2","","","","That was a tob.","null","","","","",""
"","html-keyboard-response","340","582965","0.0-8.0-2.30","FL","1nbemfkd3a","1536","864","de","KE05KO08","null","","","","learningBlock2","","","","<div style=""font-size:60px;""> </div>","null","FL","learning/Slide111.JPG","That was a tob.","",""
"","image-keyboard-response","341","583147","0.0-8.0-0.31","FL","1nbemfkd3a","1536","864","de","KE05KO08","null","","","","","","","","learning/Slide112.JPG","null","","","","",""
"","html-keyboard-response","342","584305","0.0-8.0-1.31","FL","1nbemfkd3a","1536","864","de","KE05KO08","null","","","","learningBlock2","","","","That was a wug.","null","","","","",""
"","html-keyboard-response","343","585309","0.0-8.0-2.31","FL","1nbemfkd3a","1536","864","de","KE05KO08","null","","","","learningBlock2","","","","<div style=""font-size:60px;""> </div>","null","FL","learning/Slide112.JPG","That was a wug.","",""
"","image-keyboard-response","344","585488","0.0-8.0-0.32","FL","1nbemfkd3a","1536","864","de","KE05KO08","null","","","","","","","","learning/Slide113.JPG","null","","","","",""
"","html-keyboard-response","345","586647","0.0-8.0-1.32","FL","1nbemfkd3a","1536","864","de","KE05KO08","null","","","","learningBlock2","","","","That was a tob.","null","","","","",""
"","html-keyboard-response","346","587655","0.0-8.0-2.32","FL","1nbemfkd3a","1536","864","de","KE05KO08","null","","","","learningBlock2","","","","<div style=""font-size:60px;""> </div>","null","FL","learning/Slide113.JPG","That was a tob.","",""
"","image-keyboard-response","347","587834","0.0-8.0-0.33","FL","1nbemfkd3a","1536","864","de","KE05KO08","null","","","","","","","","learning/Slide114.JPG","null","","","","",""
"","html-keyboard-response","348","588990","0.0-8.0-1.33","FL","1nbemfkd3a","1536","864","de","KE05KO08","null","","","","learningBlock2","","","","That was a wug.","null","","","","",""
"","html-keyboard-response","349","589996","0.0-8.0-2.33","FL","1nbemfkd3a","1536","864","de","KE05KO08","null","","","","learningBlock2","","","","<div style=""font-size:60px;""> </div>","null","FL","learning/Slide114.JPG","That was a wug.","",""
"","image-keyboard-response","350","590180","0.0-8.0-0.34","FL","1nbemfkd3a","1536","864","de","KE05KO08","null","","","","","","","","learning/Slide115.JPG","null","","","","",""
"","html-keyboard-response","351","591340","0.0-8.0-1.34","FL","1nbemfkd3a","1536","864","de","KE05KO08","null","","","","learningBlock2","","","","That was a bim.","null","","","","",""
"","html-keyboard-response","352","592347","0.0-8.0-2.34","FL","1nbemfkd3a","1536","864","de","KE05KO08","null","","","","learningBlock2","","","","<div style=""font-size:60px;""> </div>","null","FL","learning/Slide115.JPG","That was a bim.","",""
"","image-keyboard-response","353","592531","0.0-8.0-0.35","FL","1nbemfkd3a","1536","864","de","KE05KO08","null","","","","","","","","learning/Slide116.JPG","null","","","","",""
"","html-keyboard-response","354","593690","0.0-8.0-1.35","FL","1nbemfkd3a","1536","864","de","KE05KO08","null","","","","learningBlock2","","","","That was a dep.","null","","","","",""
"","html-keyboard-response","355","594696","0.0-8.0-2.35","FL","1nbemfkd3a","1536","864","de","KE05KO08","null","","","","learningBlock2","","","","<div style=""font-size:60px;""> </div>","null","FL","learning/Slide116.JPG","That was a dep.","",""
"","image-keyboard-response","356","594874","0.0-8.0-0.36","FL","1nbemfkd3a","1536","864","de","KE05KO08","null","","","","","","","","learning/Slide117.JPG","null","","","","",""
"","html-keyboard-response","357","596035","0.0-8.0-1.36","FL","1nbemfkd3a","1536","864","de","KE05KO08","null","","","","learningBlock2","","","","That was a tob.","null","","","","",""
"","html-keyboard-response","358","597038","0.0-8.0-2.36","FL","1nbemfkd3a","1536","864","de","KE05KO08","null","","","","learningBlock2","","","","<div style=""font-size:60px;""> </div>","null","FL","learning/Slide117.JPG","That was a tob.","",""
"","image-keyboard-response","359","597217","0.0-8.0-0.37","FL","1nbemfkd3a","1536","864","de","KE05KO08","null","","","","","","","","learning/Slide118.JPG","null","","","","",""
"","html-keyboard-response","360","598373","0.0-8.0-1.37","FL","1nbemfkd3a","1536","864","de","KE05KO08","null","","","","learningBlock2","","","","That was a dep.","null","","","","",""
"","html-keyboard-response","361","599376","0.0-8.0-2.37","FL","1nbemfkd3a","1536","864","de","KE05KO08","null","","","","learningBlock2","","","","<div style=""font-size:60px;""> </div>","null","FL","learning/Slide118.JPG","That was a dep.","",""
"","image-keyboard-response","362","599560","0.0-8.0-0.38","FL","1nbemfkd3a","1536","864","de","KE05KO08","null","","","","","","","","learning/Slide119.JPG","null","","","","",""
"","html-keyboard-response","363","600713","0.0-8.0-1.38","FL","1nbemfkd3a","1536","864","de","KE05KO08","null","","","","learningBlock2","","","","That was a wug.","null","","","","",""
"","html-keyboard-response","364","601718","0.0-8.0-2.38","FL","1nbemfkd3a","1536","864","de","KE05KO08","null","","","","learningBlock2","","","","<div style=""font-size:60px;""> </div>","null","FL","learning/Slide119.JPG","That was a wug.","",""
"","image-keyboard-response","365","601900","0.0-8.0-0.39","FL","1nbemfkd3a","1536","864","de","KE05KO08","null","","","","","","","","learning/Slide120.JPG","null","","","","",""
"","html-keyboard-response","366","603061","0.0-8.0-1.39","FL","1nbemfkd3a","1536","864","de","KE05KO08","null","","","","learningBlock2","","","","That was a dep.","null","","","","",""
"","html-keyboard-response","367","604065","0.0-8.0-2.39","FL","1nbemfkd3a","1536","864","de","KE05KO08","null","","","","learningBlock2","","","","<div style=""font-size:60px;""> </div>","null","FL","learning/Slide120.JPG","That was a dep.","",""
"","image-keyboard-response","368","604244","0.0-8.0-0.40","FL","1nbemfkd3a","1536","864","de","KE05KO08","null","","","","","","","","learning/Slide121.JPG","null","","","","",""
"","html-keyboard-response","369","605400","0.0-8.0-1.40","FL","1nbemfkd3a","1536","864","de","KE05KO08","null","","","","learningBlock2","","","","That was a bim.","null","","","","",""
"","html-keyboard-response","370","606405","0.0-8.0-2.40","FL","1nbemfkd3a","1536","864","de","KE05KO08","null","","","","learningBlock2","","","","<div style=""font-size:60px;""> </div>","null","FL","learning/Slide121.JPG","That was a bim.","",""
"","image-keyboard-response","371","606584","0.0-8.0-0.41","FL","1nbemfkd3a","1536","864","de","KE05KO08","null","","","","","","","","learning/Slide122.JPG","null","","","","",""
"","html-keyboard-response","372","607744","0.0-8.0-1.41","FL","1nbemfkd3a","1536","864","de","KE05KO08","null","","","","learningBlock2","","","","That was a wug.","null","","","","",""
"","html-keyboard-response","373","608752","0.0-8.0-2.41","FL","1nbemfkd3a","1536","864","de","KE05KO08","null","","","","learningBlock2","","","","<div style=""font-size:60px;""> </div>","null","FL","learning/Slide122.JPG","That was a wug.","",""
"","image-keyboard-response","374","608933","0.0-8.0-0.42","FL","1nbemfkd3a","1536","864","de","KE05KO08","null","","","","","","","","learning/Slide123.JPG","null","","","","",""
"","html-keyboard-response","375","610087","0.0-8.0-1.42","FL","1nbemfkd3a","1536","864","de","KE05KO08","null","","","","learningBlock2","","","","That was a bim.","null","","","","",""
"","html-keyboard-response","376","611094","0.0-8.0-2.42","FL","1nbemfkd3a","1536","864","de","KE05KO08","null","","","","learningBlock2","","","","<div style=""font-size:60px;""> </div>","null","FL","learning/Slide123.JPG","That was a bim.","",""
"","image-keyboard-response","377","611277","0.0-8.0-0.43","FL","1nbemfkd3a","1536","864","de","KE05KO08","null","","","","","","","","learning/Slide124.JPG","null","","","","",""
"","html-keyboard-response","378","612437","0.0-8.0-1.43","FL","1nbemfkd3a","1536","864","de","KE05KO08","null","","","","learningBlock2","","","","That was a tob.","null","","","","",""
"","html-keyboard-response","379","613443","0.0-8.0-2.43","FL","1nbemfkd3a","1536","864","de","KE05KO08","null","","","","learningBlock2","","","","<div style=""font-size:60px;""> </div>","null","FL","learning/Slide124.JPG","That was a tob.","",""
"","image-keyboard-response","380","613622","0.0-8.0-0.44","FL","1nbemfkd3a","1536","864","de","KE05KO08","null","","","","","","","","learning/Slide125.JPG","null","","","","",""
"","html-keyboard-response","381","614777","0.0-8.0-1.44","FL","1nbemfkd3a","1536","864","de","KE05KO08","null","","","","learningBlock2","","","","That was a bim.","null","","","","",""
"","html-keyboard-response","382","615780","0.0-8.0-2.44","FL","1nbemfkd3a","1536","864","de","KE05KO08","null","","","","learningBlock2","","","","<div style=""font-size:60px;""> </div>","null","FL","learning/Slide125.JPG","That was a bim.","",""
"","image-keyboard-response","383","615959","0.0-8.0-0.45","FL","1nbemfkd3a","1536","864","de","KE05KO08","null","","","","","","","","learning/Slide126.JPG","null","","","","",""
"","html-keyboard-response","384","617116","0.0-8.0-1.45","FL","1nbemfkd3a","1536","864","de","KE05KO08","null","","","","learningBlock2","","","","That was a tob.","null","","","","",""
"","html-keyboard-response","385","618120","0.0-8.0-2.45","FL","1nbemfkd3a","1536","864","de","KE05KO08","null","","","","learningBlock2","","","","<div style=""font-size:60px;""> </div>","null","FL","learning/Slide126.JPG","That was a tob.","",""
"","image-keyboard-response","386","618300","0.0-8.0-0.46","FL","1nbemfkd3a","1536","864","de","KE05KO08","null","","","","","","","","learning/Slide127.JPG","null","","","","",""
"","html-keyboard-response","387","619454","0.0-8.0-1.46","FL","1nbemfkd3a","1536","864","de","KE05KO08","null","","","","learningBlock2","","","","That was a dep.","null","","","","",""
"","html-keyboard-response","388","620459","0.0-8.0-2.46","FL","1nbemfkd3a","1536","864","de","KE05KO08","null","","","","learningBlock2","","","","<div style=""font-size:60px;""> </div>","null","FL","learning/Slide127.JPG","That was a dep.","",""
"","image-keyboard-response","389","620641","0.0-8.0-0.47","FL","1nbemfkd3a","1536","864","de","KE05KO08","null","","","","","","","","learning/Slide128.JPG","null","","","","",""
"","html-keyboard-response","390","621799","0.0-8.0-1.47","FL","1nbemfkd3a","1536","864","de","KE05KO08","null","","","","learningBlock2","","","","That was a wug.","null","","","","",""
"","html-keyboard-response","391","622803","0.0-8.0-2.47","FL","1nbemfkd3a","1536","864","de","KE05KO08","null","","","","learningBlock2","","","","<div style=""font-size:60px;""> </div>","null","FL","learning/Slide128.JPG","That was a wug.","",""
"","image-keyboard-response","392","622983","0.0-8.0-0.48","FL","1nbemfkd3a","1536","864","de","KE05KO08","null","","","","","","","","learning/Slide129.JPG","null","","","","",""
"","html-keyboard-response","393","624137","0.0-8.0-1.48","FL","1nbemfkd3a","1536","864","de","KE05KO08","null","","","","learningBlock2","","","","That was a tob.","null","","","","",""
"","html-keyboard-response","394","625142","0.0-8.0-2.48","FL","1nbemfkd3a","1536","864","de","KE05KO08","null","","","","learningBlock2","","","","<div style=""font-size:60px;""> </div>","null","FL","learning/Slide129.JPG","That was a tob.","",""
"","image-keyboard-response","395","625325","0.0-8.0-0.49","FL","1nbemfkd3a","1536","864","de","KE05KO08","null","","","","","","","","learning/Slide130.JPG","null","","","","",""
"","html-keyboard-response","396","626481","0.0-8.0-1.49","FL","1nbemfkd3a","1536","864","de","KE05KO08","null","","","","learningBlock2","","","","That was a wug.","null","","","","",""
"","html-keyboard-response","397","627487","0.0-8.0-2.49","FL","1nbemfkd3a","1536","864","de","KE05KO08","null","","","","learningBlock2","","","","<div style=""font-size:60px;""> </div>","null","FL","learning/Slide130.JPG","That was a wug.","",""
"","image-keyboard-response","398","627669","0.0-8.0-0.50","FL","1nbemfkd3a","1536","864","de","KE05KO08","null","","","","","","","","learning/Slide131.JPG","null","","","","",""
"","html-keyboard-response","399","628830","0.0-8.0-1.50","FL","1nbemfkd3a","1536","864","de","KE05KO08","null","","","","learningBlock2","","","","That was a bim.","null","","","","",""
"","html-keyboard-response","400","629835","0.0-8.0-2.50","FL","1nbemfkd3a","1536","864","de","KE05KO08","null","","","","learningBlock2","","","","<div style=""font-size:60px;""> </div>","null","FL","learning/Slide131.JPG","That was a bim.","",""
"","image-keyboard-response","401","630016","0.0-8.0-0.51","FL","1nbemfkd3a","1536","864","de","KE05KO08","null","","","","","","","","learning/Slide132.JPG","null","","","","",""
"","html-keyboard-response","402","631174","0.0-8.0-1.51","FL","1nbemfkd3a","1536","864","de","KE05KO08","null","","","","learningBlock2","","","","That was a dep.","null","","","","",""
"","html-keyboard-response","403","632180","0.0-8.0-2.51","FL","1nbemfkd3a","1536","864","de","KE05KO08","null","","","","learningBlock2","","","","<div style=""font-size:60px;""> </div>","null","FL","learning/Slide132.JPG","That was a dep.","",""
"","image-keyboard-response","404","632365","0.0-8.0-0.52","FL","1nbemfkd3a","1536","864","de","KE05KO08","null","","","","","","","","learning/Slide133.JPG","null","","","","",""
"","html-keyboard-response","405","633524","0.0-8.0-1.52","FL","1nbemfkd3a","1536","864","de","KE05KO08","null","","","","learningBlock2","","","","That was a tob.","null","","","","",""
"","html-keyboard-response","406","634528","0.0-8.0-2.52","FL","1nbemfkd3a","1536","864","de","KE05KO08","null","","","","learningBlock2","","","","<div style=""font-size:60px;""> </div>","null","FL","learning/Slide133.JPG","That was a tob.","",""
"","image-keyboard-response","407","634711","0.0-8.0-0.53","FL","1nbemfkd3a","1536","864","de","KE05KO08","null","","","","","","","","learning/Slide134.JPG","null","","","","",""
"","html-keyboard-response","408","635865","0.0-8.0-1.53","FL","1nbemfkd3a","1536","864","de","KE05KO08","null","","","","learningBlock2","","","","That was a dep.","null","","","","",""
"","html-keyboard-response","409","636869","0.0-8.0-2.53","FL","1nbemfkd3a","1536","864","de","KE05KO08","null","","","","learningBlock2","","","","<div style=""font-size:60px;""> </div>","null","FL","learning/Slide134.JPG","That was a dep.","",""
"","image-keyboard-response","410","637048","0.0-8.0-0.54","FL","1nbemfkd3a","1536","864","de","KE05KO08","null","","","","","","","","learning/Slide135.JPG","null","","","","",""
"","html-keyboard-response","411","638207","0.0-8.0-1.54","FL","1nbemfkd3a","1536","864","de","KE05KO08","null","","","","learningBlock2","","","","That was a tob.","null","","","","",""
"","html-keyboard-response","412","639211","0.0-8.0-2.54","FL","1nbemfkd3a","1536","864","de","KE05KO08","null","","","","learningBlock2","","","","<div style=""font-size:60px;""> </div>","null","FL","learning/Slide135.JPG","That was a tob.","",""
"","image-keyboard-response","413","639393","0.0-8.0-0.55","FL","1nbemfkd3a","1536","864","de","KE05KO08","null","","","","","","","","learning/Slide136.JPG","null","","","","",""
"","html-keyboard-response","414","640551","0.0-8.0-1.55","FL","1nbemfkd3a","1536","864","de","KE05KO08","null","","","","learningBlock2","","","","That was a wug.","null","","","","",""
"","html-keyboard-response","415","641557","0.0-8.0-2.55","FL","1nbemfkd3a","1536","864","de","KE05KO08","null","","","","learningBlock2","","","","<div style=""font-size:60px;""> </div>","null","FL","learning/Slide136.JPG","That was a wug.","",""
"","image-keyboard-response","416","641735","0.0-8.0-0.56","FL","1nbemfkd3a","1536","864","de","KE05KO08","null","","","","","","","","learning/Slide137.JPG","null","","","","",""
"","html-keyboard-response","417","642891","0.0-8.0-1.56","FL","1nbemfkd3a","1536","864","de","KE05KO08","null","","","","learningBlock2","","","","That was a tob.","null","","","","",""
"","html-keyboard-response","418","643897","0.0-8.0-2.56","FL","1nbemfkd3a","1536","864","de","KE05KO08","null","","","","learningBlock2","","","","<div style=""font-size:60px;""> </div>","null","FL","learning/Slide137.JPG","That was a tob.","",""
"","image-keyboard-response","419","644077","0.0-8.0-0.57","FL","1nbemfkd3a","1536","864","de","KE05KO08","null","","","","","","","","learning/Slide138.JPG","null","","","","",""
"","html-keyboard-response","420","645235","0.0-8.0-1.57","FL","1nbemfkd3a","1536","864","de","KE05KO08","null","","","","learningBlock2","","","","That was a bim.","null","","","","",""
"","html-keyboard-response","421","646240","0.0-8.0-2.57","FL","1nbemfkd3a","1536","864","de","KE05KO08","null","","","","learningBlock2","","","","<div style=""font-size:60px;""> </div>","null","FL","learning/Slide138.JPG","That was a bim.","",""
"","image-keyboard-response","422","646423","0.0-8.0-0.58","FL","1nbemfkd3a","1536","864","de","KE05KO08","null","","","","","","","","learning/Slide139.JPG","null","","","","",""
"","html-keyboard-response","423","647583","0.0-8.0-1.58","FL","1nbemfkd3a","1536","864","de","KE05KO08","null","","","","learningBlock2","","","","That was a wug.","null","","","","",""
"","html-keyboard-response","424","648589","0.0-8.0-2.58","FL","1nbemfkd3a","1536","864","de","KE05KO08","null","","","","learningBlock2","","","","<div style=""font-size:60px;""> </div>","null","FL","learning/Slide139.JPG","That was a wug.","",""
"","image-keyboard-response","425","648772","0.0-8.0-0.59","FL","1nbemfkd3a","1536","864","de","KE05KO08","null","","","","","","","","learning/Slide140.JPG","null","","","","",""
"","html-keyboard-response","426","649930","0.0-8.0-1.59","FL","1nbemfkd3a","1536","864","de","KE05KO08","null","","","","learningBlock2","","","","That was a dep.","null","","","","",""
"","html-keyboard-response","427","650934","0.0-8.0-2.59","FL","1nbemfkd3a","1536","864","de","KE05KO08","null","","","","learningBlock2","","","","<div style=""font-size:60px;""> </div>","null","FL","learning/Slide140.JPG","That was a dep.","",""
"","image-keyboard-response","428","651117","0.0-8.0-0.60","FL","1nbemfkd3a","1536","864","de","KE05KO08","null","","","","","","","","learning/Slide141.JPG","null","","","","",""
"","html-keyboard-response","429","652279","0.0-8.0-1.60","FL","1nbemfkd3a","1536","864","de","KE05KO08","null","","","","learningBlock2","","","","That was a tob.","null","","","","",""
"","html-keyboard-response","430","653286","0.0-8.0-2.60","FL","1nbemfkd3a","1536","864","de","KE05KO08","null","","","","learningBlock2","","","","<div style=""font-size:60px;""> </div>","null","FL","learning/Slide141.JPG","That was a tob.","",""
"","image-keyboard-response","431","653471","0.0-8.0-0.61","FL","1nbemfkd3a","1536","864","de","KE05KO08","null","","","","","","","","learning/Slide142.JPG","null","","","","",""
"","html-keyboard-response","432","654630","0.0-8.0-1.61","FL","1nbemfkd3a","1536","864","de","KE05KO08","null","","","","learningBlock2","","","","That was a wug.","null","","","","",""
"","html-keyboard-response","433","655635","0.0-8.0-2.61","FL","1nbemfkd3a","1536","864","de","KE05KO08","null","","","","learningBlock2","","","","<div style=""font-size:60px;""> </div>","null","FL","learning/Slide142.JPG","That was a wug.","",""
"","image-keyboard-response","434","655814","0.0-8.0-0.62","FL","1nbemfkd3a","1536","864","de","KE05KO08","null","","","","","","","","learning/Slide143.JPG","null","","","","",""
"","html-keyboard-response","435","656975","0.0-8.0-1.62","FL","1nbemfkd3a","1536","864","de","KE05KO08","null","","","","learningBlock2","","","","That was a bim.","null","","","","",""
"","html-keyboard-response","436","657982","0.0-8.0-2.62","FL","1nbemfkd3a","1536","864","de","KE05KO08","null","","","","learningBlock2","","","","<div style=""font-size:60px;""> </div>","null","FL","learning/Slide143.JPG","That was a bim.","",""
"","image-keyboard-response","437","658164","0.0-8.0-0.63","FL","1nbemfkd3a","1536","864","de","KE05KO08","null","","","","","","","","learning/Slide144.JPG","null","","","","",""
"","html-keyboard-response","438","659323","0.0-8.0-1.63","FL","1nbemfkd3a","1536","864","de","KE05KO08","null","","","","learningBlock2","","","","That was a dep.","null","","","","",""
"","html-keyboard-response","439","660327","0.0-8.0-2.63","FL","1nbemfkd3a","1536","864","de","KE05KO08","null","","","","learningBlock2","","","","<div style=""font-size:60px;""> </div>","null","FL","learning/Slide144.JPG","That was a dep.","",""
"","image-keyboard-response","440","660507","0.0-8.0-0.64","FL","1nbemfkd3a","1536","864","de","KE05KO08","null","","","","","","","","learning/Slide145.JPG","null","","","","",""
"","html-keyboard-response","441","661665","0.0-8.0-1.64","FL","1nbemfkd3a","1536","864","de","KE05KO08","null","","","","learningBlock2","","","","That was a bim.","null","","","","",""
"","html-keyboard-response","442","662671","0.0-8.0-2.64","FL","1nbemfkd3a","1536","864","de","KE05KO08","null","","","","learningBlock2","","","","<div style=""font-size:60px;""> </div>","null","FL","learning/Slide145.JPG","That was a bim.","",""
"","image-keyboard-response","443","662851","0.0-8.0-0.65","FL","1nbemfkd3a","1536","864","de","KE05KO08","null","","","","","","","","learning/Slide146.JPG","null","","","","",""
"","html-keyboard-response","444","664005","0.0-8.0-1.65","FL","1nbemfkd3a","1536","864","de","KE05KO08","null","","","","learningBlock2","","","","That was a tob.","null","","","","",""
"","html-keyboard-response","445","665014","0.0-8.0-2.65","FL","1nbemfkd3a","1536","864","de","KE05KO08","null","","","","learningBlock2","","","","<div style=""font-size:60px;""> </div>","null","FL","learning/Slide146.JPG","That was a tob.","",""
"","image-keyboard-response","446","665196","0.0-8.0-0.66","FL","1nbemfkd3a","1536","864","de","KE05KO08","null","","","","","","","","learning/Slide147.JPG","null","","","","",""
"","html-keyboard-response","447","666353","0.0-8.0-1.66","FL","1nbemfkd3a","1536","864","de","KE05KO08","null","","","","learningBlock2","","","","That was a wug.","null","","","","",""
"","html-keyboard-response","448","667357","0.0-8.0-2.66","FL","1nbemfkd3a","1536","864","de","KE05KO08","null","","","","learningBlock2","","","","<div style=""font-size:60px;""> </div>","null","FL","learning/Slide147.JPG","That was a wug.","",""
"","image-keyboard-response","449","667536","0.0-8.0-0.67","FL","1nbemfkd3a","1536","864","de","KE05KO08","null","","","","","","","","learning/Slide148.JPG","null","","","","",""
"","html-keyboard-response","450","668690","0.0-8.0-1.67","FL","1nbemfkd3a","1536","864","de","KE05KO08","null","","","","learningBlock2","","","","That was a bim.","null","","","","",""
"","html-keyboard-response","451","669696","0.0-8.0-2.67","FL","1nbemfkd3a","1536","864","de","KE05KO08","null","","","","learningBlock2","","","","<div style=""font-size:60px;""> </div>","null","FL","learning/Slide148.JPG","That was a bim.","",""
"","image-keyboard-response","452","669877","0.0-8.0-0.68","FL","1nbemfkd3a","1536","864","de","KE05KO08","null","","","","","","","","learning/Slide149.JPG","null","","","","",""
"","html-keyboard-response","453","671036","0.0-8.0-1.68","FL","1nbemfkd3a","1536","864","de","KE05KO08","null","","","","learningBlock2","","","","That was a dep.","null","","","","",""
"","html-keyboard-response","454","672043","0.0-8.0-2.68","FL","1nbemfkd3a","1536","864","de","KE05KO08","null","","","","learningBlock2","","","","<div style=""font-size:60px;""> </div>","null","FL","learning/Slide149.JPG","That was a dep.","",""
"","image-keyboard-response","455","672224","0.0-8.0-0.69","FL","1nbemfkd3a","1536","864","de","KE05KO08","null","","","","","","","","learning/Slide150.JPG","null","","","","",""
"","html-keyboard-response","456","673381","0.0-8.0-1.69","FL","1nbemfkd3a","1536","864","de","KE05KO08","null","","","","learningBlock2","","","","That was a wug.","null","","","","",""
"","html-keyboard-response","457","674385","0.0-8.0-2.69","FL","1nbemfkd3a","1536","864","de","KE05KO08","null","","","","learningBlock2","","","","<div style=""font-size:60px;""> </div>","null","FL","learning/Slide150.JPG","That was a wug.","",""
"","image-keyboard-response","458","674568","0.0-8.0-0.70","FL","1nbemfkd3a","1536","864","de","KE05KO08","null","","","","","","","","learning/Slide151.JPG","null","","","","",""
"","html-keyboard-response","459","675725","0.0-8.0-1.70","FL","1nbemfkd3a","1536","864","de","KE05KO08","null","","","","learningBlock2","","","","That was a dep.","null","","","","",""
"","html-keyboard-response","460","676729","0.0-8.0-2.70","FL","1nbemfkd3a","1536","864","de","KE05KO08","null","","","","learningBlock2","","","","<div style=""font-size:60px;""> </div>","null","FL","learning/Slide151.JPG","That was a dep.","",""
"","image-keyboard-response","461","676909","0.0-8.0-0.71","FL","1nbemfkd3a","1536","864","de","KE05KO08","null","","","","","","","","learning/Slide152.JPG","null","","","","",""
"","html-keyboard-response","462","678068","0.0-8.0-1.71","FL","1nbemfkd3a","1536","864","de","KE05KO08","null","","","","learningBlock2","","","","That was a wug.","null","","","","",""
"","html-keyboard-response","463","679075","0.0-8.0-2.71","FL","1nbemfkd3a","1536","864","de","KE05KO08","null","","","","learningBlock2","","","","<div style=""font-size:60px;""> </div>","null","FL","learning/Slide152.JPG","That was a wug.","",""
"","image-keyboard-response","464","679257","0.0-8.0-0.72","FL","1nbemfkd3a","1536","864","de","KE05KO08","null","","","","","","","","learning/Slide153.JPG","null","","","","",""
"","html-keyboard-response","465","680412","0.0-8.0-1.72","FL","1nbemfkd3a","1536","864","de","KE05KO08","null","","","","learningBlock2","","","","That was a bim.","null","","","","",""
"","html-keyboard-response","466","681417","0.0-8.0-2.72","FL","1nbemfkd3a","1536","864","de","KE05KO08","null","","","","learningBlock2","","","","<div style=""font-size:60px;""> </div>","null","FL","learning/Slide153.JPG","That was a bim.","",""
"","image-keyboard-response","467","681599","0.0-8.0-0.73","FL","1nbemfkd3a","1536","864","de","KE05KO08","null","","","","","","","","learning/Slide154.JPG","null","","","","",""
"","html-keyboard-response","468","682757","0.0-8.0-1.73","FL","1nbemfkd3a","1536","864","de","KE05KO08","null","","","","learningBlock2","","","","That was a tob.","null","","","","",""
"","html-keyboard-response","469","683761","0.0-8.0-2.73","FL","1nbemfkd3a","1536","864","de","KE05KO08","null","","","","learningBlock2","","","","<div style=""font-size:60px;""> </div>","null","FL","learning/Slide154.JPG","That was a tob.","",""
"","image-keyboard-response","470","683939","0.0-8.0-0.74","FL","1nbemfkd3a","1536","864","de","KE05KO08","null","","","","","","","","learning/Slide155.JPG","null","","","","",""
"","html-keyboard-response","471","685101","0.0-8.0-1.74","FL","1nbemfkd3a","1536","864","de","KE05KO08","null","","","","learningBlock2","","","","That was a dep.","null","","","","",""
"","html-keyboard-response","472","686107","0.0-8.0-2.74","FL","1nbemfkd3a","1536","864","de","KE05KO08","null","","","","learningBlock2","","","","<div style=""font-size:60px;""> </div>","null","FL","learning/Slide155.JPG","That was a dep.","",""
"","image-keyboard-response","473","686287","0.0-8.0-0.75","FL","1nbemfkd3a","1536","864","de","KE05KO08","null","","","","","","","","learning/Slide156.JPG","null","","","","",""
"","html-keyboard-response","474","687443","0.0-8.0-1.75","FL","1nbemfkd3a","1536","864","de","KE05KO08","null","","","","learningBlock2","","","","That was a bim.","null","","","","",""
"","html-keyboard-response","475","688452","0.0-8.0-2.75","FL","1nbemfkd3a","1536","864","de","KE05KO08","null","","","","learningBlock2","","","","<div style=""font-size:60px;""> </div>","null","FL","learning/Slide156.JPG","That was a bim.","",""
"","image-keyboard-response","476","688633","0.0-8.0-0.76","FL","1nbemfkd3a","1536","864","de","KE05KO08","null","","","","","","","","learning/Slide157.JPG","null","","","","",""
"","html-keyboard-response","477","689792","0.0-8.0-1.76","FL","1nbemfkd3a","1536","864","de","KE05KO08","null","","","","learningBlock2","","","","That was a dep.","null","","","","",""
"","html-keyboard-response","478","690801","0.0-8.0-2.76","FL","1nbemfkd3a","1536","864","de","KE05KO08","null","","","","learningBlock2","","","","<div style=""font-size:60px;""> </div>","null","FL","learning/Slide157.JPG","That was a dep.","",""
"","image-keyboard-response","479","690983","0.0-8.0-0.77","FL","1nbemfkd3a","1536","864","de","KE05KO08","null","","","","","","","","learning/Slide158.JPG","null","","","","",""
"","html-keyboard-response","480","692141","0.0-8.0-1.77","FL","1nbemfkd3a","1536","864","de","KE05KO08","null","","","","learningBlock2","","","","That was a tob.","null","","","","",""
"","html-keyboard-response","481","693145","0.0-8.0-2.77","FL","1nbemfkd3a","1536","864","de","KE05KO08","null","","","","learningBlock2","","","","<div style=""font-size:60px;""> </div>","null","FL","learning/Slide158.JPG","That was a tob.","",""
"","image-keyboard-response","482","693326","0.0-8.0-0.78","FL","1nbemfkd3a","1536","864","de","KE05KO08","null","","","","","","","","learning/Slide159.JPG","null","","","","",""
"","html-keyboard-response","483","694486","0.0-8.0-1.78","FL","1nbemfkd3a","1536","864","de","KE05KO08","null","","","","learningBlock2","","","","That was a dep.","null","","","","",""
"","html-keyboard-response","484","695490","0.0-8.0-2.78","FL","1nbemfkd3a","1536","864","de","KE05KO08","null","","","","learningBlock2","","","","<div style=""font-size:60px;""> </div>","null","FL","learning/Slide159.JPG","That was a dep.","",""
"","image-keyboard-response","485","695672","0.0-8.0-0.79","FL","1nbemfkd3a","1536","864","de","KE05KO08","null","","","","","","","","learning/Slide160.JPG","null","","","","",""
"","html-keyboard-response","486","696827","0.0-8.0-1.79","FL","1nbemfkd3a","1536","864","de","KE05KO08","null","","","","learningBlock2","","","","That was a wug.","null","","","","",""
"","html-keyboard-response","487","697832","0.0-8.0-2.79","FL","1nbemfkd3a","1536","864","de","KE05KO08","null","","","","learningBlock2","","","","<div style=""font-size:60px;""> </div>","null","FL","learning/Slide160.JPG","That was a wug.","",""
"","resize2","488","705545","0.0-9.0","FL","1nbemfkd3a","1536","864","de","KE05KO08","","","","","","","104","1.04","","","","","","",""
