"success","trial_type","trial_index","time_elapsed","internal_node_id","condition","subject","screen_width","screen_height","language","codeword","rt","responses","url","view_history","test_part","final_height_px","final_width_px","scale_factor","stimulus","key_press","learningType","presentedImage","presentedLabel","button_pressed","response"
"true","fullscreen","0","5653","0.0-0.0","FL","z15jvz5weu","1440","900","en","gh09er15","","","","","","","","","","","","","","",""
"","survey-html-form","1","6672","0.0-1.0","FL","z15jvz5weu","1440","900","en","gh09er15","1015.0499999999738","{""language"":""en""}","","","","","","","","","","","","",""
"","external-html","2","13521","0.0-3.0-0.0","FL","z15jvz5weu","1440","900","en","gh09er15","6840.294999999969","","text/information_english.html","","","","","","","","","","","",""
"","external-html","3","52335","0.0-3.0-1.0","FL","z15jvz5weu","1440","900","en","gh09er15","38746.99999999939","","text/consent_english.html","","","","","","","","","","","",""
"","survey-html-form","4","339728","0.0-3.0-2.0","FL","z15jvz5weu","1440","900","en","gh09er15","287399.8250000004","{""codeword_enter"":""gh09er15""}","","","","","","","","","","","","",""
"","instructions","5","379560","0.0-4.0","FL","z15jvz5weu","1440","900","en","gh09er15","NA","","","[{""page_index"":0,""viewing_time"":7938.104999999225},{""page_index"":1,""viewing_time"":30386.30500000005}]","instructions","","","","","","","","","",""
"","resize","6","551918","0.0-5.0","FL","z15jvz5weu","1440","900","en","gh09er15","","","","","","","438","2.780952380952381","","","","","","",""
"","image-keyboard-response","7","552097","0.0-6.0-0.0","FL","z15jvz5weu","1440","900","en","gh09er15","null","","","","","","","","learning/Slide1.JPG","null","","","","",""
"","html-keyboard-response","8","553254","0.0-6.0-1.0","FL","z15jvz5weu","1440","900","en","gh09er15","null","","","","learningBlock1","","","","That was a tob.","null","","","","",""
"","html-keyboard-response","9","554260","0.0-6.0-2.0","FL","z15jvz5weu","1440","900","en","gh09er15","null","","","","learningBlock1","","","","<div style=""font-size:60px;""> </div>","null","FL","learning/Slide1.JPG","That was a tob.","",""
"","image-keyboard-response","10","554438","0.0-6.0-0.1","FL","z15jvz5weu","1440","900","en","gh09er15","null","","","","","","","","learning/Slide2.JPG","null","","","","",""
"","html-keyboard-response","11","555593","0.0-6.0-1.1","FL","z15jvz5weu","1440","900","en","gh09er15","null","","","","learningBlock1","","","","That was a wug.","null","","","","",""
"","html-keyboard-response","12","556596","0.0-6.0-2.1","FL","z15jvz5weu","1440","900","en","gh09er15","null","","","","learningBlock1","","","","<div style=""font-size:60px;""> </div>","null","FL","learning/Slide2.JPG","That was a wug.","",""
"","image-keyboard-response","13","556777","0.0-6.0-0.2","FL","z15jvz5weu","1440","900","en","gh09er15","null","","","","","","","","learning/Slide3.JPG","null","","","","",""
"","html-keyboard-response","14","557929","0.0-6.0-1.2","FL","z15jvz5weu","1440","900","en","gh09er15","null","","","","learningBlock1","","","","That was a bim.","null","","","","",""
"","html-keyboard-response","15","558934","0.0-6.0-2.2","FL","z15jvz5weu","1440","900","en","gh09er15","null","","","","learningBlock1","","","","<div style=""font-size:60px;""> </div>","null","FL","learning/Slide3.JPG","That was a bim.","",""
"","image-keyboard-response","16","559113","0.0-6.0-0.3","FL","z15jvz5weu","1440","900","en","gh09er15","null","","","","","","","","learning/Slide4.JPG","null","","","","",""
"","html-keyboard-response","17","560272","0.0-6.0-1.3","FL","z15jvz5weu","1440","900","en","gh09er15","null","","","","learningBlock1","","","","That was a dep.","null","","","","",""
"","html-keyboard-response","18","561277","0.0-6.0-2.3","FL","z15jvz5weu","1440","900","en","gh09er15","null","","","","learningBlock1","","","","<div style=""font-size:60px;""> </div>","null","FL","learning/Slide4.JPG","That was a dep.","",""
"","image-keyboard-response","19","561456","0.0-6.0-0.4","FL","z15jvz5weu","1440","900","en","gh09er15","null","","","","","","","","learning/Slide5.JPG","null","","","","",""
"","html-keyboard-response","20","562613","0.0-6.0-1.4","FL","z15jvz5weu","1440","900","en","gh09er15","null","","","","learningBlock1","","","","That was a wug.","null","","","","",""
"","html-keyboard-response","21","563616","0.0-6.0-2.4","FL","z15jvz5weu","1440","900","en","gh09er15","null","","","","learningBlock1","","","","<div style=""font-size:60px;""> </div>","null","FL","learning/Slide5.JPG","That was a wug.","",""
"","image-keyboard-response","22","563793","0.0-6.0-0.5","FL","z15jvz5weu","1440","900","en","gh09er15","null","","","","","","","","learning/Slide6.JPG","null","","","","",""
"","html-keyboard-response","23","564951","0.0-6.0-1.5","FL","z15jvz5weu","1440","900","en","gh09er15","null","","","","learningBlock1","","","","That was a dep.","null","","","","",""
"","html-keyboard-response","24","565952","0.0-6.0-2.5","FL","z15jvz5weu","1440","900","en","gh09er15","null","","","","learningBlock1","","","","<div style=""font-size:60px;""> </div>","null","FL","learning/Slide6.JPG","That was a dep.","",""
"","image-keyboard-response","25","566133","0.0-6.0-0.6","FL","z15jvz5weu","1440","900","en","gh09er15","null","","","","","","","","learning/Slide7.JPG","null","","","","",""
"","html-keyboard-response","26","567293","0.0-6.0-1.6","FL","z15jvz5weu","1440","900","en","gh09er15","null","","","","learningBlock1","","","","That was a wug.","null","","","","",""
"","html-keyboard-response","27","568296","0.0-6.0-2.6","FL","z15jvz5weu","1440","900","en","gh09er15","null","","","","learningBlock1","","","","<div style=""font-size:60px;""> </div>","null","FL","learning/Slide7.JPG","That was a wug.","",""
"","image-keyboard-response","28","568476","0.0-6.0-0.7","FL","z15jvz5weu","1440","900","en","gh09er15","null","","","","","","","","learning/Slide8.JPG","null","","","","",""
"","html-keyboard-response","29","569634","0.0-6.0-1.7","FL","z15jvz5weu","1440","900","en","gh09er15","null","","","","learningBlock1","","","","That was a bim.","null","","","","",""
"","html-keyboard-response","30","570640","0.0-6.0-2.7","FL","z15jvz5weu","1440","900","en","gh09er15","null","","","","learningBlock1","","","","<div style=""font-size:60px;""> </div>","null","FL","learning/Slide8.JPG","That was a bim.","",""
"","image-keyboard-response","31","570821","0.0-6.0-0.8","FL","z15jvz5weu","1440","900","en","gh09er15","null","","","","","","","","learning/Slide9.JPG","null","","","","",""
"","html-keyboard-response","32","571980","0.0-6.0-1.8","FL","z15jvz5weu","1440","900","en","gh09er15","null","","","","learningBlock1","","","","That was a wug.","null","","","","",""
"","html-keyboard-response","33","572983","0.0-6.0-2.8","FL","z15jvz5weu","1440","900","en","gh09er15","null","","","","learningBlock1","","","","<div style=""font-size:60px;""> </div>","null","FL","learning/Slide9.JPG","That was a wug.","",""
"","image-keyboard-response","34","573162","0.0-6.0-0.9","FL","z15jvz5weu","1440","900","en","gh09er15","null","","","","","","","","learning/Slide10.JPG","null","","","","",""
"","html-keyboard-response","35","574315","0.0-6.0-1.9","FL","z15jvz5weu","1440","900","en","gh09er15","null","","","","learningBlock1","","","","That was a dep.","null","","","","",""
"","html-keyboard-response","36","575317","0.0-6.0-2.9","FL","z15jvz5weu","1440","900","en","gh09er15","null","","","","learningBlock1","","","","<div style=""font-size:60px;""> </div>","null","FL","learning/Slide10.JPG","That was a dep.","",""
"","image-keyboard-response","37","575496","0.0-6.0-0.10","FL","z15jvz5weu","1440","900","en","gh09er15","null","","","","","","","","learning/Slide11.JPG","null","","","","",""
"","html-keyboard-response","38","576649","0.0-6.0-1.10","FL","z15jvz5weu","1440","900","en","gh09er15","null","","","","learningBlock1","","","","That was a tob.","null","","","","",""
"","html-keyboard-response","39","577655","0.0-6.0-2.10","FL","z15jvz5weu","1440","900","en","gh09er15","null","","","","learningBlock1","","","","<div style=""font-size:60px;""> </div>","null","FL","learning/Slide11.JPG","That was a tob.","",""
"","image-keyboard-response","40","577833","0.0-6.0-0.11","FL","z15jvz5weu","1440","900","en","gh09er15","null","","","","","","","","learning/Slide12.JPG","null","","","","",""
"","html-keyboard-response","41","578993","0.0-6.0-1.11","FL","z15jvz5weu","1440","900","en","gh09er15","null","","","","learningBlock1","","","","That was a dep.","null","","","","",""
"","html-keyboard-response","42","579996","0.0-6.0-2.11","FL","z15jvz5weu","1440","900","en","gh09er15","null","","","","learningBlock1","","","","<div style=""font-size:60px;""> </div>","null","FL","learning/Slide12.JPG","That was a dep.","",""
"","image-keyboard-response","43","580176","0.0-6.0-0.12","FL","z15jvz5weu","1440","900","en","gh09er15","null","","","","","","","","learning/Slide13.JPG","null","","","","",""
"","html-keyboard-response","44","581328","0.0-6.0-1.12","FL","z15jvz5weu","1440","900","en","gh09er15","null","","","","learningBlock1","","","","That was a bim.","null","","","","",""
"","html-keyboard-response","45","582333","0.0-6.0-2.12","FL","z15jvz5weu","1440","900","en","gh09er15","null","","","","learningBlock1","","","","<div style=""font-size:60px;""> </div>","null","FL","learning/Slide13.JPG","That was a bim.","",""
"","image-keyboard-response","46","582512","0.0-6.0-0.13","FL","z15jvz5weu","1440","900","en","gh09er15","null","","","","","","","","learning/Slide14.JPG","null","","","","",""
"","html-keyboard-response","47","583665","0.0-6.0-1.13","FL","z15jvz5weu","1440","900","en","gh09er15","null","","","","learningBlock1","","","","That was a wug.","null","","","","",""
"","html-keyboard-response","48","584666","0.0-6.0-2.13","FL","z15jvz5weu","1440","900","en","gh09er15","null","","","","learningBlock1","","","","<div style=""font-size:60px;""> </div>","null","FL","learning/Slide14.JPG","That was a wug.","",""
"","image-keyboard-response","49","584847","0.0-6.0-0.14","FL","z15jvz5weu","1440","900","en","gh09er15","null","","","","","","","","learning/Slide15.JPG","null","","","","",""
"","html-keyboard-response","50","586000","0.0-6.0-1.14","FL","z15jvz5weu","1440","900","en","gh09er15","null","","","","learningBlock1","","","","That was a tob.","null","","","","",""
"","html-keyboard-response","51","587005","0.0-6.0-2.14","FL","z15jvz5weu","1440","900","en","gh09er15","null","","","","learningBlock1","","","","<div style=""font-size:60px;""> </div>","null","FL","learning/Slide15.JPG","That was a tob.","",""
"","image-keyboard-response","52","587183","0.0-6.0-0.15","FL","z15jvz5weu","1440","900","en","gh09er15","null","","","","","","","","learning/Slide16.JPG","null","","","","",""
"","html-keyboard-response","53","588342","0.0-6.0-1.15","FL","z15jvz5weu","1440","900","en","gh09er15","null","","","","learningBlock1","","","","That was a dep.","null","","","","",""
"","html-keyboard-response","54","589348","0.0-6.0-2.15","FL","z15jvz5weu","1440","900","en","gh09er15","null","","","","learningBlock1","","","","<div style=""font-size:60px;""> </div>","null","FL","learning/Slide16.JPG","That was a dep.","",""
"","image-keyboard-response","55","589526","0.0-6.0-0.16","FL","z15jvz5weu","1440","900","en","gh09er15","null","","","","","","","","learning/Slide17.JPG","null","","","","",""
"","html-keyboard-response","56","590683","0.0-6.0-1.16","FL","z15jvz5weu","1440","900","en","gh09er15","null","","","","learningBlock1","","","","That was a bim.","null","","","","",""
"","html-keyboard-response","57","591684","0.0-6.0-2.16","FL","z15jvz5weu","1440","900","en","gh09er15","null","","","","learningBlock1","","","","<div style=""font-size:60px;""> </div>","null","FL","learning/Slide17.JPG","That was a bim.","",""
"","image-keyboard-response","58","591865","0.0-6.0-0.17","FL","z15jvz5weu","1440","900","en","gh09er15","null","","","","","","","","learning/Slide18.JPG","null","","","","",""
"","html-keyboard-response","59","593018","0.0-6.0-1.17","FL","z15jvz5weu","1440","900","en","gh09er15","null","","","","learningBlock1","","","","That was a tob.","null","","","","",""
"","html-keyboard-response","60","594020","0.0-6.0-2.17","FL","z15jvz5weu","1440","900","en","gh09er15","null","","","","learningBlock1","","","","<div style=""font-size:60px;""> </div>","null","FL","learning/Slide18.JPG","That was a tob.","",""
"","image-keyboard-response","61","594201","0.0-6.0-0.18","FL","z15jvz5weu","1440","900","en","gh09er15","null","","","","","","","","learning/Slide19.JPG","null","","","","",""
"","html-keyboard-response","62","595358","0.0-6.0-1.18","FL","z15jvz5weu","1440","900","en","gh09er15","null","","","","learningBlock1","","","","That was a wug.","null","","","","",""
"","html-keyboard-response","63","596362","0.0-6.0-2.18","FL","z15jvz5weu","1440","900","en","gh09er15","null","","","","learningBlock1","","","","<div style=""font-size:60px;""> </div>","null","FL","learning/Slide19.JPG","That was a wug.","",""
"","image-keyboard-response","64","596542","0.0-6.0-0.19","FL","z15jvz5weu","1440","900","en","gh09er15","null","","","","","","","","learning/Slide20.JPG","null","","","","",""
"","html-keyboard-response","65","597700","0.0-6.0-1.19","FL","z15jvz5weu","1440","900","en","gh09er15","null","","","","learningBlock1","","","","That was a bim.","null","","","","",""
"","html-keyboard-response","66","598703","0.0-6.0-2.19","FL","z15jvz5weu","1440","900","en","gh09er15","null","","","","learningBlock1","","","","<div style=""font-size:60px;""> </div>","null","FL","learning/Slide20.JPG","That was a bim.","",""
"","image-keyboard-response","67","598884","0.0-6.0-0.20","FL","z15jvz5weu","1440","900","en","gh09er15","null","","","","","","","","learning/Slide21.JPG","null","","","","",""
"","html-keyboard-response","68","600036","0.0-6.0-1.20","FL","z15jvz5weu","1440","900","en","gh09er15","null","","","","learningBlock1","","","","That was a dep.","null","","","","",""
"","html-keyboard-response","69","601042","0.0-6.0-2.20","FL","z15jvz5weu","1440","900","en","gh09er15","null","","","","learningBlock1","","","","<div style=""font-size:60px;""> </div>","null","FL","learning/Slide21.JPG","That was a dep.","",""
"","image-keyboard-response","70","601219","0.0-6.0-0.21","FL","z15jvz5weu","1440","900","en","gh09er15","null","","","","","","","","learning/Slide22.JPG","null","","","","",""
"","html-keyboard-response","71","602379","0.0-6.0-1.21","FL","z15jvz5weu","1440","900","en","gh09er15","null","","","","learningBlock1","","","","That was a bim.","null","","","","",""
"","html-keyboard-response","72","603385","0.0-6.0-2.21","FL","z15jvz5weu","1440","900","en","gh09er15","null","","","","learningBlock1","","","","<div style=""font-size:60px;""> </div>","null","FL","learning/Slide22.JPG","That was a bim.","",""
"","image-keyboard-response","73","603566","0.0-6.0-0.22","FL","z15jvz5weu","1440","900","en","gh09er15","null","","","","","","","","learning/Slide23.JPG","null","","","","",""
"","html-keyboard-response","74","604718","0.0-6.0-1.22","FL","z15jvz5weu","1440","900","en","gh09er15","null","","","","learningBlock1","","","","That was a tob.","null","","","","",""
"","html-keyboard-response","75","605724","0.0-6.0-2.22","FL","z15jvz5weu","1440","900","en","gh09er15","null","","","","learningBlock1","","","","<div style=""font-size:60px;""> </div>","null","FL","learning/Slide23.JPG","That was a tob.","",""
"","image-keyboard-response","76","605904","0.0-6.0-0.23","FL","z15jvz5weu","1440","900","en","gh09er15","null","","","","","","","","learning/Slide24.JPG","null","","","","",""
"","html-keyboard-response","77","607061","0.0-6.0-1.23","FL","z15jvz5weu","1440","900","en","gh09er15","null","","","","learningBlock1","","","","That was a wug.","null","","","","",""
"","html-keyboard-response","78","608066","0.0-6.0-2.23","FL","z15jvz5weu","1440","900","en","gh09er15","null","","","","learningBlock1","","","","<div style=""font-size:60px;""> </div>","null","FL","learning/Slide24.JPG","That was a wug.","",""
"","image-keyboard-response","79","608244","0.0-6.0-0.24","FL","z15jvz5weu","1440","900","en","gh09er15","null","","","","","","","","learning/Slide25.JPG","null","","","","",""
"","html-keyboard-response","80","609400","0.0-6.0-1.24","FL","z15jvz5weu","1440","900","en","gh09er15","null","","","","learningBlock1","","","","That was a dep.","null","","","","",""
"","html-keyboard-response","81","610403","0.0-6.0-2.24","FL","z15jvz5weu","1440","900","en","gh09er15","null","","","","learningBlock1","","","","<div style=""font-size:60px;""> </div>","null","FL","learning/Slide25.JPG","That was a dep.","",""
"","image-keyboard-response","82","610584","0.0-6.0-0.25","FL","z15jvz5weu","1440","900","en","gh09er15","null","","","","","","","","learning/Slide26.JPG","null","","","","",""
"","html-keyboard-response","83","611741","0.0-6.0-1.25","FL","z15jvz5weu","1440","900","en","gh09er15","null","","","","learningBlock1","","","","That was a wug.","null","","","","",""
"","html-keyboard-response","84","612744","0.0-6.0-2.25","FL","z15jvz5weu","1440","900","en","gh09er15","null","","","","learningBlock1","","","","<div style=""font-size:60px;""> </div>","null","FL","learning/Slide26.JPG","That was a wug.","",""
"","image-keyboard-response","85","612925","0.0-6.0-0.26","FL","z15jvz5weu","1440","900","en","gh09er15","null","","","","","","","","learning/Slide27.JPG","null","","","","",""
"","html-keyboard-response","86","614083","0.0-6.0-1.26","FL","z15jvz5weu","1440","900","en","gh09er15","null","","","","learningBlock1","","","","That was a bim.","null","","","","",""
"","html-keyboard-response","87","615089","0.0-6.0-2.26","FL","z15jvz5weu","1440","900","en","gh09er15","null","","","","learningBlock1","","","","<div style=""font-size:60px;""> </div>","null","FL","learning/Slide27.JPG","That was a bim.","",""
"","image-keyboard-response","88","615267","0.0-6.0-0.27","FL","z15jvz5weu","1440","900","en","gh09er15","null","","","","","","","","learning/Slide28.JPG","null","","","","",""
"","html-keyboard-response","89","616429","0.0-6.0-1.27","FL","z15jvz5weu","1440","900","en","gh09er15","null","","","","learningBlock1","","","","That was a dep.","null","","","","",""
"","html-keyboard-response","90","617434","0.0-6.0-2.27","FL","z15jvz5weu","1440","900","en","gh09er15","null","","","","learningBlock1","","","","<div style=""font-size:60px;""> </div>","null","FL","learning/Slide28.JPG","That was a dep.","",""
"","image-keyboard-response","91","617613","0.0-6.0-0.28","FL","z15jvz5weu","1440","900","en","gh09er15","null","","","","","","","","learning/Slide29.JPG","null","","","","",""
"","html-keyboard-response","92","618765","0.0-6.0-1.28","FL","z15jvz5weu","1440","900","en","gh09er15","null","","","","learningBlock1","","","","That was a tob.","null","","","","",""
"","html-keyboard-response","93","619768","0.0-6.0-2.28","FL","z15jvz5weu","1440","900","en","gh09er15","null","","","","learningBlock1","","","","<div style=""font-size:60px;""> </div>","null","FL","learning/Slide29.JPG","That was a tob.","",""
"","image-keyboard-response","94","619949","0.0-6.0-0.29","FL","z15jvz5weu","1440","900","en","gh09er15","null","","","","","","","","learning/Slide30.JPG","null","","","","",""
"","html-keyboard-response","95","621108","0.0-6.0-1.29","FL","z15jvz5weu","1440","900","en","gh09er15","null","","","","learningBlock1","","","","That was a dep.","null","","","","",""
"","html-keyboard-response","96","622111","0.0-6.0-2.29","FL","z15jvz5weu","1440","900","en","gh09er15","null","","","","learningBlock1","","","","<div style=""font-size:60px;""> </div>","null","FL","learning/Slide30.JPG","That was a dep.","",""
"","image-keyboard-response","97","622291","0.0-6.0-0.30","FL","z15jvz5weu","1440","900","en","gh09er15","null","","","","","","","","learning/Slide31.JPG","null","","","","",""
"","html-keyboard-response","98","623448","0.0-6.0-1.30","FL","z15jvz5weu","1440","900","en","gh09er15","null","","","","learningBlock1","","","","That was a wug.","null","","","","",""
"","html-keyboard-response","99","624452","0.0-6.0-2.30","FL","z15jvz5weu","1440","900","en","gh09er15","null","","","","learningBlock1","","","","<div style=""font-size:60px;""> </div>","null","FL","learning/Slide31.JPG","That was a wug.","",""
"","image-keyboard-response","100","624632","0.0-6.0-0.31","FL","z15jvz5weu","1440","900","en","gh09er15","null","","","","","","","","learning/Slide32.JPG","null","","","","",""
"","html-keyboard-response","101","625787","0.0-6.0-1.31","FL","z15jvz5weu","1440","900","en","gh09er15","null","","","","learningBlock1","","","","That was a tob.","null","","","","",""
"","html-keyboard-response","102","626791","0.0-6.0-2.31","FL","z15jvz5weu","1440","900","en","gh09er15","null","","","","learningBlock1","","","","<div style=""font-size:60px;""> </div>","null","FL","learning/Slide32.JPG","That was a tob.","",""
"","image-keyboard-response","103","626968","0.0-6.0-0.32","FL","z15jvz5weu","1440","900","en","gh09er15","null","","","","","","","","learning/Slide33.JPG","null","","","","",""
"","html-keyboard-response","104","628124","0.0-6.0-1.32","FL","z15jvz5weu","1440","900","en","gh09er15","null","","","","learningBlock1","","","","That was a bim.","null","","","","",""
"","html-keyboard-response","105","629126","0.0-6.0-2.32","FL","z15jvz5weu","1440","900","en","gh09er15","null","","","","learningBlock1","","","","<div style=""font-size:60px;""> </div>","null","FL","learning/Slide33.JPG","That was a bim.","",""
"","image-keyboard-response","106","629304","0.0-6.0-0.33","FL","z15jvz5weu","1440","900","en","gh09er15","null","","","","","","","","learning/Slide34.JPG","null","","","","",""
"","html-keyboard-response","107","630460","0.0-6.0-1.33","FL","z15jvz5weu","1440","900","en","gh09er15","null","","","","learningBlock1","","","","That was a tob.","null","","","","",""
"","html-keyboard-response","108","631462","0.0-6.0-2.33","FL","z15jvz5weu","1440","900","en","gh09er15","null","","","","learningBlock1","","","","<div style=""font-size:60px;""> </div>","null","FL","learning/Slide34.JPG","That was a tob.","",""
"","image-keyboard-response","109","631644","0.0-6.0-0.34","FL","z15jvz5weu","1440","900","en","gh09er15","null","","","","","","","","learning/Slide35.JPG","null","","","","",""
"","html-keyboard-response","110","632802","0.0-6.0-1.34","FL","z15jvz5weu","1440","900","en","gh09er15","null","","","","learningBlock1","","","","That was a bim.","null","","","","",""
"","html-keyboard-response","111","633807","0.0-6.0-2.34","FL","z15jvz5weu","1440","900","en","gh09er15","null","","","","learningBlock1","","","","<div style=""font-size:60px;""> </div>","null","FL","learning/Slide35.JPG","That was a bim.","",""
"","image-keyboard-response","112","633986","0.0-6.0-0.35","FL","z15jvz5weu","1440","900","en","gh09er15","null","","","","","","","","learning/Slide36.JPG","null","","","","",""
"","html-keyboard-response","113","635143","0.0-6.0-1.35","FL","z15jvz5weu","1440","900","en","gh09er15","null","","","","learningBlock1","","","","That was a dep.","null","","","","",""
"","html-keyboard-response","114","636150","0.0-6.0-2.35","FL","z15jvz5weu","1440","900","en","gh09er15","null","","","","learningBlock1","","","","<div style=""font-size:60px;""> </div>","null","FL","learning/Slide36.JPG","That was a dep.","",""
"","image-keyboard-response","115","636331","0.0-6.0-0.36","FL","z15jvz5weu","1440","900","en","gh09er15","null","","","","","","","","learning/Slide37.JPG","null","","","","",""
"","html-keyboard-response","116","637485","0.0-6.0-1.36","FL","z15jvz5weu","1440","900","en","gh09er15","null","","","","learningBlock1","","","","That was a tob.","null","","","","",""
"","html-keyboard-response","117","638491","0.0-6.0-2.36","FL","z15jvz5weu","1440","900","en","gh09er15","null","","","","learningBlock1","","","","<div style=""font-size:60px;""> </div>","null","FL","learning/Slide37.JPG","That was a tob.","",""
"","image-keyboard-response","118","638668","0.0-6.0-0.37","FL","z15jvz5weu","1440","900","en","gh09er15","null","","","","","","","","learning/Slide38.JPG","null","","","","",""
"","html-keyboard-response","119","639825","0.0-6.0-1.37","FL","z15jvz5weu","1440","900","en","gh09er15","null","","","","learningBlock1","","","","That was a wug.","null","","","","",""
"","html-keyboard-response","120","640831","0.0-6.0-2.37","FL","z15jvz5weu","1440","900","en","gh09er15","null","","","","learningBlock1","","","","<div style=""font-size:60px;""> </div>","null","FL","learning/Slide38.JPG","That was a wug.","",""
"","image-keyboard-response","121","641010","0.0-6.0-0.38","FL","z15jvz5weu","1440","900","en","gh09er15","null","","","","","","","","learning/Slide39.JPG","null","","","","",""
"","html-keyboard-response","122","642167","0.0-6.0-1.38","FL","z15jvz5weu","1440","900","en","gh09er15","null","","","","learningBlock1","","","","That was a bim.","null","","","","",""
"","html-keyboard-response","123","643170","0.0-6.0-2.38","FL","z15jvz5weu","1440","900","en","gh09er15","null","","","","learningBlock1","","","","<div style=""font-size:60px;""> </div>","null","FL","learning/Slide39.JPG","That was a bim.","",""
"","image-keyboard-response","124","643351","0.0-6.0-0.39","FL","z15jvz5weu","1440","900","en","gh09er15","null","","","","","","","","learning/Slide40.JPG","null","","","","",""
"","html-keyboard-response","125","644507","0.0-6.0-1.39","FL","z15jvz5weu","1440","900","en","gh09er15","null","","","","learningBlock1","","","","That was a tob.","null","","","","",""
"","html-keyboard-response","126","645510","0.0-6.0-2.39","FL","z15jvz5weu","1440","900","en","gh09er15","null","","","","learningBlock1","","","","<div style=""font-size:60px;""> </div>","null","FL","learning/Slide40.JPG","That was a tob.","",""
"","image-keyboard-response","127","645690","0.0-6.0-0.40","FL","z15jvz5weu","1440","900","en","gh09er15","null","","","","","","","","learning/Slide41.JPG","null","","","","",""
"","html-keyboard-response","128","646845","0.0-6.0-1.40","FL","z15jvz5weu","1440","900","en","gh09er15","null","","","","learningBlock1","","","","That was a bim.","null","","","","",""
"","html-keyboard-response","129","647849","0.0-6.0-2.40","FL","z15jvz5weu","1440","900","en","gh09er15","null","","","","learningBlock1","","","","<div style=""font-size:60px;""> </div>","null","FL","learning/Slide41.JPG","That was a bim.","",""
"","image-keyboard-response","130","648031","0.0-6.0-0.41","FL","z15jvz5weu","1440","900","en","gh09er15","null","","","","","","","","learning/Slide42.JPG","null","","","","",""
"","html-keyboard-response","131","649185","0.0-6.0-1.41","FL","z15jvz5weu","1440","900","en","gh09er15","null","","","","learningBlock1","","","","That was a dep.","null","","","","",""
"","html-keyboard-response","132","650190","0.0-6.0-2.41","FL","z15jvz5weu","1440","900","en","gh09er15","null","","","","learningBlock1","","","","<div style=""font-size:60px;""> </div>","null","FL","learning/Slide42.JPG","That was a dep.","",""
"","image-keyboard-response","133","650369","0.0-6.0-0.42","FL","z15jvz5weu","1440","900","en","gh09er15","null","","","","","","","","learning/Slide43.JPG","null","","","","",""
"","html-keyboard-response","134","651527","0.0-6.0-1.42","FL","z15jvz5weu","1440","900","en","gh09er15","null","","","","learningBlock1","","","","That was a wug.","null","","","","",""
"","html-keyboard-response","135","652530","0.0-6.0-2.42","FL","z15jvz5weu","1440","900","en","gh09er15","null","","","","learningBlock1","","","","<div style=""font-size:60px;""> </div>","null","FL","learning/Slide43.JPG","That was a wug.","",""
"","image-keyboard-response","136","652710","0.0-6.0-0.43","FL","z15jvz5weu","1440","900","en","gh09er15","null","","","","","","","","learning/Slide44.JPG","null","","","","",""
"","html-keyboard-response","137","653868","0.0-6.0-1.43","FL","z15jvz5weu","1440","900","en","gh09er15","null","","","","learningBlock1","","","","That was a bim.","null","","","","",""
"","html-keyboard-response","138","654873","0.0-6.0-2.43","FL","z15jvz5weu","1440","900","en","gh09er15","null","","","","learningBlock1","","","","<div style=""font-size:60px;""> </div>","null","FL","learning/Slide44.JPG","That was a bim.","",""
"","image-keyboard-response","139","655050","0.0-6.0-0.44","FL","z15jvz5weu","1440","900","en","gh09er15","null","","","","","","","","learning/Slide45.JPG","null","","","","",""
"","html-keyboard-response","140","656207","0.0-6.0-1.44","FL","z15jvz5weu","1440","900","en","gh09er15","null","","","","learningBlock1","","","","That was a wug.","null","","","","",""
"","html-keyboard-response","141","657212","0.0-6.0-2.44","FL","z15jvz5weu","1440","900","en","gh09er15","null","","","","learningBlock1","","","","<div style=""font-size:60px;""> </div>","null","FL","learning/Slide45.JPG","That was a wug.","",""
"","image-keyboard-response","142","657390","0.0-6.0-0.45","FL","z15jvz5weu","1440","900","en","gh09er15","null","","","","","","","","learning/Slide46.JPG","null","","","","",""
"","html-keyboard-response","143","658544","0.0-6.0-1.45","FL","z15jvz5weu","1440","900","en","gh09er15","null","","","","learningBlock1","","","","That was a dep.","null","","","","",""
"","html-keyboard-response","144","659548","0.0-6.0-2.45","FL","z15jvz5weu","1440","900","en","gh09er15","null","","","","learningBlock1","","","","<div style=""font-size:60px;""> </div>","null","FL","learning/Slide46.JPG","That was a dep.","",""
"","image-keyboard-response","145","659730","0.0-6.0-0.46","FL","z15jvz5weu","1440","900","en","gh09er15","null","","","","","","","","learning/Slide47.JPG","null","","","","",""
"","html-keyboard-response","146","660890","0.0-6.0-1.46","FL","z15jvz5weu","1440","900","en","gh09er15","null","","","","learningBlock1","","","","That was a tob.","null","","","","",""
"","html-keyboard-response","147","661892","0.0-6.0-2.46","FL","z15jvz5weu","1440","900","en","gh09er15","null","","","","learningBlock1","","","","<div style=""font-size:60px;""> </div>","null","FL","learning/Slide47.JPG","That was a tob.","",""
"","image-keyboard-response","148","662070","0.0-6.0-0.47","FL","z15jvz5weu","1440","900","en","gh09er15","null","","","","","","","","learning/Slide48.JPG","null","","","","",""
"","html-keyboard-response","149","663230","0.0-6.0-1.47","FL","z15jvz5weu","1440","900","en","gh09er15","null","","","","learningBlock1","","","","That was a bim.","null","","","","",""
"","html-keyboard-response","150","664235","0.0-6.0-2.47","FL","z15jvz5weu","1440","900","en","gh09er15","null","","","","learningBlock1","","","","<div style=""font-size:60px;""> </div>","null","FL","learning/Slide48.JPG","That was a bim.","",""
"","image-keyboard-response","151","664417","0.0-6.0-0.48","FL","z15jvz5weu","1440","900","en","gh09er15","null","","","","","","","","learning/Slide49.JPG","null","","","","",""
"","html-keyboard-response","152","665573","0.0-6.0-1.48","FL","z15jvz5weu","1440","900","en","gh09er15","null","","","","learningBlock1","","","","That was a dep.","null","","","","",""
"","html-keyboard-response","153","666574","0.0-6.0-2.48","FL","z15jvz5weu","1440","900","en","gh09er15","null","","","","learningBlock1","","","","<div style=""font-size:60px;""> </div>","null","FL","learning/Slide49.JPG","That was a dep.","",""
"","image-keyboard-response","154","666753","0.0-6.0-0.49","FL","z15jvz5weu","1440","900","en","gh09er15","null","","","","","","","","learning/Slide50.JPG","null","","","","",""
"","html-keyboard-response","155","667909","0.0-6.0-1.49","FL","z15jvz5weu","1440","900","en","gh09er15","null","","","","learningBlock1","","","","That was a tob.","null","","","","",""
"","html-keyboard-response","156","668912","0.0-6.0-2.49","FL","z15jvz5weu","1440","900","en","gh09er15","null","","","","learningBlock1","","","","<div style=""font-size:60px;""> </div>","null","FL","learning/Slide50.JPG","That was a tob.","",""
"","image-keyboard-response","157","669089","0.0-6.0-0.50","FL","z15jvz5weu","1440","900","en","gh09er15","null","","","","","","","","learning/Slide51.JPG","null","","","","",""
"","html-keyboard-response","158","670244","0.0-6.0-1.50","FL","z15jvz5weu","1440","900","en","gh09er15","null","","","","learningBlock1","","","","That was a bim.","null","","","","",""
"","html-keyboard-response","159","671249","0.0-6.0-2.50","FL","z15jvz5weu","1440","900","en","gh09er15","null","","","","learningBlock1","","","","<div style=""font-size:60px;""> </div>","null","FL","learning/Slide51.JPG","That was a bim.","",""
"","image-keyboard-response","160","671430","0.0-6.0-0.51","FL","z15jvz5weu","1440","900","en","gh09er15","null","","","","","","","","learning/Slide52.JPG","null","","","","",""
"","html-keyboard-response","161","672589","0.0-6.0-1.51","FL","z15jvz5weu","1440","900","en","gh09er15","null","","","","learningBlock1","","","","That was a wug.","null","","","","",""
"","html-keyboard-response","162","673593","0.0-6.0-2.51","FL","z15jvz5weu","1440","900","en","gh09er15","null","","","","learningBlock1","","","","<div style=""font-size:60px;""> </div>","null","FL","learning/Slide52.JPG","That was a wug.","",""
"","image-keyboard-response","163","673773","0.0-6.0-0.52","FL","z15jvz5weu","1440","900","en","gh09er15","null","","","","","","","","learning/Slide53.JPG","null","","","","",""
"","html-keyboard-response","164","674930","0.0-6.0-1.52","FL","z15jvz5weu","1440","900","en","gh09er15","null","","","","learningBlock1","","","","That was a tob.","null","","","","",""
"","html-keyboard-response","165","675933","0.0-6.0-2.52","FL","z15jvz5weu","1440","900","en","gh09er15","null","","","","learningBlock1","","","","<div style=""font-size:60px;""> </div>","null","FL","learning/Slide53.JPG","That was a tob.","",""
"","image-keyboard-response","166","676110","0.0-6.0-0.53","FL","z15jvz5weu","1440","900","en","gh09er15","null","","","","","","","","learning/Slide54.JPG","null","","","","",""
"","html-keyboard-response","167","677264","0.0-6.0-1.53","FL","z15jvz5weu","1440","900","en","gh09er15","null","","","","learningBlock1","","","","That was a dep.","null","","","","",""
"","html-keyboard-response","168","678266","0.0-6.0-2.53","FL","z15jvz5weu","1440","900","en","gh09er15","null","","","","learningBlock1","","","","<div style=""font-size:60px;""> </div>","null","FL","learning/Slide54.JPG","That was a dep.","",""
"","image-keyboard-response","169","678443","0.0-6.0-0.54","FL","z15jvz5weu","1440","900","en","gh09er15","null","","","","","","","","learning/Slide55.JPG","null","","","","",""
"","html-keyboard-response","170","679595","0.0-6.0-1.54","FL","z15jvz5weu","1440","900","en","gh09er15","null","","","","learningBlock1","","","","That was a bim.","null","","","","",""
"","html-keyboard-response","171","680600","0.0-6.0-2.54","FL","z15jvz5weu","1440","900","en","gh09er15","null","","","","learningBlock1","","","","<div style=""font-size:60px;""> </div>","null","FL","learning/Slide55.JPG","That was a bim.","",""
"","image-keyboard-response","172","680780","0.0-6.0-0.55","FL","z15jvz5weu","1440","900","en","gh09er15","null","","","","","","","","learning/Slide56.JPG","null","","","","",""
"","html-keyboard-response","173","681936","0.0-6.0-1.55","FL","z15jvz5weu","1440","900","en","gh09er15","null","","","","learningBlock1","","","","That was a tob.","null","","","","",""
"","html-keyboard-response","174","682939","0.0-6.0-2.55","FL","z15jvz5weu","1440","900","en","gh09er15","null","","","","learningBlock1","","","","<div style=""font-size:60px;""> </div>","null","FL","learning/Slide56.JPG","That was a tob.","",""
"","image-keyboard-response","175","683116","0.0-6.0-0.56","FL","z15jvz5weu","1440","900","en","gh09er15","null","","","","","","","","learning/Slide57.JPG","null","","","","",""
"","html-keyboard-response","176","684272","0.0-6.0-1.56","FL","z15jvz5weu","1440","900","en","gh09er15","null","","","","learningBlock1","","","","That was a dep.","null","","","","",""
"","html-keyboard-response","177","685274","0.0-6.0-2.56","FL","z15jvz5weu","1440","900","en","gh09er15","null","","","","learningBlock1","","","","<div style=""font-size:60px;""> </div>","null","FL","learning/Slide57.JPG","That was a dep.","",""
"","image-keyboard-response","178","685455","0.0-6.0-0.57","FL","z15jvz5weu","1440","900","en","gh09er15","null","","","","","","","","learning/Slide58.JPG","null","","","","",""
"","html-keyboard-response","179","686613","0.0-6.0-1.57","FL","z15jvz5weu","1440","900","en","gh09er15","null","","","","learningBlock1","","","","That was a wug.","null","","","","",""
"","html-keyboard-response","180","687616","0.0-6.0-2.57","FL","z15jvz5weu","1440","900","en","gh09er15","null","","","","learningBlock1","","","","<div style=""font-size:60px;""> </div>","null","FL","learning/Slide58.JPG","That was a wug.","",""
"","image-keyboard-response","181","687795","0.0-6.0-0.58","FL","z15jvz5weu","1440","900","en","gh09er15","null","","","","","","","","learning/Slide59.JPG","null","","","","",""
"","html-keyboard-response","182","688949","0.0-6.0-1.58","FL","z15jvz5weu","1440","900","en","gh09er15","null","","","","learningBlock1","","","","That was a dep.","null","","","","",""
"","html-keyboard-response","183","689955","0.0-6.0-2.58","FL","z15jvz5weu","1440","900","en","gh09er15","null","","","","learningBlock1","","","","<div style=""font-size:60px;""> </div>","null","FL","learning/Slide59.JPG","That was a dep.","",""
"","image-keyboard-response","184","690133","0.0-6.0-0.59","FL","z15jvz5weu","1440","900","en","gh09er15","null","","","","","","","","learning/Slide60.JPG","null","","","","",""
"","html-keyboard-response","185","691292","0.0-6.0-1.59","FL","z15jvz5weu","1440","900","en","gh09er15","null","","","","learningBlock1","","","","That was a wug.","null","","","","",""
"","html-keyboard-response","186","692293","0.0-6.0-2.59","FL","z15jvz5weu","1440","900","en","gh09er15","null","","","","learningBlock1","","","","<div style=""font-size:60px;""> </div>","null","FL","learning/Slide60.JPG","That was a wug.","",""
"","image-keyboard-response","187","692472","0.0-6.0-0.60","FL","z15jvz5weu","1440","900","en","gh09er15","null","","","","","","","","learning/Slide61.JPG","null","","","","",""
"","html-keyboard-response","188","693630","0.0-6.0-1.60","FL","z15jvz5weu","1440","900","en","gh09er15","null","","","","learningBlock1","","","","That was a bim.","null","","","","",""
"","html-keyboard-response","189","694634","0.0-6.0-2.60","FL","z15jvz5weu","1440","900","en","gh09er15","null","","","","learningBlock1","","","","<div style=""font-size:60px;""> </div>","null","FL","learning/Slide61.JPG","That was a bim.","",""
"","image-keyboard-response","190","694815","0.0-6.0-0.61","FL","z15jvz5weu","1440","900","en","gh09er15","null","","","","","","","","learning/Slide62.JPG","null","","","","",""
"","html-keyboard-response","191","695972","0.0-6.0-1.61","FL","z15jvz5weu","1440","900","en","gh09er15","null","","","","learningBlock1","","","","That was a dep.","null","","","","",""
"","html-keyboard-response","192","696974","0.0-6.0-2.61","FL","z15jvz5weu","1440","900","en","gh09er15","null","","","","learningBlock1","","","","<div style=""font-size:60px;""> </div>","null","FL","learning/Slide62.JPG","That was a dep.","",""
"","image-keyboard-response","193","697155","0.0-6.0-0.62","FL","z15jvz5weu","1440","900","en","gh09er15","null","","","","","","","","learning/Slide63.JPG","null","","","","",""
"","html-keyboard-response","194","698308","0.0-6.0-1.62","FL","z15jvz5weu","1440","900","en","gh09er15","null","","","","learningBlock1","","","","That was a bim.","null","","","","",""
"","html-keyboard-response","195","699310","0.0-6.0-2.62","FL","z15jvz5weu","1440","900","en","gh09er15","null","","","","learningBlock1","","","","<div style=""font-size:60px;""> </div>","null","FL","learning/Slide63.JPG","That was a bim.","",""
"","image-keyboard-response","196","699488","0.0-6.0-0.63","FL","z15jvz5weu","1440","900","en","gh09er15","null","","","","","","","","learning/Slide64.JPG","null","","","","",""
"","html-keyboard-response","197","700643","0.0-6.0-1.63","FL","z15jvz5weu","1440","900","en","gh09er15","null","","","","learningBlock1","","","","That was a tob.","null","","","","",""
"","html-keyboard-response","198","701644","0.0-6.0-2.63","FL","z15jvz5weu","1440","900","en","gh09er15","null","","","","learningBlock1","","","","<div style=""font-size:60px;""> </div>","null","FL","learning/Slide64.JPG","That was a tob.","",""
"","image-keyboard-response","199","701821","0.0-6.0-0.64","FL","z15jvz5weu","1440","900","en","gh09er15","null","","","","","","","","learning/Slide65.JPG","null","","","","",""
"","html-keyboard-response","200","702975","0.0-6.0-1.64","FL","z15jvz5weu","1440","900","en","gh09er15","null","","","","learningBlock1","","","","That was a wug.","null","","","","",""
"","html-keyboard-response","201","703981","0.0-6.0-2.64","FL","z15jvz5weu","1440","900","en","gh09er15","null","","","","learningBlock1","","","","<div style=""font-size:60px;""> </div>","null","FL","learning/Slide65.JPG","That was a wug.","",""
"","image-keyboard-response","202","704159","0.0-6.0-0.65","FL","z15jvz5weu","1440","900","en","gh09er15","null","","","","","","","","learning/Slide66.JPG","null","","","","",""
"","html-keyboard-response","203","705311","0.0-6.0-1.65","FL","z15jvz5weu","1440","900","en","gh09er15","null","","","","learningBlock1","","","","That was a dep.","null","","","","",""
"","html-keyboard-response","204","706314","0.0-6.0-2.65","FL","z15jvz5weu","1440","900","en","gh09er15","null","","","","learningBlock1","","","","<div style=""font-size:60px;""> </div>","null","FL","learning/Slide66.JPG","That was a dep.","",""
"","image-keyboard-response","205","706495","0.0-6.0-0.66","FL","z15jvz5weu","1440","900","en","gh09er15","null","","","","","","","","learning/Slide67.JPG","null","","","","",""
"","html-keyboard-response","206","707655","0.0-6.0-1.66","FL","z15jvz5weu","1440","900","en","gh09er15","null","","","","learningBlock1","","","","That was a tob.","null","","","","",""
"","html-keyboard-response","207","708660","0.0-6.0-2.66","FL","z15jvz5weu","1440","900","en","gh09er15","null","","","","learningBlock1","","","","<div style=""font-size:60px;""> </div>","null","FL","learning/Slide67.JPG","That was a tob.","",""
"","image-keyboard-response","208","708838","0.0-6.0-0.67","FL","z15jvz5weu","1440","900","en","gh09er15","null","","","","","","","","learning/Slide68.JPG","null","","","","",""
"","html-keyboard-response","209","709993","0.0-6.0-1.67","FL","z15jvz5weu","1440","900","en","gh09er15","null","","","","learningBlock1","","","","That was a wug.","null","","","","",""
"","html-keyboard-response","210","710999","0.0-6.0-2.67","FL","z15jvz5weu","1440","900","en","gh09er15","null","","","","learningBlock1","","","","<div style=""font-size:60px;""> </div>","null","FL","learning/Slide68.JPG","That was a wug.","",""
"","image-keyboard-response","211","711178","0.0-6.0-0.68","FL","z15jvz5weu","1440","900","en","gh09er15","null","","","","","","","","learning/Slide69.JPG","null","","","","",""
"","html-keyboard-response","212","712331","0.0-6.0-1.68","FL","z15jvz5weu","1440","900","en","gh09er15","null","","","","learningBlock1","","","","That was a tob.","null","","","","",""
"","html-keyboard-response","213","713333","0.0-6.0-2.68","FL","z15jvz5weu","1440","900","en","gh09er15","null","","","","learningBlock1","","","","<div style=""font-size:60px;""> </div>","null","FL","learning/Slide69.JPG","That was a tob.","",""
"","image-keyboard-response","214","713513","0.0-6.0-0.69","FL","z15jvz5weu","1440","900","en","gh09er15","null","","","","","","","","learning/Slide70.JPG","null","","","","",""
"","html-keyboard-response","215","714665","0.0-6.0-1.69","FL","z15jvz5weu","1440","900","en","gh09er15","null","","","","learningBlock1","","","","That was a dep.","null","","","","",""
"","html-keyboard-response","216","715671","0.0-6.0-2.69","FL","z15jvz5weu","1440","900","en","gh09er15","null","","","","learningBlock1","","","","<div style=""font-size:60px;""> </div>","null","FL","learning/Slide70.JPG","That was a dep.","",""
"","image-keyboard-response","217","715849","0.0-6.0-0.70","FL","z15jvz5weu","1440","900","en","gh09er15","null","","","","","","","","learning/Slide71.JPG","null","","","","",""
"","html-keyboard-response","218","717007","0.0-6.0-1.70","FL","z15jvz5weu","1440","900","en","gh09er15","null","","","","learningBlock1","","","","That was a wug.","null","","","","",""
"","html-keyboard-response","219","718010","0.0-6.0-2.70","FL","z15jvz5weu","1440","900","en","gh09er15","null","","","","learningBlock1","","","","<div style=""font-size:60px;""> </div>","null","FL","learning/Slide71.JPG","That was a wug.","",""
"","image-keyboard-response","220","718188","0.0-6.0-0.71","FL","z15jvz5weu","1440","900","en","gh09er15","null","","","","","","","","learning/Slide72.JPG","null","","","","",""
"","html-keyboard-response","221","719346","0.0-6.0-1.71","FL","z15jvz5weu","1440","900","en","gh09er15","null","","","","learningBlock1","","","","That was a bim.","null","","","","",""
"","html-keyboard-response","222","720349","0.0-6.0-2.71","FL","z15jvz5weu","1440","900","en","gh09er15","null","","","","learningBlock1","","","","<div style=""font-size:60px;""> </div>","null","FL","learning/Slide72.JPG","That was a bim.","",""
"","image-keyboard-response","223","720530","0.0-6.0-0.72","FL","z15jvz5weu","1440","900","en","gh09er15","null","","","","","","","","learning/Slide73.JPG","null","","","","",""
"","html-keyboard-response","224","721683","0.0-6.0-1.72","FL","z15jvz5weu","1440","900","en","gh09er15","null","","","","learningBlock1","","","","That was a wug.","null","","","","",""
"","html-keyboard-response","225","722688","0.0-6.0-2.72","FL","z15jvz5weu","1440","900","en","gh09er15","null","","","","learningBlock1","","","","<div style=""font-size:60px;""> </div>","null","FL","learning/Slide73.JPG","That was a wug.","",""
"","image-keyboard-response","226","722867","0.0-6.0-0.73","FL","z15jvz5weu","1440","900","en","gh09er15","null","","","","","","","","learning/Slide74.JPG","null","","","","",""
"","html-keyboard-response","227","724021","0.0-6.0-1.73","FL","z15jvz5weu","1440","900","en","gh09er15","null","","","","learningBlock1","","","","That was a dep.","null","","","","",""
"","html-keyboard-response","228","725023","0.0-6.0-2.73","FL","z15jvz5weu","1440","900","en","gh09er15","null","","","","learningBlock1","","","","<div style=""font-size:60px;""> </div>","null","FL","learning/Slide74.JPG","That was a dep.","",""
"","image-keyboard-response","229","725204","0.0-6.0-0.74","FL","z15jvz5weu","1440","900","en","gh09er15","null","","","","","","","","learning/Slide75.JPG","null","","","","",""
"","html-keyboard-response","230","726361","0.0-6.0-1.74","FL","z15jvz5weu","1440","900","en","gh09er15","null","","","","learningBlock1","","","","That was a tob.","null","","","","",""
"","html-keyboard-response","231","727363","0.0-6.0-2.74","FL","z15jvz5weu","1440","900","en","gh09er15","null","","","","learningBlock1","","","","<div style=""font-size:60px;""> </div>","null","FL","learning/Slide75.JPG","That was a tob.","",""
"","image-keyboard-response","232","727540","0.0-6.0-0.75","FL","z15jvz5weu","1440","900","en","gh09er15","null","","","","","","","","learning/Slide76.JPG","null","","","","",""
"","html-keyboard-response","233","728696","0.0-6.0-1.75","FL","z15jvz5weu","1440","900","en","gh09er15","null","","","","learningBlock1","","","","That was a bim.","null","","","","",""
"","html-keyboard-response","234","729697","0.0-6.0-2.75","FL","z15jvz5weu","1440","900","en","gh09er15","null","","","","learningBlock1","","","","<div style=""font-size:60px;""> </div>","null","FL","learning/Slide76.JPG","That was a bim.","",""
"","image-keyboard-response","235","729878","0.0-6.0-0.76","FL","z15jvz5weu","1440","900","en","gh09er15","null","","","","","","","","learning/Slide77.JPG","null","","","","",""
"","html-keyboard-response","236","731035","0.0-6.0-1.76","FL","z15jvz5weu","1440","900","en","gh09er15","null","","","","learningBlock1","","","","That was a tob.","null","","","","",""
"","html-keyboard-response","237","732037","0.0-6.0-2.76","FL","z15jvz5weu","1440","900","en","gh09er15","null","","","","learningBlock1","","","","<div style=""font-size:60px;""> </div>","null","FL","learning/Slide77.JPG","That was a tob.","",""
"","image-keyboard-response","238","732217","0.0-6.0-0.77","FL","z15jvz5weu","1440","900","en","gh09er15","null","","","","","","","","learning/Slide78.JPG","null","","","","",""
"","html-keyboard-response","239","733374","0.0-6.0-1.77","FL","z15jvz5weu","1440","900","en","gh09er15","null","","","","learningBlock1","","","","That was a wug.","null","","","","",""
"","html-keyboard-response","240","734380","0.0-6.0-2.77","FL","z15jvz5weu","1440","900","en","gh09er15","null","","","","learningBlock1","","","","<div style=""font-size:60px;""> </div>","null","FL","learning/Slide78.JPG","That was a wug.","",""
"","image-keyboard-response","241","734558","0.0-6.0-0.78","FL","z15jvz5weu","1440","900","en","gh09er15","null","","","","","","","","learning/Slide79.JPG","null","","","","",""
"","html-keyboard-response","242","735711","0.0-6.0-1.78","FL","z15jvz5weu","1440","900","en","gh09er15","null","","","","learningBlock1","","","","That was a bim.","null","","","","",""
"","html-keyboard-response","243","736713","0.0-6.0-2.78","FL","z15jvz5weu","1440","900","en","gh09er15","null","","","","learningBlock1","","","","<div style=""font-size:60px;""> </div>","null","FL","learning/Slide79.JPG","That was a bim.","",""
"","image-keyboard-response","244","736893","0.0-6.0-0.79","FL","z15jvz5weu","1440","900","en","gh09er15","null","","","","","","","","learning/Slide80.JPG","null","","","","",""
"","html-keyboard-response","245","738054","0.0-6.0-1.79","FL","z15jvz5weu","1440","900","en","gh09er15","null","","","","learningBlock1","","","","That was a tob.","null","","","","",""
"","html-keyboard-response","246","739059","0.0-6.0-2.79","FL","z15jvz5weu","1440","900","en","gh09er15","null","","","","learningBlock1","","","","<div style=""font-size:60px;""> </div>","null","FL","learning/Slide80.JPG","That was a tob.","",""
"","instructions","247","808334","0.0-7.0","FL","z15jvz5weu","1440","900","en","gh09er15","NA","","","[{""page_index"":0,""viewing_time"":69276.2899999998}]","instructions","","","","","","","","","",""
"","image-keyboard-response","248","808518","0.0-8.0-0.0","FL","z15jvz5weu","1440","900","en","gh09er15","null","","","","","","","","learning/Slide81.JPG","null","","","","",""
"","html-keyboard-response","249","809675","0.0-8.0-1.0","FL","z15jvz5weu","1440","900","en","gh09er15","null","","","","learningBlock2","","","","That was a wug.","null","","","","",""
"","html-keyboard-response","250","810681","0.0-8.0-2.0","FL","z15jvz5weu","1440","900","en","gh09er15","null","","","","learningBlock2","","","","<div style=""font-size:60px;""> </div>","null","FL","learning/Slide81.JPG","That was a wug.","",""
"","image-keyboard-response","251","810858","0.0-8.0-0.1","FL","z15jvz5weu","1440","900","en","gh09er15","null","","","","","","","","learning/Slide82.JPG","null","","","","",""
"","html-keyboard-response","252","812018","0.0-8.0-1.1","FL","z15jvz5weu","1440","900","en","gh09er15","null","","","","learningBlock2","","","","That was a bim.","null","","","","",""
"","html-keyboard-response","253","813020","0.0-8.0-2.1","FL","z15jvz5weu","1440","900","en","gh09er15","null","","","","learningBlock2","","","","<div style=""font-size:60px;""> </div>","null","FL","learning/Slide82.JPG","That was a bim.","",""
"","image-keyboard-response","254","813201","0.0-8.0-0.2","FL","z15jvz5weu","1440","900","en","gh09er15","null","","","","","","","","learning/Slide83.JPG","null","","","","",""
"","html-keyboard-response","255","814355","0.0-8.0-1.2","FL","z15jvz5weu","1440","900","en","gh09er15","null","","","","learningBlock2","","","","That was a wug.","null","","","","",""
"","html-keyboard-response","256","815357","0.0-8.0-2.2","FL","z15jvz5weu","1440","900","en","gh09er15","null","","","","learningBlock2","","","","<div style=""font-size:60px;""> </div>","null","FL","learning/Slide83.JPG","That was a wug.","",""
"","image-keyboard-response","257","815534","0.0-8.0-0.3","FL","z15jvz5weu","1440","900","en","gh09er15","null","","","","","","","","learning/Slide84.JPG","null","","","","",""
"","html-keyboard-response","258","816691","0.0-8.0-1.3","FL","z15jvz5weu","1440","900","en","gh09er15","null","","","","learningBlock2","","","","That was a dep.","null","","","","",""
"","html-keyboard-response","259","817695","0.0-8.0-2.3","FL","z15jvz5weu","1440","900","en","gh09er15","null","","","","learningBlock2","","","","<div style=""font-size:60px;""> </div>","null","FL","learning/Slide84.JPG","That was a dep.","",""
"","image-keyboard-response","260","817875","0.0-8.0-0.4","FL","z15jvz5weu","1440","900","en","gh09er15","null","","","","","","","","learning/Slide85.JPG","null","","","","",""
"","html-keyboard-response","261","819030","0.0-8.0-1.4","FL","z15jvz5weu","1440","900","en","gh09er15","null","","","","learningBlock2","","","","That was a bim.","null","","","","",""
"","html-keyboard-response","262","820035","0.0-8.0-2.4","FL","z15jvz5weu","1440","900","en","gh09er15","null","","","","learningBlock2","","","","<div style=""font-size:60px;""> </div>","null","FL","learning/Slide85.JPG","That was a bim.","",""
"","image-keyboard-response","263","820211","0.0-8.0-0.5","FL","z15jvz5weu","1440","900","en","gh09er15","null","","","","","","","","learning/Slide86.JPG","null","","","","",""
"","html-keyboard-response","264","821368","0.0-8.0-1.5","FL","z15jvz5weu","1440","900","en","gh09er15","null","","","","learningBlock2","","","","That was a tob.","null","","","","",""
"","html-keyboard-response","265","822373","0.0-8.0-2.5","FL","z15jvz5weu","1440","900","en","gh09er15","null","","","","learningBlock2","","","","<div style=""font-size:60px;""> </div>","null","FL","learning/Slide86.JPG","That was a tob.","",""
"","image-keyboard-response","266","822551","0.0-8.0-0.6","FL","z15jvz5weu","1440","900","en","gh09er15","null","","","","","","","","learning/Slide87.JPG","null","","","","",""
"","html-keyboard-response","267","823706","0.0-8.0-1.6","FL","z15jvz5weu","1440","900","en","gh09er15","null","","","","learningBlock2","","","","That was a wug.","null","","","","",""
"","html-keyboard-response","268","824709","0.0-8.0-2.6","FL","z15jvz5weu","1440","900","en","gh09er15","null","","","","learningBlock2","","","","<div style=""font-size:60px;""> </div>","null","FL","learning/Slide87.JPG","That was a wug.","",""
"","image-keyboard-response","269","824890","0.0-8.0-0.7","FL","z15jvz5weu","1440","900","en","gh09er15","null","","","","","","","","learning/Slide88.JPG","null","","","","",""
"","html-keyboard-response","270","826045","0.0-8.0-1.7","FL","z15jvz5weu","1440","900","en","gh09er15","null","","","","learningBlock2","","","","That was a tob.","null","","","","",""
"","html-keyboard-response","271","827051","0.0-8.0-2.7","FL","z15jvz5weu","1440","900","en","gh09er15","null","","","","learningBlock2","","","","<div style=""font-size:60px;""> </div>","null","FL","learning/Slide88.JPG","That was a tob.","",""
"","image-keyboard-response","272","827230","0.0-8.0-0.8","FL","z15jvz5weu","1440","900","en","gh09er15","null","","","","","","","","learning/Slide89.JPG","null","","","","",""
"","html-keyboard-response","273","828388","0.0-8.0-1.8","FL","z15jvz5weu","1440","900","en","gh09er15","null","","","","learningBlock2","","","","That was a bim.","null","","","","",""
"","html-keyboard-response","274","829391","0.0-8.0-2.8","FL","z15jvz5weu","1440","900","en","gh09er15","null","","","","learningBlock2","","","","<div style=""font-size:60px;""> </div>","null","FL","learning/Slide89.JPG","That was a bim.","",""
"","image-keyboard-response","275","829573","0.0-8.0-0.9","FL","z15jvz5weu","1440","900","en","gh09er15","null","","","","","","","","learning/Slide90.JPG","null","","","","",""
"","html-keyboard-response","276","830730","0.0-8.0-1.9","FL","z15jvz5weu","1440","900","en","gh09er15","null","","","","learningBlock2","","","","That was a dep.","null","","","","",""
"","html-keyboard-response","277","831734","0.0-8.0-2.9","FL","z15jvz5weu","1440","900","en","gh09er15","null","","","","learningBlock2","","","","<div style=""font-size:60px;""> </div>","null","FL","learning/Slide90.JPG","That was a dep.","",""
"","image-keyboard-response","278","831911","0.0-8.0-0.10","FL","z15jvz5weu","1440","900","en","gh09er15","null","","","","","","","","learning/Slide91.JPG","null","","","","",""
"","html-keyboard-response","279","833069","0.0-8.0-1.10","FL","z15jvz5weu","1440","900","en","gh09er15","null","","","","learningBlock2","","","","That was a wug.","null","","","","",""
"","html-keyboard-response","280","834074","0.0-8.0-2.10","FL","z15jvz5weu","1440","900","en","gh09er15","null","","","","learningBlock2","","","","<div style=""font-size:60px;""> </div>","null","FL","learning/Slide91.JPG","That was a wug.","",""
"","image-keyboard-response","281","834255","0.0-8.0-0.11","FL","z15jvz5weu","1440","900","en","gh09er15","null","","","","","","","","learning/Slide92.JPG","null","","","","",""
"","html-keyboard-response","282","835408","0.0-8.0-1.11","FL","z15jvz5weu","1440","900","en","gh09er15","null","","","","learningBlock2","","","","That was a tob.","null","","","","",""
"","html-keyboard-response","283","836410","0.0-8.0-2.11","FL","z15jvz5weu","1440","900","en","gh09er15","null","","","","learningBlock2","","","","<div style=""font-size:60px;""> </div>","null","FL","learning/Slide92.JPG","That was a tob.","",""
"","image-keyboard-response","284","836590","0.0-8.0-0.12","FL","z15jvz5weu","1440","900","en","gh09er15","null","","","","","","","","learning/Slide93.JPG","null","","","","",""
"","html-keyboard-response","285","837749","0.0-8.0-1.12","FL","z15jvz5weu","1440","900","en","gh09er15","null","","","","learningBlock2","","","","That was a bim.","null","","","","",""
"","html-keyboard-response","286","838750","0.0-8.0-2.12","FL","z15jvz5weu","1440","900","en","gh09er15","null","","","","learningBlock2","","","","<div style=""font-size:60px;""> </div>","null","FL","learning/Slide93.JPG","That was a bim.","",""
"","image-keyboard-response","287","838928","0.0-8.0-0.13","FL","z15jvz5weu","1440","900","en","gh09er15","null","","","","","","","","learning/Slide94.JPG","null","","","","",""
"","html-keyboard-response","288","840089","0.0-8.0-1.13","FL","z15jvz5weu","1440","900","en","gh09er15","null","","","","learningBlock2","","","","That was a tob.","null","","","","",""
"","html-keyboard-response","289","841095","0.0-8.0-2.13","FL","z15jvz5weu","1440","900","en","gh09er15","null","","","","learningBlock2","","","","<div style=""font-size:60px;""> </div>","null","FL","learning/Slide94.JPG","That was a tob.","",""
"","image-keyboard-response","290","841274","0.0-8.0-0.14","FL","z15jvz5weu","1440","900","en","gh09er15","null","","","","","","","","learning/Slide95.JPG","null","","","","",""
"","html-keyboard-response","291","842431","0.0-8.0-1.14","FL","z15jvz5weu","1440","900","en","gh09er15","null","","","","learningBlock2","","","","That was a wug.","null","","","","",""
"","html-keyboard-response","292","843433","0.0-8.0-2.14","FL","z15jvz5weu","1440","900","en","gh09er15","null","","","","learningBlock2","","","","<div style=""font-size:60px;""> </div>","null","FL","learning/Slide95.JPG","That was a wug.","",""
"","image-keyboard-response","293","843611","0.0-8.0-0.15","FL","z15jvz5weu","1440","900","en","gh09er15","null","","","","","","","","learning/Slide96.JPG","null","","","","",""
"","html-keyboard-response","294","844767","0.0-8.0-1.15","FL","z15jvz5weu","1440","900","en","gh09er15","null","","","","learningBlock2","","","","That was a tob.","null","","","","",""
"","html-keyboard-response","295","845768","0.0-8.0-2.15","FL","z15jvz5weu","1440","900","en","gh09er15","null","","","","learningBlock2","","","","<div style=""font-size:60px;""> </div>","null","FL","learning/Slide96.JPG","That was a tob.","",""
"","image-keyboard-response","296","845950","0.0-8.0-0.16","FL","z15jvz5weu","1440","900","en","gh09er15","null","","","","","","","","learning/Slide97.JPG","null","","","","",""
"","html-keyboard-response","297","847107","0.0-8.0-1.16","FL","z15jvz5weu","1440","900","en","gh09er15","null","","","","learningBlock2","","","","That was a dep.","null","","","","",""
"","html-keyboard-response","298","848110","0.0-8.0-2.16","FL","z15jvz5weu","1440","900","en","gh09er15","null","","","","learningBlock2","","","","<div style=""font-size:60px;""> </div>","null","FL","learning/Slide97.JPG","That was a dep.","",""
"","image-keyboard-response","299","848291","0.0-8.0-0.17","FL","z15jvz5weu","1440","900","en","gh09er15","null","","","","","","","","learning/Slide98.JPG","null","","","","",""
"","html-keyboard-response","300","849450","0.0-8.0-1.17","FL","z15jvz5weu","1440","900","en","gh09er15","null","","","","learningBlock2","","","","That was a bim.","null","","","","",""
"","html-keyboard-response","301","850451","0.0-8.0-2.17","FL","z15jvz5weu","1440","900","en","gh09er15","null","","","","learningBlock2","","","","<div style=""font-size:60px;""> </div>","null","FL","learning/Slide98.JPG","That was a bim.","",""
"","image-keyboard-response","302","850633","0.0-8.0-0.18","FL","z15jvz5weu","1440","900","en","gh09er15","null","","","","","","","","learning/Slide99.JPG","null","","","","",""
"","html-keyboard-response","303","851790","0.0-8.0-1.18","FL","z15jvz5weu","1440","900","en","gh09er15","null","","","","learningBlock2","","","","That was a dep.","null","","","","",""
"","html-keyboard-response","304","852793","0.0-8.0-2.18","FL","z15jvz5weu","1440","900","en","gh09er15","null","","","","learningBlock2","","","","<div style=""font-size:60px;""> </div>","null","FL","learning/Slide99.JPG","That was a dep.","",""
"","image-keyboard-response","305","852974","0.0-8.0-0.19","FL","z15jvz5weu","1440","900","en","gh09er15","null","","","","","","","","learning/Slide100.JPG","null","","","","",""
"","html-keyboard-response","306","854130","0.0-8.0-1.19","FL","z15jvz5weu","1440","900","en","gh09er15","null","","","","learningBlock2","","","","That was a bim.","null","","","","",""
"","html-keyboard-response","307","855133","0.0-8.0-2.19","FL","z15jvz5weu","1440","900","en","gh09er15","null","","","","learningBlock2","","","","<div style=""font-size:60px;""> </div>","null","FL","learning/Slide100.JPG","That was a bim.","",""
"","image-keyboard-response","308","855314","0.0-8.0-0.20","FL","z15jvz5weu","1440","900","en","gh09er15","null","","","","","","","","learning/Slide101.JPG","null","","","","",""
"","html-keyboard-response","309","856469","0.0-8.0-1.20","FL","z15jvz5weu","1440","900","en","gh09er15","null","","","","learningBlock2","","","","That was a tob.","null","","","","",""
"","html-keyboard-response","310","857475","0.0-8.0-2.20","FL","z15jvz5weu","1440","900","en","gh09er15","null","","","","learningBlock2","","","","<div style=""font-size:60px;""> </div>","null","FL","learning/Slide101.JPG","That was a tob.","",""
"","image-keyboard-response","311","857656","0.0-8.0-0.21","FL","z15jvz5weu","1440","900","en","gh09er15","null","","","","","","","","learning/Slide102.JPG","null","","","","",""
"","html-keyboard-response","312","858817","0.0-8.0-1.21","FL","z15jvz5weu","1440","900","en","gh09er15","null","","","","learningBlock2","","","","That was a bim.","null","","","","",""
"","html-keyboard-response","313","859822","0.0-8.0-2.21","FL","z15jvz5weu","1440","900","en","gh09er15","null","","","","learningBlock2","","","","<div style=""font-size:60px;""> </div>","null","FL","learning/Slide102.JPG","That was a bim.","",""
"","image-keyboard-response","314","860000","0.0-8.0-0.22","FL","z15jvz5weu","1440","900","en","gh09er15","null","","","","","","","","learning/Slide103.JPG","null","","","","",""
"","html-keyboard-response","315","861155","0.0-8.0-1.22","FL","z15jvz5weu","1440","900","en","gh09er15","null","","","","learningBlock2","","","","That was a dep.","null","","","","",""
"","html-keyboard-response","316","862158","0.0-8.0-2.22","FL","z15jvz5weu","1440","900","en","gh09er15","null","","","","learningBlock2","","","","<div style=""font-size:60px;""> </div>","null","FL","learning/Slide103.JPG","That was a dep.","",""
"","image-keyboard-response","317","862339","0.0-8.0-0.23","FL","z15jvz5weu","1440","900","en","gh09er15","null","","","","","","","","learning/Slide104.JPG","null","","","","",""
"","html-keyboard-response","318","863494","0.0-8.0-1.23","FL","z15jvz5weu","1440","900","en","gh09er15","null","","","","learningBlock2","","","","That was a tob.","null","","","","",""
"","html-keyboard-response","319","864499","0.0-8.0-2.23","FL","z15jvz5weu","1440","900","en","gh09er15","null","","","","learningBlock2","","","","<div style=""font-size:60px;""> </div>","null","FL","learning/Slide104.JPG","That was a tob.","",""
"","image-keyboard-response","320","864676","0.0-8.0-0.24","FL","z15jvz5weu","1440","900","en","gh09er15","null","","","","","","","","learning/Slide105.JPG","null","","","","",""
"","html-keyboard-response","321","865833","0.0-8.0-1.24","FL","z15jvz5weu","1440","900","en","gh09er15","null","","","","learningBlock2","","","","That was a dep.","null","","","","",""
"","html-keyboard-response","322","866836","0.0-8.0-2.24","FL","z15jvz5weu","1440","900","en","gh09er15","null","","","","learningBlock2","","","","<div style=""font-size:60px;""> </div>","null","FL","learning/Slide105.JPG","That was a dep.","",""
"","image-keyboard-response","323","867016","0.0-8.0-0.25","FL","z15jvz5weu","1440","900","en","gh09er15","null","","","","","","","","learning/Slide106.JPG","null","","","","",""
"","html-keyboard-response","324","868173","0.0-8.0-1.25","FL","z15jvz5weu","1440","900","en","gh09er15","null","","","","learningBlock2","","","","That was a wug.","null","","","","",""
"","html-keyboard-response","325","869176","0.0-8.0-2.25","FL","z15jvz5weu","1440","900","en","gh09er15","null","","","","learningBlock2","","","","<div style=""font-size:60px;""> </div>","null","FL","learning/Slide106.JPG","That was a wug.","",""
"","image-keyboard-response","326","869355","0.0-8.0-0.26","FL","z15jvz5weu","1440","900","en","gh09er15","null","","","","","","","","learning/Slide107.JPG","null","","","","",""
"","html-keyboard-response","327","870509","0.0-8.0-1.26","FL","z15jvz5weu","1440","900","en","gh09er15","null","","","","learningBlock2","","","","That was a bim.","null","","","","",""
"","html-keyboard-response","328","871512","0.0-8.0-2.26","FL","z15jvz5weu","1440","900","en","gh09er15","null","","","","learningBlock2","","","","<div style=""font-size:60px;""> </div>","null","FL","learning/Slide107.JPG","That was a bim.","",""
"","image-keyboard-response","329","871693","0.0-8.0-0.27","FL","z15jvz5weu","1440","900","en","gh09er15","null","","","","","","","","learning/Slide108.JPG","null","","","","",""
"","html-keyboard-response","330","872849","0.0-8.0-1.27","FL","z15jvz5weu","1440","900","en","gh09er15","null","","","","learningBlock2","","","","That was a dep.","null","","","","",""
"","html-keyboard-response","331","873852","0.0-8.0-2.27","FL","z15jvz5weu","1440","900","en","gh09er15","null","","","","learningBlock2","","","","<div style=""font-size:60px;""> </div>","null","FL","learning/Slide108.JPG","That was a dep.","",""
"","image-keyboard-response","332","874033","0.0-8.0-0.28","FL","z15jvz5weu","1440","900","en","gh09er15","null","","","","","","","","learning/Slide109.JPG","null","","","","",""
"","html-keyboard-response","333","875187","0.0-8.0-1.28","FL","z15jvz5weu","1440","900","en","gh09er15","null","","","","learningBlock2","","","","That was a wug.","null","","","","",""
"","html-keyboard-response","334","876191","0.0-8.0-2.28","FL","z15jvz5weu","1440","900","en","gh09er15","null","","","","learningBlock2","","","","<div style=""font-size:60px;""> </div>","null","FL","learning/Slide109.JPG","That was a wug.","",""
"","image-keyboard-response","335","876373","0.0-8.0-0.29","FL","z15jvz5weu","1440","900","en","gh09er15","null","","","","","","","","learning/Slide110.JPG","null","","","","",""
"","html-keyboard-response","336","877532","0.0-8.0-1.29","FL","z15jvz5weu","1440","900","en","gh09er15","null","","","","learningBlock2","","","","That was a bim.","null","","","","",""
"","html-keyboard-response","337","878535","0.0-8.0-2.29","FL","z15jvz5weu","1440","900","en","gh09er15","null","","","","learningBlock2","","","","<div style=""font-size:60px;""> </div>","null","FL","learning/Slide110.JPG","That was a bim.","",""
"","image-keyboard-response","338","878716","0.0-8.0-0.30","FL","z15jvz5weu","1440","900","en","gh09er15","null","","","","","","","","learning/Slide111.JPG","null","","","","",""
"","html-keyboard-response","339","879875","0.0-8.0-1.30","FL","z15jvz5weu","1440","900","en","gh09er15","null","","","","learningBlock2","","","","That was a tob.","null","","","","",""
"","html-keyboard-response","340","880877","0.0-8.0-2.30","FL","z15jvz5weu","1440","900","en","gh09er15","null","","","","learningBlock2","","","","<div style=""font-size:60px;""> </div>","null","FL","learning/Slide111.JPG","That was a tob.","",""
"","image-keyboard-response","341","881058","0.0-8.0-0.31","FL","z15jvz5weu","1440","900","en","gh09er15","null","","","","","","","","learning/Slide112.JPG","null","","","","",""
"","html-keyboard-response","342","882215","0.0-8.0-1.31","FL","z15jvz5weu","1440","900","en","gh09er15","null","","","","learningBlock2","","","","That was a wug.","null","","","","",""
"","html-keyboard-response","343","883218","0.0-8.0-2.31","FL","z15jvz5weu","1440","900","en","gh09er15","null","","","","learningBlock2","","","","<div style=""font-size:60px;""> </div>","null","FL","learning/Slide112.JPG","That was a wug.","",""
"","image-keyboard-response","344","883399","0.0-8.0-0.32","FL","z15jvz5weu","1440","900","en","gh09er15","null","","","","","","","","learning/Slide113.JPG","null","","","","",""
"","html-keyboard-response","345","884556","0.0-8.0-1.32","FL","z15jvz5weu","1440","900","en","gh09er15","null","","","","learningBlock2","","","","That was a tob.","null","","","","",""
"","html-keyboard-response","346","885562","0.0-8.0-2.32","FL","z15jvz5weu","1440","900","en","gh09er15","null","","","","learningBlock2","","","","<div style=""font-size:60px;""> </div>","null","FL","learning/Slide113.JPG","That was a tob.","",""
"","image-keyboard-response","347","885740","0.0-8.0-0.33","FL","z15jvz5weu","1440","900","en","gh09er15","null","","","","","","","","learning/Slide114.JPG","null","","","","",""
"","html-keyboard-response","348","886899","0.0-8.0-1.33","FL","z15jvz5weu","1440","900","en","gh09er15","null","","","","learningBlock2","","","","That was a wug.","null","","","","",""
"","html-keyboard-response","349","887902","0.0-8.0-2.33","FL","z15jvz5weu","1440","900","en","gh09er15","null","","","","learningBlock2","","","","<div style=""font-size:60px;""> </div>","null","FL","learning/Slide114.JPG","That was a wug.","",""
"","image-keyboard-response","350","888082","0.0-8.0-0.34","FL","z15jvz5weu","1440","900","en","gh09er15","null","","","","","","","","learning/Slide115.JPG","null","","","","",""
"","html-keyboard-response","351","889239","0.0-8.0-1.34","FL","z15jvz5weu","1440","900","en","gh09er15","null","","","","learningBlock2","","","","That was a bim.","null","","","","",""
"","html-keyboard-response","352","890243","0.0-8.0-2.34","FL","z15jvz5weu","1440","900","en","gh09er15","null","","","","learningBlock2","","","","<div style=""font-size:60px;""> </div>","null","FL","learning/Slide115.JPG","That was a bim.","",""
"","image-keyboard-response","353","890423","0.0-8.0-0.35","FL","z15jvz5weu","1440","900","en","gh09er15","null","","","","","","","","learning/Slide116.JPG","null","","","","",""
"","html-keyboard-response","354","891575","0.0-8.0-1.35","FL","z15jvz5weu","1440","900","en","gh09er15","null","","","","learningBlock2","","","","That was a dep.","null","","","","",""
"","html-keyboard-response","355","892577","0.0-8.0-2.35","FL","z15jvz5weu","1440","900","en","gh09er15","null","","","","learningBlock2","","","","<div style=""font-size:60px;""> </div>","null","FL","learning/Slide116.JPG","That was a dep.","",""
"","image-keyboard-response","356","892754","0.0-8.0-0.36","FL","z15jvz5weu","1440","900","en","gh09er15","null","","","","","","","","learning/Slide117.JPG","null","","","","",""
"","html-keyboard-response","357","893911","0.0-8.0-1.36","FL","z15jvz5weu","1440","900","en","gh09er15","null","","","","learningBlock2","","","","That was a tob.","null","","","","",""
"","html-keyboard-response","358","894915","0.0-8.0-2.36","FL","z15jvz5weu","1440","900","en","gh09er15","null","","","","learningBlock2","","","","<div style=""font-size:60px;""> </div>","null","FL","learning/Slide117.JPG","That was a tob.","",""
"","image-keyboard-response","359","895094","0.0-8.0-0.37","FL","z15jvz5weu","1440","900","en","gh09er15","null","","","","","","","","learning/Slide118.JPG","null","","","","",""
"","html-keyboard-response","360","896254","0.0-8.0-1.37","FL","z15jvz5weu","1440","900","en","gh09er15","null","","","","learningBlock2","","","","That was a dep.","null","","","","",""
"","html-keyboard-response","361","897258","0.0-8.0-2.37","FL","z15jvz5weu","1440","900","en","gh09er15","null","","","","learningBlock2","","","","<div style=""font-size:60px;""> </div>","null","FL","learning/Slide118.JPG","That was a dep.","",""
"","image-keyboard-response","362","897435","0.0-8.0-0.38","FL","z15jvz5weu","1440","900","en","gh09er15","null","","","","","","","","learning/Slide119.JPG","null","","","","",""
"","html-keyboard-response","363","898593","0.0-8.0-1.38","FL","z15jvz5weu","1440","900","en","gh09er15","null","","","","learningBlock2","","","","That was a wug.","null","","","","",""
"","html-keyboard-response","364","899598","0.0-8.0-2.38","FL","z15jvz5weu","1440","900","en","gh09er15","null","","","","learningBlock2","","","","<div style=""font-size:60px;""> </div>","null","FL","learning/Slide119.JPG","That was a wug.","",""
"","image-keyboard-response","365","899777","0.0-8.0-0.39","FL","z15jvz5weu","1440","900","en","gh09er15","null","","","","","","","","learning/Slide120.JPG","null","","","","",""
"","html-keyboard-response","366","900937","0.0-8.0-1.39","FL","z15jvz5weu","1440","900","en","gh09er15","null","","","","learningBlock2","","","","That was a dep.","null","","","","",""
"","html-keyboard-response","367","901942","0.0-8.0-2.39","FL","z15jvz5weu","1440","900","en","gh09er15","null","","","","learningBlock2","","","","<div style=""font-size:60px;""> </div>","null","FL","learning/Slide120.JPG","That was a dep.","",""
"","image-keyboard-response","368","902119","0.0-8.0-0.40","FL","z15jvz5weu","1440","900","en","gh09er15","null","","","","","","","","learning/Slide121.JPG","null","","","","",""
"","html-keyboard-response","369","903278","0.0-8.0-1.40","FL","z15jvz5weu","1440","900","en","gh09er15","null","","","","learningBlock2","","","","That was a bim.","null","","","","",""
"","html-keyboard-response","370","904281","0.0-8.0-2.40","FL","z15jvz5weu","1440","900","en","gh09er15","null","","","","learningBlock2","","","","<div style=""font-size:60px;""> </div>","null","FL","learning/Slide121.JPG","That was a bim.","",""
"","image-keyboard-response","371","904460","0.0-8.0-0.41","FL","z15jvz5weu","1440","900","en","gh09er15","null","","","","","","","","learning/Slide122.JPG","null","","","","",""
"","html-keyboard-response","372","905616","0.0-8.0-1.41","FL","z15jvz5weu","1440","900","en","gh09er15","null","","","","learningBlock2","","","","That was a wug.","null","","","","",""
"","html-keyboard-response","373","906618","0.0-8.0-2.41","FL","z15jvz5weu","1440","900","en","gh09er15","null","","","","learningBlock2","","","","<div style=""font-size:60px;""> </div>","null","FL","learning/Slide122.JPG","That was a wug.","",""
"","image-keyboard-response","374","906795","0.0-8.0-0.42","FL","z15jvz5weu","1440","900","en","gh09er15","null","","","","","","","","learning/Slide123.JPG","null","","","","",""
"","html-keyboard-response","375","907951","0.0-8.0-1.42","FL","z15jvz5weu","1440","900","en","gh09er15","null","","","","learningBlock2","","","","That was a bim.","null","","","","",""
"","html-keyboard-response","376","908952","0.0-8.0-2.42","FL","z15jvz5weu","1440","900","en","gh09er15","null","","","","learningBlock2","","","","<div style=""font-size:60px;""> </div>","null","FL","learning/Slide123.JPG","That was a bim.","",""
"","image-keyboard-response","377","909131","0.0-8.0-0.43","FL","z15jvz5weu","1440","900","en","gh09er15","null","","","","","","","","learning/Slide124.JPG","null","","","","",""
"","html-keyboard-response","378","910290","0.0-8.0-1.43","FL","z15jvz5weu","1440","900","en","gh09er15","null","","","","learningBlock2","","","","That was a tob.","null","","","","",""
"","html-keyboard-response","379","911296","0.0-8.0-2.43","FL","z15jvz5weu","1440","900","en","gh09er15","null","","","","learningBlock2","","","","<div style=""font-size:60px;""> </div>","null","FL","learning/Slide124.JPG","That was a tob.","",""
"","image-keyboard-response","380","911473","0.0-8.0-0.44","FL","z15jvz5weu","1440","900","en","gh09er15","null","","","","","","","","learning/Slide125.JPG","null","","","","",""
"","html-keyboard-response","381","912631","0.0-8.0-1.44","FL","z15jvz5weu","1440","900","en","gh09er15","null","","","","learningBlock2","","","","That was a bim.","null","","","","",""
"","html-keyboard-response","382","913634","0.0-8.0-2.44","FL","z15jvz5weu","1440","900","en","gh09er15","null","","","","learningBlock2","","","","<div style=""font-size:60px;""> </div>","null","FL","learning/Slide125.JPG","That was a bim.","",""
"","image-keyboard-response","383","913814","0.0-8.0-0.45","FL","z15jvz5weu","1440","900","en","gh09er15","null","","","","","","","","learning/Slide126.JPG","null","","","","",""
"","html-keyboard-response","384","914970","0.0-8.0-1.45","FL","z15jvz5weu","1440","900","en","gh09er15","null","","","","learningBlock2","","","","That was a tob.","null","","","","",""
"","html-keyboard-response","385","915975","0.0-8.0-2.45","FL","z15jvz5weu","1440","900","en","gh09er15","null","","","","learningBlock2","","","","<div style=""font-size:60px;""> </div>","null","FL","learning/Slide126.JPG","That was a tob.","",""
"","image-keyboard-response","386","916153","0.0-8.0-0.46","FL","z15jvz5weu","1440","900","en","gh09er15","null","","","","","","","","learning/Slide127.JPG","null","","","","",""
"","html-keyboard-response","387","917306","0.0-8.0-1.46","FL","z15jvz5weu","1440","900","en","gh09er15","null","","","","learningBlock2","","","","That was a dep.","null","","","","",""
"","html-keyboard-response","388","918308","0.0-8.0-2.46","FL","z15jvz5weu","1440","900","en","gh09er15","null","","","","learningBlock2","","","","<div style=""font-size:60px;""> </div>","null","FL","learning/Slide127.JPG","That was a dep.","",""
"","image-keyboard-response","389","918486","0.0-8.0-0.47","FL","z15jvz5weu","1440","900","en","gh09er15","null","","","","","","","","learning/Slide128.JPG","null","","","","",""
"","html-keyboard-response","390","919638","0.0-8.0-1.47","FL","z15jvz5weu","1440","900","en","gh09er15","null","","","","learningBlock2","","","","That was a wug.","null","","","","",""
"","html-keyboard-response","391","920643","0.0-8.0-2.47","FL","z15jvz5weu","1440","900","en","gh09er15","null","","","","learningBlock2","","","","<div style=""font-size:60px;""> </div>","null","FL","learning/Slide128.JPG","That was a wug.","",""
"","image-keyboard-response","392","920821","0.0-8.0-0.48","FL","z15jvz5weu","1440","900","en","gh09er15","null","","","","","","","","learning/Slide129.JPG","null","","","","",""
"","html-keyboard-response","393","921976","0.0-8.0-1.48","FL","z15jvz5weu","1440","900","en","gh09er15","null","","","","learningBlock2","","","","That was a tob.","null","","","","",""
"","html-keyboard-response","394","922981","0.0-8.0-2.48","FL","z15jvz5weu","1440","900","en","gh09er15","null","","","","learningBlock2","","","","<div style=""font-size:60px;""> </div>","null","FL","learning/Slide129.JPG","That was a tob.","",""
"","image-keyboard-response","395","923157","0.0-8.0-0.49","FL","z15jvz5weu","1440","900","en","gh09er15","null","","","","","","","","learning/Slide130.JPG","null","","","","",""
"","html-keyboard-response","396","924314","0.0-8.0-1.49","FL","z15jvz5weu","1440","900","en","gh09er15","null","","","","learningBlock2","","","","That was a wug.","null","","","","",""
"","html-keyboard-response","397","925316","0.0-8.0-2.49","FL","z15jvz5weu","1440","900","en","gh09er15","null","","","","learningBlock2","","","","<div style=""font-size:60px;""> </div>","null","FL","learning/Slide130.JPG","That was a wug.","",""
"","image-keyboard-response","398","925497","0.0-8.0-0.50","FL","z15jvz5weu","1440","900","en","gh09er15","null","","","","","","","","learning/Slide131.JPG","null","","","","",""
"","html-keyboard-response","399","926650","0.0-8.0-1.50","FL","z15jvz5weu","1440","900","en","gh09er15","null","","","","learningBlock2","","","","That was a bim.","null","","","","",""
"","html-keyboard-response","400","927653","0.0-8.0-2.50","FL","z15jvz5weu","1440","900","en","gh09er15","null","","","","learningBlock2","","","","<div style=""font-size:60px;""> </div>","null","FL","learning/Slide131.JPG","That was a bim.","",""
"","image-keyboard-response","401","927831","0.0-8.0-0.51","FL","z15jvz5weu","1440","900","en","gh09er15","null","","","","","","","","learning/Slide132.JPG","null","","","","",""
"","html-keyboard-response","402","928990","0.0-8.0-1.51","FL","z15jvz5weu","1440","900","en","gh09er15","null","","","","learningBlock2","","","","That was a dep.","null","","","","",""
"","html-keyboard-response","403","929995","0.0-8.0-2.51","FL","z15jvz5weu","1440","900","en","gh09er15","null","","","","learningBlock2","","","","<div style=""font-size:60px;""> </div>","null","FL","learning/Slide132.JPG","That was a dep.","",""
"","image-keyboard-response","404","930176","0.0-8.0-0.52","FL","z15jvz5weu","1440","900","en","gh09er15","null","","","","","","","","learning/Slide133.JPG","null","","","","",""
"","html-keyboard-response","405","931333","0.0-8.0-1.52","FL","z15jvz5weu","1440","900","en","gh09er15","null","","","","learningBlock2","","","","That was a tob.","null","","","","",""
"","html-keyboard-response","406","932338","0.0-8.0-2.52","FL","z15jvz5weu","1440","900","en","gh09er15","null","","","","learningBlock2","","","","<div style=""font-size:60px;""> </div>","null","FL","learning/Slide133.JPG","That was a tob.","",""
"","image-keyboard-response","407","932518","0.0-8.0-0.53","FL","z15jvz5weu","1440","900","en","gh09er15","null","","","","","","","","learning/Slide134.JPG","null","","","","",""
"","html-keyboard-response","408","933676","0.0-8.0-1.53","FL","z15jvz5weu","1440","900","en","gh09er15","null","","","","learningBlock2","","","","That was a dep.","null","","","","",""
"","html-keyboard-response","409","934681","0.0-8.0-2.53","FL","z15jvz5weu","1440","900","en","gh09er15","null","","","","learningBlock2","","","","<div style=""font-size:60px;""> </div>","null","FL","learning/Slide134.JPG","That was a dep.","",""
"","image-keyboard-response","410","934858","0.0-8.0-0.54","FL","z15jvz5weu","1440","900","en","gh09er15","null","","","","","","","","learning/Slide135.JPG","null","","","","",""
"","html-keyboard-response","411","936015","0.0-8.0-1.54","FL","z15jvz5weu","1440","900","en","gh09er15","null","","","","learningBlock2","","","","That was a tob.","null","","","","",""
"","html-keyboard-response","412","937021","0.0-8.0-2.54","FL","z15jvz5weu","1440","900","en","gh09er15","null","","","","learningBlock2","","","","<div style=""font-size:60px;""> </div>","null","FL","learning/Slide135.JPG","That was a tob.","",""
"","image-keyboard-response","413","937200","0.0-8.0-0.55","FL","z15jvz5weu","1440","900","en","gh09er15","null","","","","","","","","learning/Slide136.JPG","null","","","","",""
"","html-keyboard-response","414","938357","0.0-8.0-1.55","FL","z15jvz5weu","1440","900","en","gh09er15","null","","","","learningBlock2","","","","That was a wug.","null","","","","",""
"","html-keyboard-response","415","939362","0.0-8.0-2.55","FL","z15jvz5weu","1440","900","en","gh09er15","null","","","","learningBlock2","","","","<div style=""font-size:60px;""> </div>","null","FL","learning/Slide136.JPG","That was a wug.","",""
"","image-keyboard-response","416","939541","0.0-8.0-0.56","FL","z15jvz5weu","1440","900","en","gh09er15","null","","","","","","","","learning/Slide137.JPG","null","","","","",""
"","html-keyboard-response","417","940700","0.0-8.0-1.56","FL","z15jvz5weu","1440","900","en","gh09er15","null","","","","learningBlock2","","","","That was a tob.","null","","","","",""
"","html-keyboard-response","418","941706","0.0-8.0-2.56","FL","z15jvz5weu","1440","900","en","gh09er15","null","","","","learningBlock2","","","","<div style=""font-size:60px;""> </div>","null","FL","learning/Slide137.JPG","That was a tob.","",""
"","image-keyboard-response","419","941887","0.0-8.0-0.57","FL","z15jvz5weu","1440","900","en","gh09er15","null","","","","","","","","learning/Slide138.JPG","null","","","","",""
"","html-keyboard-response","420","943040","0.0-8.0-1.57","FL","z15jvz5weu","1440","900","en","gh09er15","null","","","","learningBlock2","","","","That was a bim.","null","","","","",""
"","html-keyboard-response","421","944043","0.0-8.0-2.57","FL","z15jvz5weu","1440","900","en","gh09er15","null","","","","learningBlock2","","","","<div style=""font-size:60px;""> </div>","null","FL","learning/Slide138.JPG","That was a bim.","",""
"","image-keyboard-response","422","944223","0.0-8.0-0.58","FL","z15jvz5weu","1440","900","en","gh09er15","null","","","","","","","","learning/Slide139.JPG","null","","","","",""
"","html-keyboard-response","423","945380","0.0-8.0-1.58","FL","z15jvz5weu","1440","900","en","gh09er15","null","","","","learningBlock2","","","","That was a wug.","null","","","","",""
"","html-keyboard-response","424","946385","0.0-8.0-2.58","FL","z15jvz5weu","1440","900","en","gh09er15","null","","","","learningBlock2","","","","<div style=""font-size:60px;""> </div>","null","FL","learning/Slide139.JPG","That was a wug.","",""
"","image-keyboard-response","425","946563","0.0-8.0-0.59","FL","z15jvz5weu","1440","900","en","gh09er15","null","","","","","","","","learning/Slide140.JPG","null","","","","",""
"","html-keyboard-response","426","947717","0.0-8.0-1.59","FL","z15jvz5weu","1440","900","en","gh09er15","null","","","","learningBlock2","","","","That was a dep.","null","","","","",""
"","html-keyboard-response","427","948720","0.0-8.0-2.59","FL","z15jvz5weu","1440","900","en","gh09er15","null","","","","learningBlock2","","","","<div style=""font-size:60px;""> </div>","null","FL","learning/Slide140.JPG","That was a dep.","",""
"","image-keyboard-response","428","948899","0.0-8.0-0.60","FL","z15jvz5weu","1440","900","en","gh09er15","null","","","","","","","","learning/Slide141.JPG","null","","","","",""
"","html-keyboard-response","429","950057","0.0-8.0-1.60","FL","z15jvz5weu","1440","900","en","gh09er15","null","","","","learningBlock2","","","","That was a tob.","null","","","","",""
"","html-keyboard-response","430","951063","0.0-8.0-2.60","FL","z15jvz5weu","1440","900","en","gh09er15","null","","","","learningBlock2","","","","<div style=""font-size:60px;""> </div>","null","FL","learning/Slide141.JPG","That was a tob.","",""
"","image-keyboard-response","431","951244","0.0-8.0-0.61","FL","z15jvz5weu","1440","900","en","gh09er15","null","","","","","","","","learning/Slide142.JPG","null","","","","",""
"","html-keyboard-response","432","952399","0.0-8.0-1.61","FL","z15jvz5weu","1440","900","en","gh09er15","null","","","","learningBlock2","","","","That was a wug.","null","","","","",""
"","html-keyboard-response","433","953402","0.0-8.0-2.61","FL","z15jvz5weu","1440","900","en","gh09er15","null","","","","learningBlock2","","","","<div style=""font-size:60px;""> </div>","null","FL","learning/Slide142.JPG","That was a wug.","",""
"","image-keyboard-response","434","953580","0.0-8.0-0.62","FL","z15jvz5weu","1440","900","en","gh09er15","null","","","","","","","","learning/Slide143.JPG","null","","","","",""
"","html-keyboard-response","435","954735","0.0-8.0-1.62","FL","z15jvz5weu","1440","900","en","gh09er15","null","","","","learningBlock2","","","","That was a bim.","null","","","","",""
"","html-keyboard-response","436","955738","0.0-8.0-2.62","FL","z15jvz5weu","1440","900","en","gh09er15","null","","","","learningBlock2","","","","<div style=""font-size:60px;""> </div>","null","FL","learning/Slide143.JPG","That was a bim.","",""
"","image-keyboard-response","437","955917","0.0-8.0-0.63","FL","z15jvz5weu","1440","900","en","gh09er15","null","","","","","","","","learning/Slide144.JPG","null","","","","",""
"","html-keyboard-response","438","957076","0.0-8.0-1.63","FL","z15jvz5weu","1440","900","en","gh09er15","null","","","","learningBlock2","","","","That was a dep.","null","","","","",""
"","html-keyboard-response","439","958080","0.0-8.0-2.63","FL","z15jvz5weu","1440","900","en","gh09er15","null","","","","learningBlock2","","","","<div style=""font-size:60px;""> </div>","null","FL","learning/Slide144.JPG","That was a dep.","",""
"","image-keyboard-response","440","958257","0.0-8.0-0.64","FL","z15jvz5weu","1440","900","en","gh09er15","null","","","","","","","","learning/Slide145.JPG","null","","","","",""
"","html-keyboard-response","441","959413","0.0-8.0-1.64","FL","z15jvz5weu","1440","900","en","gh09er15","null","","","","learningBlock2","","","","That was a bim.","null","","","","",""
"","html-keyboard-response","442","960415","0.0-8.0-2.64","FL","z15jvz5weu","1440","900","en","gh09er15","null","","","","learningBlock2","","","","<div style=""font-size:60px;""> </div>","null","FL","learning/Slide145.JPG","That was a bim.","",""
"","image-keyboard-response","443","960596","0.0-8.0-0.65","FL","z15jvz5weu","1440","900","en","gh09er15","null","","","","","","","","learning/Slide146.JPG","null","","","","",""
"","html-keyboard-response","444","961750","0.0-8.0-1.65","FL","z15jvz5weu","1440","900","en","gh09er15","null","","","","learningBlock2","","","","That was a tob.","null","","","","",""
"","html-keyboard-response","445","962755","0.0-8.0-2.65","FL","z15jvz5weu","1440","900","en","gh09er15","null","","","","learningBlock2","","","","<div style=""font-size:60px;""> </div>","null","FL","learning/Slide146.JPG","That was a tob.","",""
"","image-keyboard-response","446","962932","0.0-8.0-0.66","FL","z15jvz5weu","1440","900","en","gh09er15","null","","","","","","","","learning/Slide147.JPG","null","","","","",""
"","html-keyboard-response","447","964086","0.0-8.0-1.66","FL","z15jvz5weu","1440","900","en","gh09er15","null","","","","learningBlock2","","","","That was a wug.","null","","","","",""
"","html-keyboard-response","448","965088","0.0-8.0-2.66","FL","z15jvz5weu","1440","900","en","gh09er15","null","","","","learningBlock2","","","","<div style=""font-size:60px;""> </div>","null","FL","learning/Slide147.JPG","That was a wug.","",""
"","image-keyboard-response","449","965268","0.0-8.0-0.67","FL","z15jvz5weu","1440","900","en","gh09er15","null","","","","","","","","learning/Slide148.JPG","null","","","","",""
"","html-keyboard-response","450","966423","0.0-8.0-1.67","FL","z15jvz5weu","1440","900","en","gh09er15","null","","","","learningBlock2","","","","That was a bim.","null","","","","",""
"","html-keyboard-response","451","967429","0.0-8.0-2.67","FL","z15jvz5weu","1440","900","en","gh09er15","null","","","","learningBlock2","","","","<div style=""font-size:60px;""> </div>","null","FL","learning/Slide148.JPG","That was a bim.","",""
"","image-keyboard-response","452","967607","0.0-8.0-0.68","FL","z15jvz5weu","1440","900","en","gh09er15","null","","","","","","","","learning/Slide149.JPG","null","","","","",""
"","html-keyboard-response","453","968763","0.0-8.0-1.68","FL","z15jvz5weu","1440","900","en","gh09er15","null","","","","learningBlock2","","","","That was a dep.","null","","","","",""
"","html-keyboard-response","454","969769","0.0-8.0-2.68","FL","z15jvz5weu","1440","900","en","gh09er15","null","","","","learningBlock2","","","","<div style=""font-size:60px;""> </div>","null","FL","learning/Slide149.JPG","That was a dep.","",""
"","image-keyboard-response","455","969946","0.0-8.0-0.69","FL","z15jvz5weu","1440","900","en","gh09er15","null","","","","","","","","learning/Slide150.JPG","null","","","","",""
"","html-keyboard-response","456","971102","0.0-8.0-1.69","FL","z15jvz5weu","1440","900","en","gh09er15","null","","","","learningBlock2","","","","That was a wug.","null","","","","",""
"","html-keyboard-response","457","972105","0.0-8.0-2.69","FL","z15jvz5weu","1440","900","en","gh09er15","null","","","","learningBlock2","","","","<div style=""font-size:60px;""> </div>","null","FL","learning/Slide150.JPG","That was a wug.","",""
"","image-keyboard-response","458","972286","0.0-8.0-0.70","FL","z15jvz5weu","1440","900","en","gh09er15","null","","","","","","","","learning/Slide151.JPG","null","","","","",""
"","html-keyboard-response","459","973440","0.0-8.0-1.70","FL","z15jvz5weu","1440","900","en","gh09er15","null","","","","learningBlock2","","","","That was a dep.","null","","","","",""
"","html-keyboard-response","460","974446","0.0-8.0-2.70","FL","z15jvz5weu","1440","900","en","gh09er15","null","","","","learningBlock2","","","","<div style=""font-size:60px;""> </div>","null","FL","learning/Slide151.JPG","That was a dep.","",""
"","image-keyboard-response","461","974623","0.0-8.0-0.71","FL","z15jvz5weu","1440","900","en","gh09er15","null","","","","","","","","learning/Slide152.JPG","null","","","","",""
"","html-keyboard-response","462","975779","0.0-8.0-1.71","FL","z15jvz5weu","1440","900","en","gh09er15","null","","","","learningBlock2","","","","That was a wug.","null","","","","",""
"","html-keyboard-response","463","976782","0.0-8.0-2.71","FL","z15jvz5weu","1440","900","en","gh09er15","null","","","","learningBlock2","","","","<div style=""font-size:60px;""> </div>","null","FL","learning/Slide152.JPG","That was a wug.","",""
"","image-keyboard-response","464","976962","0.0-8.0-0.72","FL","z15jvz5weu","1440","900","en","gh09er15","null","","","","","","","","learning/Slide153.JPG","null","","","","",""
"","html-keyboard-response","465","978120","0.0-8.0-1.72","FL","z15jvz5weu","1440","900","en","gh09er15","null","","","","learningBlock2","","","","That was a bim.","null","","","","",""
"","html-keyboard-response","466","979123","0.0-8.0-2.72","FL","z15jvz5weu","1440","900","en","gh09er15","null","","","","learningBlock2","","","","<div style=""font-size:60px;""> </div>","null","FL","learning/Slide153.JPG","That was a bim.","",""
"","image-keyboard-response","467","979301","0.0-8.0-0.73","FL","z15jvz5weu","1440","900","en","gh09er15","null","","","","","","","","learning/Slide154.JPG","null","","","","",""
"","html-keyboard-response","468","980456","0.0-8.0-1.73","FL","z15jvz5weu","1440","900","en","gh09er15","null","","","","learningBlock2","","","","That was a tob.","null","","","","",""
"","html-keyboard-response","469","981462","0.0-8.0-2.73","FL","z15jvz5weu","1440","900","en","gh09er15","null","","","","learningBlock2","","","","<div style=""font-size:60px;""> </div>","null","FL","learning/Slide154.JPG","That was a tob.","",""
"","image-keyboard-response","470","981640","0.0-8.0-0.74","FL","z15jvz5weu","1440","900","en","gh09er15","null","","","","","","","","learning/Slide155.JPG","null","","","","",""
"","html-keyboard-response","471","982798","0.0-8.0-1.74","FL","z15jvz5weu","1440","900","en","gh09er15","null","","","","learningBlock2","","","","That was a dep.","null","","","","",""
"","html-keyboard-response","472","983801","0.0-8.0-2.74","FL","z15jvz5weu","1440","900","en","gh09er15","null","","","","learningBlock2","","","","<div style=""font-size:60px;""> </div>","null","FL","learning/Slide155.JPG","That was a dep.","",""
"","image-keyboard-response","473","983979","0.0-8.0-0.75","FL","z15jvz5weu","1440","900","en","gh09er15","null","","","","","","","","learning/Slide156.JPG","null","","","","",""
"","html-keyboard-response","474","985134","0.0-8.0-1.75","FL","z15jvz5weu","1440","900","en","gh09er15","null","","","","learningBlock2","","","","That was a bim.","null","","","","",""
"","html-keyboard-response","475","986138","0.0-8.0-2.75","FL","z15jvz5weu","1440","900","en","gh09er15","null","","","","learningBlock2","","","","<div style=""font-size:60px;""> </div>","null","FL","learning/Slide156.JPG","That was a bim.","",""
"","image-keyboard-response","476","986319","0.0-8.0-0.76","FL","z15jvz5weu","1440","900","en","gh09er15","null","","","","","","","","learning/Slide157.JPG","null","","","","",""
"","html-keyboard-response","477","987475","0.0-8.0-1.76","FL","z15jvz5weu","1440","900","en","gh09er15","null","","","","learningBlock2","","","","That was a dep.","null","","","","",""
"","html-keyboard-response","478","988479","0.0-8.0-2.76","FL","z15jvz5weu","1440","900","en","gh09er15","null","","","","learningBlock2","","","","<div style=""font-size:60px;""> </div>","null","FL","learning/Slide157.JPG","That was a dep.","",""
"","image-keyboard-response","479","988658","0.0-8.0-0.77","FL","z15jvz5weu","1440","900","en","gh09er15","null","","","","","","","","learning/Slide158.JPG","null","","","","",""
"","html-keyboard-response","480","989814","0.0-8.0-1.77","FL","z15jvz5weu","1440","900","en","gh09er15","null","","","","learningBlock2","","","","That was a tob.","null","","","","",""
"","html-keyboard-response","481","990819","0.0-8.0-2.77","FL","z15jvz5weu","1440","900","en","gh09er15","null","","","","learningBlock2","","","","<div style=""font-size:60px;""> </div>","null","FL","learning/Slide158.JPG","That was a tob.","",""
"","image-keyboard-response","482","990998","0.0-8.0-0.78","FL","z15jvz5weu","1440","900","en","gh09er15","null","","","","","","","","learning/Slide159.JPG","null","","","","",""
"","html-keyboard-response","483","992154","0.0-8.0-1.78","FL","z15jvz5weu","1440","900","en","gh09er15","null","","","","learningBlock2","","","","That was a dep.","null","","","","",""
"","html-keyboard-response","484","993158","0.0-8.0-2.78","FL","z15jvz5weu","1440","900","en","gh09er15","null","","","","learningBlock2","","","","<div style=""font-size:60px;""> </div>","null","FL","learning/Slide159.JPG","That was a dep.","",""
"","image-keyboard-response","485","993339","0.0-8.0-0.79","FL","z15jvz5weu","1440","900","en","gh09er15","null","","","","","","","","learning/Slide160.JPG","null","","","","",""
"","html-keyboard-response","486","994495","0.0-8.0-1.79","FL","z15jvz5weu","1440","900","en","gh09er15","null","","","","learningBlock2","","","","That was a wug.","null","","","","",""
"","html-keyboard-response","487","995498","0.0-8.0-2.79","FL","z15jvz5weu","1440","900","en","gh09er15","null","","","","learningBlock2","","","","<div style=""font-size:60px;""> </div>","null","FL","learning/Slide160.JPG","That was a wug.","",""
"","resize2","488","999379","0.0-9.0","FL","z15jvz5weu","1440","900","en","gh09er15","","","","","","","104","1.04","","","","","","",""
