"success","trial_type","trial_index","time_elapsed","internal_node_id","condition","subject","screen_width","screen_height","language","codeword","rt","responses","url","view_history","test_part","final_height_px","final_width_px","scale_factor","stimulus","key_press","learningType","presentedImage","presentedLabel","button_pressed","response"
"true","fullscreen","0","7190","0.0-0.0","FL","nbzeelogn1","1280","720","en","AL05AR15","","","","","","","","","","","","","","",""
"","survey-html-form","1","20234","0.0-1.0","FL","nbzeelogn1","1280","720","en","AL05AR15","13032.05999918282","{""language"":""en""}","","","","","","","","","","","","",""
"","external-html","2","107831","0.0-3.0-0.0","FL","nbzeelogn1","1280","720","en","AL05AR15","87474.17000122368","","text/information_english.html","","","","","","","","","","","",""
"","external-html","3","125307","0.0-3.0-1.0","FL","nbzeelogn1","1280","720","en","AL05AR15","17318.32999922335","","text/consent_english.html","","","","","","","","","","","",""
"","survey-html-form","4","364374","0.0-3.0-2.0","FL","nbzeelogn1","1280","720","en","AL05AR15","239044.63499970734","{""codeword_enter"":""AL05AR15""}","","","","","","","","","","","","",""
"","instructions","5","388536","0.0-4.0","FL","nbzeelogn1","1280","720","en","AL05AR15","NA","","","[{""page_index"":0,""viewing_time"":2661.879999563098},{""page_index"":1,""viewing_time"":19980.98500072956}]","instructions","","","","","","","","","",""
"","resize","6","449908","0.0-5.0","FL","nbzeelogn1","1280","720","en","AL05AR15","","","","","","","368","2.336507936507936","","","","","","",""
"","image-keyboard-response","7","450105","0.0-6.0-0.0","FL","nbzeelogn1","1280","720","en","AL05AR15","null","","","","","","","","learning/Slide1.JPG","null","","","","",""
"","html-keyboard-response","8","451282","0.0-6.0-1.0","FL","nbzeelogn1","1280","720","en","AL05AR15","null","","","","learningBlock1","","","","That was a tob.","null","","","","",""
"","html-keyboard-response","9","452300","0.0-6.0-2.0","FL","nbzeelogn1","1280","720","en","AL05AR15","null","","","","learningBlock1","","","","<div style=""font-size:60px;""> </div>","null","FL","learning/Slide1.JPG","That was a tob.","",""
"","image-keyboard-response","10","452491","0.0-6.0-0.1","FL","nbzeelogn1","1280","720","en","AL05AR15","null","","","","","","","","learning/Slide2.JPG","null","","","","",""
"","html-keyboard-response","11","453654","0.0-6.0-1.1","FL","nbzeelogn1","1280","720","en","AL05AR15","null","","","","learningBlock1","","","","That was a wug.","null","","","","",""
"","html-keyboard-response","12","454659","0.0-6.0-2.1","FL","nbzeelogn1","1280","720","en","AL05AR15","null","","","","learningBlock1","","","","<div style=""font-size:60px;""> </div>","null","FL","learning/Slide2.JPG","That was a wug.","",""
"","image-keyboard-response","13","454842","0.0-6.0-0.2","FL","nbzeelogn1","1280","720","en","AL05AR15","null","","","","","","","","learning/Slide3.JPG","null","","","","",""
"","html-keyboard-response","14","456006","0.0-6.0-1.2","FL","nbzeelogn1","1280","720","en","AL05AR15","null","","","","learningBlock1","","","","That was a bim.","null","","","","",""
"","html-keyboard-response","15","457010","0.0-6.0-2.2","FL","nbzeelogn1","1280","720","en","AL05AR15","null","","","","learningBlock1","","","","<div style=""font-size:60px;""> </div>","null","FL","learning/Slide3.JPG","That was a bim.","",""
"","image-keyboard-response","16","457195","0.0-6.0-0.3","FL","nbzeelogn1","1280","720","en","AL05AR15","null","","","","","","","","learning/Slide4.JPG","null","","","","",""
"","html-keyboard-response","17","458359","0.0-6.0-1.3","FL","nbzeelogn1","1280","720","en","AL05AR15","null","","","","learningBlock1","","","","That was a dep.","null","","","","",""
"","html-keyboard-response","18","459363","0.0-6.0-2.3","FL","nbzeelogn1","1280","720","en","AL05AR15","null","","","","learningBlock1","","","","<div style=""font-size:60px;""> </div>","null","FL","learning/Slide4.JPG","That was a dep.","",""
"","image-keyboard-response","19","459547","0.0-6.0-0.4","FL","nbzeelogn1","1280","720","en","AL05AR15","null","","","","","","","","learning/Slide5.JPG","null","","","","",""
"","html-keyboard-response","20","460710","0.0-6.0-1.4","FL","nbzeelogn1","1280","720","en","AL05AR15","null","","","","learningBlock1","","","","That was a wug.","null","","","","",""
"","html-keyboard-response","21","461729","0.0-6.0-2.4","FL","nbzeelogn1","1280","720","en","AL05AR15","null","","","","learningBlock1","","","","<div style=""font-size:60px;""> </div>","null","FL","learning/Slide5.JPG","That was a wug.","",""
"","image-keyboard-response","22","461916","0.0-6.0-0.5","FL","nbzeelogn1","1280","720","en","AL05AR15","null","","","","","","","","learning/Slide6.JPG","null","","","","",""
"","html-keyboard-response","23","463080","0.0-6.0-1.5","FL","nbzeelogn1","1280","720","en","AL05AR15","null","","","","learningBlock1","","","","That was a dep.","null","","","","",""
"","html-keyboard-response","24","464083","0.0-6.0-2.5","FL","nbzeelogn1","1280","720","en","AL05AR15","null","","","","learningBlock1","","","","<div style=""font-size:60px;""> </div>","null","FL","learning/Slide6.JPG","That was a dep.","",""
"","image-keyboard-response","25","464268","0.0-6.0-0.6","FL","nbzeelogn1","1280","720","en","AL05AR15","null","","","","","","","","learning/Slide7.JPG","null","","","","",""
"","html-keyboard-response","26","465432","0.0-6.0-1.6","FL","nbzeelogn1","1280","720","en","AL05AR15","null","","","","learningBlock1","","","","That was a wug.","null","","","","",""
"","html-keyboard-response","27","466446","0.0-6.0-2.6","FL","nbzeelogn1","1280","720","en","AL05AR15","null","","","","learningBlock1","","","","<div style=""font-size:60px;""> </div>","null","FL","learning/Slide7.JPG","That was a wug.","",""
"","image-keyboard-response","28","466637","0.0-6.0-0.7","FL","nbzeelogn1","1280","720","en","AL05AR15","null","","","","","","","","learning/Slide8.JPG","null","","","","",""
"","html-keyboard-response","29","467804","0.0-6.0-1.7","FL","nbzeelogn1","1280","720","en","AL05AR15","null","","","","learningBlock1","","","","That was a bim.","null","","","","",""
"","html-keyboard-response","30","468815","0.0-6.0-2.7","FL","nbzeelogn1","1280","720","en","AL05AR15","null","","","","learningBlock1","","","","<div style=""font-size:60px;""> </div>","null","FL","learning/Slide8.JPG","That was a bim.","",""
"","image-keyboard-response","31","469006","0.0-6.0-0.8","FL","nbzeelogn1","1280","720","en","AL05AR15","null","","","","","","","","learning/Slide9.JPG","null","","","","",""
"","html-keyboard-response","32","470170","0.0-6.0-1.8","FL","nbzeelogn1","1280","720","en","AL05AR15","null","","","","learningBlock1","","","","That was a wug.","null","","","","",""
"","html-keyboard-response","33","471175","0.0-6.0-2.8","FL","nbzeelogn1","1280","720","en","AL05AR15","null","","","","learningBlock1","","","","<div style=""font-size:60px;""> </div>","null","FL","learning/Slide9.JPG","That was a wug.","",""
"","image-keyboard-response","34","471359","0.0-6.0-0.9","FL","nbzeelogn1","1280","720","en","AL05AR15","null","","","","","","","","learning/Slide10.JPG","null","","","","",""
"","html-keyboard-response","35","472524","0.0-6.0-1.9","FL","nbzeelogn1","1280","720","en","AL05AR15","null","","","","learningBlock1","","","","That was a dep.","null","","","","",""
"","html-keyboard-response","36","473542","0.0-6.0-2.9","FL","nbzeelogn1","1280","720","en","AL05AR15","null","","","","learningBlock1","","","","<div style=""font-size:60px;""> </div>","null","FL","learning/Slide10.JPG","That was a dep.","",""
"","image-keyboard-response","37","473729","0.0-6.0-0.10","FL","nbzeelogn1","1280","720","en","AL05AR15","null","","","","","","","","learning/Slide11.JPG","null","","","","",""
"","html-keyboard-response","38","474896","0.0-6.0-1.10","FL","nbzeelogn1","1280","720","en","AL05AR15","null","","","","learningBlock1","","","","That was a tob.","null","","","","",""
"","html-keyboard-response","39","475907","0.0-6.0-2.10","FL","nbzeelogn1","1280","720","en","AL05AR15","null","","","","learningBlock1","","","","<div style=""font-size:60px;""> </div>","null","FL","learning/Slide11.JPG","That was a tob.","",""
"","image-keyboard-response","40","476096","0.0-6.0-0.11","FL","nbzeelogn1","1280","720","en","AL05AR15","null","","","","","","","","learning/Slide12.JPG","null","","","","",""
"","html-keyboard-response","41","477262","0.0-6.0-1.11","FL","nbzeelogn1","1280","720","en","AL05AR15","null","","","","learningBlock1","","","","That was a dep.","null","","","","",""
"","html-keyboard-response","42","478264","0.0-6.0-2.11","FL","nbzeelogn1","1280","720","en","AL05AR15","null","","","","learningBlock1","","","","<div style=""font-size:60px;""> </div>","null","FL","learning/Slide12.JPG","That was a dep.","",""
"","image-keyboard-response","43","478443","0.0-6.0-0.12","FL","nbzeelogn1","1280","720","en","AL05AR15","null","","","","","","","","learning/Slide13.JPG","null","","","","",""
"","html-keyboard-response","44","479611","0.0-6.0-1.12","FL","nbzeelogn1","1280","720","en","AL05AR15","null","","","","learningBlock1","","","","That was a bim.","null","","","","",""
"","html-keyboard-response","45","480620","0.0-6.0-2.12","FL","nbzeelogn1","1280","720","en","AL05AR15","null","","","","learningBlock1","","","","<div style=""font-size:60px;""> </div>","null","FL","learning/Slide13.JPG","That was a bim.","",""
"","image-keyboard-response","46","480804","0.0-6.0-0.13","FL","nbzeelogn1","1280","720","en","AL05AR15","null","","","","","","","","learning/Slide14.JPG","null","","","","",""
"","html-keyboard-response","47","481969","0.0-6.0-1.13","FL","nbzeelogn1","1280","720","en","AL05AR15","null","","","","learningBlock1","","","","That was a wug.","null","","","","",""
"","html-keyboard-response","48","482980","0.0-6.0-2.13","FL","nbzeelogn1","1280","720","en","AL05AR15","null","","","","learningBlock1","","","","<div style=""font-size:60px;""> </div>","null","FL","learning/Slide14.JPG","That was a wug.","",""
"","image-keyboard-response","49","483168","0.0-6.0-0.14","FL","nbzeelogn1","1280","720","en","AL05AR15","null","","","","","","","","learning/Slide15.JPG","null","","","","",""
"","html-keyboard-response","50","484332","0.0-6.0-1.14","FL","nbzeelogn1","1280","720","en","AL05AR15","null","","","","learningBlock1","","","","That was a tob.","null","","","","",""
"","html-keyboard-response","51","485336","0.0-6.0-2.14","FL","nbzeelogn1","1280","720","en","AL05AR15","null","","","","learningBlock1","","","","<div style=""font-size:60px;""> </div>","null","FL","learning/Slide15.JPG","That was a tob.","",""
"","image-keyboard-response","52","485529","0.0-6.0-0.15","FL","nbzeelogn1","1280","720","en","AL05AR15","null","","","","","","","","learning/Slide16.JPG","null","","","","",""
"","html-keyboard-response","53","486702","0.0-6.0-1.15","FL","nbzeelogn1","1280","720","en","AL05AR15","null","","","","learningBlock1","","","","That was a dep.","null","","","","",""
"","html-keyboard-response","54","487714","0.0-6.0-2.15","FL","nbzeelogn1","1280","720","en","AL05AR15","null","","","","learningBlock1","","","","<div style=""font-size:60px;""> </div>","null","FL","learning/Slide16.JPG","That was a dep.","",""
"","image-keyboard-response","55","487905","0.0-6.0-0.16","FL","nbzeelogn1","1280","720","en","AL05AR15","null","","","","","","","","learning/Slide17.JPG","null","","","","",""
"","html-keyboard-response","56","489072","0.0-6.0-1.16","FL","nbzeelogn1","1280","720","en","AL05AR15","null","","","","learningBlock1","","","","That was a bim.","null","","","","",""
"","html-keyboard-response","57","490084","0.0-6.0-2.16","FL","nbzeelogn1","1280","720","en","AL05AR15","null","","","","learningBlock1","","","","<div style=""font-size:60px;""> </div>","null","FL","learning/Slide17.JPG","That was a bim.","",""
"","image-keyboard-response","58","490275","0.0-6.0-0.17","FL","nbzeelogn1","1280","720","en","AL05AR15","null","","","","","","","","learning/Slide18.JPG","null","","","","",""
"","html-keyboard-response","59","491434","0.0-6.0-1.17","FL","nbzeelogn1","1280","720","en","AL05AR15","null","","","","learningBlock1","","","","That was a tob.","null","","","","",""
"","html-keyboard-response","60","492446","0.0-6.0-2.17","FL","nbzeelogn1","1280","720","en","AL05AR15","null","","","","learningBlock1","","","","<div style=""font-size:60px;""> </div>","null","FL","learning/Slide18.JPG","That was a tob.","",""
"","image-keyboard-response","61","492628","0.0-6.0-0.18","FL","nbzeelogn1","1280","720","en","AL05AR15","null","","","","","","","","learning/Slide19.JPG","null","","","","",""
"","html-keyboard-response","62","493792","0.0-6.0-1.18","FL","nbzeelogn1","1280","720","en","AL05AR15","null","","","","learningBlock1","","","","That was a wug.","null","","","","",""
"","html-keyboard-response","63","494805","0.0-6.0-2.18","FL","nbzeelogn1","1280","720","en","AL05AR15","null","","","","learningBlock1","","","","<div style=""font-size:60px;""> </div>","null","FL","learning/Slide19.JPG","That was a wug.","",""
"","image-keyboard-response","64","494994","0.0-6.0-0.19","FL","nbzeelogn1","1280","720","en","AL05AR15","null","","","","","","","","learning/Slide20.JPG","null","","","","",""
"","html-keyboard-response","65","496160","0.0-6.0-1.19","FL","nbzeelogn1","1280","720","en","AL05AR15","null","","","","learningBlock1","","","","That was a bim.","null","","","","",""
"","html-keyboard-response","66","497178","0.0-6.0-2.19","FL","nbzeelogn1","1280","720","en","AL05AR15","null","","","","learningBlock1","","","","<div style=""font-size:60px;""> </div>","null","FL","learning/Slide20.JPG","That was a bim.","",""
"","image-keyboard-response","67","497365","0.0-6.0-0.20","FL","nbzeelogn1","1280","720","en","AL05AR15","null","","","","","","","","learning/Slide21.JPG","null","","","","",""
"","html-keyboard-response","68","498527","0.0-6.0-1.20","FL","nbzeelogn1","1280","720","en","AL05AR15","null","","","","learningBlock1","","","","That was a dep.","null","","","","",""
"","html-keyboard-response","69","499543","0.0-6.0-2.20","FL","nbzeelogn1","1280","720","en","AL05AR15","null","","","","learningBlock1","","","","<div style=""font-size:60px;""> </div>","null","FL","learning/Slide21.JPG","That was a dep.","",""
"","image-keyboard-response","70","499734","0.0-6.0-0.21","FL","nbzeelogn1","1280","720","en","AL05AR15","null","","","","","","","","learning/Slide22.JPG","null","","","","",""
"","html-keyboard-response","71","500889","0.0-6.0-1.21","FL","nbzeelogn1","1280","720","en","AL05AR15","null","","","","learningBlock1","","","","That was a bim.","null","","","","",""
"","html-keyboard-response","72","501906","0.0-6.0-2.21","FL","nbzeelogn1","1280","720","en","AL05AR15","null","","","","learningBlock1","","","","<div style=""font-size:60px;""> </div>","null","FL","learning/Slide22.JPG","That was a bim.","",""
"","image-keyboard-response","73","502086","0.0-6.0-0.22","FL","nbzeelogn1","1280","720","en","AL05AR15","null","","","","","","","","learning/Slide23.JPG","null","","","","",""
"","html-keyboard-response","74","503250","0.0-6.0-1.22","FL","nbzeelogn1","1280","720","en","AL05AR15","null","","","","learningBlock1","","","","That was a tob.","null","","","","",""
"","html-keyboard-response","75","504259","0.0-6.0-2.22","FL","nbzeelogn1","1280","720","en","AL05AR15","null","","","","learningBlock1","","","","<div style=""font-size:60px;""> </div>","null","FL","learning/Slide23.JPG","That was a tob.","",""
"","image-keyboard-response","76","504439","0.0-6.0-0.23","FL","nbzeelogn1","1280","720","en","AL05AR15","null","","","","","","","","learning/Slide24.JPG","null","","","","",""
"","html-keyboard-response","77","505601","0.0-6.0-1.23","FL","nbzeelogn1","1280","720","en","AL05AR15","null","","","","learningBlock1","","","","That was a wug.","null","","","","",""
"","html-keyboard-response","78","506605","0.0-6.0-2.23","FL","nbzeelogn1","1280","720","en","AL05AR15","null","","","","learningBlock1","","","","<div style=""font-size:60px;""> </div>","null","FL","learning/Slide24.JPG","That was a wug.","",""
"","image-keyboard-response","79","506790","0.0-6.0-0.24","FL","nbzeelogn1","1280","720","en","AL05AR15","null","","","","","","","","learning/Slide25.JPG","null","","","","",""
"","html-keyboard-response","80","507963","0.0-6.0-1.24","FL","nbzeelogn1","1280","720","en","AL05AR15","null","","","","learningBlock1","","","","That was a dep.","null","","","","",""
"","html-keyboard-response","81","508972","0.0-6.0-2.24","FL","nbzeelogn1","1280","720","en","AL05AR15","null","","","","learningBlock1","","","","<div style=""font-size:60px;""> </div>","null","FL","learning/Slide25.JPG","That was a dep.","",""
"","image-keyboard-response","82","509164","0.0-6.0-0.25","FL","nbzeelogn1","1280","720","en","AL05AR15","null","","","","","","","","learning/Slide26.JPG","null","","","","",""
"","html-keyboard-response","83","510328","0.0-6.0-1.25","FL","nbzeelogn1","1280","720","en","AL05AR15","null","","","","learningBlock1","","","","That was a wug.","null","","","","",""
"","html-keyboard-response","84","511339","0.0-6.0-2.25","FL","nbzeelogn1","1280","720","en","AL05AR15","null","","","","learningBlock1","","","","<div style=""font-size:60px;""> </div>","null","FL","learning/Slide26.JPG","That was a wug.","",""
"","image-keyboard-response","85","511528","0.0-6.0-0.26","FL","nbzeelogn1","1280","720","en","AL05AR15","null","","","","","","","","learning/Slide27.JPG","null","","","","",""
"","html-keyboard-response","86","512705","0.0-6.0-1.26","FL","nbzeelogn1","1280","720","en","AL05AR15","null","","","","learningBlock1","","","","That was a bim.","null","","","","",""
"","html-keyboard-response","87","513712","0.0-6.0-2.26","FL","nbzeelogn1","1280","720","en","AL05AR15","null","","","","learningBlock1","","","","<div style=""font-size:60px;""> </div>","null","FL","learning/Slide27.JPG","That was a bim.","",""
"","image-keyboard-response","88","513895","0.0-6.0-0.27","FL","nbzeelogn1","1280","720","en","AL05AR15","null","","","","","","","","learning/Slide28.JPG","null","","","","",""
"","html-keyboard-response","89","515059","0.0-6.0-1.27","FL","nbzeelogn1","1280","720","en","AL05AR15","null","","","","learningBlock1","","","","That was a dep.","null","","","","",""
"","html-keyboard-response","90","516071","0.0-6.0-2.27","FL","nbzeelogn1","1280","720","en","AL05AR15","null","","","","learningBlock1","","","","<div style=""font-size:60px;""> </div>","null","FL","learning/Slide28.JPG","That was a dep.","",""
"","image-keyboard-response","91","516253","0.0-6.0-0.28","FL","nbzeelogn1","1280","720","en","AL05AR15","null","","","","","","","","learning/Slide29.JPG","null","","","","",""
"","html-keyboard-response","92","517416","0.0-6.0-1.28","FL","nbzeelogn1","1280","720","en","AL05AR15","null","","","","learningBlock1","","","","That was a tob.","null","","","","",""
"","html-keyboard-response","93","518426","0.0-6.0-2.28","FL","nbzeelogn1","1280","720","en","AL05AR15","null","","","","learningBlock1","","","","<div style=""font-size:60px;""> </div>","null","FL","learning/Slide29.JPG","That was a tob.","",""
"","image-keyboard-response","94","518616","0.0-6.0-0.29","FL","nbzeelogn1","1280","720","en","AL05AR15","null","","","","","","","","learning/Slide30.JPG","null","","","","",""
"","html-keyboard-response","95","519780","0.0-6.0-1.29","FL","nbzeelogn1","1280","720","en","AL05AR15","null","","","","learningBlock1","","","","That was a dep.","null","","","","",""
"","html-keyboard-response","96","520782","0.0-6.0-2.29","FL","nbzeelogn1","1280","720","en","AL05AR15","null","","","","learningBlock1","","","","<div style=""font-size:60px;""> </div>","null","FL","learning/Slide30.JPG","That was a dep.","",""
"","image-keyboard-response","97","520968","0.0-6.0-0.30","FL","nbzeelogn1","1280","720","en","AL05AR15","null","","","","","","","","learning/Slide31.JPG","null","","","","",""
"","html-keyboard-response","98","522129","0.0-6.0-1.30","FL","nbzeelogn1","1280","720","en","AL05AR15","null","","","","learningBlock1","","","","That was a wug.","null","","","","",""
"","html-keyboard-response","99","523131","0.0-6.0-2.30","FL","nbzeelogn1","1280","720","en","AL05AR15","null","","","","learningBlock1","","","","<div style=""font-size:60px;""> </div>","null","FL","learning/Slide31.JPG","That was a wug.","",""
"","image-keyboard-response","100","523320","0.0-6.0-0.31","FL","nbzeelogn1","1280","720","en","AL05AR15","null","","","","","","","","learning/Slide32.JPG","null","","","","",""
"","html-keyboard-response","101","524481","0.0-6.0-1.31","FL","nbzeelogn1","1280","720","en","AL05AR15","null","","","","learningBlock1","","","","That was a tob.","null","","","","",""
"","html-keyboard-response","102","525486","0.0-6.0-2.31","FL","nbzeelogn1","1280","720","en","AL05AR15","null","","","","learningBlock1","","","","<div style=""font-size:60px;""> </div>","null","FL","learning/Slide32.JPG","That was a tob.","",""
"","image-keyboard-response","103","525664","0.0-6.0-0.32","FL","nbzeelogn1","1280","720","en","AL05AR15","null","","","","","","","","learning/Slide33.JPG","null","","","","",""
"","html-keyboard-response","104","526835","0.0-6.0-1.32","FL","nbzeelogn1","1280","720","en","AL05AR15","null","","","","learningBlock1","","","","That was a bim.","null","","","","",""
"","html-keyboard-response","105","527838","0.0-6.0-2.32","FL","nbzeelogn1","1280","720","en","AL05AR15","null","","","","learningBlock1","","","","<div style=""font-size:60px;""> </div>","null","FL","learning/Slide33.JPG","That was a bim.","",""
"","image-keyboard-response","106","528027","0.0-6.0-0.33","FL","nbzeelogn1","1280","720","en","AL05AR15","null","","","","","","","","learning/Slide34.JPG","null","","","","",""
"","html-keyboard-response","107","529191","0.0-6.0-1.33","FL","nbzeelogn1","1280","720","en","AL05AR15","null","","","","learningBlock1","","","","That was a tob.","null","","","","",""
"","html-keyboard-response","108","530208","0.0-6.0-2.33","FL","nbzeelogn1","1280","720","en","AL05AR15","null","","","","learningBlock1","","","","<div style=""font-size:60px;""> </div>","null","FL","learning/Slide34.JPG","That was a tob.","",""
"","image-keyboard-response","109","530398","0.0-6.0-0.34","FL","nbzeelogn1","1280","720","en","AL05AR15","null","","","","","","","","learning/Slide35.JPG","null","","","","",""
"","html-keyboard-response","110","531561","0.0-6.0-1.34","FL","nbzeelogn1","1280","720","en","AL05AR15","null","","","","learningBlock1","","","","That was a bim.","null","","","","",""
"","html-keyboard-response","111","532577","0.0-6.0-2.34","FL","nbzeelogn1","1280","720","en","AL05AR15","null","","","","learningBlock1","","","","<div style=""font-size:60px;""> </div>","null","FL","learning/Slide35.JPG","That was a bim.","",""
"","image-keyboard-response","112","532764","0.0-6.0-0.35","FL","nbzeelogn1","1280","720","en","AL05AR15","null","","","","","","","","learning/Slide36.JPG","null","","","","",""
"","html-keyboard-response","113","533933","0.0-6.0-1.35","FL","nbzeelogn1","1280","720","en","AL05AR15","null","","","","learningBlock1","","","","That was a dep.","null","","","","",""
"","html-keyboard-response","114","534936","0.0-6.0-2.35","FL","nbzeelogn1","1280","720","en","AL05AR15","null","","","","learningBlock1","","","","<div style=""font-size:60px;""> </div>","null","FL","learning/Slide36.JPG","That was a dep.","",""
"","image-keyboard-response","115","535119","0.0-6.0-0.36","FL","nbzeelogn1","1280","720","en","AL05AR15","null","","","","","","","","learning/Slide37.JPG","null","","","","",""
"","html-keyboard-response","116","536294","0.0-6.0-1.36","FL","nbzeelogn1","1280","720","en","AL05AR15","null","","","","learningBlock1","","","","That was a tob.","null","","","","",""
"","html-keyboard-response","117","537304","0.0-6.0-2.36","FL","nbzeelogn1","1280","720","en","AL05AR15","null","","","","learningBlock1","","","","<div style=""font-size:60px;""> </div>","null","FL","learning/Slide37.JPG","That was a tob.","",""
"","image-keyboard-response","118","537484","0.0-6.0-0.37","FL","nbzeelogn1","1280","720","en","AL05AR15","null","","","","","","","","learning/Slide38.JPG","null","","","","",""
"","html-keyboard-response","119","538639","0.0-6.0-1.37","FL","nbzeelogn1","1280","720","en","AL05AR15","null","","","","learningBlock1","","","","That was a wug.","null","","","","",""
"","html-keyboard-response","120","539644","0.0-6.0-2.37","FL","nbzeelogn1","1280","720","en","AL05AR15","null","","","","learningBlock1","","","","<div style=""font-size:60px;""> </div>","null","FL","learning/Slide38.JPG","That was a wug.","",""
"","image-keyboard-response","121","539822","0.0-6.0-0.38","FL","nbzeelogn1","1280","720","en","AL05AR15","null","","","","","","","","learning/Slide39.JPG","null","","","","",""
"","html-keyboard-response","122","540989","0.0-6.0-1.38","FL","nbzeelogn1","1280","720","en","AL05AR15","null","","","","learningBlock1","","","","That was a bim.","null","","","","",""
"","html-keyboard-response","123","542001","0.0-6.0-2.38","FL","nbzeelogn1","1280","720","en","AL05AR15","null","","","","learningBlock1","","","","<div style=""font-size:60px;""> </div>","null","FL","learning/Slide39.JPG","That was a bim.","",""
"","image-keyboard-response","124","542191","0.0-6.0-0.39","FL","nbzeelogn1","1280","720","en","AL05AR15","null","","","","","","","","learning/Slide40.JPG","null","","","","",""
"","html-keyboard-response","125","543354","0.0-6.0-1.39","FL","nbzeelogn1","1280","720","en","AL05AR15","null","","","","learningBlock1","","","","That was a tob.","null","","","","",""
"","html-keyboard-response","126","544367","0.0-6.0-2.39","FL","nbzeelogn1","1280","720","en","AL05AR15","null","","","","learningBlock1","","","","<div style=""font-size:60px;""> </div>","null","FL","learning/Slide40.JPG","That was a tob.","",""
"","image-keyboard-response","127","544558","0.0-6.0-0.40","FL","nbzeelogn1","1280","720","en","AL05AR15","null","","","","","","","","learning/Slide41.JPG","null","","","","",""
"","html-keyboard-response","128","545729","0.0-6.0-1.40","FL","nbzeelogn1","1280","720","en","AL05AR15","null","","","","learningBlock1","","","","That was a bim.","null","","","","",""
"","html-keyboard-response","129","546734","0.0-6.0-2.40","FL","nbzeelogn1","1280","720","en","AL05AR15","null","","","","learningBlock1","","","","<div style=""font-size:60px;""> </div>","null","FL","learning/Slide41.JPG","That was a bim.","",""
"","image-keyboard-response","130","546926","0.0-6.0-0.41","FL","nbzeelogn1","1280","720","en","AL05AR15","null","","","","","","","","learning/Slide42.JPG","null","","","","",""
"","html-keyboard-response","131","548095","0.0-6.0-1.41","FL","nbzeelogn1","1280","720","en","AL05AR15","null","","","","learningBlock1","","","","That was a dep.","null","","","","",""
"","html-keyboard-response","132","549106","0.0-6.0-2.41","FL","nbzeelogn1","1280","720","en","AL05AR15","null","","","","learningBlock1","","","","<div style=""font-size:60px;""> </div>","null","FL","learning/Slide42.JPG","That was a dep.","",""
"","image-keyboard-response","133","549296","0.0-6.0-0.42","FL","nbzeelogn1","1280","720","en","AL05AR15","null","","","","","","","","learning/Slide43.JPG","null","","","","",""
"","html-keyboard-response","134","550460","0.0-6.0-1.42","FL","nbzeelogn1","1280","720","en","AL05AR15","null","","","","learningBlock1","","","","That was a wug.","null","","","","",""
"","html-keyboard-response","135","551464","0.0-6.0-2.42","FL","nbzeelogn1","1280","720","en","AL05AR15","null","","","","learningBlock1","","","","<div style=""font-size:60px;""> </div>","null","FL","learning/Slide43.JPG","That was a wug.","",""
"","image-keyboard-response","136","551652","0.0-6.0-0.43","FL","nbzeelogn1","1280","720","en","AL05AR15","null","","","","","","","","learning/Slide44.JPG","null","","","","",""
"","html-keyboard-response","137","552814","0.0-6.0-1.43","FL","nbzeelogn1","1280","720","en","AL05AR15","null","","","","learningBlock1","","","","That was a bim.","null","","","","",""
"","html-keyboard-response","138","553826","0.0-6.0-2.43","FL","nbzeelogn1","1280","720","en","AL05AR15","null","","","","learningBlock1","","","","<div style=""font-size:60px;""> </div>","null","FL","learning/Slide44.JPG","That was a bim.","",""
"","image-keyboard-response","139","554017","0.0-6.0-0.44","FL","nbzeelogn1","1280","720","en","AL05AR15","null","","","","","","","","learning/Slide45.JPG","null","","","","",""
"","html-keyboard-response","140","555181","0.0-6.0-1.44","FL","nbzeelogn1","1280","720","en","AL05AR15","null","","","","learningBlock1","","","","That was a wug.","null","","","","",""
"","html-keyboard-response","141","556185","0.0-6.0-2.44","FL","nbzeelogn1","1280","720","en","AL05AR15","null","","","","learningBlock1","","","","<div style=""font-size:60px;""> </div>","null","FL","learning/Slide45.JPG","That was a wug.","",""
"","image-keyboard-response","142","556368","0.0-6.0-0.45","FL","nbzeelogn1","1280","720","en","AL05AR15","null","","","","","","","","learning/Slide46.JPG","null","","","","",""
"","html-keyboard-response","143","557532","0.0-6.0-1.45","FL","nbzeelogn1","1280","720","en","AL05AR15","null","","","","learningBlock1","","","","That was a dep.","null","","","","",""
"","html-keyboard-response","144","558545","0.0-6.0-2.45","FL","nbzeelogn1","1280","720","en","AL05AR15","null","","","","learningBlock1","","","","<div style=""font-size:60px;""> </div>","null","FL","learning/Slide46.JPG","That was a dep.","",""
"","image-keyboard-response","145","558737","0.0-6.0-0.46","FL","nbzeelogn1","1280","720","en","AL05AR15","null","","","","","","","","learning/Slide47.JPG","null","","","","",""
"","html-keyboard-response","146","559902","0.0-6.0-1.46","FL","nbzeelogn1","1280","720","en","AL05AR15","null","","","","learningBlock1","","","","That was a tob.","null","","","","",""
"","html-keyboard-response","147","560906","0.0-6.0-2.46","FL","nbzeelogn1","1280","720","en","AL05AR15","null","","","","learningBlock1","","","","<div style=""font-size:60px;""> </div>","null","FL","learning/Slide47.JPG","That was a tob.","",""
"","image-keyboard-response","148","561089","0.0-6.0-0.47","FL","nbzeelogn1","1280","720","en","AL05AR15","null","","","","","","","","learning/Slide48.JPG","null","","","","",""
"","html-keyboard-response","149","562253","0.0-6.0-1.47","FL","nbzeelogn1","1280","720","en","AL05AR15","null","","","","learningBlock1","","","","That was a bim.","null","","","","",""
"","html-keyboard-response","150","563257","0.0-6.0-2.47","FL","nbzeelogn1","1280","720","en","AL05AR15","null","","","","learningBlock1","","","","<div style=""font-size:60px;""> </div>","null","FL","learning/Slide48.JPG","That was a bim.","",""
"","image-keyboard-response","151","563444","0.0-6.0-0.48","FL","nbzeelogn1","1280","720","en","AL05AR15","null","","","","","","","","learning/Slide49.JPG","null","","","","",""
"","html-keyboard-response","152","564608","0.0-6.0-1.48","FL","nbzeelogn1","1280","720","en","AL05AR15","null","","","","learningBlock1","","","","That was a dep.","null","","","","",""
"","html-keyboard-response","153","565620","0.0-6.0-2.48","FL","nbzeelogn1","1280","720","en","AL05AR15","null","","","","learningBlock1","","","","<div style=""font-size:60px;""> </div>","null","FL","learning/Slide49.JPG","That was a dep.","",""
"","image-keyboard-response","154","565804","0.0-6.0-0.49","FL","nbzeelogn1","1280","720","en","AL05AR15","null","","","","","","","","learning/Slide50.JPG","null","","","","",""
"","html-keyboard-response","155","566974","0.0-6.0-1.49","FL","nbzeelogn1","1280","720","en","AL05AR15","null","","","","learningBlock1","","","","That was a tob.","null","","","","",""
"","html-keyboard-response","156","567990","0.0-6.0-2.49","FL","nbzeelogn1","1280","720","en","AL05AR15","null","","","","learningBlock1","","","","<div style=""font-size:60px;""> </div>","null","FL","learning/Slide50.JPG","That was a tob.","",""
"","image-keyboard-response","157","568179","0.0-6.0-0.50","FL","nbzeelogn1","1280","720","en","AL05AR15","null","","","","","","","","learning/Slide51.JPG","null","","","","",""
"","html-keyboard-response","158","569345","0.0-6.0-1.50","FL","nbzeelogn1","1280","720","en","AL05AR15","null","","","","learningBlock1","","","","That was a bim.","null","","","","",""
"","html-keyboard-response","159","570357","0.0-6.0-2.50","FL","nbzeelogn1","1280","720","en","AL05AR15","null","","","","learningBlock1","","","","<div style=""font-size:60px;""> </div>","null","FL","learning/Slide51.JPG","That was a bim.","",""
"","image-keyboard-response","160","570548","0.0-6.0-0.51","FL","nbzeelogn1","1280","720","en","AL05AR15","null","","","","","","","","learning/Slide52.JPG","null","","","","",""
"","html-keyboard-response","161","571705","0.0-6.0-1.51","FL","nbzeelogn1","1280","720","en","AL05AR15","null","","","","learningBlock1","","","","That was a wug.","null","","","","",""
"","html-keyboard-response","162","572719","0.0-6.0-2.51","FL","nbzeelogn1","1280","720","en","AL05AR15","null","","","","learningBlock1","","","","<div style=""font-size:60px;""> </div>","null","FL","learning/Slide52.JPG","That was a wug.","",""
"","image-keyboard-response","163","572900","0.0-6.0-0.52","FL","nbzeelogn1","1280","720","en","AL05AR15","null","","","","","","","","learning/Slide53.JPG","null","","","","",""
"","html-keyboard-response","164","574068","0.0-6.0-1.52","FL","nbzeelogn1","1280","720","en","AL05AR15","null","","","","learningBlock1","","","","That was a tob.","null","","","","",""
"","html-keyboard-response","165","575078","0.0-6.0-2.52","FL","nbzeelogn1","1280","720","en","AL05AR15","null","","","","learningBlock1","","","","<div style=""font-size:60px;""> </div>","null","FL","learning/Slide53.JPG","That was a tob.","",""
"","image-keyboard-response","166","575263","0.0-6.0-0.53","FL","nbzeelogn1","1280","720","en","AL05AR15","null","","","","","","","","learning/Slide54.JPG","null","","","","",""
"","html-keyboard-response","167","576432","0.0-6.0-1.53","FL","nbzeelogn1","1280","720","en","AL05AR15","null","","","","learningBlock1","","","","That was a dep.","null","","","","",""
"","html-keyboard-response","168","577443","0.0-6.0-2.53","FL","nbzeelogn1","1280","720","en","AL05AR15","null","","","","learningBlock1","","","","<div style=""font-size:60px;""> </div>","null","FL","learning/Slide54.JPG","That was a dep.","",""
"","image-keyboard-response","169","577627","0.0-6.0-0.54","FL","nbzeelogn1","1280","720","en","AL05AR15","null","","","","","","","","learning/Slide55.JPG","null","","","","",""
"","html-keyboard-response","170","578786","0.0-6.0-1.54","FL","nbzeelogn1","1280","720","en","AL05AR15","null","","","","learningBlock1","","","","That was a bim.","null","","","","",""
"","html-keyboard-response","171","579791","0.0-6.0-2.54","FL","nbzeelogn1","1280","720","en","AL05AR15","null","","","","learningBlock1","","","","<div style=""font-size:60px;""> </div>","null","FL","learning/Slide55.JPG","That was a bim.","",""
"","image-keyboard-response","172","579974","0.0-6.0-0.55","FL","nbzeelogn1","1280","720","en","AL05AR15","null","","","","","","","","learning/Slide56.JPG","null","","","","",""
"","html-keyboard-response","173","581138","0.0-6.0-1.55","FL","nbzeelogn1","1280","720","en","AL05AR15","null","","","","learningBlock1","","","","That was a tob.","null","","","","",""
"","html-keyboard-response","174","582151","0.0-6.0-2.55","FL","nbzeelogn1","1280","720","en","AL05AR15","null","","","","learningBlock1","","","","<div style=""font-size:60px;""> </div>","null","FL","learning/Slide56.JPG","That was a tob.","",""
"","image-keyboard-response","175","582342","0.0-6.0-0.56","FL","nbzeelogn1","1280","720","en","AL05AR15","null","","","","","","","","learning/Slide57.JPG","null","","","","",""
"","html-keyboard-response","176","583506","0.0-6.0-1.56","FL","nbzeelogn1","1280","720","en","AL05AR15","null","","","","learningBlock1","","","","That was a dep.","null","","","","",""
"","html-keyboard-response","177","584510","0.0-6.0-2.56","FL","nbzeelogn1","1280","720","en","AL05AR15","null","","","","learningBlock1","","","","<div style=""font-size:60px;""> </div>","null","FL","learning/Slide57.JPG","That was a dep.","",""
"","image-keyboard-response","178","584704","0.0-6.0-0.57","FL","nbzeelogn1","1280","720","en","AL05AR15","null","","","","","","","","learning/Slide58.JPG","null","","","","",""
"","html-keyboard-response","179","585874","0.0-6.0-1.57","FL","nbzeelogn1","1280","720","en","AL05AR15","null","","","","learningBlock1","","","","That was a wug.","null","","","","",""
"","html-keyboard-response","180","586878","0.0-6.0-2.57","FL","nbzeelogn1","1280","720","en","AL05AR15","null","","","","learningBlock1","","","","<div style=""font-size:60px;""> </div>","null","FL","learning/Slide58.JPG","That was a wug.","",""
"","image-keyboard-response","181","587062","0.0-6.0-0.58","FL","nbzeelogn1","1280","720","en","AL05AR15","null","","","","","","","","learning/Slide59.JPG","null","","","","",""
"","html-keyboard-response","182","588227","0.0-6.0-1.58","FL","nbzeelogn1","1280","720","en","AL05AR15","null","","","","learningBlock1","","","","That was a dep.","null","","","","",""
"","html-keyboard-response","183","589232","0.0-6.0-2.58","FL","nbzeelogn1","1280","720","en","AL05AR15","null","","","","learningBlock1","","","","<div style=""font-size:60px;""> </div>","null","FL","learning/Slide59.JPG","That was a dep.","",""
"","image-keyboard-response","184","589415","0.0-6.0-0.59","FL","nbzeelogn1","1280","720","en","AL05AR15","null","","","","","","","","learning/Slide60.JPG","null","","","","",""
"","html-keyboard-response","185","590574","0.0-6.0-1.59","FL","nbzeelogn1","1280","720","en","AL05AR15","null","","","","learningBlock1","","","","That was a wug.","null","","","","",""
"","html-keyboard-response","186","591586","0.0-6.0-2.59","FL","nbzeelogn1","1280","720","en","AL05AR15","null","","","","learningBlock1","","","","<div style=""font-size:60px;""> </div>","null","FL","learning/Slide60.JPG","That was a wug.","",""
"","image-keyboard-response","187","591768","0.0-6.0-0.60","FL","nbzeelogn1","1280","720","en","AL05AR15","null","","","","","","","","learning/Slide61.JPG","null","","","","",""
"","html-keyboard-response","188","592924","0.0-6.0-1.60","FL","nbzeelogn1","1280","720","en","AL05AR15","null","","","","learningBlock1","","","","That was a bim.","null","","","","",""
"","html-keyboard-response","189","593938","0.0-6.0-2.60","FL","nbzeelogn1","1280","720","en","AL05AR15","null","","","","learningBlock1","","","","<div style=""font-size:60px;""> </div>","null","FL","learning/Slide61.JPG","That was a bim.","",""
"","image-keyboard-response","190","594118","0.0-6.0-0.61","FL","nbzeelogn1","1280","720","en","AL05AR15","null","","","","","","","","learning/Slide62.JPG","null","","","","",""
"","html-keyboard-response","191","595282","0.0-6.0-1.61","FL","nbzeelogn1","1280","720","en","AL05AR15","null","","","","learningBlock1","","","","That was a dep.","null","","","","",""
"","html-keyboard-response","192","596301","0.0-6.0-2.61","FL","nbzeelogn1","1280","720","en","AL05AR15","null","","","","learningBlock1","","","","<div style=""font-size:60px;""> </div>","null","FL","learning/Slide62.JPG","That was a dep.","",""
"","image-keyboard-response","193","596488","0.0-6.0-0.62","FL","nbzeelogn1","1280","720","en","AL05AR15","null","","","","","","","","learning/Slide63.JPG","null","","","","",""
"","html-keyboard-response","194","597651","0.0-6.0-1.62","FL","nbzeelogn1","1280","720","en","AL05AR15","null","","","","learningBlock1","","","","That was a bim.","null","","","","",""
"","html-keyboard-response","195","598660","0.0-6.0-2.62","FL","nbzeelogn1","1280","720","en","AL05AR15","null","","","","learningBlock1","","","","<div style=""font-size:60px;""> </div>","null","FL","learning/Slide63.JPG","That was a bim.","",""
"","image-keyboard-response","196","598839","0.0-6.0-0.63","FL","nbzeelogn1","1280","720","en","AL05AR15","null","","","","","","","","learning/Slide64.JPG","null","","","","",""
"","html-keyboard-response","197","600007","0.0-6.0-1.63","FL","nbzeelogn1","1280","720","en","AL05AR15","null","","","","learningBlock1","","","","That was a tob.","null","","","","",""
"","html-keyboard-response","198","601018","0.0-6.0-2.63","FL","nbzeelogn1","1280","720","en","AL05AR15","null","","","","learningBlock1","","","","<div style=""font-size:60px;""> </div>","null","FL","learning/Slide64.JPG","That was a tob.","",""
"","image-keyboard-response","199","601209","0.0-6.0-0.64","FL","nbzeelogn1","1280","720","en","AL05AR15","null","","","","","","","","learning/Slide65.JPG","null","","","","",""
"","html-keyboard-response","200","602373","0.0-6.0-1.64","FL","nbzeelogn1","1280","720","en","AL05AR15","null","","","","learningBlock1","","","","That was a wug.","null","","","","",""
"","html-keyboard-response","201","603377","0.0-6.0-2.64","FL","nbzeelogn1","1280","720","en","AL05AR15","null","","","","learningBlock1","","","","<div style=""font-size:60px;""> </div>","null","FL","learning/Slide65.JPG","That was a wug.","",""
"","image-keyboard-response","202","603563","0.0-6.0-0.65","FL","nbzeelogn1","1280","720","en","AL05AR15","null","","","","","","","","learning/Slide66.JPG","null","","","","",""
"","html-keyboard-response","203","604731","0.0-6.0-1.65","FL","nbzeelogn1","1280","720","en","AL05AR15","null","","","","learningBlock1","","","","That was a dep.","null","","","","",""
"","html-keyboard-response","204","605742","0.0-6.0-2.65","FL","nbzeelogn1","1280","720","en","AL05AR15","null","","","","learningBlock1","","","","<div style=""font-size:60px;""> </div>","null","FL","learning/Slide66.JPG","That was a dep.","",""
"","image-keyboard-response","205","605933","0.0-6.0-0.66","FL","nbzeelogn1","1280","720","en","AL05AR15","null","","","","","","","","learning/Slide67.JPG","null","","","","",""
"","html-keyboard-response","206","607097","0.0-6.0-1.66","FL","nbzeelogn1","1280","720","en","AL05AR15","null","","","","learningBlock1","","","","That was a tob.","null","","","","",""
"","html-keyboard-response","207","608109","0.0-6.0-2.66","FL","nbzeelogn1","1280","720","en","AL05AR15","null","","","","learningBlock1","","","","<div style=""font-size:60px;""> </div>","null","FL","learning/Slide67.JPG","That was a tob.","",""
"","image-keyboard-response","208","608299","0.0-6.0-0.67","FL","nbzeelogn1","1280","720","en","AL05AR15","null","","","","","","","","learning/Slide68.JPG","null","","","","",""
"","html-keyboard-response","209","609471","0.0-6.0-1.67","FL","nbzeelogn1","1280","720","en","AL05AR15","null","","","","learningBlock1","","","","That was a wug.","null","","","","",""
"","html-keyboard-response","210","610489","0.0-6.0-2.67","FL","nbzeelogn1","1280","720","en","AL05AR15","null","","","","learningBlock1","","","","<div style=""font-size:60px;""> </div>","null","FL","learning/Slide68.JPG","That was a wug.","",""
"","image-keyboard-response","211","610672","0.0-6.0-0.68","FL","nbzeelogn1","1280","720","en","AL05AR15","null","","","","","","","","learning/Slide69.JPG","null","","","","",""
"","html-keyboard-response","212","611839","0.0-6.0-1.68","FL","nbzeelogn1","1280","720","en","AL05AR15","null","","","","learningBlock1","","","","That was a tob.","null","","","","",""
"","html-keyboard-response","213","612850","0.0-6.0-2.68","FL","nbzeelogn1","1280","720","en","AL05AR15","null","","","","learningBlock1","","","","<div style=""font-size:60px;""> </div>","null","FL","learning/Slide69.JPG","That was a tob.","",""
"","image-keyboard-response","214","613038","0.0-6.0-0.69","FL","nbzeelogn1","1280","720","en","AL05AR15","null","","","","","","","","learning/Slide70.JPG","null","","","","",""
"","html-keyboard-response","215","614197","0.0-6.0-1.69","FL","nbzeelogn1","1280","720","en","AL05AR15","null","","","","learningBlock1","","","","That was a dep.","null","","","","",""
"","html-keyboard-response","216","615207","0.0-6.0-2.69","FL","nbzeelogn1","1280","720","en","AL05AR15","null","","","","learningBlock1","","","","<div style=""font-size:60px;""> </div>","null","FL","learning/Slide70.JPG","That was a dep.","",""
"","image-keyboard-response","217","615390","0.0-6.0-0.70","FL","nbzeelogn1","1280","720","en","AL05AR15","null","","","","","","","","learning/Slide71.JPG","null","","","","",""
"","html-keyboard-response","218","616554","0.0-6.0-1.70","FL","nbzeelogn1","1280","720","en","AL05AR15","null","","","","learningBlock1","","","","That was a wug.","null","","","","",""
"","html-keyboard-response","219","617558","0.0-6.0-2.70","FL","nbzeelogn1","1280","720","en","AL05AR15","null","","","","learningBlock1","","","","<div style=""font-size:60px;""> </div>","null","FL","learning/Slide71.JPG","That was a wug.","",""
"","image-keyboard-response","220","617741","0.0-6.0-0.71","FL","nbzeelogn1","1280","720","en","AL05AR15","null","","","","","","","","learning/Slide72.JPG","null","","","","",""
"","html-keyboard-response","221","618905","0.0-6.0-1.71","FL","nbzeelogn1","1280","720","en","AL05AR15","null","","","","learningBlock1","","","","That was a bim.","null","","","","",""
"","html-keyboard-response","222","619909","0.0-6.0-2.71","FL","nbzeelogn1","1280","720","en","AL05AR15","null","","","","learningBlock1","","","","<div style=""font-size:60px;""> </div>","null","FL","learning/Slide72.JPG","That was a bim.","",""
"","image-keyboard-response","223","620087","0.0-6.0-0.72","FL","nbzeelogn1","1280","720","en","AL05AR15","null","","","","","","","","learning/Slide73.JPG","null","","","","",""
"","html-keyboard-response","224","621257","0.0-6.0-1.72","FL","nbzeelogn1","1280","720","en","AL05AR15","null","","","","learningBlock1","","","","That was a wug.","null","","","","",""
"","html-keyboard-response","225","622270","0.0-6.0-2.72","FL","nbzeelogn1","1280","720","en","AL05AR15","null","","","","learningBlock1","","","","<div style=""font-size:60px;""> </div>","null","FL","learning/Slide73.JPG","That was a wug.","",""
"","image-keyboard-response","226","622449","0.0-6.0-0.73","FL","nbzeelogn1","1280","720","en","AL05AR15","null","","","","","","","","learning/Slide74.JPG","null","","","","",""
"","html-keyboard-response","227","623611","0.0-6.0-1.73","FL","nbzeelogn1","1280","720","en","AL05AR15","null","","","","learningBlock1","","","","That was a dep.","null","","","","",""
"","html-keyboard-response","228","624615","0.0-6.0-2.73","FL","nbzeelogn1","1280","720","en","AL05AR15","null","","","","learningBlock1","","","","<div style=""font-size:60px;""> </div>","null","FL","learning/Slide74.JPG","That was a dep.","",""
"","image-keyboard-response","229","624795","0.0-6.0-0.74","FL","nbzeelogn1","1280","720","en","AL05AR15","null","","","","","","","","learning/Slide75.JPG","null","","","","",""
"","html-keyboard-response","230","625961","0.0-6.0-1.74","FL","nbzeelogn1","1280","720","en","AL05AR15","null","","","","learningBlock1","","","","That was a tob.","null","","","","",""
"","html-keyboard-response","231","626965","0.0-6.0-2.74","FL","nbzeelogn1","1280","720","en","AL05AR15","null","","","","learningBlock1","","","","<div style=""font-size:60px;""> </div>","null","FL","learning/Slide75.JPG","That was a tob.","",""
"","image-keyboard-response","232","627149","0.0-6.0-0.75","FL","nbzeelogn1","1280","720","en","AL05AR15","null","","","","","","","","learning/Slide76.JPG","null","","","","",""
"","html-keyboard-response","233","628304","0.0-6.0-1.75","FL","nbzeelogn1","1280","720","en","AL05AR15","null","","","","learningBlock1","","","","That was a bim.","null","","","","",""
"","html-keyboard-response","234","629310","0.0-6.0-2.75","FL","nbzeelogn1","1280","720","en","AL05AR15","null","","","","learningBlock1","","","","<div style=""font-size:60px;""> </div>","null","FL","learning/Slide76.JPG","That was a bim.","",""
"","image-keyboard-response","235","629492","0.0-6.0-0.76","FL","nbzeelogn1","1280","720","en","AL05AR15","null","","","","","","","","learning/Slide77.JPG","null","","","","",""
"","html-keyboard-response","236","630656","0.0-6.0-1.76","FL","nbzeelogn1","1280","720","en","AL05AR15","null","","","","learningBlock1","","","","That was a tob.","null","","","","",""
"","html-keyboard-response","237","631665","0.0-6.0-2.76","FL","nbzeelogn1","1280","720","en","AL05AR15","null","","","","learningBlock1","","","","<div style=""font-size:60px;""> </div>","null","FL","learning/Slide77.JPG","That was a tob.","",""
"","image-keyboard-response","238","631854","0.0-6.0-0.77","FL","nbzeelogn1","1280","720","en","AL05AR15","null","","","","","","","","learning/Slide78.JPG","null","","","","",""
"","html-keyboard-response","239","633019","0.0-6.0-1.77","FL","nbzeelogn1","1280","720","en","AL05AR15","null","","","","learningBlock1","","","","That was a wug.","null","","","","",""
"","html-keyboard-response","240","634022","0.0-6.0-2.77","FL","nbzeelogn1","1280","720","en","AL05AR15","null","","","","learningBlock1","","","","<div style=""font-size:60px;""> </div>","null","FL","learning/Slide78.JPG","That was a wug.","",""
"","image-keyboard-response","241","634209","0.0-6.0-0.78","FL","nbzeelogn1","1280","720","en","AL05AR15","null","","","","","","","","learning/Slide79.JPG","null","","","","",""
"","html-keyboard-response","242","635373","0.0-6.0-1.78","FL","nbzeelogn1","1280","720","en","AL05AR15","null","","","","learningBlock1","","","","That was a bim.","null","","","","",""
"","html-keyboard-response","243","636377","0.0-6.0-2.78","FL","nbzeelogn1","1280","720","en","AL05AR15","null","","","","learningBlock1","","","","<div style=""font-size:60px;""> </div>","null","FL","learning/Slide79.JPG","That was a bim.","",""
"","image-keyboard-response","244","636560","0.0-6.0-0.79","FL","nbzeelogn1","1280","720","en","AL05AR15","null","","","","","","","","learning/Slide80.JPG","null","","","","",""
"","html-keyboard-response","245","637722","0.0-6.0-1.79","FL","nbzeelogn1","1280","720","en","AL05AR15","null","","","","learningBlock1","","","","That was a tob.","null","","","","",""
"","html-keyboard-response","246","638729","0.0-6.0-2.79","FL","nbzeelogn1","1280","720","en","AL05AR15","null","","","","learningBlock1","","","","<div style=""font-size:60px;""> </div>","null","FL","learning/Slide80.JPG","That was a tob.","",""
"","instructions","247","640815","0.0-7.0","FL","nbzeelogn1","1280","720","en","AL05AR15","NA","","","[{""page_index"":0,""viewing_time"":2082.7500000596046}]","instructions","","","","","","","","","",""
"","image-keyboard-response","248","640996","0.0-8.0-0.0","FL","nbzeelogn1","1280","720","en","AL05AR15","null","","","","","","","","learning/Slide81.JPG","null","","","","",""
"","html-keyboard-response","249","642171","0.0-8.0-1.0","FL","nbzeelogn1","1280","720","en","AL05AR15","null","","","","learningBlock2","","","","That was a wug.","null","","","","",""
"","html-keyboard-response","250","643182","0.0-8.0-2.0","FL","nbzeelogn1","1280","720","en","AL05AR15","null","","","","learningBlock2","","","","<div style=""font-size:60px;""> </div>","null","FL","learning/Slide81.JPG","That was a wug.","",""
"","image-keyboard-response","251","643364","0.0-8.0-0.1","FL","nbzeelogn1","1280","720","en","AL05AR15","null","","","","","","","","learning/Slide82.JPG","null","","","","",""
"","html-keyboard-response","252","644528","0.0-8.0-1.1","FL","nbzeelogn1","1280","720","en","AL05AR15","null","","","","learningBlock2","","","","That was a bim.","null","","","","",""
"","html-keyboard-response","253","645534","0.0-8.0-2.1","FL","nbzeelogn1","1280","720","en","AL05AR15","null","","","","learningBlock2","","","","<div style=""font-size:60px;""> </div>","null","FL","learning/Slide82.JPG","That was a bim.","",""
"","image-keyboard-response","254","645716","0.0-8.0-0.2","FL","nbzeelogn1","1280","720","en","AL05AR15","null","","","","","","","","learning/Slide83.JPG","null","","","","",""
"","html-keyboard-response","255","646880","0.0-8.0-1.2","FL","nbzeelogn1","1280","720","en","AL05AR15","null","","","","learningBlock2","","","","That was a wug.","null","","","","",""
"","html-keyboard-response","256","647886","0.0-8.0-2.2","FL","nbzeelogn1","1280","720","en","AL05AR15","null","","","","learningBlock2","","","","<div style=""font-size:60px;""> </div>","null","FL","learning/Slide83.JPG","That was a wug.","",""
"","image-keyboard-response","257","648069","0.0-8.0-0.3","FL","nbzeelogn1","1280","720","en","AL05AR15","null","","","","","","","","learning/Slide84.JPG","null","","","","",""
"","html-keyboard-response","258","649224","0.0-8.0-1.3","FL","nbzeelogn1","1280","720","en","AL05AR15","null","","","","learningBlock2","","","","That was a dep.","null","","","","",""
"","html-keyboard-response","259","650233","0.0-8.0-2.3","FL","nbzeelogn1","1280","720","en","AL05AR15","null","","","","learningBlock2","","","","<div style=""font-size:60px;""> </div>","null","FL","learning/Slide84.JPG","That was a dep.","",""
"","image-keyboard-response","260","650420","0.0-8.0-0.4","FL","nbzeelogn1","1280","720","en","AL05AR15","null","","","","","","","","learning/Slide85.JPG","null","","","","",""
"","html-keyboard-response","261","651589","0.0-8.0-1.4","FL","nbzeelogn1","1280","720","en","AL05AR15","null","","","","learningBlock2","","","","That was a bim.","null","","","","",""
"","html-keyboard-response","262","652606","0.0-8.0-2.4","FL","nbzeelogn1","1280","720","en","AL05AR15","null","","","","learningBlock2","","","","<div style=""font-size:60px;""> </div>","null","FL","learning/Slide85.JPG","That was a bim.","",""
"","image-keyboard-response","263","652789","0.0-8.0-0.5","FL","nbzeelogn1","1280","720","en","AL05AR15","null","","","","","","","","learning/Slide86.JPG","null","","","","",""
"","html-keyboard-response","264","653954","0.0-8.0-1.5","FL","nbzeelogn1","1280","720","en","AL05AR15","null","","","","learningBlock2","","","","That was a tob.","null","","","","",""
"","html-keyboard-response","265","654974","0.0-8.0-2.5","FL","nbzeelogn1","1280","720","en","AL05AR15","null","","","","learningBlock2","","","","<div style=""font-size:60px;""> </div>","null","FL","learning/Slide86.JPG","That was a tob.","",""
"","image-keyboard-response","266","655162","0.0-8.0-0.6","FL","nbzeelogn1","1280","720","en","AL05AR15","null","","","","","","","","learning/Slide87.JPG","null","","","","",""
"","html-keyboard-response","267","656331","0.0-8.0-1.6","FL","nbzeelogn1","1280","720","en","AL05AR15","null","","","","learningBlock2","","","","That was a wug.","null","","","","",""
"","html-keyboard-response","268","657342","0.0-8.0-2.6","FL","nbzeelogn1","1280","720","en","AL05AR15","null","","","","learningBlock2","","","","<div style=""font-size:60px;""> </div>","null","FL","learning/Slide87.JPG","That was a wug.","",""
"","image-keyboard-response","269","657527","0.0-8.0-0.7","FL","nbzeelogn1","1280","720","en","AL05AR15","null","","","","","","","","learning/Slide88.JPG","null","","","","",""
"","html-keyboard-response","270","658691","0.0-8.0-1.7","FL","nbzeelogn1","1280","720","en","AL05AR15","null","","","","learningBlock2","","","","That was a tob.","null","","","","",""
"","html-keyboard-response","271","659694","0.0-8.0-2.7","FL","nbzeelogn1","1280","720","en","AL05AR15","null","","","","learningBlock2","","","","<div style=""font-size:60px;""> </div>","null","FL","learning/Slide88.JPG","That was a tob.","",""
"","image-keyboard-response","272","659880","0.0-8.0-0.8","FL","nbzeelogn1","1280","720","en","AL05AR15","null","","","","","","","","learning/Slide89.JPG","null","","","","",""
"","html-keyboard-response","273","661044","0.0-8.0-1.8","FL","nbzeelogn1","1280","720","en","AL05AR15","null","","","","learningBlock2","","","","That was a bim.","null","","","","",""
"","html-keyboard-response","274","662057","0.0-8.0-2.8","FL","nbzeelogn1","1280","720","en","AL05AR15","null","","","","learningBlock2","","","","<div style=""font-size:60px;""> </div>","null","FL","learning/Slide89.JPG","That was a bim.","",""
"","image-keyboard-response","275","662248","0.0-8.0-0.9","FL","nbzeelogn1","1280","720","en","AL05AR15","null","","","","","","","","learning/Slide90.JPG","null","","","","",""
"","html-keyboard-response","276","663412","0.0-8.0-1.9","FL","nbzeelogn1","1280","720","en","AL05AR15","null","","","","learningBlock2","","","","That was a dep.","null","","","","",""
"","html-keyboard-response","277","664416","0.0-8.0-2.9","FL","nbzeelogn1","1280","720","en","AL05AR15","null","","","","learningBlock2","","","","<div style=""font-size:60px;""> </div>","null","FL","learning/Slide90.JPG","That was a dep.","",""
"","image-keyboard-response","278","664604","0.0-8.0-0.10","FL","nbzeelogn1","1280","720","en","AL05AR15","null","","","","","","","","learning/Slide91.JPG","null","","","","",""
"","html-keyboard-response","279","665770","0.0-8.0-1.10","FL","nbzeelogn1","1280","720","en","AL05AR15","null","","","","learningBlock2","","","","That was a wug.","null","","","","",""
"","html-keyboard-response","280","666782","0.0-8.0-2.10","FL","nbzeelogn1","1280","720","en","AL05AR15","null","","","","learningBlock2","","","","<div style=""font-size:60px;""> </div>","null","FL","learning/Slide91.JPG","That was a wug.","",""
"","image-keyboard-response","281","666969","0.0-8.0-0.11","FL","nbzeelogn1","1280","720","en","AL05AR15","null","","","","","","","","learning/Slide92.JPG","null","","","","",""
"","html-keyboard-response","282","668132","0.0-8.0-1.11","FL","nbzeelogn1","1280","720","en","AL05AR15","null","","","","learningBlock2","","","","That was a tob.","null","","","","",""
"","html-keyboard-response","283","669136","0.0-8.0-2.11","FL","nbzeelogn1","1280","720","en","AL05AR15","null","","","","learningBlock2","","","","<div style=""font-size:60px;""> </div>","null","FL","learning/Slide92.JPG","That was a tob.","",""
"","image-keyboard-response","284","669326","0.0-8.0-0.12","FL","nbzeelogn1","1280","720","en","AL05AR15","null","","","","","","","","learning/Slide93.JPG","null","","","","",""
"","html-keyboard-response","285","670501","0.0-8.0-1.12","FL","nbzeelogn1","1280","720","en","AL05AR15","null","","","","learningBlock2","","","","That was a bim.","null","","","","",""
"","html-keyboard-response","286","671507","0.0-8.0-2.12","FL","nbzeelogn1","1280","720","en","AL05AR15","null","","","","learningBlock2","","","","<div style=""font-size:60px;""> </div>","null","FL","learning/Slide93.JPG","That was a bim.","",""
"","image-keyboard-response","287","671690","0.0-8.0-0.13","FL","nbzeelogn1","1280","720","en","AL05AR15","null","","","","","","","","learning/Slide94.JPG","null","","","","",""
"","html-keyboard-response","288","672851","0.0-8.0-1.13","FL","nbzeelogn1","1280","720","en","AL05AR15","null","","","","learningBlock2","","","","That was a tob.","null","","","","",""
"","html-keyboard-response","289","673855","0.0-8.0-2.13","FL","nbzeelogn1","1280","720","en","AL05AR15","null","","","","learningBlock2","","","","<div style=""font-size:60px;""> </div>","null","FL","learning/Slide94.JPG","That was a tob.","",""
"","image-keyboard-response","290","674043","0.0-8.0-0.14","FL","nbzeelogn1","1280","720","en","AL05AR15","null","","","","","","","","learning/Slide95.JPG","null","","","","",""
"","html-keyboard-response","291","675206","0.0-8.0-1.14","FL","nbzeelogn1","1280","720","en","AL05AR15","null","","","","learningBlock2","","","","That was a wug.","null","","","","",""
"","html-keyboard-response","292","676218","0.0-8.0-2.14","FL","nbzeelogn1","1280","720","en","AL05AR15","null","","","","learningBlock2","","","","<div style=""font-size:60px;""> </div>","null","FL","learning/Slide95.JPG","That was a wug.","",""
"","image-keyboard-response","293","676408","0.0-8.0-0.15","FL","nbzeelogn1","1280","720","en","AL05AR15","null","","","","","","","","learning/Slide96.JPG","null","","","","",""
"","html-keyboard-response","294","677576","0.0-8.0-1.15","FL","nbzeelogn1","1280","720","en","AL05AR15","null","","","","learningBlock2","","","","That was a tob.","null","","","","",""
"","html-keyboard-response","295","678585","0.0-8.0-2.15","FL","nbzeelogn1","1280","720","en","AL05AR15","null","","","","learningBlock2","","","","<div style=""font-size:60px;""> </div>","null","FL","learning/Slide96.JPG","That was a tob.","",""
"","image-keyboard-response","296","678777","0.0-8.0-0.16","FL","nbzeelogn1","1280","720","en","AL05AR15","null","","","","","","","","learning/Slide97.JPG","null","","","","",""
"","html-keyboard-response","297","679941","0.0-8.0-1.16","FL","nbzeelogn1","1280","720","en","AL05AR15","null","","","","learningBlock2","","","","That was a dep.","null","","","","",""
"","html-keyboard-response","298","680959","0.0-8.0-2.16","FL","nbzeelogn1","1280","720","en","AL05AR15","null","","","","learningBlock2","","","","<div style=""font-size:60px;""> </div>","null","FL","learning/Slide97.JPG","That was a dep.","",""
"","image-keyboard-response","299","681147","0.0-8.0-0.17","FL","nbzeelogn1","1280","720","en","AL05AR15","null","","","","","","","","learning/Slide98.JPG","null","","","","",""
"","html-keyboard-response","300","682311","0.0-8.0-1.17","FL","nbzeelogn1","1280","720","en","AL05AR15","null","","","","learningBlock2","","","","That was a bim.","null","","","","",""
"","html-keyboard-response","301","683315","0.0-8.0-2.17","FL","nbzeelogn1","1280","720","en","AL05AR15","null","","","","learningBlock2","","","","<div style=""font-size:60px;""> </div>","null","FL","learning/Slide98.JPG","That was a bim.","",""
"","image-keyboard-response","302","683498","0.0-8.0-0.18","FL","nbzeelogn1","1280","720","en","AL05AR15","null","","","","","","","","learning/Slide99.JPG","null","","","","",""
"","html-keyboard-response","303","684662","0.0-8.0-1.18","FL","nbzeelogn1","1280","720","en","AL05AR15","null","","","","learningBlock2","","","","That was a dep.","null","","","","",""
"","html-keyboard-response","304","685666","0.0-8.0-2.18","FL","nbzeelogn1","1280","720","en","AL05AR15","null","","","","learningBlock2","","","","<div style=""font-size:60px;""> </div>","null","FL","learning/Slide99.JPG","That was a dep.","",""
"","image-keyboard-response","305","685856","0.0-8.0-0.19","FL","nbzeelogn1","1280","720","en","AL05AR15","null","","","","","","","","learning/Slide100.JPG","null","","","","",""
"","html-keyboard-response","306","687031","0.0-8.0-1.19","FL","nbzeelogn1","1280","720","en","AL05AR15","null","","","","learningBlock2","","","","That was a bim.","null","","","","",""
"","html-keyboard-response","307","688034","0.0-8.0-2.19","FL","nbzeelogn1","1280","720","en","AL05AR15","null","","","","learningBlock2","","","","<div style=""font-size:60px;""> </div>","null","FL","learning/Slide100.JPG","That was a bim.","",""
"","image-keyboard-response","308","688220","0.0-8.0-0.20","FL","nbzeelogn1","1280","720","en","AL05AR15","null","","","","","","","","learning/Slide101.JPG","null","","","","",""
"","html-keyboard-response","309","689381","0.0-8.0-1.20","FL","nbzeelogn1","1280","720","en","AL05AR15","null","","","","learningBlock2","","","","That was a tob.","null","","","","",""
"","html-keyboard-response","310","690384","0.0-8.0-2.20","FL","nbzeelogn1","1280","720","en","AL05AR15","null","","","","learningBlock2","","","","<div style=""font-size:60px;""> </div>","null","FL","learning/Slide101.JPG","That was a tob.","",""
"","image-keyboard-response","311","690572","0.0-8.0-0.21","FL","nbzeelogn1","1280","720","en","AL05AR15","null","","","","","","","","learning/Slide102.JPG","null","","","","",""
"","html-keyboard-response","312","691751","0.0-8.0-1.21","FL","nbzeelogn1","1280","720","en","AL05AR15","null","","","","learningBlock2","","","","That was a bim.","null","","","","",""
"","html-keyboard-response","313","692762","0.0-8.0-2.21","FL","nbzeelogn1","1280","720","en","AL05AR15","null","","","","learningBlock2","","","","<div style=""font-size:60px;""> </div>","null","FL","learning/Slide102.JPG","That was a bim.","",""
"","image-keyboard-response","314","692945","0.0-8.0-0.22","FL","nbzeelogn1","1280","720","en","AL05AR15","null","","","","","","","","learning/Slide103.JPG","null","","","","",""
"","html-keyboard-response","315","694110","0.0-8.0-1.22","FL","nbzeelogn1","1280","720","en","AL05AR15","null","","","","learningBlock2","","","","That was a dep.","null","","","","",""
"","html-keyboard-response","316","695128","0.0-8.0-2.22","FL","nbzeelogn1","1280","720","en","AL05AR15","null","","","","learningBlock2","","","","<div style=""font-size:60px;""> </div>","null","FL","learning/Slide103.JPG","That was a dep.","",""
"","image-keyboard-response","317","695309","0.0-8.0-0.23","FL","nbzeelogn1","1280","720","en","AL05AR15","null","","","","","","","","learning/Slide104.JPG","null","","","","",""
"","html-keyboard-response","318","696473","0.0-8.0-1.23","FL","nbzeelogn1","1280","720","en","AL05AR15","null","","","","learningBlock2","","","","That was a tob.","null","","","","",""
"","html-keyboard-response","319","697477","0.0-8.0-2.23","FL","nbzeelogn1","1280","720","en","AL05AR15","null","","","","learningBlock2","","","","<div style=""font-size:60px;""> </div>","null","FL","learning/Slide104.JPG","That was a tob.","",""
"","image-keyboard-response","320","697661","0.0-8.0-0.24","FL","nbzeelogn1","1280","720","en","AL05AR15","null","","","","","","","","learning/Slide105.JPG","null","","","","",""
"","html-keyboard-response","321","698821","0.0-8.0-1.24","FL","nbzeelogn1","1280","720","en","AL05AR15","null","","","","learningBlock2","","","","That was a dep.","null","","","","",""
"","html-keyboard-response","322","699825","0.0-8.0-2.24","FL","nbzeelogn1","1280","720","en","AL05AR15","null","","","","learningBlock2","","","","<div style=""font-size:60px;""> </div>","null","FL","learning/Slide105.JPG","That was a dep.","",""
"","image-keyboard-response","323","700013","0.0-8.0-0.25","FL","nbzeelogn1","1280","720","en","AL05AR15","null","","","","","","","","learning/Slide106.JPG","null","","","","",""
"","html-keyboard-response","324","701191","0.0-8.0-1.25","FL","nbzeelogn1","1280","720","en","AL05AR15","null","","","","learningBlock2","","","","That was a wug.","null","","","","",""
"","html-keyboard-response","325","702196","0.0-8.0-2.25","FL","nbzeelogn1","1280","720","en","AL05AR15","null","","","","learningBlock2","","","","<div style=""font-size:60px;""> </div>","null","FL","learning/Slide106.JPG","That was a wug.","",""
"","image-keyboard-response","326","702382","0.0-8.0-0.26","FL","nbzeelogn1","1280","720","en","AL05AR15","null","","","","","","","","learning/Slide107.JPG","null","","","","",""
"","html-keyboard-response","327","703546","0.0-8.0-1.26","FL","nbzeelogn1","1280","720","en","AL05AR15","null","","","","learningBlock2","","","","That was a bim.","null","","","","",""
"","html-keyboard-response","328","704549","0.0-8.0-2.26","FL","nbzeelogn1","1280","720","en","AL05AR15","null","","","","learningBlock2","","","","<div style=""font-size:60px;""> </div>","null","FL","learning/Slide107.JPG","That was a bim.","",""
"","image-keyboard-response","329","704735","0.0-8.0-0.27","FL","nbzeelogn1","1280","720","en","AL05AR15","null","","","","","","","","learning/Slide108.JPG","null","","","","",""
"","html-keyboard-response","330","705889","0.0-8.0-1.27","FL","nbzeelogn1","1280","720","en","AL05AR15","null","","","","learningBlock2","","","","That was a dep.","null","","","","",""
"","html-keyboard-response","331","706897","0.0-8.0-2.27","FL","nbzeelogn1","1280","720","en","AL05AR15","null","","","","learningBlock2","","","","<div style=""font-size:60px;""> </div>","null","FL","learning/Slide108.JPG","That was a dep.","",""
"","image-keyboard-response","332","707087","0.0-8.0-0.28","FL","nbzeelogn1","1280","720","en","AL05AR15","null","","","","","","","","learning/Slide109.JPG","null","","","","",""
"","html-keyboard-response","333","708251","0.0-8.0-1.28","FL","nbzeelogn1","1280","720","en","AL05AR15","null","","","","learningBlock2","","","","That was a wug.","null","","","","",""
"","html-keyboard-response","334","709259","0.0-8.0-2.28","FL","nbzeelogn1","1280","720","en","AL05AR15","null","","","","learningBlock2","","","","<div style=""font-size:60px;""> </div>","null","FL","learning/Slide109.JPG","That was a wug.","",""
"","image-keyboard-response","335","709439","0.0-8.0-0.29","FL","nbzeelogn1","1280","720","en","AL05AR15","null","","","","","","","","learning/Slide110.JPG","null","","","","",""
"","html-keyboard-response","336","710603","0.0-8.0-1.29","FL","nbzeelogn1","1280","720","en","AL05AR15","null","","","","learningBlock2","","","","That was a bim.","null","","","","",""
"","html-keyboard-response","337","711607","0.0-8.0-2.29","FL","nbzeelogn1","1280","720","en","AL05AR15","null","","","","learningBlock2","","","","<div style=""font-size:60px;""> </div>","null","FL","learning/Slide110.JPG","That was a bim.","",""
"","image-keyboard-response","338","711791","0.0-8.0-0.30","FL","nbzeelogn1","1280","720","en","AL05AR15","null","","","","","","","","learning/Slide111.JPG","null","","","","",""
"","html-keyboard-response","339","712968","0.0-8.0-1.30","FL","nbzeelogn1","1280","720","en","AL05AR15","null","","","","learningBlock2","","","","That was a tob.","null","","","","",""
"","html-keyboard-response","340","713980","0.0-8.0-2.30","FL","nbzeelogn1","1280","720","en","AL05AR15","null","","","","learningBlock2","","","","<div style=""font-size:60px;""> </div>","null","FL","learning/Slide111.JPG","That was a tob.","",""
"","image-keyboard-response","341","714159","0.0-8.0-0.31","FL","nbzeelogn1","1280","720","en","AL05AR15","null","","","","","","","","learning/Slide112.JPG","null","","","","",""
"","html-keyboard-response","342","715327","0.0-8.0-1.31","FL","nbzeelogn1","1280","720","en","AL05AR15","null","","","","learningBlock2","","","","That was a wug.","null","","","","",""
"","html-keyboard-response","343","716338","0.0-8.0-2.31","FL","nbzeelogn1","1280","720","en","AL05AR15","null","","","","learningBlock2","","","","<div style=""font-size:60px;""> </div>","null","FL","learning/Slide112.JPG","That was a wug.","",""
"","image-keyboard-response","344","716529","0.0-8.0-0.32","FL","nbzeelogn1","1280","720","en","AL05AR15","null","","","","","","","","learning/Slide113.JPG","null","","","","",""
"","html-keyboard-response","345","717692","0.0-8.0-1.32","FL","nbzeelogn1","1280","720","en","AL05AR15","null","","","","learningBlock2","","","","That was a tob.","null","","","","",""
"","html-keyboard-response","346","718695","0.0-8.0-2.32","FL","nbzeelogn1","1280","720","en","AL05AR15","null","","","","learningBlock2","","","","<div style=""font-size:60px;""> </div>","null","FL","learning/Slide113.JPG","That was a tob.","",""
"","image-keyboard-response","347","718881","0.0-8.0-0.33","FL","nbzeelogn1","1280","720","en","AL05AR15","null","","","","","","","","learning/Slide114.JPG","null","","","","",""
"","html-keyboard-response","348","720041","0.0-8.0-1.33","FL","nbzeelogn1","1280","720","en","AL05AR15","null","","","","learningBlock2","","","","That was a wug.","null","","","","",""
"","html-keyboard-response","349","721045","0.0-8.0-2.33","FL","nbzeelogn1","1280","720","en","AL05AR15","null","","","","learningBlock2","","","","<div style=""font-size:60px;""> </div>","null","FL","learning/Slide114.JPG","That was a wug.","",""
"","image-keyboard-response","350","721233","0.0-8.0-0.34","FL","nbzeelogn1","1280","720","en","AL05AR15","null","","","","","","","","learning/Slide115.JPG","null","","","","",""
"","html-keyboard-response","351","722410","0.0-8.0-1.34","FL","nbzeelogn1","1280","720","en","AL05AR15","null","","","","learningBlock2","","","","That was a bim.","null","","","","",""
"","html-keyboard-response","352","723413","0.0-8.0-2.34","FL","nbzeelogn1","1280","720","en","AL05AR15","null","","","","learningBlock2","","","","<div style=""font-size:60px;""> </div>","null","FL","learning/Slide115.JPG","That was a bim.","",""
"","image-keyboard-response","353","723602","0.0-8.0-0.35","FL","nbzeelogn1","1280","720","en","AL05AR15","null","","","","","","","","learning/Slide116.JPG","null","","","","",""
"","html-keyboard-response","354","724771","0.0-8.0-1.35","FL","nbzeelogn1","1280","720","en","AL05AR15","null","","","","learningBlock2","","","","That was a dep.","null","","","","",""
"","html-keyboard-response","355","725782","0.0-8.0-2.35","FL","nbzeelogn1","1280","720","en","AL05AR15","null","","","","learningBlock2","","","","<div style=""font-size:60px;""> </div>","null","FL","learning/Slide116.JPG","That was a dep.","",""
"","image-keyboard-response","356","725972","0.0-8.0-0.36","FL","nbzeelogn1","1280","720","en","AL05AR15","null","","","","","","","","learning/Slide117.JPG","null","","","","",""
"","html-keyboard-response","357","727134","0.0-8.0-1.36","FL","nbzeelogn1","1280","720","en","AL05AR15","null","","","","learningBlock2","","","","That was a tob.","null","","","","",""
"","html-keyboard-response","358","728137","0.0-8.0-2.36","FL","nbzeelogn1","1280","720","en","AL05AR15","null","","","","learningBlock2","","","","<div style=""font-size:60px;""> </div>","null","FL","learning/Slide117.JPG","That was a tob.","",""
"","image-keyboard-response","359","728326","0.0-8.0-0.37","FL","nbzeelogn1","1280","720","en","AL05AR15","null","","","","","","","","learning/Slide118.JPG","null","","","","",""
"","html-keyboard-response","360","729493","0.0-8.0-1.37","FL","nbzeelogn1","1280","720","en","AL05AR15","null","","","","learningBlock2","","","","That was a dep.","null","","","","",""
"","html-keyboard-response","361","730497","0.0-8.0-2.37","FL","nbzeelogn1","1280","720","en","AL05AR15","null","","","","learningBlock2","","","","<div style=""font-size:60px;""> </div>","null","FL","learning/Slide118.JPG","That was a dep.","",""
"","image-keyboard-response","362","730675","0.0-8.0-0.38","FL","nbzeelogn1","1280","720","en","AL05AR15","null","","","","","","","","learning/Slide119.JPG","null","","","","",""
"","html-keyboard-response","363","731839","0.0-8.0-1.38","FL","nbzeelogn1","1280","720","en","AL05AR15","null","","","","learningBlock2","","","","That was a wug.","null","","","","",""
"","html-keyboard-response","364","732840","0.0-8.0-2.38","FL","nbzeelogn1","1280","720","en","AL05AR15","null","","","","learningBlock2","","","","<div style=""font-size:60px;""> </div>","null","FL","learning/Slide119.JPG","That was a wug.","",""
"","image-keyboard-response","365","733025","0.0-8.0-0.39","FL","nbzeelogn1","1280","720","en","AL05AR15","null","","","","","","","","learning/Slide120.JPG","null","","","","",""
"","html-keyboard-response","366","734187","0.0-8.0-1.39","FL","nbzeelogn1","1280","720","en","AL05AR15","null","","","","learningBlock2","","","","That was a dep.","null","","","","",""
"","html-keyboard-response","367","735191","0.0-8.0-2.39","FL","nbzeelogn1","1280","720","en","AL05AR15","null","","","","learningBlock2","","","","<div style=""font-size:60px;""> </div>","null","FL","learning/Slide120.JPG","That was a dep.","",""
"","image-keyboard-response","368","735380","0.0-8.0-0.40","FL","nbzeelogn1","1280","720","en","AL05AR15","null","","","","","","","","learning/Slide121.JPG","null","","","","",""
"","html-keyboard-response","369","736543","0.0-8.0-1.40","FL","nbzeelogn1","1280","720","en","AL05AR15","null","","","","learningBlock2","","","","That was a bim.","null","","","","",""
"","html-keyboard-response","370","737555","0.0-8.0-2.40","FL","nbzeelogn1","1280","720","en","AL05AR15","null","","","","learningBlock2","","","","<div style=""font-size:60px;""> </div>","null","FL","learning/Slide121.JPG","That was a bim.","",""
"","image-keyboard-response","371","737745","0.0-8.0-0.41","FL","nbzeelogn1","1280","720","en","AL05AR15","null","","","","","","","","learning/Slide122.JPG","null","","","","",""
"","html-keyboard-response","372","738901","0.0-8.0-1.41","FL","nbzeelogn1","1280","720","en","AL05AR15","null","","","","learningBlock2","","","","That was a wug.","null","","","","",""
"","html-keyboard-response","373","739910","0.0-8.0-2.41","FL","nbzeelogn1","1280","720","en","AL05AR15","null","","","","learningBlock2","","","","<div style=""font-size:60px;""> </div>","null","FL","learning/Slide122.JPG","That was a wug.","",""
"","image-keyboard-response","374","740098","0.0-8.0-0.42","FL","nbzeelogn1","1280","720","en","AL05AR15","null","","","","","","","","learning/Slide123.JPG","null","","","","",""
"","html-keyboard-response","375","741261","0.0-8.0-1.42","FL","nbzeelogn1","1280","720","en","AL05AR15","null","","","","learningBlock2","","","","That was a bim.","null","","","","",""
"","html-keyboard-response","376","742265","0.0-8.0-2.42","FL","nbzeelogn1","1280","720","en","AL05AR15","null","","","","learningBlock2","","","","<div style=""font-size:60px;""> </div>","null","FL","learning/Slide123.JPG","That was a bim.","",""
"","image-keyboard-response","377","742451","0.0-8.0-0.43","FL","nbzeelogn1","1280","720","en","AL05AR15","null","","","","","","","","learning/Slide124.JPG","null","","","","",""
"","html-keyboard-response","378","743615","0.0-8.0-1.43","FL","nbzeelogn1","1280","720","en","AL05AR15","null","","","","learningBlock2","","","","That was a tob.","null","","","","",""
"","html-keyboard-response","379","744619","0.0-8.0-2.43","FL","nbzeelogn1","1280","720","en","AL05AR15","null","","","","learningBlock2","","","","<div style=""font-size:60px;""> </div>","null","FL","learning/Slide124.JPG","That was a tob.","",""
"","image-keyboard-response","380","744803","0.0-8.0-0.44","FL","nbzeelogn1","1280","720","en","AL05AR15","null","","","","","","","","learning/Slide125.JPG","null","","","","",""
"","html-keyboard-response","381","745966","0.0-8.0-1.44","FL","nbzeelogn1","1280","720","en","AL05AR15","null","","","","learningBlock2","","","","That was a bim.","null","","","","",""
"","html-keyboard-response","382","746969","0.0-8.0-2.44","FL","nbzeelogn1","1280","720","en","AL05AR15","null","","","","learningBlock2","","","","<div style=""font-size:60px;""> </div>","null","FL","learning/Slide125.JPG","That was a bim.","",""
"","image-keyboard-response","383","747154","0.0-8.0-0.45","FL","nbzeelogn1","1280","720","en","AL05AR15","null","","","","","","","","learning/Slide126.JPG","null","","","","",""
"","html-keyboard-response","384","748332","0.0-8.0-1.45","FL","nbzeelogn1","1280","720","en","AL05AR15","null","","","","learningBlock2","","","","That was a tob.","null","","","","",""
"","html-keyboard-response","385","749336","0.0-8.0-2.45","FL","nbzeelogn1","1280","720","en","AL05AR15","null","","","","learningBlock2","","","","<div style=""font-size:60px;""> </div>","null","FL","learning/Slide126.JPG","That was a tob.","",""
"","image-keyboard-response","386","749520","0.0-8.0-0.46","FL","nbzeelogn1","1280","720","en","AL05AR15","null","","","","","","","","learning/Slide127.JPG","null","","","","",""
"","html-keyboard-response","387","750687","0.0-8.0-1.46","FL","nbzeelogn1","1280","720","en","AL05AR15","null","","","","learningBlock2","","","","That was a dep.","null","","","","",""
"","html-keyboard-response","388","751691","0.0-8.0-2.46","FL","nbzeelogn1","1280","720","en","AL05AR15","null","","","","learningBlock2","","","","<div style=""font-size:60px;""> </div>","null","FL","learning/Slide127.JPG","That was a dep.","",""
"","image-keyboard-response","389","751876","0.0-8.0-0.47","FL","nbzeelogn1","1280","720","en","AL05AR15","null","","","","","","","","learning/Slide128.JPG","null","","","","",""
"","html-keyboard-response","390","753040","0.0-8.0-1.47","FL","nbzeelogn1","1280","720","en","AL05AR15","null","","","","learningBlock2","","","","That was a wug.","null","","","","",""
"","html-keyboard-response","391","754043","0.0-8.0-2.47","FL","nbzeelogn1","1280","720","en","AL05AR15","null","","","","learningBlock2","","","","<div style=""font-size:60px;""> </div>","null","FL","learning/Slide128.JPG","That was a wug.","",""
"","image-keyboard-response","392","754228","0.0-8.0-0.48","FL","nbzeelogn1","1280","720","en","AL05AR15","null","","","","","","","","learning/Slide129.JPG","null","","","","",""
"","html-keyboard-response","393","755404","0.0-8.0-1.48","FL","nbzeelogn1","1280","720","en","AL05AR15","null","","","","learningBlock2","","","","That was a tob.","null","","","","",""
"","html-keyboard-response","394","756415","0.0-8.0-2.48","FL","nbzeelogn1","1280","720","en","AL05AR15","null","","","","learningBlock2","","","","<div style=""font-size:60px;""> </div>","null","FL","learning/Slide129.JPG","That was a tob.","",""
"","image-keyboard-response","395","756597","0.0-8.0-0.49","FL","nbzeelogn1","1280","720","en","AL05AR15","null","","","","","","","","learning/Slide130.JPG","null","","","","",""
"","html-keyboard-response","396","757760","0.0-8.0-1.49","FL","nbzeelogn1","1280","720","en","AL05AR15","null","","","","learningBlock2","","","","That was a wug.","null","","","","",""
"","html-keyboard-response","397","758764","0.0-8.0-2.49","FL","nbzeelogn1","1280","720","en","AL05AR15","null","","","","learningBlock2","","","","<div style=""font-size:60px;""> </div>","null","FL","learning/Slide130.JPG","That was a wug.","",""
"","image-keyboard-response","398","758954","0.0-8.0-0.50","FL","nbzeelogn1","1280","720","en","AL05AR15","null","","","","","","","","learning/Slide131.JPG","null","","","","",""
"","html-keyboard-response","399","760118","0.0-8.0-1.50","FL","nbzeelogn1","1280","720","en","AL05AR15","null","","","","learningBlock2","","","","That was a bim.","null","","","","",""
"","html-keyboard-response","400","761129","0.0-8.0-2.50","FL","nbzeelogn1","1280","720","en","AL05AR15","null","","","","learningBlock2","","","","<div style=""font-size:60px;""> </div>","null","FL","learning/Slide131.JPG","That was a bim.","",""
"","image-keyboard-response","401","761318","0.0-8.0-0.51","FL","nbzeelogn1","1280","720","en","AL05AR15","null","","","","","","","","learning/Slide132.JPG","null","","","","",""
"","html-keyboard-response","402","762481","0.0-8.0-1.51","FL","nbzeelogn1","1280","720","en","AL05AR15","null","","","","learningBlock2","","","","That was a dep.","null","","","","",""
"","html-keyboard-response","403","763486","0.0-8.0-2.51","FL","nbzeelogn1","1280","720","en","AL05AR15","null","","","","learningBlock2","","","","<div style=""font-size:60px;""> </div>","null","FL","learning/Slide132.JPG","That was a dep.","",""
"","image-keyboard-response","404","763688","0.0-8.0-0.52","FL","nbzeelogn1","1280","720","en","AL05AR15","null","","","","","","","","learning/Slide133.JPG","null","","","","",""
"","html-keyboard-response","405","764853","0.0-8.0-1.52","FL","nbzeelogn1","1280","720","en","AL05AR15","null","","","","learningBlock2","","","","That was a tob.","null","","","","",""
"","html-keyboard-response","406","765864","0.0-8.0-2.52","FL","nbzeelogn1","1280","720","en","AL05AR15","null","","","","learningBlock2","","","","<div style=""font-size:60px;""> </div>","null","FL","learning/Slide133.JPG","That was a tob.","",""
"","image-keyboard-response","407","766046","0.0-8.0-0.53","FL","nbzeelogn1","1280","720","en","AL05AR15","null","","","","","","","","learning/Slide134.JPG","null","","","","",""
"","html-keyboard-response","408","767218","0.0-8.0-1.53","FL","nbzeelogn1","1280","720","en","AL05AR15","null","","","","learningBlock2","","","","That was a dep.","null","","","","",""
"","html-keyboard-response","409","768228","0.0-8.0-2.53","FL","nbzeelogn1","1280","720","en","AL05AR15","null","","","","learningBlock2","","","","<div style=""font-size:60px;""> </div>","null","FL","learning/Slide134.JPG","That was a dep.","",""
"","image-keyboard-response","410","768412","0.0-8.0-0.54","FL","nbzeelogn1","1280","720","en","AL05AR15","null","","","","","","","","learning/Slide135.JPG","null","","","","",""
"","html-keyboard-response","411","769577","0.0-8.0-1.54","FL","nbzeelogn1","1280","720","en","AL05AR15","null","","","","learningBlock2","","","","That was a tob.","null","","","","",""
"","html-keyboard-response","412","770581","0.0-8.0-2.54","FL","nbzeelogn1","1280","720","en","AL05AR15","null","","","","learningBlock2","","","","<div style=""font-size:60px;""> </div>","null","FL","learning/Slide135.JPG","That was a tob.","",""
"","image-keyboard-response","413","770764","0.0-8.0-0.55","FL","nbzeelogn1","1280","720","en","AL05AR15","null","","","","","","","","learning/Slide136.JPG","null","","","","",""
"","html-keyboard-response","414","771930","0.0-8.0-1.55","FL","nbzeelogn1","1280","720","en","AL05AR15","null","","","","learningBlock2","","","","That was a wug.","null","","","","",""
"","html-keyboard-response","415","772936","0.0-8.0-2.55","FL","nbzeelogn1","1280","720","en","AL05AR15","null","","","","learningBlock2","","","","<div style=""font-size:60px;""> </div>","null","FL","learning/Slide136.JPG","That was a wug.","",""
"","image-keyboard-response","416","773129","0.0-8.0-0.56","FL","nbzeelogn1","1280","720","en","AL05AR15","null","","","","","","","","learning/Slide137.JPG","null","","","","",""
"","html-keyboard-response","417","774288","0.0-8.0-1.56","FL","nbzeelogn1","1280","720","en","AL05AR15","null","","","","learningBlock2","","","","That was a tob.","null","","","","",""
"","html-keyboard-response","418","775292","0.0-8.0-2.56","FL","nbzeelogn1","1280","720","en","AL05AR15","null","","","","learningBlock2","","","","<div style=""font-size:60px;""> </div>","null","FL","learning/Slide137.JPG","That was a tob.","",""
"","image-keyboard-response","419","775470","0.0-8.0-0.57","FL","nbzeelogn1","1280","720","en","AL05AR15","null","","","","","","","","learning/Slide138.JPG","null","","","","",""
"","html-keyboard-response","420","776647","0.0-8.0-1.57","FL","nbzeelogn1","1280","720","en","AL05AR15","null","","","","learningBlock2","","","","That was a bim.","null","","","","",""
"","html-keyboard-response","421","777658","0.0-8.0-2.57","FL","nbzeelogn1","1280","720","en","AL05AR15","null","","","","learningBlock2","","","","<div style=""font-size:60px;""> </div>","null","FL","learning/Slide138.JPG","That was a bim.","",""
"","image-keyboard-response","422","777848","0.0-8.0-0.58","FL","nbzeelogn1","1280","720","en","AL05AR15","null","","","","","","","","learning/Slide139.JPG","null","","","","",""
"","html-keyboard-response","423","779013","0.0-8.0-1.58","FL","nbzeelogn1","1280","720","en","AL05AR15","null","","","","learningBlock2","","","","That was a wug.","null","","","","",""
"","html-keyboard-response","424","780016","0.0-8.0-2.58","FL","nbzeelogn1","1280","720","en","AL05AR15","null","","","","learningBlock2","","","","<div style=""font-size:60px;""> </div>","null","FL","learning/Slide139.JPG","That was a wug.","",""
"","image-keyboard-response","425","780201","0.0-8.0-0.59","FL","nbzeelogn1","1280","720","en","AL05AR15","null","","","","","","","","learning/Slide140.JPG","null","","","","",""
"","html-keyboard-response","426","781361","0.0-8.0-1.59","FL","nbzeelogn1","1280","720","en","AL05AR15","null","","","","learningBlock2","","","","That was a dep.","null","","","","",""
"","html-keyboard-response","427","782365","0.0-8.0-2.59","FL","nbzeelogn1","1280","720","en","AL05AR15","null","","","","learningBlock2","","","","<div style=""font-size:60px;""> </div>","null","FL","learning/Slide140.JPG","That was a dep.","",""
"","image-keyboard-response","428","782554","0.0-8.0-0.60","FL","nbzeelogn1","1280","720","en","AL05AR15","null","","","","","","","","learning/Slide141.JPG","null","","","","",""
"","html-keyboard-response","429","783717","0.0-8.0-1.60","FL","nbzeelogn1","1280","720","en","AL05AR15","null","","","","learningBlock2","","","","That was a tob.","null","","","","",""
"","html-keyboard-response","430","784721","0.0-8.0-2.60","FL","nbzeelogn1","1280","720","en","AL05AR15","null","","","","learningBlock2","","","","<div style=""font-size:60px;""> </div>","null","FL","learning/Slide141.JPG","That was a tob.","",""
"","image-keyboard-response","431","784906","0.0-8.0-0.61","FL","nbzeelogn1","1280","720","en","AL05AR15","null","","","","","","","","learning/Slide142.JPG","null","","","","",""
"","html-keyboard-response","432","786071","0.0-8.0-1.61","FL","nbzeelogn1","1280","720","en","AL05AR15","null","","","","learningBlock2","","","","That was a wug.","null","","","","",""
"","html-keyboard-response","433","787075","0.0-8.0-2.61","FL","nbzeelogn1","1280","720","en","AL05AR15","null","","","","learningBlock2","","","","<div style=""font-size:60px;""> </div>","null","FL","learning/Slide142.JPG","That was a wug.","",""
"","image-keyboard-response","434","787259","0.0-8.0-0.62","FL","nbzeelogn1","1280","720","en","AL05AR15","null","","","","","","","","learning/Slide143.JPG","null","","","","",""
"","html-keyboard-response","435","788420","0.0-8.0-1.62","FL","nbzeelogn1","1280","720","en","AL05AR15","null","","","","learningBlock2","","","","That was a bim.","null","","","","",""
"","html-keyboard-response","436","789424","0.0-8.0-2.62","FL","nbzeelogn1","1280","720","en","AL05AR15","null","","","","learningBlock2","","","","<div style=""font-size:60px;""> </div>","null","FL","learning/Slide143.JPG","That was a bim.","",""
"","image-keyboard-response","437","789616","0.0-8.0-0.63","FL","nbzeelogn1","1280","720","en","AL05AR15","null","","","","","","","","learning/Slide144.JPG","null","","","","",""
"","html-keyboard-response","438","790791","0.0-8.0-1.63","FL","nbzeelogn1","1280","720","en","AL05AR15","null","","","","learningBlock2","","","","That was a dep.","null","","","","",""
"","html-keyboard-response","439","791805","0.0-8.0-2.63","FL","nbzeelogn1","1280","720","en","AL05AR15","null","","","","learningBlock2","","","","<div style=""font-size:60px;""> </div>","null","FL","learning/Slide144.JPG","That was a dep.","",""
"","image-keyboard-response","440","791998","0.0-8.0-0.64","FL","nbzeelogn1","1280","720","en","AL05AR15","null","","","","","","","","learning/Slide145.JPG","null","","","","",""
"","html-keyboard-response","441","793163","0.0-8.0-1.64","FL","nbzeelogn1","1280","720","en","AL05AR15","null","","","","learningBlock2","","","","That was a bim.","null","","","","",""
"","html-keyboard-response","442","794182","0.0-8.0-2.64","FL","nbzeelogn1","1280","720","en","AL05AR15","null","","","","learningBlock2","","","","<div style=""font-size:60px;""> </div>","null","FL","learning/Slide145.JPG","That was a bim.","",""
"","image-keyboard-response","443","794369","0.0-8.0-0.65","FL","nbzeelogn1","1280","720","en","AL05AR15","null","","","","","","","","learning/Slide146.JPG","null","","","","",""
"","html-keyboard-response","444","795530","0.0-8.0-1.65","FL","nbzeelogn1","1280","720","en","AL05AR15","null","","","","learningBlock2","","","","That was a tob.","null","","","","",""
"","html-keyboard-response","445","796534","0.0-8.0-2.65","FL","nbzeelogn1","1280","720","en","AL05AR15","null","","","","learningBlock2","","","","<div style=""font-size:60px;""> </div>","null","FL","learning/Slide146.JPG","That was a tob.","",""
"","image-keyboard-response","446","796721","0.0-8.0-0.66","FL","nbzeelogn1","1280","720","en","AL05AR15","null","","","","","","","","learning/Slide147.JPG","null","","","","",""
"","html-keyboard-response","447","797884","0.0-8.0-1.66","FL","nbzeelogn1","1280","720","en","AL05AR15","null","","","","learningBlock2","","","","That was a wug.","null","","","","",""
"","html-keyboard-response","448","798887","0.0-8.0-2.66","FL","nbzeelogn1","1280","720","en","AL05AR15","null","","","","learningBlock2","","","","<div style=""font-size:60px;""> </div>","null","FL","learning/Slide147.JPG","That was a wug.","",""
"","image-keyboard-response","449","799079","0.0-8.0-0.67","FL","nbzeelogn1","1280","720","en","AL05AR15","null","","","","","","","","learning/Slide148.JPG","null","","","","",""
"","html-keyboard-response","450","800238","0.0-8.0-1.67","FL","nbzeelogn1","1280","720","en","AL05AR15","null","","","","learningBlock2","","","","That was a bim.","null","","","","",""
"","html-keyboard-response","451","801251","0.0-8.0-2.67","FL","nbzeelogn1","1280","720","en","AL05AR15","null","","","","learningBlock2","","","","<div style=""font-size:60px;""> </div>","null","FL","learning/Slide148.JPG","That was a bim.","",""
"","image-keyboard-response","452","801440","0.0-8.0-0.68","FL","nbzeelogn1","1280","720","en","AL05AR15","null","","","","","","","","learning/Slide149.JPG","null","","","","",""
"","html-keyboard-response","453","802608","0.0-8.0-1.68","FL","nbzeelogn1","1280","720","en","AL05AR15","null","","","","learningBlock2","","","","That was a dep.","null","","","","",""
"","html-keyboard-response","454","803621","0.0-8.0-2.68","FL","nbzeelogn1","1280","720","en","AL05AR15","null","","","","learningBlock2","","","","<div style=""font-size:60px;""> </div>","null","FL","learning/Slide149.JPG","That was a dep.","",""
"","image-keyboard-response","455","803811","0.0-8.0-0.69","FL","nbzeelogn1","1280","720","en","AL05AR15","null","","","","","","","","learning/Slide150.JPG","null","","","","",""
"","html-keyboard-response","456","804974","0.0-8.0-1.69","FL","nbzeelogn1","1280","720","en","AL05AR15","null","","","","learningBlock2","","","","That was a wug.","null","","","","",""
"","html-keyboard-response","457","805980","0.0-8.0-2.69","FL","nbzeelogn1","1280","720","en","AL05AR15","null","","","","learningBlock2","","","","<div style=""font-size:60px;""> </div>","null","FL","learning/Slide150.JPG","That was a wug.","",""
"","image-keyboard-response","458","806158","0.0-8.0-0.70","FL","nbzeelogn1","1280","720","en","AL05AR15","null","","","","","","","","learning/Slide151.JPG","null","","","","",""
"","html-keyboard-response","459","807323","0.0-8.0-1.70","FL","nbzeelogn1","1280","720","en","AL05AR15","null","","","","learningBlock2","","","","That was a dep.","null","","","","",""
"","html-keyboard-response","460","808340","0.0-8.0-2.70","FL","nbzeelogn1","1280","720","en","AL05AR15","null","","","","learningBlock2","","","","<div style=""font-size:60px;""> </div>","null","FL","learning/Slide151.JPG","That was a dep.","",""
"","image-keyboard-response","461","808531","0.0-8.0-0.71","FL","nbzeelogn1","1280","720","en","AL05AR15","null","","","","","","","","learning/Slide152.JPG","null","","","","",""
"","html-keyboard-response","462","809704","0.0-8.0-1.71","FL","nbzeelogn1","1280","720","en","AL05AR15","null","","","","learningBlock2","","","","That was a wug.","null","","","","",""
"","html-keyboard-response","463","810714","0.0-8.0-2.71","FL","nbzeelogn1","1280","720","en","AL05AR15","null","","","","learningBlock2","","","","<div style=""font-size:60px;""> </div>","null","FL","learning/Slide152.JPG","That was a wug.","",""
"","image-keyboard-response","464","810906","0.0-8.0-0.72","FL","nbzeelogn1","1280","720","en","AL05AR15","null","","","","","","","","learning/Slide153.JPG","null","","","","",""
"","html-keyboard-response","465","812064","0.0-8.0-1.72","FL","nbzeelogn1","1280","720","en","AL05AR15","null","","","","learningBlock2","","","","That was a bim.","null","","","","",""
"","html-keyboard-response","466","813078","0.0-8.0-2.72","FL","nbzeelogn1","1280","720","en","AL05AR15","null","","","","learningBlock2","","","","<div style=""font-size:60px;""> </div>","null","FL","learning/Slide153.JPG","That was a bim.","",""
"","image-keyboard-response","467","813269","0.0-8.0-0.73","FL","nbzeelogn1","1280","720","en","AL05AR15","null","","","","","","","","learning/Slide154.JPG","null","","","","",""
"","html-keyboard-response","468","814423","0.0-8.0-1.73","FL","nbzeelogn1","1280","720","en","AL05AR15","null","","","","learningBlock2","","","","That was a tob.","null","","","","",""
"","html-keyboard-response","469","815435","0.0-8.0-2.73","FL","nbzeelogn1","1280","720","en","AL05AR15","null","","","","learningBlock2","","","","<div style=""font-size:60px;""> </div>","null","FL","learning/Slide154.JPG","That was a tob.","",""
"","image-keyboard-response","470","815621","0.0-8.0-0.74","FL","nbzeelogn1","1280","720","en","AL05AR15","null","","","","","","","","learning/Slide155.JPG","null","","","","",""
"","html-keyboard-response","471","816785","0.0-8.0-1.74","FL","nbzeelogn1","1280","720","en","AL05AR15","null","","","","learningBlock2","","","","That was a dep.","null","","","","",""
"","html-keyboard-response","472","817803","0.0-8.0-2.74","FL","nbzeelogn1","1280","720","en","AL05AR15","null","","","","learningBlock2","","","","<div style=""font-size:60px;""> </div>","null","FL","learning/Slide155.JPG","That was a dep.","",""
"","image-keyboard-response","473","817990","0.0-8.0-0.75","FL","nbzeelogn1","1280","720","en","AL05AR15","null","","","","","","","","learning/Slide156.JPG","null","","","","",""
"","html-keyboard-response","474","819153","0.0-8.0-1.75","FL","nbzeelogn1","1280","720","en","AL05AR15","null","","","","learningBlock2","","","","That was a bim.","null","","","","",""
"","html-keyboard-response","475","820166","0.0-8.0-2.75","FL","nbzeelogn1","1280","720","en","AL05AR15","null","","","","learningBlock2","","","","<div style=""font-size:60px;""> </div>","null","FL","learning/Slide156.JPG","That was a bim.","",""
"","image-keyboard-response","476","820359","0.0-8.0-0.76","FL","nbzeelogn1","1280","720","en","AL05AR15","null","","","","","","","","learning/Slide157.JPG","null","","","","",""
"","html-keyboard-response","477","821522","0.0-8.0-1.76","FL","nbzeelogn1","1280","720","en","AL05AR15","null","","","","learningBlock2","","","","That was a dep.","null","","","","",""
"","html-keyboard-response","478","822526","0.0-8.0-2.76","FL","nbzeelogn1","1280","720","en","AL05AR15","null","","","","learningBlock2","","","","<div style=""font-size:60px;""> </div>","null","FL","learning/Slide157.JPG","That was a dep.","",""
"","image-keyboard-response","479","822711","0.0-8.0-0.77","FL","nbzeelogn1","1280","720","en","AL05AR15","null","","","","","","","","learning/Slide158.JPG","null","","","","",""
"","html-keyboard-response","480","823874","0.0-8.0-1.77","FL","nbzeelogn1","1280","720","en","AL05AR15","null","","","","learningBlock2","","","","That was a tob.","null","","","","",""
"","html-keyboard-response","481","824878","0.0-8.0-2.77","FL","nbzeelogn1","1280","720","en","AL05AR15","null","","","","learningBlock2","","","","<div style=""font-size:60px;""> </div>","null","FL","learning/Slide158.JPG","That was a tob.","",""
"","image-keyboard-response","482","825057","0.0-8.0-0.78","FL","nbzeelogn1","1280","720","en","AL05AR15","null","","","","","","","","learning/Slide159.JPG","null","","","","",""
"","html-keyboard-response","483","826226","0.0-8.0-1.78","FL","nbzeelogn1","1280","720","en","AL05AR15","null","","","","learningBlock2","","","","That was a dep.","null","","","","",""
"","html-keyboard-response","484","827231","0.0-8.0-2.78","FL","nbzeelogn1","1280","720","en","AL05AR15","null","","","","learningBlock2","","","","<div style=""font-size:60px;""> </div>","null","FL","learning/Slide159.JPG","That was a dep.","",""
"","image-keyboard-response","485","827416","0.0-8.0-0.79","FL","nbzeelogn1","1280","720","en","AL05AR15","null","","","","","","","","learning/Slide160.JPG","null","","","","",""
"","html-keyboard-response","486","828580","0.0-8.0-1.79","FL","nbzeelogn1","1280","720","en","AL05AR15","null","","","","learningBlock2","","","","That was a wug.","null","","","","",""
"","html-keyboard-response","487","829599","0.0-8.0-2.79","FL","nbzeelogn1","1280","720","en","AL05AR15","null","","","","learningBlock2","","","","<div style=""font-size:60px;""> </div>","null","FL","learning/Slide160.JPG","That was a wug.","",""
"","resize2","488","834473","0.0-9.0","FL","nbzeelogn1","1280","720","en","AL05AR15","","","","","","","104","1.04","","","","","","",""
