"success","trial_type","trial_index","time_elapsed","internal_node_id","condition","subject","screen_width","screen_height","language","codeword","rt","responses","url","view_history","test_part","final_height_px","final_width_px","scale_factor","stimulus","key_press","learningType","presentedImage","presentedLabel","button_pressed","response"
"true","fullscreen","0","36560","0.0-0.0","FL","8vhxe9t9g0","1500","1000","en","ke05us31","","","","","","","","","","","","","","",""
"","survey-html-form","1","44156","0.0-1.0","FL","8vhxe9t9g0","1500","1000","en","ke05us31","7590.725000016391","{""language"":""en""}","","","","","","","","","","","","",""
"","external-html","2","123771","0.0-3.0-0.0","FL","8vhxe9t9g0","1500","1000","en","ke05us31","79340.62499995343","","text/information_english.html","","","","","","","","","","","",""
"","external-html","3","137205","0.0-3.0-1.0","FL","8vhxe9t9g0","1500","1000","en","ke05us31","13107.104999944568","","text/consent_english.html","","","","","","","","","","","",""
"","survey-html-form","4","169036","0.0-3.0-2.0","FL","8vhxe9t9g0","1500","1000","en","ke05us31","31825.62500005588","{""codeword_enter"":""ke05us31""}","","","","","","","","","","","","",""
"","instructions","5","191871","0.0-4.0","FL","8vhxe9t9g0","1500","1000","en","ke05us31","NA","","","[{""page_index"":0,""viewing_time"":5345.045000081882},{""page_index"":1,""viewing_time"":15982.910000020638}]","instructions","","","","","","","","","",""
"","resize","6","217638","0.0-5.0","FL","8vhxe9t9g0","1500","1000","en","ke05us31","","","","","","","376","2.3873015873015873","","","","","","",""
"","image-keyboard-response","7","217819","0.0-6.0-0.0","FL","8vhxe9t9g0","1500","1000","en","ke05us31","null","","","","","","","","learning/Slide1.JPG","null","","","","",""
"","html-keyboard-response","8","218974","0.0-6.0-1.0","FL","8vhxe9t9g0","1500","1000","en","ke05us31","null","","","","learningBlock1","","","","That was a tob.","null","","","","",""
"","html-keyboard-response","9","219977","0.0-6.0-2.0","FL","8vhxe9t9g0","1500","1000","en","ke05us31","null","","","","learningBlock1","","","","<div style=""font-size:60px;""> </div>","null","FL","learning/Slide1.JPG","That was a tob.","",""
"","image-keyboard-response","10","220155","0.0-6.0-0.1","FL","8vhxe9t9g0","1500","1000","en","ke05us31","null","","","","","","","","learning/Slide2.JPG","null","","","","",""
"","html-keyboard-response","11","221307","0.0-6.0-1.1","FL","8vhxe9t9g0","1500","1000","en","ke05us31","null","","","","learningBlock1","","","","That was a wug.","null","","","","",""
"","html-keyboard-response","12","222311","0.0-6.0-2.1","FL","8vhxe9t9g0","1500","1000","en","ke05us31","null","","","","learningBlock1","","","","<div style=""font-size:60px;""> </div>","null","FL","learning/Slide2.JPG","That was a wug.","",""
"","image-keyboard-response","13","222488","0.0-6.0-0.2","FL","8vhxe9t9g0","1500","1000","en","ke05us31","null","","","","","","","","learning/Slide3.JPG","null","","","","",""
"","html-keyboard-response","14","223641","0.0-6.0-1.2","FL","8vhxe9t9g0","1500","1000","en","ke05us31","null","","","","learningBlock1","","","","That was a bim.","null","","","","",""
"","html-keyboard-response","15","224644","0.0-6.0-2.2","FL","8vhxe9t9g0","1500","1000","en","ke05us31","null","","","","learningBlock1","","","","<div style=""font-size:60px;""> </div>","null","FL","learning/Slide3.JPG","That was a bim.","",""
"","image-keyboard-response","16","224821","0.0-6.0-0.3","FL","8vhxe9t9g0","1500","1000","en","ke05us31","null","","","","","","","","learning/Slide4.JPG","null","","","","",""
"","html-keyboard-response","17","225976","0.0-6.0-1.3","FL","8vhxe9t9g0","1500","1000","en","ke05us31","null","","","","learningBlock1","","","","That was a dep.","null","","","","",""
"","html-keyboard-response","18","226979","0.0-6.0-2.3","FL","8vhxe9t9g0","1500","1000","en","ke05us31","null","","","","learningBlock1","","","","<div style=""font-size:60px;""> </div>","null","FL","learning/Slide4.JPG","That was a dep.","",""
"","image-keyboard-response","19","227157","0.0-6.0-0.4","FL","8vhxe9t9g0","1500","1000","en","ke05us31","null","","","","","","","","learning/Slide5.JPG","null","","","","",""
"","html-keyboard-response","20","228309","0.0-6.0-1.4","FL","8vhxe9t9g0","1500","1000","en","ke05us31","null","","","","learningBlock1","","","","That was a wug.","null","","","","",""
"","html-keyboard-response","21","229312","0.0-6.0-2.4","FL","8vhxe9t9g0","1500","1000","en","ke05us31","null","","","","learningBlock1","","","","<div style=""font-size:60px;""> </div>","null","FL","learning/Slide5.JPG","That was a wug.","",""
"","image-keyboard-response","22","229489","0.0-6.0-0.5","FL","8vhxe9t9g0","1500","1000","en","ke05us31","null","","","","","","","","learning/Slide6.JPG","null","","","","",""
"","html-keyboard-response","23","230643","0.0-6.0-1.5","FL","8vhxe9t9g0","1500","1000","en","ke05us31","null","","","","learningBlock1","","","","That was a dep.","null","","","","",""
"","html-keyboard-response","24","231645","0.0-6.0-2.5","FL","8vhxe9t9g0","1500","1000","en","ke05us31","null","","","","learningBlock1","","","","<div style=""font-size:60px;""> </div>","null","FL","learning/Slide6.JPG","That was a dep.","",""
"","image-keyboard-response","25","231823","0.0-6.0-0.6","FL","8vhxe9t9g0","1500","1000","en","ke05us31","null","","","","","","","","learning/Slide7.JPG","null","","","","",""
"","html-keyboard-response","26","232976","0.0-6.0-1.6","FL","8vhxe9t9g0","1500","1000","en","ke05us31","null","","","","learningBlock1","","","","That was a wug.","null","","","","",""
"","html-keyboard-response","27","233978","0.0-6.0-2.6","FL","8vhxe9t9g0","1500","1000","en","ke05us31","null","","","","learningBlock1","","","","<div style=""font-size:60px;""> </div>","null","FL","learning/Slide7.JPG","That was a wug.","",""
"","image-keyboard-response","28","234157","0.0-6.0-0.7","FL","8vhxe9t9g0","1500","1000","en","ke05us31","null","","","","","","","","learning/Slide8.JPG","null","","","","",""
"","html-keyboard-response","29","235310","0.0-6.0-1.7","FL","8vhxe9t9g0","1500","1000","en","ke05us31","null","","","","learningBlock1","","","","That was a bim.","null","","","","",""
"","html-keyboard-response","30","236313","0.0-6.0-2.7","FL","8vhxe9t9g0","1500","1000","en","ke05us31","null","","","","learningBlock1","","","","<div style=""font-size:60px;""> </div>","null","FL","learning/Slide8.JPG","That was a bim.","",""
"","image-keyboard-response","31","236491","0.0-6.0-0.8","FL","8vhxe9t9g0","1500","1000","en","ke05us31","null","","","","","","","","learning/Slide9.JPG","null","","","","",""
"","html-keyboard-response","32","237644","0.0-6.0-1.8","FL","8vhxe9t9g0","1500","1000","en","ke05us31","null","","","","learningBlock1","","","","That was a wug.","null","","","","",""
"","html-keyboard-response","33","238649","0.0-6.0-2.8","FL","8vhxe9t9g0","1500","1000","en","ke05us31","null","","","","learningBlock1","","","","<div style=""font-size:60px;""> </div>","null","FL","learning/Slide9.JPG","That was a wug.","",""
"","image-keyboard-response","34","238826","0.0-6.0-0.9","FL","8vhxe9t9g0","1500","1000","en","ke05us31","null","","","","","","","","learning/Slide10.JPG","null","","","","",""
"","html-keyboard-response","35","239980","0.0-6.0-1.9","FL","8vhxe9t9g0","1500","1000","en","ke05us31","null","","","","learningBlock1","","","","That was a dep.","null","","","","",""
"","html-keyboard-response","36","240983","0.0-6.0-2.9","FL","8vhxe9t9g0","1500","1000","en","ke05us31","null","","","","learningBlock1","","","","<div style=""font-size:60px;""> </div>","null","FL","learning/Slide10.JPG","That was a dep.","",""
"","image-keyboard-response","37","241160","0.0-6.0-0.10","FL","8vhxe9t9g0","1500","1000","en","ke05us31","null","","","","","","","","learning/Slide11.JPG","null","","","","",""
"","html-keyboard-response","38","242313","0.0-6.0-1.10","FL","8vhxe9t9g0","1500","1000","en","ke05us31","null","","","","learningBlock1","","","","That was a tob.","null","","","","",""
"","html-keyboard-response","39","243315","0.0-6.0-2.10","FL","8vhxe9t9g0","1500","1000","en","ke05us31","null","","","","learningBlock1","","","","<div style=""font-size:60px;""> </div>","null","FL","learning/Slide11.JPG","That was a tob.","",""
"","image-keyboard-response","40","243492","0.0-6.0-0.11","FL","8vhxe9t9g0","1500","1000","en","ke05us31","null","","","","","","","","learning/Slide12.JPG","null","","","","",""
"","html-keyboard-response","41","244645","0.0-6.0-1.11","FL","8vhxe9t9g0","1500","1000","en","ke05us31","null","","","","learningBlock1","","","","That was a dep.","null","","","","",""
"","html-keyboard-response","42","245647","0.0-6.0-2.11","FL","8vhxe9t9g0","1500","1000","en","ke05us31","null","","","","learningBlock1","","","","<div style=""font-size:60px;""> </div>","null","FL","learning/Slide12.JPG","That was a dep.","",""
"","image-keyboard-response","43","245825","0.0-6.0-0.12","FL","8vhxe9t9g0","1500","1000","en","ke05us31","null","","","","","","","","learning/Slide13.JPG","null","","","","",""
"","html-keyboard-response","44","246978","0.0-6.0-1.12","FL","8vhxe9t9g0","1500","1000","en","ke05us31","null","","","","learningBlock1","","","","That was a bim.","null","","","","",""
"","html-keyboard-response","45","247981","0.0-6.0-2.12","FL","8vhxe9t9g0","1500","1000","en","ke05us31","null","","","","learningBlock1","","","","<div style=""font-size:60px;""> </div>","null","FL","learning/Slide13.JPG","That was a bim.","",""
"","image-keyboard-response","46","248159","0.0-6.0-0.13","FL","8vhxe9t9g0","1500","1000","en","ke05us31","null","","","","","","","","learning/Slide14.JPG","null","","","","",""
"","html-keyboard-response","47","249312","0.0-6.0-1.13","FL","8vhxe9t9g0","1500","1000","en","ke05us31","null","","","","learningBlock1","","","","That was a wug.","null","","","","",""
"","html-keyboard-response","48","250314","0.0-6.0-2.13","FL","8vhxe9t9g0","1500","1000","en","ke05us31","null","","","","learningBlock1","","","","<div style=""font-size:60px;""> </div>","null","FL","learning/Slide14.JPG","That was a wug.","",""
"","image-keyboard-response","49","250492","0.0-6.0-0.14","FL","8vhxe9t9g0","1500","1000","en","ke05us31","null","","","","","","","","learning/Slide15.JPG","null","","","","",""
"","html-keyboard-response","50","251645","0.0-6.0-1.14","FL","8vhxe9t9g0","1500","1000","en","ke05us31","null","","","","learningBlock1","","","","That was a tob.","null","","","","",""
"","html-keyboard-response","51","252648","0.0-6.0-2.14","FL","8vhxe9t9g0","1500","1000","en","ke05us31","null","","","","learningBlock1","","","","<div style=""font-size:60px;""> </div>","null","FL","learning/Slide15.JPG","That was a tob.","",""
"","image-keyboard-response","52","252826","0.0-6.0-0.15","FL","8vhxe9t9g0","1500","1000","en","ke05us31","null","","","","","","","","learning/Slide16.JPG","null","","","","",""
"","html-keyboard-response","53","253979","0.0-6.0-1.15","FL","8vhxe9t9g0","1500","1000","en","ke05us31","null","","","","learningBlock1","","","","That was a dep.","null","","","","",""
"","html-keyboard-response","54","254982","0.0-6.0-2.15","FL","8vhxe9t9g0","1500","1000","en","ke05us31","null","","","","learningBlock1","","","","<div style=""font-size:60px;""> </div>","null","FL","learning/Slide16.JPG","That was a dep.","",""
"","image-keyboard-response","55","255160","0.0-6.0-0.16","FL","8vhxe9t9g0","1500","1000","en","ke05us31","null","","","","","","","","learning/Slide17.JPG","null","","","","",""
"","html-keyboard-response","56","256315","0.0-6.0-1.16","FL","8vhxe9t9g0","1500","1000","en","ke05us31","null","","","","learningBlock1","","","","That was a bim.","null","","","","",""
"","html-keyboard-response","57","257317","0.0-6.0-2.16","FL","8vhxe9t9g0","1500","1000","en","ke05us31","null","","","","learningBlock1","","","","<div style=""font-size:60px;""> </div>","null","FL","learning/Slide17.JPG","That was a bim.","",""
"","image-keyboard-response","58","257494","0.0-6.0-0.17","FL","8vhxe9t9g0","1500","1000","en","ke05us31","null","","","","","","","","learning/Slide18.JPG","null","","","","",""
"","html-keyboard-response","59","258647","0.0-6.0-1.17","FL","8vhxe9t9g0","1500","1000","en","ke05us31","null","","","","learningBlock1","","","","That was a tob.","null","","","","",""
"","html-keyboard-response","60","259650","0.0-6.0-2.17","FL","8vhxe9t9g0","1500","1000","en","ke05us31","null","","","","learningBlock1","","","","<div style=""font-size:60px;""> </div>","null","FL","learning/Slide18.JPG","That was a tob.","",""
"","image-keyboard-response","61","259828","0.0-6.0-0.18","FL","8vhxe9t9g0","1500","1000","en","ke05us31","null","","","","","","","","learning/Slide19.JPG","null","","","","",""
"","html-keyboard-response","62","260981","0.0-6.0-1.18","FL","8vhxe9t9g0","1500","1000","en","ke05us31","null","","","","learningBlock1","","","","That was a wug.","null","","","","",""
"","html-keyboard-response","63","261984","0.0-6.0-2.18","FL","8vhxe9t9g0","1500","1000","en","ke05us31","null","","","","learningBlock1","","","","<div style=""font-size:60px;""> </div>","null","FL","learning/Slide19.JPG","That was a wug.","",""
"","image-keyboard-response","64","262161","0.0-6.0-0.19","FL","8vhxe9t9g0","1500","1000","en","ke05us31","null","","","","","","","","learning/Slide20.JPG","null","","","","",""
"","html-keyboard-response","65","263315","0.0-6.0-1.19","FL","8vhxe9t9g0","1500","1000","en","ke05us31","null","","","","learningBlock1","","","","That was a bim.","null","","","","",""
"","html-keyboard-response","66","264318","0.0-6.0-2.19","FL","8vhxe9t9g0","1500","1000","en","ke05us31","null","","","","learningBlock1","","","","<div style=""font-size:60px;""> </div>","null","FL","learning/Slide20.JPG","That was a bim.","",""
"","image-keyboard-response","67","264496","0.0-6.0-0.20","FL","8vhxe9t9g0","1500","1000","en","ke05us31","null","","","","","","","","learning/Slide21.JPG","null","","","","",""
"","html-keyboard-response","68","265649","0.0-6.0-1.20","FL","8vhxe9t9g0","1500","1000","en","ke05us31","null","","","","learningBlock1","","","","That was a dep.","null","","","","",""
"","html-keyboard-response","69","266653","0.0-6.0-2.20","FL","8vhxe9t9g0","1500","1000","en","ke05us31","null","","","","learningBlock1","","","","<div style=""font-size:60px;""> </div>","null","FL","learning/Slide21.JPG","That was a dep.","",""
"","image-keyboard-response","70","266830","0.0-6.0-0.21","FL","8vhxe9t9g0","1500","1000","en","ke05us31","null","","","","","","","","learning/Slide22.JPG","null","","","","",""
"","html-keyboard-response","71","267984","0.0-6.0-1.21","FL","8vhxe9t9g0","1500","1000","en","ke05us31","null","","","","learningBlock1","","","","That was a bim.","null","","","","",""
"","html-keyboard-response","72","268986","0.0-6.0-2.21","FL","8vhxe9t9g0","1500","1000","en","ke05us31","null","","","","learningBlock1","","","","<div style=""font-size:60px;""> </div>","null","FL","learning/Slide22.JPG","That was a bim.","",""
"","image-keyboard-response","73","269163","0.0-6.0-0.22","FL","8vhxe9t9g0","1500","1000","en","ke05us31","null","","","","","","","","learning/Slide23.JPG","null","","","","",""
"","html-keyboard-response","74","270316","0.0-6.0-1.22","FL","8vhxe9t9g0","1500","1000","en","ke05us31","null","","","","learningBlock1","","","","That was a tob.","null","","","","",""
"","html-keyboard-response","75","271317","0.0-6.0-2.22","FL","8vhxe9t9g0","1500","1000","en","ke05us31","null","","","","learningBlock1","","","","<div style=""font-size:60px;""> </div>","null","FL","learning/Slide23.JPG","That was a tob.","",""
"","image-keyboard-response","76","271495","0.0-6.0-0.23","FL","8vhxe9t9g0","1500","1000","en","ke05us31","null","","","","","","","","learning/Slide24.JPG","null","","","","",""
"","html-keyboard-response","77","272648","0.0-6.0-1.23","FL","8vhxe9t9g0","1500","1000","en","ke05us31","null","","","","learningBlock1","","","","That was a wug.","null","","","","",""
"","html-keyboard-response","78","273651","0.0-6.0-2.23","FL","8vhxe9t9g0","1500","1000","en","ke05us31","null","","","","learningBlock1","","","","<div style=""font-size:60px;""> </div>","null","FL","learning/Slide24.JPG","That was a wug.","",""
"","image-keyboard-response","79","273828","0.0-6.0-0.24","FL","8vhxe9t9g0","1500","1000","en","ke05us31","null","","","","","","","","learning/Slide25.JPG","null","","","","",""
"","html-keyboard-response","80","274982","0.0-6.0-1.24","FL","8vhxe9t9g0","1500","1000","en","ke05us31","null","","","","learningBlock1","","","","That was a dep.","null","","","","",""
"","html-keyboard-response","81","275985","0.0-6.0-2.24","FL","8vhxe9t9g0","1500","1000","en","ke05us31","null","","","","learningBlock1","","","","<div style=""font-size:60px;""> </div>","null","FL","learning/Slide25.JPG","That was a dep.","",""
"","image-keyboard-response","82","276163","0.0-6.0-0.25","FL","8vhxe9t9g0","1500","1000","en","ke05us31","null","","","","","","","","learning/Slide26.JPG","null","","","","",""
"","html-keyboard-response","83","277316","0.0-6.0-1.25","FL","8vhxe9t9g0","1500","1000","en","ke05us31","null","","","","learningBlock1","","","","That was a wug.","null","","","","",""
"","html-keyboard-response","84","278319","0.0-6.0-2.25","FL","8vhxe9t9g0","1500","1000","en","ke05us31","null","","","","learningBlock1","","","","<div style=""font-size:60px;""> </div>","null","FL","learning/Slide26.JPG","That was a wug.","",""
"","image-keyboard-response","85","278496","0.0-6.0-0.26","FL","8vhxe9t9g0","1500","1000","en","ke05us31","null","","","","","","","","learning/Slide27.JPG","null","","","","",""
"","html-keyboard-response","86","279648","0.0-6.0-1.26","FL","8vhxe9t9g0","1500","1000","en","ke05us31","null","","","","learningBlock1","","","","That was a bim.","null","","","","",""
"","html-keyboard-response","87","280651","0.0-6.0-2.26","FL","8vhxe9t9g0","1500","1000","en","ke05us31","null","","","","learningBlock1","","","","<div style=""font-size:60px;""> </div>","null","FL","learning/Slide27.JPG","That was a bim.","",""
"","image-keyboard-response","88","280828","0.0-6.0-0.27","FL","8vhxe9t9g0","1500","1000","en","ke05us31","null","","","","","","","","learning/Slide28.JPG","null","","","","",""
"","html-keyboard-response","89","281982","0.0-6.0-1.27","FL","8vhxe9t9g0","1500","1000","en","ke05us31","null","","","","learningBlock1","","","","That was a dep.","null","","","","",""
"","html-keyboard-response","90","282985","0.0-6.0-2.27","FL","8vhxe9t9g0","1500","1000","en","ke05us31","null","","","","learningBlock1","","","","<div style=""font-size:60px;""> </div>","null","FL","learning/Slide28.JPG","That was a dep.","",""
"","image-keyboard-response","91","283162","0.0-6.0-0.28","FL","8vhxe9t9g0","1500","1000","en","ke05us31","null","","","","","","","","learning/Slide29.JPG","null","","","","",""
"","html-keyboard-response","92","284314","0.0-6.0-1.28","FL","8vhxe9t9g0","1500","1000","en","ke05us31","null","","","","learningBlock1","","","","That was a tob.","null","","","","",""
"","html-keyboard-response","93","285317","0.0-6.0-2.28","FL","8vhxe9t9g0","1500","1000","en","ke05us31","null","","","","learningBlock1","","","","<div style=""font-size:60px;""> </div>","null","FL","learning/Slide29.JPG","That was a tob.","",""
"","image-keyboard-response","94","285495","0.0-6.0-0.29","FL","8vhxe9t9g0","1500","1000","en","ke05us31","null","","","","","","","","learning/Slide30.JPG","null","","","","",""
"","html-keyboard-response","95","286649","0.0-6.0-1.29","FL","8vhxe9t9g0","1500","1000","en","ke05us31","null","","","","learningBlock1","","","","That was a dep.","null","","","","",""
"","html-keyboard-response","96","287653","0.0-6.0-2.29","FL","8vhxe9t9g0","1500","1000","en","ke05us31","null","","","","learningBlock1","","","","<div style=""font-size:60px;""> </div>","null","FL","learning/Slide30.JPG","That was a dep.","",""
"","image-keyboard-response","97","287830","0.0-6.0-0.30","FL","8vhxe9t9g0","1500","1000","en","ke05us31","null","","","","","","","","learning/Slide31.JPG","null","","","","",""
"","html-keyboard-response","98","288984","0.0-6.0-1.30","FL","8vhxe9t9g0","1500","1000","en","ke05us31","null","","","","learningBlock1","","","","That was a wug.","null","","","","",""
"","html-keyboard-response","99","289987","0.0-6.0-2.30","FL","8vhxe9t9g0","1500","1000","en","ke05us31","null","","","","learningBlock1","","","","<div style=""font-size:60px;""> </div>","null","FL","learning/Slide31.JPG","That was a wug.","",""
"","image-keyboard-response","100","290165","0.0-6.0-0.31","FL","8vhxe9t9g0","1500","1000","en","ke05us31","null","","","","","","","","learning/Slide32.JPG","null","","","","",""
"","html-keyboard-response","101","291317","0.0-6.0-1.31","FL","8vhxe9t9g0","1500","1000","en","ke05us31","null","","","","learningBlock1","","","","That was a tob.","null","","","","",""
"","html-keyboard-response","102","292320","0.0-6.0-2.31","FL","8vhxe9t9g0","1500","1000","en","ke05us31","null","","","","learningBlock1","","","","<div style=""font-size:60px;""> </div>","null","FL","learning/Slide32.JPG","That was a tob.","",""
"","image-keyboard-response","103","292497","0.0-6.0-0.32","FL","8vhxe9t9g0","1500","1000","en","ke05us31","null","","","","","","","","learning/Slide33.JPG","null","","","","",""
"","html-keyboard-response","104","293650","0.0-6.0-1.32","FL","8vhxe9t9g0","1500","1000","en","ke05us31","null","","","","learningBlock1","","","","That was a bim.","null","","","","",""
"","html-keyboard-response","105","294654","0.0-6.0-2.32","FL","8vhxe9t9g0","1500","1000","en","ke05us31","null","","","","learningBlock1","","","","<div style=""font-size:60px;""> </div>","null","FL","learning/Slide33.JPG","That was a bim.","",""
"","image-keyboard-response","106","294831","0.0-6.0-0.33","FL","8vhxe9t9g0","1500","1000","en","ke05us31","null","","","","","","","","learning/Slide34.JPG","null","","","","",""
"","html-keyboard-response","107","295985","0.0-6.0-1.33","FL","8vhxe9t9g0","1500","1000","en","ke05us31","null","","","","learningBlock1","","","","That was a tob.","null","","","","",""
"","html-keyboard-response","108","296988","0.0-6.0-2.33","FL","8vhxe9t9g0","1500","1000","en","ke05us31","null","","","","learningBlock1","","","","<div style=""font-size:60px;""> </div>","null","FL","learning/Slide34.JPG","That was a tob.","",""
"","image-keyboard-response","109","297166","0.0-6.0-0.34","FL","8vhxe9t9g0","1500","1000","en","ke05us31","null","","","","","","","","learning/Slide35.JPG","null","","","","",""
"","html-keyboard-response","110","298319","0.0-6.0-1.34","FL","8vhxe9t9g0","1500","1000","en","ke05us31","null","","","","learningBlock1","","","","That was a bim.","null","","","","",""
"","html-keyboard-response","111","299322","0.0-6.0-2.34","FL","8vhxe9t9g0","1500","1000","en","ke05us31","null","","","","learningBlock1","","","","<div style=""font-size:60px;""> </div>","null","FL","learning/Slide35.JPG","That was a bim.","",""
"","image-keyboard-response","112","299499","0.0-6.0-0.35","FL","8vhxe9t9g0","1500","1000","en","ke05us31","null","","","","","","","","learning/Slide36.JPG","null","","","","",""
"","html-keyboard-response","113","300651","0.0-6.0-1.35","FL","8vhxe9t9g0","1500","1000","en","ke05us31","null","","","","learningBlock1","","","","That was a dep.","null","","","","",""
"","html-keyboard-response","114","301654","0.0-6.0-2.35","FL","8vhxe9t9g0","1500","1000","en","ke05us31","null","","","","learningBlock1","","","","<div style=""font-size:60px;""> </div>","null","FL","learning/Slide36.JPG","That was a dep.","",""
"","image-keyboard-response","115","301832","0.0-6.0-0.36","FL","8vhxe9t9g0","1500","1000","en","ke05us31","null","","","","","","","","learning/Slide37.JPG","null","","","","",""
"","html-keyboard-response","116","302986","0.0-6.0-1.36","FL","8vhxe9t9g0","1500","1000","en","ke05us31","null","","","","learningBlock1","","","","That was a tob.","null","","","","",""
"","html-keyboard-response","117","303989","0.0-6.0-2.36","FL","8vhxe9t9g0","1500","1000","en","ke05us31","null","","","","learningBlock1","","","","<div style=""font-size:60px;""> </div>","null","FL","learning/Slide37.JPG","That was a tob.","",""
"","image-keyboard-response","118","304167","0.0-6.0-0.37","FL","8vhxe9t9g0","1500","1000","en","ke05us31","null","","","","","","","","learning/Slide38.JPG","null","","","","",""
"","html-keyboard-response","119","305319","0.0-6.0-1.37","FL","8vhxe9t9g0","1500","1000","en","ke05us31","null","","","","learningBlock1","","","","That was a wug.","null","","","","",""
"","html-keyboard-response","120","306322","0.0-6.0-2.37","FL","8vhxe9t9g0","1500","1000","en","ke05us31","null","","","","learningBlock1","","","","<div style=""font-size:60px;""> </div>","null","FL","learning/Slide38.JPG","That was a wug.","",""
"","image-keyboard-response","121","306500","0.0-6.0-0.38","FL","8vhxe9t9g0","1500","1000","en","ke05us31","null","","","","","","","","learning/Slide39.JPG","null","","","","",""
"","html-keyboard-response","122","307653","0.0-6.0-1.38","FL","8vhxe9t9g0","1500","1000","en","ke05us31","null","","","","learningBlock1","","","","That was a bim.","null","","","","",""
"","html-keyboard-response","123","308654","0.0-6.0-2.38","FL","8vhxe9t9g0","1500","1000","en","ke05us31","null","","","","learningBlock1","","","","<div style=""font-size:60px;""> </div>","null","FL","learning/Slide39.JPG","That was a bim.","",""
"","image-keyboard-response","124","308832","0.0-6.0-0.39","FL","8vhxe9t9g0","1500","1000","en","ke05us31","null","","","","","","","","learning/Slide40.JPG","null","","","","",""
"","html-keyboard-response","125","309985","0.0-6.0-1.39","FL","8vhxe9t9g0","1500","1000","en","ke05us31","null","","","","learningBlock1","","","","That was a tob.","null","","","","",""
"","html-keyboard-response","126","310988","0.0-6.0-2.39","FL","8vhxe9t9g0","1500","1000","en","ke05us31","null","","","","learningBlock1","","","","<div style=""font-size:60px;""> </div>","null","FL","learning/Slide40.JPG","That was a tob.","",""
"","image-keyboard-response","127","311165","0.0-6.0-0.40","FL","8vhxe9t9g0","1500","1000","en","ke05us31","null","","","","","","","","learning/Slide41.JPG","null","","","","",""
"","html-keyboard-response","128","312318","0.0-6.0-1.40","FL","8vhxe9t9g0","1500","1000","en","ke05us31","null","","","","learningBlock1","","","","That was a bim.","null","","","","",""
"","html-keyboard-response","129","313320","0.0-6.0-2.40","FL","8vhxe9t9g0","1500","1000","en","ke05us31","null","","","","learningBlock1","","","","<div style=""font-size:60px;""> </div>","null","FL","learning/Slide41.JPG","That was a bim.","",""
"","image-keyboard-response","130","313497","0.0-6.0-0.41","FL","8vhxe9t9g0","1500","1000","en","ke05us31","null","","","","","","","","learning/Slide42.JPG","null","","","","",""
"","html-keyboard-response","131","314649","0.0-6.0-1.41","FL","8vhxe9t9g0","1500","1000","en","ke05us31","null","","","","learningBlock1","","","","That was a dep.","null","","","","",""
"","html-keyboard-response","132","315652","0.0-6.0-2.41","FL","8vhxe9t9g0","1500","1000","en","ke05us31","null","","","","learningBlock1","","","","<div style=""font-size:60px;""> </div>","null","FL","learning/Slide42.JPG","That was a dep.","",""
"","image-keyboard-response","133","315829","0.0-6.0-0.42","FL","8vhxe9t9g0","1500","1000","en","ke05us31","null","","","","","","","","learning/Slide43.JPG","null","","","","",""
"","html-keyboard-response","134","316982","0.0-6.0-1.42","FL","8vhxe9t9g0","1500","1000","en","ke05us31","null","","","","learningBlock1","","","","That was a wug.","null","","","","",""
"","html-keyboard-response","135","317984","0.0-6.0-2.42","FL","8vhxe9t9g0","1500","1000","en","ke05us31","null","","","","learningBlock1","","","","<div style=""font-size:60px;""> </div>","null","FL","learning/Slide43.JPG","That was a wug.","",""
"","image-keyboard-response","136","318161","0.0-6.0-0.43","FL","8vhxe9t9g0","1500","1000","en","ke05us31","null","","","","","","","","learning/Slide44.JPG","null","","","","",""
"","html-keyboard-response","137","319313","0.0-6.0-1.43","FL","8vhxe9t9g0","1500","1000","en","ke05us31","null","","","","learningBlock1","","","","That was a bim.","null","","","","",""
"","html-keyboard-response","138","320317","0.0-6.0-2.43","FL","8vhxe9t9g0","1500","1000","en","ke05us31","null","","","","learningBlock1","","","","<div style=""font-size:60px;""> </div>","null","FL","learning/Slide44.JPG","That was a bim.","",""
"","image-keyboard-response","139","320495","0.0-6.0-0.44","FL","8vhxe9t9g0","1500","1000","en","ke05us31","null","","","","","","","","learning/Slide45.JPG","null","","","","",""
"","html-keyboard-response","140","321648","0.0-6.0-1.44","FL","8vhxe9t9g0","1500","1000","en","ke05us31","null","","","","learningBlock1","","","","That was a wug.","null","","","","",""
"","html-keyboard-response","141","322652","0.0-6.0-2.44","FL","8vhxe9t9g0","1500","1000","en","ke05us31","null","","","","learningBlock1","","","","<div style=""font-size:60px;""> </div>","null","FL","learning/Slide45.JPG","That was a wug.","",""
"","image-keyboard-response","142","322830","0.0-6.0-0.45","FL","8vhxe9t9g0","1500","1000","en","ke05us31","null","","","","","","","","learning/Slide46.JPG","null","","","","",""
"","html-keyboard-response","143","323983","0.0-6.0-1.45","FL","8vhxe9t9g0","1500","1000","en","ke05us31","null","","","","learningBlock1","","","","That was a dep.","null","","","","",""
"","html-keyboard-response","144","324988","0.0-6.0-2.45","FL","8vhxe9t9g0","1500","1000","en","ke05us31","null","","","","learningBlock1","","","","<div style=""font-size:60px;""> </div>","null","FL","learning/Slide46.JPG","That was a dep.","",""
"","image-keyboard-response","145","325165","0.0-6.0-0.46","FL","8vhxe9t9g0","1500","1000","en","ke05us31","null","","","","","","","","learning/Slide47.JPG","null","","","","",""
"","html-keyboard-response","146","326318","0.0-6.0-1.46","FL","8vhxe9t9g0","1500","1000","en","ke05us31","null","","","","learningBlock1","","","","That was a tob.","null","","","","",""
"","html-keyboard-response","147","327320","0.0-6.0-2.46","FL","8vhxe9t9g0","1500","1000","en","ke05us31","null","","","","learningBlock1","","","","<div style=""font-size:60px;""> </div>","null","FL","learning/Slide47.JPG","That was a tob.","",""
"","image-keyboard-response","148","327497","0.0-6.0-0.47","FL","8vhxe9t9g0","1500","1000","en","ke05us31","null","","","","","","","","learning/Slide48.JPG","null","","","","",""
"","html-keyboard-response","149","328650","0.0-6.0-1.47","FL","8vhxe9t9g0","1500","1000","en","ke05us31","null","","","","learningBlock1","","","","That was a bim.","null","","","","",""
"","html-keyboard-response","150","329653","0.0-6.0-2.47","FL","8vhxe9t9g0","1500","1000","en","ke05us31","null","","","","learningBlock1","","","","<div style=""font-size:60px;""> </div>","null","FL","learning/Slide48.JPG","That was a bim.","",""
"","image-keyboard-response","151","329831","0.0-6.0-0.48","FL","8vhxe9t9g0","1500","1000","en","ke05us31","null","","","","","","","","learning/Slide49.JPG","null","","","","",""
"","html-keyboard-response","152","330986","0.0-6.0-1.48","FL","8vhxe9t9g0","1500","1000","en","ke05us31","null","","","","learningBlock1","","","","That was a dep.","null","","","","",""
"","html-keyboard-response","153","331989","0.0-6.0-2.48","FL","8vhxe9t9g0","1500","1000","en","ke05us31","null","","","","learningBlock1","","","","<div style=""font-size:60px;""> </div>","null","FL","learning/Slide49.JPG","That was a dep.","",""
"","image-keyboard-response","154","332166","0.0-6.0-0.49","FL","8vhxe9t9g0","1500","1000","en","ke05us31","null","","","","","","","","learning/Slide50.JPG","null","","","","",""
"","html-keyboard-response","155","333319","0.0-6.0-1.49","FL","8vhxe9t9g0","1500","1000","en","ke05us31","null","","","","learningBlock1","","","","That was a tob.","null","","","","",""
"","html-keyboard-response","156","334322","0.0-6.0-2.49","FL","8vhxe9t9g0","1500","1000","en","ke05us31","null","","","","learningBlock1","","","","<div style=""font-size:60px;""> </div>","null","FL","learning/Slide50.JPG","That was a tob.","",""
"","image-keyboard-response","157","334500","0.0-6.0-0.50","FL","8vhxe9t9g0","1500","1000","en","ke05us31","null","","","","","","","","learning/Slide51.JPG","null","","","","",""
"","html-keyboard-response","158","335654","0.0-6.0-1.50","FL","8vhxe9t9g0","1500","1000","en","ke05us31","null","","","","learningBlock1","","","","That was a bim.","null","","","","",""
"","html-keyboard-response","159","336655","0.0-6.0-2.50","FL","8vhxe9t9g0","1500","1000","en","ke05us31","null","","","","learningBlock1","","","","<div style=""font-size:60px;""> </div>","null","FL","learning/Slide51.JPG","That was a bim.","",""
"","image-keyboard-response","160","336833","0.0-6.0-0.51","FL","8vhxe9t9g0","1500","1000","en","ke05us31","null","","","","","","","","learning/Slide52.JPG","null","","","","",""
"","html-keyboard-response","161","337988","0.0-6.0-1.51","FL","8vhxe9t9g0","1500","1000","en","ke05us31","null","","","","learningBlock1","","","","That was a wug.","null","","","","",""
"","html-keyboard-response","162","338992","0.0-6.0-2.51","FL","8vhxe9t9g0","1500","1000","en","ke05us31","null","","","","learningBlock1","","","","<div style=""font-size:60px;""> </div>","null","FL","learning/Slide52.JPG","That was a wug.","",""
"","image-keyboard-response","163","339171","0.0-6.0-0.52","FL","8vhxe9t9g0","1500","1000","en","ke05us31","null","","","","","","","","learning/Slide53.JPG","null","","","","",""
"","html-keyboard-response","164","340323","0.0-6.0-1.52","FL","8vhxe9t9g0","1500","1000","en","ke05us31","null","","","","learningBlock1","","","","That was a tob.","null","","","","",""
"","html-keyboard-response","165","341326","0.0-6.0-2.52","FL","8vhxe9t9g0","1500","1000","en","ke05us31","null","","","","learningBlock1","","","","<div style=""font-size:60px;""> </div>","null","FL","learning/Slide53.JPG","That was a tob.","",""
"","image-keyboard-response","166","341506","0.0-6.0-0.53","FL","8vhxe9t9g0","1500","1000","en","ke05us31","null","","","","","","","","learning/Slide54.JPG","null","","","","",""
"","html-keyboard-response","167","342658","0.0-6.0-1.53","FL","8vhxe9t9g0","1500","1000","en","ke05us31","null","","","","learningBlock1","","","","That was a dep.","null","","","","",""
"","html-keyboard-response","168","343660","0.0-6.0-2.53","FL","8vhxe9t9g0","1500","1000","en","ke05us31","null","","","","learningBlock1","","","","<div style=""font-size:60px;""> </div>","null","FL","learning/Slide54.JPG","That was a dep.","",""
"","image-keyboard-response","169","343838","0.0-6.0-0.54","FL","8vhxe9t9g0","1500","1000","en","ke05us31","null","","","","","","","","learning/Slide55.JPG","null","","","","",""
"","html-keyboard-response","170","344991","0.0-6.0-1.54","FL","8vhxe9t9g0","1500","1000","en","ke05us31","null","","","","learningBlock1","","","","That was a bim.","null","","","","",""
"","html-keyboard-response","171","345993","0.0-6.0-2.54","FL","8vhxe9t9g0","1500","1000","en","ke05us31","null","","","","learningBlock1","","","","<div style=""font-size:60px;""> </div>","null","FL","learning/Slide55.JPG","That was a bim.","",""
"","image-keyboard-response","172","346172","0.0-6.0-0.55","FL","8vhxe9t9g0","1500","1000","en","ke05us31","null","","","","","","","","learning/Slide56.JPG","null","","","","",""
"","html-keyboard-response","173","347326","0.0-6.0-1.55","FL","8vhxe9t9g0","1500","1000","en","ke05us31","null","","","","learningBlock1","","","","That was a tob.","null","","","","",""
"","html-keyboard-response","174","348328","0.0-6.0-2.55","FL","8vhxe9t9g0","1500","1000","en","ke05us31","null","","","","learningBlock1","","","","<div style=""font-size:60px;""> </div>","null","FL","learning/Slide56.JPG","That was a tob.","",""
"","image-keyboard-response","175","348505","0.0-6.0-0.56","FL","8vhxe9t9g0","1500","1000","en","ke05us31","null","","","","","","","","learning/Slide57.JPG","null","","","","",""
"","html-keyboard-response","176","349659","0.0-6.0-1.56","FL","8vhxe9t9g0","1500","1000","en","ke05us31","null","","","","learningBlock1","","","","That was a dep.","null","","","","",""
"","html-keyboard-response","177","350661","0.0-6.0-2.56","FL","8vhxe9t9g0","1500","1000","en","ke05us31","null","","","","learningBlock1","","","","<div style=""font-size:60px;""> </div>","null","FL","learning/Slide57.JPG","That was a dep.","",""
"","image-keyboard-response","178","350838","0.0-6.0-0.57","FL","8vhxe9t9g0","1500","1000","en","ke05us31","null","","","","","","","","learning/Slide58.JPG","null","","","","",""
"","html-keyboard-response","179","351992","0.0-6.0-1.57","FL","8vhxe9t9g0","1500","1000","en","ke05us31","null","","","","learningBlock1","","","","That was a wug.","null","","","","",""
"","html-keyboard-response","180","352994","0.0-6.0-2.57","FL","8vhxe9t9g0","1500","1000","en","ke05us31","null","","","","learningBlock1","","","","<div style=""font-size:60px;""> </div>","null","FL","learning/Slide58.JPG","That was a wug.","",""
"","image-keyboard-response","181","353172","0.0-6.0-0.58","FL","8vhxe9t9g0","1500","1000","en","ke05us31","null","","","","","","","","learning/Slide59.JPG","null","","","","",""
"","html-keyboard-response","182","354326","0.0-6.0-1.58","FL","8vhxe9t9g0","1500","1000","en","ke05us31","null","","","","learningBlock1","","","","That was a dep.","null","","","","",""
"","html-keyboard-response","183","355328","0.0-6.0-2.58","FL","8vhxe9t9g0","1500","1000","en","ke05us31","null","","","","learningBlock1","","","","<div style=""font-size:60px;""> </div>","null","FL","learning/Slide59.JPG","That was a dep.","",""
"","image-keyboard-response","184","355506","0.0-6.0-0.59","FL","8vhxe9t9g0","1500","1000","en","ke05us31","null","","","","","","","","learning/Slide60.JPG","null","","","","",""
"","html-keyboard-response","185","356658","0.0-6.0-1.59","FL","8vhxe9t9g0","1500","1000","en","ke05us31","null","","","","learningBlock1","","","","That was a wug.","null","","","","",""
"","html-keyboard-response","186","357660","0.0-6.0-2.59","FL","8vhxe9t9g0","1500","1000","en","ke05us31","null","","","","learningBlock1","","","","<div style=""font-size:60px;""> </div>","null","FL","learning/Slide60.JPG","That was a wug.","",""
"","image-keyboard-response","187","357837","0.0-6.0-0.60","FL","8vhxe9t9g0","1500","1000","en","ke05us31","null","","","","","","","","learning/Slide61.JPG","null","","","","",""
"","html-keyboard-response","188","358990","0.0-6.0-1.60","FL","8vhxe9t9g0","1500","1000","en","ke05us31","null","","","","learningBlock1","","","","That was a bim.","null","","","","",""
"","html-keyboard-response","189","359993","0.0-6.0-2.60","FL","8vhxe9t9g0","1500","1000","en","ke05us31","null","","","","learningBlock1","","","","<div style=""font-size:60px;""> </div>","null","FL","learning/Slide61.JPG","That was a bim.","",""
"","image-keyboard-response","190","360171","0.0-6.0-0.61","FL","8vhxe9t9g0","1500","1000","en","ke05us31","null","","","","","","","","learning/Slide62.JPG","null","","","","",""
"","html-keyboard-response","191","361323","0.0-6.0-1.61","FL","8vhxe9t9g0","1500","1000","en","ke05us31","null","","","","learningBlock1","","","","That was a dep.","null","","","","",""
"","html-keyboard-response","192","362326","0.0-6.0-2.61","FL","8vhxe9t9g0","1500","1000","en","ke05us31","null","","","","learningBlock1","","","","<div style=""font-size:60px;""> </div>","null","FL","learning/Slide62.JPG","That was a dep.","",""
"","image-keyboard-response","193","362502","0.0-6.0-0.62","FL","8vhxe9t9g0","1500","1000","en","ke05us31","null","","","","","","","","learning/Slide63.JPG","null","","","","",""
"","html-keyboard-response","194","363655","0.0-6.0-1.62","FL","8vhxe9t9g0","1500","1000","en","ke05us31","null","","","","learningBlock1","","","","That was a bim.","null","","","","",""
"","html-keyboard-response","195","364657","0.0-6.0-2.62","FL","8vhxe9t9g0","1500","1000","en","ke05us31","null","","","","learningBlock1","","","","<div style=""font-size:60px;""> </div>","null","FL","learning/Slide63.JPG","That was a bim.","",""
"","image-keyboard-response","196","364835","0.0-6.0-0.63","FL","8vhxe9t9g0","1500","1000","en","ke05us31","null","","","","","","","","learning/Slide64.JPG","null","","","","",""
"","html-keyboard-response","197","365989","0.0-6.0-1.63","FL","8vhxe9t9g0","1500","1000","en","ke05us31","null","","","","learningBlock1","","","","That was a tob.","null","","","","",""
"","html-keyboard-response","198","366991","0.0-6.0-2.63","FL","8vhxe9t9g0","1500","1000","en","ke05us31","null","","","","learningBlock1","","","","<div style=""font-size:60px;""> </div>","null","FL","learning/Slide64.JPG","That was a tob.","",""
"","image-keyboard-response","199","367168","0.0-6.0-0.64","FL","8vhxe9t9g0","1500","1000","en","ke05us31","null","","","","","","","","learning/Slide65.JPG","null","","","","",""
"","html-keyboard-response","200","368322","0.0-6.0-1.64","FL","8vhxe9t9g0","1500","1000","en","ke05us31","null","","","","learningBlock1","","","","That was a wug.","null","","","","",""
"","html-keyboard-response","201","369324","0.0-6.0-2.64","FL","8vhxe9t9g0","1500","1000","en","ke05us31","null","","","","learningBlock1","","","","<div style=""font-size:60px;""> </div>","null","FL","learning/Slide65.JPG","That was a wug.","",""
"","image-keyboard-response","202","369503","0.0-6.0-0.65","FL","8vhxe9t9g0","1500","1000","en","ke05us31","null","","","","","","","","learning/Slide66.JPG","null","","","","",""
"","html-keyboard-response","203","370656","0.0-6.0-1.65","FL","8vhxe9t9g0","1500","1000","en","ke05us31","null","","","","learningBlock1","","","","That was a dep.","null","","","","",""
"","html-keyboard-response","204","371659","0.0-6.0-2.65","FL","8vhxe9t9g0","1500","1000","en","ke05us31","null","","","","learningBlock1","","","","<div style=""font-size:60px;""> </div>","null","FL","learning/Slide66.JPG","That was a dep.","",""
"","image-keyboard-response","205","371836","0.0-6.0-0.66","FL","8vhxe9t9g0","1500","1000","en","ke05us31","null","","","","","","","","learning/Slide67.JPG","null","","","","",""
"","html-keyboard-response","206","372988","0.0-6.0-1.66","FL","8vhxe9t9g0","1500","1000","en","ke05us31","null","","","","learningBlock1","","","","That was a tob.","null","","","","",""
"","html-keyboard-response","207","373991","0.0-6.0-2.66","FL","8vhxe9t9g0","1500","1000","en","ke05us31","null","","","","learningBlock1","","","","<div style=""font-size:60px;""> </div>","null","FL","learning/Slide67.JPG","That was a tob.","",""
"","image-keyboard-response","208","374168","0.0-6.0-0.67","FL","8vhxe9t9g0","1500","1000","en","ke05us31","null","","","","","","","","learning/Slide68.JPG","null","","","","",""
"","html-keyboard-response","209","375322","0.0-6.0-1.67","FL","8vhxe9t9g0","1500","1000","en","ke05us31","null","","","","learningBlock1","","","","That was a wug.","null","","","","",""
"","html-keyboard-response","210","376325","0.0-6.0-2.67","FL","8vhxe9t9g0","1500","1000","en","ke05us31","null","","","","learningBlock1","","","","<div style=""font-size:60px;""> </div>","null","FL","learning/Slide68.JPG","That was a wug.","",""
"","image-keyboard-response","211","376502","0.0-6.0-0.68","FL","8vhxe9t9g0","1500","1000","en","ke05us31","null","","","","","","","","learning/Slide69.JPG","null","","","","",""
"","html-keyboard-response","212","377655","0.0-6.0-1.68","FL","8vhxe9t9g0","1500","1000","en","ke05us31","null","","","","learningBlock1","","","","That was a tob.","null","","","","",""
"","html-keyboard-response","213","378657","0.0-6.0-2.68","FL","8vhxe9t9g0","1500","1000","en","ke05us31","null","","","","learningBlock1","","","","<div style=""font-size:60px;""> </div>","null","FL","learning/Slide69.JPG","That was a tob.","",""
"","image-keyboard-response","214","378835","0.0-6.0-0.69","FL","8vhxe9t9g0","1500","1000","en","ke05us31","null","","","","","","","","learning/Slide70.JPG","null","","","","",""
"","html-keyboard-response","215","379987","0.0-6.0-1.69","FL","8vhxe9t9g0","1500","1000","en","ke05us31","null","","","","learningBlock1","","","","That was a dep.","null","","","","",""
"","html-keyboard-response","216","380990","0.0-6.0-2.69","FL","8vhxe9t9g0","1500","1000","en","ke05us31","null","","","","learningBlock1","","","","<div style=""font-size:60px;""> </div>","null","FL","learning/Slide70.JPG","That was a dep.","",""
"","image-keyboard-response","217","381168","0.0-6.0-0.70","FL","8vhxe9t9g0","1500","1000","en","ke05us31","null","","","","","","","","learning/Slide71.JPG","null","","","","",""
"","html-keyboard-response","218","382322","0.0-6.0-1.70","FL","8vhxe9t9g0","1500","1000","en","ke05us31","null","","","","learningBlock1","","","","That was a wug.","null","","","","",""
"","html-keyboard-response","219","383324","0.0-6.0-2.70","FL","8vhxe9t9g0","1500","1000","en","ke05us31","null","","","","learningBlock1","","","","<div style=""font-size:60px;""> </div>","null","FL","learning/Slide71.JPG","That was a wug.","",""
"","image-keyboard-response","220","383501","0.0-6.0-0.71","FL","8vhxe9t9g0","1500","1000","en","ke05us31","null","","","","","","","","learning/Slide72.JPG","null","","","","",""
"","html-keyboard-response","221","384654","0.0-6.0-1.71","FL","8vhxe9t9g0","1500","1000","en","ke05us31","null","","","","learningBlock1","","","","That was a bim.","null","","","","",""
"","html-keyboard-response","222","385656","0.0-6.0-2.71","FL","8vhxe9t9g0","1500","1000","en","ke05us31","null","","","","learningBlock1","","","","<div style=""font-size:60px;""> </div>","null","FL","learning/Slide72.JPG","That was a bim.","",""
"","image-keyboard-response","223","385834","0.0-6.0-0.72","FL","8vhxe9t9g0","1500","1000","en","ke05us31","null","","","","","","","","learning/Slide73.JPG","null","","","","",""
"","html-keyboard-response","224","386987","0.0-6.0-1.72","FL","8vhxe9t9g0","1500","1000","en","ke05us31","null","","","","learningBlock1","","","","That was a wug.","null","","","","",""
"","html-keyboard-response","225","387991","0.0-6.0-2.72","FL","8vhxe9t9g0","1500","1000","en","ke05us31","null","","","","learningBlock1","","","","<div style=""font-size:60px;""> </div>","null","FL","learning/Slide73.JPG","That was a wug.","",""
"","image-keyboard-response","226","388168","0.0-6.0-0.73","FL","8vhxe9t9g0","1500","1000","en","ke05us31","null","","","","","","","","learning/Slide74.JPG","null","","","","",""
"","html-keyboard-response","227","389322","0.0-6.0-1.73","FL","8vhxe9t9g0","1500","1000","en","ke05us31","null","","","","learningBlock1","","","","That was a dep.","null","","","","",""
"","html-keyboard-response","228","390324","0.0-6.0-2.73","FL","8vhxe9t9g0","1500","1000","en","ke05us31","null","","","","learningBlock1","","","","<div style=""font-size:60px;""> </div>","null","FL","learning/Slide74.JPG","That was a dep.","",""
"","image-keyboard-response","229","390502","0.0-6.0-0.74","FL","8vhxe9t9g0","1500","1000","en","ke05us31","null","","","","","","","","learning/Slide75.JPG","null","","","","",""
"","html-keyboard-response","230","391654","0.0-6.0-1.74","FL","8vhxe9t9g0","1500","1000","en","ke05us31","null","","","","learningBlock1","","","","That was a tob.","null","","","","",""
"","html-keyboard-response","231","392656","0.0-6.0-2.74","FL","8vhxe9t9g0","1500","1000","en","ke05us31","null","","","","learningBlock1","","","","<div style=""font-size:60px;""> </div>","null","FL","learning/Slide75.JPG","That was a tob.","",""
"","image-keyboard-response","232","392834","0.0-6.0-0.75","FL","8vhxe9t9g0","1500","1000","en","ke05us31","null","","","","","","","","learning/Slide76.JPG","null","","","","",""
"","html-keyboard-response","233","393987","0.0-6.0-1.75","FL","8vhxe9t9g0","1500","1000","en","ke05us31","null","","","","learningBlock1","","","","That was a bim.","null","","","","",""
"","html-keyboard-response","234","394990","0.0-6.0-2.75","FL","8vhxe9t9g0","1500","1000","en","ke05us31","null","","","","learningBlock1","","","","<div style=""font-size:60px;""> </div>","null","FL","learning/Slide76.JPG","That was a bim.","",""
"","image-keyboard-response","235","395168","0.0-6.0-0.76","FL","8vhxe9t9g0","1500","1000","en","ke05us31","null","","","","","","","","learning/Slide77.JPG","null","","","","",""
"","html-keyboard-response","236","396320","0.0-6.0-1.76","FL","8vhxe9t9g0","1500","1000","en","ke05us31","null","","","","learningBlock1","","","","That was a tob.","null","","","","",""
"","html-keyboard-response","237","397323","0.0-6.0-2.76","FL","8vhxe9t9g0","1500","1000","en","ke05us31","null","","","","learningBlock1","","","","<div style=""font-size:60px;""> </div>","null","FL","learning/Slide77.JPG","That was a tob.","",""
"","image-keyboard-response","238","397501","0.0-6.0-0.77","FL","8vhxe9t9g0","1500","1000","en","ke05us31","null","","","","","","","","learning/Slide78.JPG","null","","","","",""
"","html-keyboard-response","239","398654","0.0-6.0-1.77","FL","8vhxe9t9g0","1500","1000","en","ke05us31","null","","","","learningBlock1","","","","That was a wug.","null","","","","",""
"","html-keyboard-response","240","399657","0.0-6.0-2.77","FL","8vhxe9t9g0","1500","1000","en","ke05us31","null","","","","learningBlock1","","","","<div style=""font-size:60px;""> </div>","null","FL","learning/Slide78.JPG","That was a wug.","",""
"","image-keyboard-response","241","399836","0.0-6.0-0.78","FL","8vhxe9t9g0","1500","1000","en","ke05us31","null","","","","","","","","learning/Slide79.JPG","null","","","","",""
"","html-keyboard-response","242","400990","0.0-6.0-1.78","FL","8vhxe9t9g0","1500","1000","en","ke05us31","null","","","","learningBlock1","","","","That was a bim.","null","","","","",""
"","html-keyboard-response","243","401994","0.0-6.0-2.78","FL","8vhxe9t9g0","1500","1000","en","ke05us31","null","","","","learningBlock1","","","","<div style=""font-size:60px;""> </div>","null","FL","learning/Slide79.JPG","That was a bim.","",""
"","image-keyboard-response","244","402171","0.0-6.0-0.79","FL","8vhxe9t9g0","1500","1000","en","ke05us31","null","","","","","","","","learning/Slide80.JPG","null","","","","",""
"","html-keyboard-response","245","403323","0.0-6.0-1.79","FL","8vhxe9t9g0","1500","1000","en","ke05us31","null","","","","learningBlock1","","","","That was a tob.","null","","","","",""
"","html-keyboard-response","246","404326","0.0-6.0-2.79","FL","8vhxe9t9g0","1500","1000","en","ke05us31","null","","","","learningBlock1","","","","<div style=""font-size:60px;""> </div>","null","FL","learning/Slide80.JPG","That was a tob.","",""
"","instructions","247","416404","0.0-7.0","FL","8vhxe9t9g0","1500","1000","en","ke05us31","NA","","","[{""page_index"":0,""viewing_time"":12075.769999995828}]","instructions","","","","","","","","","",""
"","image-keyboard-response","248","416583","0.0-8.0-0.0","FL","8vhxe9t9g0","1500","1000","en","ke05us31","null","","","","","","","","learning/Slide81.JPG","null","","","","",""
"","html-keyboard-response","249","417735","0.0-8.0-1.0","FL","8vhxe9t9g0","1500","1000","en","ke05us31","null","","","","learningBlock2","","","","That was a wug.","null","","","","",""
"","html-keyboard-response","250","418738","0.0-8.0-2.0","FL","8vhxe9t9g0","1500","1000","en","ke05us31","null","","","","learningBlock2","","","","<div style=""font-size:60px;""> </div>","null","FL","learning/Slide81.JPG","That was a wug.","",""
"","image-keyboard-response","251","418916","0.0-8.0-0.1","FL","8vhxe9t9g0","1500","1000","en","ke05us31","null","","","","","","","","learning/Slide82.JPG","null","","","","",""
"","html-keyboard-response","252","420068","0.0-8.0-1.1","FL","8vhxe9t9g0","1500","1000","en","ke05us31","null","","","","learningBlock2","","","","That was a bim.","null","","","","",""
"","html-keyboard-response","253","421070","0.0-8.0-2.1","FL","8vhxe9t9g0","1500","1000","en","ke05us31","null","","","","learningBlock2","","","","<div style=""font-size:60px;""> </div>","null","FL","learning/Slide82.JPG","That was a bim.","",""
"","image-keyboard-response","254","421248","0.0-8.0-0.2","FL","8vhxe9t9g0","1500","1000","en","ke05us31","null","","","","","","","","learning/Slide83.JPG","null","","","","",""
"","html-keyboard-response","255","422403","0.0-8.0-1.2","FL","8vhxe9t9g0","1500","1000","en","ke05us31","null","","","","learningBlock2","","","","That was a wug.","null","","","","",""
"","html-keyboard-response","256","423406","0.0-8.0-2.2","FL","8vhxe9t9g0","1500","1000","en","ke05us31","null","","","","learningBlock2","","","","<div style=""font-size:60px;""> </div>","null","FL","learning/Slide83.JPG","That was a wug.","",""
"","image-keyboard-response","257","423583","0.0-8.0-0.3","FL","8vhxe9t9g0","1500","1000","en","ke05us31","null","","","","","","","","learning/Slide84.JPG","null","","","","",""
"","html-keyboard-response","258","424736","0.0-8.0-1.3","FL","8vhxe9t9g0","1500","1000","en","ke05us31","null","","","","learningBlock2","","","","That was a dep.","null","","","","",""
"","html-keyboard-response","259","425739","0.0-8.0-2.3","FL","8vhxe9t9g0","1500","1000","en","ke05us31","null","","","","learningBlock2","","","","<div style=""font-size:60px;""> </div>","null","FL","learning/Slide84.JPG","That was a dep.","",""
"","image-keyboard-response","260","425917","0.0-8.0-0.4","FL","8vhxe9t9g0","1500","1000","en","ke05us31","null","","","","","","","","learning/Slide85.JPG","null","","","","",""
"","html-keyboard-response","261","427069","0.0-8.0-1.4","FL","8vhxe9t9g0","1500","1000","en","ke05us31","null","","","","learningBlock2","","","","That was a bim.","null","","","","",""
"","html-keyboard-response","262","428071","0.0-8.0-2.4","FL","8vhxe9t9g0","1500","1000","en","ke05us31","null","","","","learningBlock2","","","","<div style=""font-size:60px;""> </div>","null","FL","learning/Slide85.JPG","That was a bim.","",""
"","image-keyboard-response","263","428248","0.0-8.0-0.5","FL","8vhxe9t9g0","1500","1000","en","ke05us31","null","","","","","","","","learning/Slide86.JPG","null","","","","",""
"","html-keyboard-response","264","429401","0.0-8.0-1.5","FL","8vhxe9t9g0","1500","1000","en","ke05us31","null","","","","learningBlock2","","","","That was a tob.","null","","","","",""
"","html-keyboard-response","265","430405","0.0-8.0-2.5","FL","8vhxe9t9g0","1500","1000","en","ke05us31","null","","","","learningBlock2","","","","<div style=""font-size:60px;""> </div>","null","FL","learning/Slide86.JPG","That was a tob.","",""
"","image-keyboard-response","266","430582","0.0-8.0-0.6","FL","8vhxe9t9g0","1500","1000","en","ke05us31","null","","","","","","","","learning/Slide87.JPG","null","","","","",""
"","html-keyboard-response","267","431734","0.0-8.0-1.6","FL","8vhxe9t9g0","1500","1000","en","ke05us31","null","","","","learningBlock2","","","","That was a wug.","null","","","","",""
"","html-keyboard-response","268","432737","0.0-8.0-2.6","FL","8vhxe9t9g0","1500","1000","en","ke05us31","null","","","","learningBlock2","","","","<div style=""font-size:60px;""> </div>","null","FL","learning/Slide87.JPG","That was a wug.","",""
"","image-keyboard-response","269","432915","0.0-8.0-0.7","FL","8vhxe9t9g0","1500","1000","en","ke05us31","null","","","","","","","","learning/Slide88.JPG","null","","","","",""
"","html-keyboard-response","270","434068","0.0-8.0-1.7","FL","8vhxe9t9g0","1500","1000","en","ke05us31","null","","","","learningBlock2","","","","That was a tob.","null","","","","",""
"","html-keyboard-response","271","435071","0.0-8.0-2.7","FL","8vhxe9t9g0","1500","1000","en","ke05us31","null","","","","learningBlock2","","","","<div style=""font-size:60px;""> </div>","null","FL","learning/Slide88.JPG","That was a tob.","",""
"","image-keyboard-response","272","435249","0.0-8.0-0.8","FL","8vhxe9t9g0","1500","1000","en","ke05us31","null","","","","","","","","learning/Slide89.JPG","null","","","","",""
"","html-keyboard-response","273","436401","0.0-8.0-1.8","FL","8vhxe9t9g0","1500","1000","en","ke05us31","null","","","","learningBlock2","","","","That was a bim.","null","","","","",""
"","html-keyboard-response","274","437404","0.0-8.0-2.8","FL","8vhxe9t9g0","1500","1000","en","ke05us31","null","","","","learningBlock2","","","","<div style=""font-size:60px;""> </div>","null","FL","learning/Slide89.JPG","That was a bim.","",""
"","image-keyboard-response","275","437581","0.0-8.0-0.9","FL","8vhxe9t9g0","1500","1000","en","ke05us31","null","","","","","","","","learning/Slide90.JPG","null","","","","",""
"","html-keyboard-response","276","438734","0.0-8.0-1.9","FL","8vhxe9t9g0","1500","1000","en","ke05us31","null","","","","learningBlock2","","","","That was a dep.","null","","","","",""
"","html-keyboard-response","277","439736","0.0-8.0-2.9","FL","8vhxe9t9g0","1500","1000","en","ke05us31","null","","","","learningBlock2","","","","<div style=""font-size:60px;""> </div>","null","FL","learning/Slide90.JPG","That was a dep.","",""
"","image-keyboard-response","278","439913","0.0-8.0-0.10","FL","8vhxe9t9g0","1500","1000","en","ke05us31","null","","","","","","","","learning/Slide91.JPG","null","","","","",""
"","html-keyboard-response","279","441066","0.0-8.0-1.10","FL","8vhxe9t9g0","1500","1000","en","ke05us31","null","","","","learningBlock2","","","","That was a wug.","null","","","","",""
"","html-keyboard-response","280","442068","0.0-8.0-2.10","FL","8vhxe9t9g0","1500","1000","en","ke05us31","null","","","","learningBlock2","","","","<div style=""font-size:60px;""> </div>","null","FL","learning/Slide91.JPG","That was a wug.","",""
"","image-keyboard-response","281","442245","0.0-8.0-0.11","FL","8vhxe9t9g0","1500","1000","en","ke05us31","null","","","","","","","","learning/Slide92.JPG","null","","","","",""
"","html-keyboard-response","282","443398","0.0-8.0-1.11","FL","8vhxe9t9g0","1500","1000","en","ke05us31","null","","","","learningBlock2","","","","That was a tob.","null","","","","",""
"","html-keyboard-response","283","444401","0.0-8.0-2.11","FL","8vhxe9t9g0","1500","1000","en","ke05us31","null","","","","learningBlock2","","","","<div style=""font-size:60px;""> </div>","null","FL","learning/Slide92.JPG","That was a tob.","",""
"","image-keyboard-response","284","444578","0.0-8.0-0.12","FL","8vhxe9t9g0","1500","1000","en","ke05us31","null","","","","","","","","learning/Slide93.JPG","null","","","","",""
"","html-keyboard-response","285","445732","0.0-8.0-1.12","FL","8vhxe9t9g0","1500","1000","en","ke05us31","null","","","","learningBlock2","","","","That was a bim.","null","","","","",""
"","html-keyboard-response","286","446735","0.0-8.0-2.12","FL","8vhxe9t9g0","1500","1000","en","ke05us31","null","","","","learningBlock2","","","","<div style=""font-size:60px;""> </div>","null","FL","learning/Slide93.JPG","That was a bim.","",""
"","image-keyboard-response","287","446913","0.0-8.0-0.13","FL","8vhxe9t9g0","1500","1000","en","ke05us31","null","","","","","","","","learning/Slide94.JPG","null","","","","",""
"","html-keyboard-response","288","448066","0.0-8.0-1.13","FL","8vhxe9t9g0","1500","1000","en","ke05us31","null","","","","learningBlock2","","","","That was a tob.","null","","","","",""
"","html-keyboard-response","289","449069","0.0-8.0-2.13","FL","8vhxe9t9g0","1500","1000","en","ke05us31","null","","","","learningBlock2","","","","<div style=""font-size:60px;""> </div>","null","FL","learning/Slide94.JPG","That was a tob.","",""
"","image-keyboard-response","290","449246","0.0-8.0-0.14","FL","8vhxe9t9g0","1500","1000","en","ke05us31","null","","","","","","","","learning/Slide95.JPG","null","","","","",""
"","html-keyboard-response","291","450400","0.0-8.0-1.14","FL","8vhxe9t9g0","1500","1000","en","ke05us31","null","","","","learningBlock2","","","","That was a wug.","null","","","","",""
"","html-keyboard-response","292","451402","0.0-8.0-2.14","FL","8vhxe9t9g0","1500","1000","en","ke05us31","null","","","","learningBlock2","","","","<div style=""font-size:60px;""> </div>","null","FL","learning/Slide95.JPG","That was a wug.","",""
"","image-keyboard-response","293","451580","0.0-8.0-0.15","FL","8vhxe9t9g0","1500","1000","en","ke05us31","null","","","","","","","","learning/Slide96.JPG","null","","","","",""
"","html-keyboard-response","294","452734","0.0-8.0-1.15","FL","8vhxe9t9g0","1500","1000","en","ke05us31","null","","","","learningBlock2","","","","That was a tob.","null","","","","",""
"","html-keyboard-response","295","453736","0.0-8.0-2.15","FL","8vhxe9t9g0","1500","1000","en","ke05us31","null","","","","learningBlock2","","","","<div style=""font-size:60px;""> </div>","null","FL","learning/Slide96.JPG","That was a tob.","",""
"","image-keyboard-response","296","453914","0.0-8.0-0.16","FL","8vhxe9t9g0","1500","1000","en","ke05us31","null","","","","","","","","learning/Slide97.JPG","null","","","","",""
"","html-keyboard-response","297","455066","0.0-8.0-1.16","FL","8vhxe9t9g0","1500","1000","en","ke05us31","null","","","","learningBlock2","","","","That was a dep.","null","","","","",""
"","html-keyboard-response","298","456069","0.0-8.0-2.16","FL","8vhxe9t9g0","1500","1000","en","ke05us31","null","","","","learningBlock2","","","","<div style=""font-size:60px;""> </div>","null","FL","learning/Slide97.JPG","That was a dep.","",""
"","image-keyboard-response","299","456247","0.0-8.0-0.17","FL","8vhxe9t9g0","1500","1000","en","ke05us31","null","","","","","","","","learning/Slide98.JPG","null","","","","",""
"","html-keyboard-response","300","457400","0.0-8.0-1.17","FL","8vhxe9t9g0","1500","1000","en","ke05us31","null","","","","learningBlock2","","","","That was a bim.","null","","","","",""
"","html-keyboard-response","301","458403","0.0-8.0-2.17","FL","8vhxe9t9g0","1500","1000","en","ke05us31","null","","","","learningBlock2","","","","<div style=""font-size:60px;""> </div>","null","FL","learning/Slide98.JPG","That was a bim.","",""
"","image-keyboard-response","302","458582","0.0-8.0-0.18","FL","8vhxe9t9g0","1500","1000","en","ke05us31","null","","","","","","","","learning/Slide99.JPG","null","","","","",""
"","html-keyboard-response","303","459734","0.0-8.0-1.18","FL","8vhxe9t9g0","1500","1000","en","ke05us31","null","","","","learningBlock2","","","","That was a dep.","null","","","","",""
"","html-keyboard-response","304","460738","0.0-8.0-2.18","FL","8vhxe9t9g0","1500","1000","en","ke05us31","null","","","","learningBlock2","","","","<div style=""font-size:60px;""> </div>","null","FL","learning/Slide99.JPG","That was a dep.","",""
"","image-keyboard-response","305","460914","0.0-8.0-0.19","FL","8vhxe9t9g0","1500","1000","en","ke05us31","null","","","","","","","","learning/Slide100.JPG","null","","","","",""
"","html-keyboard-response","306","462068","0.0-8.0-1.19","FL","8vhxe9t9g0","1500","1000","en","ke05us31","null","","","","learningBlock2","","","","That was a bim.","null","","","","",""
"","html-keyboard-response","307","463071","0.0-8.0-2.19","FL","8vhxe9t9g0","1500","1000","en","ke05us31","null","","","","learningBlock2","","","","<div style=""font-size:60px;""> </div>","null","FL","learning/Slide100.JPG","That was a bim.","",""
"","image-keyboard-response","308","463248","0.0-8.0-0.20","FL","8vhxe9t9g0","1500","1000","en","ke05us31","null","","","","","","","","learning/Slide101.JPG","null","","","","",""
"","html-keyboard-response","309","464401","0.0-8.0-1.20","FL","8vhxe9t9g0","1500","1000","en","ke05us31","null","","","","learningBlock2","","","","That was a tob.","null","","","","",""
"","html-keyboard-response","310","465404","0.0-8.0-2.20","FL","8vhxe9t9g0","1500","1000","en","ke05us31","null","","","","learningBlock2","","","","<div style=""font-size:60px;""> </div>","null","FL","learning/Slide101.JPG","That was a tob.","",""
"","image-keyboard-response","311","465581","0.0-8.0-0.21","FL","8vhxe9t9g0","1500","1000","en","ke05us31","null","","","","","","","","learning/Slide102.JPG","null","","","","",""
"","html-keyboard-response","312","466734","0.0-8.0-1.21","FL","8vhxe9t9g0","1500","1000","en","ke05us31","null","","","","learningBlock2","","","","That was a bim.","null","","","","",""
"","html-keyboard-response","313","467737","0.0-8.0-2.21","FL","8vhxe9t9g0","1500","1000","en","ke05us31","null","","","","learningBlock2","","","","<div style=""font-size:60px;""> </div>","null","FL","learning/Slide102.JPG","That was a bim.","",""
"","image-keyboard-response","314","467915","0.0-8.0-0.22","FL","8vhxe9t9g0","1500","1000","en","ke05us31","null","","","","","","","","learning/Slide103.JPG","null","","","","",""
"","html-keyboard-response","315","469068","0.0-8.0-1.22","FL","8vhxe9t9g0","1500","1000","en","ke05us31","null","","","","learningBlock2","","","","That was a dep.","null","","","","",""
"","html-keyboard-response","316","470071","0.0-8.0-2.22","FL","8vhxe9t9g0","1500","1000","en","ke05us31","null","","","","learningBlock2","","","","<div style=""font-size:60px;""> </div>","null","FL","learning/Slide103.JPG","That was a dep.","",""
"","image-keyboard-response","317","470249","0.0-8.0-0.23","FL","8vhxe9t9g0","1500","1000","en","ke05us31","null","","","","","","","","learning/Slide104.JPG","null","","","","",""
"","html-keyboard-response","318","471400","0.0-8.0-1.23","FL","8vhxe9t9g0","1500","1000","en","ke05us31","null","","","","learningBlock2","","","","That was a tob.","null","","","","",""
"","html-keyboard-response","319","472402","0.0-8.0-2.23","FL","8vhxe9t9g0","1500","1000","en","ke05us31","null","","","","learningBlock2","","","","<div style=""font-size:60px;""> </div>","null","FL","learning/Slide104.JPG","That was a tob.","",""
"","image-keyboard-response","320","472581","0.0-8.0-0.24","FL","8vhxe9t9g0","1500","1000","en","ke05us31","null","","","","","","","","learning/Slide105.JPG","null","","","","",""
"","html-keyboard-response","321","473733","0.0-8.0-1.24","FL","8vhxe9t9g0","1500","1000","en","ke05us31","null","","","","learningBlock2","","","","That was a dep.","null","","","","",""
"","html-keyboard-response","322","474736","0.0-8.0-2.24","FL","8vhxe9t9g0","1500","1000","en","ke05us31","null","","","","learningBlock2","","","","<div style=""font-size:60px;""> </div>","null","FL","learning/Slide105.JPG","That was a dep.","",""
"","image-keyboard-response","323","474913","0.0-8.0-0.25","FL","8vhxe9t9g0","1500","1000","en","ke05us31","null","","","","","","","","learning/Slide106.JPG","null","","","","",""
"","html-keyboard-response","324","476067","0.0-8.0-1.25","FL","8vhxe9t9g0","1500","1000","en","ke05us31","null","","","","learningBlock2","","","","That was a wug.","null","","","","",""
"","html-keyboard-response","325","477070","0.0-8.0-2.25","FL","8vhxe9t9g0","1500","1000","en","ke05us31","null","","","","learningBlock2","","","","<div style=""font-size:60px;""> </div>","null","FL","learning/Slide106.JPG","That was a wug.","",""
"","image-keyboard-response","326","477248","0.0-8.0-0.26","FL","8vhxe9t9g0","1500","1000","en","ke05us31","null","","","","","","","","learning/Slide107.JPG","null","","","","",""
"","html-keyboard-response","327","478401","0.0-8.0-1.26","FL","8vhxe9t9g0","1500","1000","en","ke05us31","null","","","","learningBlock2","","","","That was a bim.","null","","","","",""
"","html-keyboard-response","328","479404","0.0-8.0-2.26","FL","8vhxe9t9g0","1500","1000","en","ke05us31","null","","","","learningBlock2","","","","<div style=""font-size:60px;""> </div>","null","FL","learning/Slide107.JPG","That was a bim.","",""
"","image-keyboard-response","329","479582","0.0-8.0-0.27","FL","8vhxe9t9g0","1500","1000","en","ke05us31","null","","","","","","","","learning/Slide108.JPG","null","","","","",""
"","html-keyboard-response","330","480735","0.0-8.0-1.27","FL","8vhxe9t9g0","1500","1000","en","ke05us31","null","","","","learningBlock2","","","","That was a dep.","null","","","","",""
"","html-keyboard-response","331","481737","0.0-8.0-2.27","FL","8vhxe9t9g0","1500","1000","en","ke05us31","null","","","","learningBlock2","","","","<div style=""font-size:60px;""> </div>","null","FL","learning/Slide108.JPG","That was a dep.","",""
"","image-keyboard-response","332","481915","0.0-8.0-0.28","FL","8vhxe9t9g0","1500","1000","en","ke05us31","null","","","","","","","","learning/Slide109.JPG","null","","","","",""
"","html-keyboard-response","333","483068","0.0-8.0-1.28","FL","8vhxe9t9g0","1500","1000","en","ke05us31","null","","","","learningBlock2","","","","That was a wug.","null","","","","",""
"","html-keyboard-response","334","484070","0.0-8.0-2.28","FL","8vhxe9t9g0","1500","1000","en","ke05us31","null","","","","learningBlock2","","","","<div style=""font-size:60px;""> </div>","null","FL","learning/Slide109.JPG","That was a wug.","",""
"","image-keyboard-response","335","484247","0.0-8.0-0.29","FL","8vhxe9t9g0","1500","1000","en","ke05us31","null","","","","","","","","learning/Slide110.JPG","null","","","","",""
"","html-keyboard-response","336","485400","0.0-8.0-1.29","FL","8vhxe9t9g0","1500","1000","en","ke05us31","null","","","","learningBlock2","","","","That was a bim.","null","","","","",""
"","html-keyboard-response","337","486402","0.0-8.0-2.29","FL","8vhxe9t9g0","1500","1000","en","ke05us31","null","","","","learningBlock2","","","","<div style=""font-size:60px;""> </div>","null","FL","learning/Slide110.JPG","That was a bim.","",""
"","image-keyboard-response","338","486582","0.0-8.0-0.30","FL","8vhxe9t9g0","1500","1000","en","ke05us31","null","","","","","","","","learning/Slide111.JPG","null","","","","",""
"","html-keyboard-response","339","487735","0.0-8.0-1.30","FL","8vhxe9t9g0","1500","1000","en","ke05us31","null","","","","learningBlock2","","","","That was a tob.","null","","","","",""
"","html-keyboard-response","340","488738","0.0-8.0-2.30","FL","8vhxe9t9g0","1500","1000","en","ke05us31","null","","","","learningBlock2","","","","<div style=""font-size:60px;""> </div>","null","FL","learning/Slide111.JPG","That was a tob.","",""
"","image-keyboard-response","341","488915","0.0-8.0-0.31","FL","8vhxe9t9g0","1500","1000","en","ke05us31","null","","","","","","","","learning/Slide112.JPG","null","","","","",""
"","html-keyboard-response","342","490068","0.0-8.0-1.31","FL","8vhxe9t9g0","1500","1000","en","ke05us31","null","","","","learningBlock2","","","","That was a wug.","null","","","","",""
"","html-keyboard-response","343","491072","0.0-8.0-2.31","FL","8vhxe9t9g0","1500","1000","en","ke05us31","null","","","","learningBlock2","","","","<div style=""font-size:60px;""> </div>","null","FL","learning/Slide112.JPG","That was a wug.","",""
"","image-keyboard-response","344","491250","0.0-8.0-0.32","FL","8vhxe9t9g0","1500","1000","en","ke05us31","null","","","","","","","","learning/Slide113.JPG","null","","","","",""
"","html-keyboard-response","345","492405","0.0-8.0-1.32","FL","8vhxe9t9g0","1500","1000","en","ke05us31","null","","","","learningBlock2","","","","That was a tob.","null","","","","",""
"","html-keyboard-response","346","493408","0.0-8.0-2.32","FL","8vhxe9t9g0","1500","1000","en","ke05us31","null","","","","learningBlock2","","","","<div style=""font-size:60px;""> </div>","null","FL","learning/Slide113.JPG","That was a tob.","",""
"","image-keyboard-response","347","493585","0.0-8.0-0.33","FL","8vhxe9t9g0","1500","1000","en","ke05us31","null","","","","","","","","learning/Slide114.JPG","null","","","","",""
"","html-keyboard-response","348","494738","0.0-8.0-1.33","FL","8vhxe9t9g0","1500","1000","en","ke05us31","null","","","","learningBlock2","","","","That was a wug.","null","","","","",""
"","html-keyboard-response","349","495741","0.0-8.0-2.33","FL","8vhxe9t9g0","1500","1000","en","ke05us31","null","","","","learningBlock2","","","","<div style=""font-size:60px;""> </div>","null","FL","learning/Slide114.JPG","That was a wug.","",""
"","image-keyboard-response","350","495918","0.0-8.0-0.34","FL","8vhxe9t9g0","1500","1000","en","ke05us31","null","","","","","","","","learning/Slide115.JPG","null","","","","",""
"","html-keyboard-response","351","497072","0.0-8.0-1.34","FL","8vhxe9t9g0","1500","1000","en","ke05us31","null","","","","learningBlock2","","","","That was a bim.","null","","","","",""
"","html-keyboard-response","352","498074","0.0-8.0-2.34","FL","8vhxe9t9g0","1500","1000","en","ke05us31","null","","","","learningBlock2","","","","<div style=""font-size:60px;""> </div>","null","FL","learning/Slide115.JPG","That was a bim.","",""
"","image-keyboard-response","353","498250","0.0-8.0-0.35","FL","8vhxe9t9g0","1500","1000","en","ke05us31","null","","","","","","","","learning/Slide116.JPG","null","","","","",""
"","html-keyboard-response","354","499402","0.0-8.0-1.35","FL","8vhxe9t9g0","1500","1000","en","ke05us31","null","","","","learningBlock2","","","","That was a dep.","null","","","","",""
"","html-keyboard-response","355","500404","0.0-8.0-2.35","FL","8vhxe9t9g0","1500","1000","en","ke05us31","null","","","","learningBlock2","","","","<div style=""font-size:60px;""> </div>","null","FL","learning/Slide116.JPG","That was a dep.","",""
"","image-keyboard-response","356","500581","0.0-8.0-0.36","FL","8vhxe9t9g0","1500","1000","en","ke05us31","null","","","","","","","","learning/Slide117.JPG","null","","","","",""
"","html-keyboard-response","357","501735","0.0-8.0-1.36","FL","8vhxe9t9g0","1500","1000","en","ke05us31","null","","","","learningBlock2","","","","That was a tob.","null","","","","",""
"","html-keyboard-response","358","502737","0.0-8.0-2.36","FL","8vhxe9t9g0","1500","1000","en","ke05us31","null","","","","learningBlock2","","","","<div style=""font-size:60px;""> </div>","null","FL","learning/Slide117.JPG","That was a tob.","",""
"","image-keyboard-response","359","502915","0.0-8.0-0.37","FL","8vhxe9t9g0","1500","1000","en","ke05us31","null","","","","","","","","learning/Slide118.JPG","null","","","","",""
"","html-keyboard-response","360","504067","0.0-8.0-1.37","FL","8vhxe9t9g0","1500","1000","en","ke05us31","null","","","","learningBlock2","","","","That was a dep.","null","","","","",""
"","html-keyboard-response","361","505069","0.0-8.0-2.37","FL","8vhxe9t9g0","1500","1000","en","ke05us31","null","","","","learningBlock2","","","","<div style=""font-size:60px;""> </div>","null","FL","learning/Slide118.JPG","That was a dep.","",""
"","image-keyboard-response","362","505246","0.0-8.0-0.38","FL","8vhxe9t9g0","1500","1000","en","ke05us31","null","","","","","","","","learning/Slide119.JPG","null","","","","",""
"","html-keyboard-response","363","506400","0.0-8.0-1.38","FL","8vhxe9t9g0","1500","1000","en","ke05us31","null","","","","learningBlock2","","","","That was a wug.","null","","","","",""
"","html-keyboard-response","364","507402","0.0-8.0-2.38","FL","8vhxe9t9g0","1500","1000","en","ke05us31","null","","","","learningBlock2","","","","<div style=""font-size:60px;""> </div>","null","FL","learning/Slide119.JPG","That was a wug.","",""
"","image-keyboard-response","365","507580","0.0-8.0-0.39","FL","8vhxe9t9g0","1500","1000","en","ke05us31","null","","","","","","","","learning/Slide120.JPG","null","","","","",""
"","html-keyboard-response","366","508733","0.0-8.0-1.39","FL","8vhxe9t9g0","1500","1000","en","ke05us31","null","","","","learningBlock2","","","","That was a dep.","null","","","","",""
"","html-keyboard-response","367","509734","0.0-8.0-2.39","FL","8vhxe9t9g0","1500","1000","en","ke05us31","null","","","","learningBlock2","","","","<div style=""font-size:60px;""> </div>","null","FL","learning/Slide120.JPG","That was a dep.","",""
"","image-keyboard-response","368","509911","0.0-8.0-0.40","FL","8vhxe9t9g0","1500","1000","en","ke05us31","null","","","","","","","","learning/Slide121.JPG","null","","","","",""
"","html-keyboard-response","369","511064","0.0-8.0-1.40","FL","8vhxe9t9g0","1500","1000","en","ke05us31","null","","","","learningBlock2","","","","That was a bim.","null","","","","",""
"","html-keyboard-response","370","512067","0.0-8.0-2.40","FL","8vhxe9t9g0","1500","1000","en","ke05us31","null","","","","learningBlock2","","","","<div style=""font-size:60px;""> </div>","null","FL","learning/Slide121.JPG","That was a bim.","",""
"","image-keyboard-response","371","512244","0.0-8.0-0.41","FL","8vhxe9t9g0","1500","1000","en","ke05us31","null","","","","","","","","learning/Slide122.JPG","null","","","","",""
"","html-keyboard-response","372","513398","0.0-8.0-1.41","FL","8vhxe9t9g0","1500","1000","en","ke05us31","null","","","","learningBlock2","","","","That was a wug.","null","","","","",""
"","html-keyboard-response","373","514399","0.0-8.0-2.41","FL","8vhxe9t9g0","1500","1000","en","ke05us31","null","","","","learningBlock2","","","","<div style=""font-size:60px;""> </div>","null","FL","learning/Slide122.JPG","That was a wug.","",""
"","image-keyboard-response","374","514578","0.0-8.0-0.42","FL","8vhxe9t9g0","1500","1000","en","ke05us31","null","","","","","","","","learning/Slide123.JPG","null","","","","",""
"","html-keyboard-response","375","515732","0.0-8.0-1.42","FL","8vhxe9t9g0","1500","1000","en","ke05us31","null","","","","learningBlock2","","","","That was a bim.","null","","","","",""
"","html-keyboard-response","376","516736","0.0-8.0-2.42","FL","8vhxe9t9g0","1500","1000","en","ke05us31","null","","","","learningBlock2","","","","<div style=""font-size:60px;""> </div>","null","FL","learning/Slide123.JPG","That was a bim.","",""
"","image-keyboard-response","377","516913","0.0-8.0-0.43","FL","8vhxe9t9g0","1500","1000","en","ke05us31","null","","","","","","","","learning/Slide124.JPG","null","","","","",""
"","html-keyboard-response","378","518066","0.0-8.0-1.43","FL","8vhxe9t9g0","1500","1000","en","ke05us31","null","","","","learningBlock2","","","","That was a tob.","null","","","","",""
"","html-keyboard-response","379","519069","0.0-8.0-2.43","FL","8vhxe9t9g0","1500","1000","en","ke05us31","null","","","","learningBlock2","","","","<div style=""font-size:60px;""> </div>","null","FL","learning/Slide124.JPG","That was a tob.","",""
"","image-keyboard-response","380","519246","0.0-8.0-0.44","FL","8vhxe9t9g0","1500","1000","en","ke05us31","null","","","","","","","","learning/Slide125.JPG","null","","","","",""
"","html-keyboard-response","381","520399","0.0-8.0-1.44","FL","8vhxe9t9g0","1500","1000","en","ke05us31","null","","","","learningBlock2","","","","That was a bim.","null","","","","",""
"","html-keyboard-response","382","521401","0.0-8.0-2.44","FL","8vhxe9t9g0","1500","1000","en","ke05us31","null","","","","learningBlock2","","","","<div style=""font-size:60px;""> </div>","null","FL","learning/Slide125.JPG","That was a bim.","",""
"","image-keyboard-response","383","521579","0.0-8.0-0.45","FL","8vhxe9t9g0","1500","1000","en","ke05us31","null","","","","","","","","learning/Slide126.JPG","null","","","","",""
"","html-keyboard-response","384","522731","0.0-8.0-1.45","FL","8vhxe9t9g0","1500","1000","en","ke05us31","null","","","","learningBlock2","","","","That was a tob.","null","","","","",""
"","html-keyboard-response","385","523734","0.0-8.0-2.45","FL","8vhxe9t9g0","1500","1000","en","ke05us31","null","","","","learningBlock2","","","","<div style=""font-size:60px;""> </div>","null","FL","learning/Slide126.JPG","That was a tob.","",""
"","image-keyboard-response","386","523911","0.0-8.0-0.46","FL","8vhxe9t9g0","1500","1000","en","ke05us31","null","","","","","","","","learning/Slide127.JPG","null","","","","",""
"","html-keyboard-response","387","525064","0.0-8.0-1.46","FL","8vhxe9t9g0","1500","1000","en","ke05us31","null","","","","learningBlock2","","","","That was a dep.","null","","","","",""
"","html-keyboard-response","388","526067","0.0-8.0-2.46","FL","8vhxe9t9g0","1500","1000","en","ke05us31","null","","","","learningBlock2","","","","<div style=""font-size:60px;""> </div>","null","FL","learning/Slide127.JPG","That was a dep.","",""
"","image-keyboard-response","389","526243","0.0-8.0-0.47","FL","8vhxe9t9g0","1500","1000","en","ke05us31","null","","","","","","","","learning/Slide128.JPG","null","","","","",""
"","html-keyboard-response","390","527396","0.0-8.0-1.47","FL","8vhxe9t9g0","1500","1000","en","ke05us31","null","","","","learningBlock2","","","","That was a wug.","null","","","","",""
"","html-keyboard-response","391","528398","0.0-8.0-2.47","FL","8vhxe9t9g0","1500","1000","en","ke05us31","null","","","","learningBlock2","","","","<div style=""font-size:60px;""> </div>","null","FL","learning/Slide128.JPG","That was a wug.","",""
"","image-keyboard-response","392","528575","0.0-8.0-0.48","FL","8vhxe9t9g0","1500","1000","en","ke05us31","null","","","","","","","","learning/Slide129.JPG","null","","","","",""
"","html-keyboard-response","393","529727","0.0-8.0-1.48","FL","8vhxe9t9g0","1500","1000","en","ke05us31","null","","","","learningBlock2","","","","That was a tob.","null","","","","",""
"","html-keyboard-response","394","530731","0.0-8.0-2.48","FL","8vhxe9t9g0","1500","1000","en","ke05us31","null","","","","learningBlock2","","","","<div style=""font-size:60px;""> </div>","null","FL","learning/Slide129.JPG","That was a tob.","",""
"","image-keyboard-response","395","530908","0.0-8.0-0.49","FL","8vhxe9t9g0","1500","1000","en","ke05us31","null","","","","","","","","learning/Slide130.JPG","null","","","","",""
"","html-keyboard-response","396","532063","0.0-8.0-1.49","FL","8vhxe9t9g0","1500","1000","en","ke05us31","null","","","","learningBlock2","","","","That was a wug.","null","","","","",""
"","html-keyboard-response","397","533065","0.0-8.0-2.49","FL","8vhxe9t9g0","1500","1000","en","ke05us31","null","","","","learningBlock2","","","","<div style=""font-size:60px;""> </div>","null","FL","learning/Slide130.JPG","That was a wug.","",""
"","image-keyboard-response","398","533243","0.0-8.0-0.50","FL","8vhxe9t9g0","1500","1000","en","ke05us31","null","","","","","","","","learning/Slide131.JPG","null","","","","",""
"","html-keyboard-response","399","534396","0.0-8.0-1.50","FL","8vhxe9t9g0","1500","1000","en","ke05us31","null","","","","learningBlock2","","","","That was a bim.","null","","","","",""
"","html-keyboard-response","400","535398","0.0-8.0-2.50","FL","8vhxe9t9g0","1500","1000","en","ke05us31","null","","","","learningBlock2","","","","<div style=""font-size:60px;""> </div>","null","FL","learning/Slide131.JPG","That was a bim.","",""
"","image-keyboard-response","401","535575","0.0-8.0-0.51","FL","8vhxe9t9g0","1500","1000","en","ke05us31","null","","","","","","","","learning/Slide132.JPG","null","","","","",""
"","html-keyboard-response","402","536729","0.0-8.0-1.51","FL","8vhxe9t9g0","1500","1000","en","ke05us31","null","","","","learningBlock2","","","","That was a dep.","null","","","","",""
"","html-keyboard-response","403","537731","0.0-8.0-2.51","FL","8vhxe9t9g0","1500","1000","en","ke05us31","null","","","","learningBlock2","","","","<div style=""font-size:60px;""> </div>","null","FL","learning/Slide132.JPG","That was a dep.","",""
"","image-keyboard-response","404","537913","0.0-8.0-0.52","FL","8vhxe9t9g0","1500","1000","en","ke05us31","null","","","","","","","","learning/Slide133.JPG","null","","","","",""
"","html-keyboard-response","405","539066","0.0-8.0-1.52","FL","8vhxe9t9g0","1500","1000","en","ke05us31","null","","","","learningBlock2","","","","That was a tob.","null","","","","",""
"","html-keyboard-response","406","540069","0.0-8.0-2.52","FL","8vhxe9t9g0","1500","1000","en","ke05us31","null","","","","learningBlock2","","","","<div style=""font-size:60px;""> </div>","null","FL","learning/Slide133.JPG","That was a tob.","",""
"","image-keyboard-response","407","540247","0.0-8.0-0.53","FL","8vhxe9t9g0","1500","1000","en","ke05us31","null","","","","","","","","learning/Slide134.JPG","null","","","","",""
"","html-keyboard-response","408","541400","0.0-8.0-1.53","FL","8vhxe9t9g0","1500","1000","en","ke05us31","null","","","","learningBlock2","","","","That was a dep.","null","","","","",""
"","html-keyboard-response","409","542403","0.0-8.0-2.53","FL","8vhxe9t9g0","1500","1000","en","ke05us31","null","","","","learningBlock2","","","","<div style=""font-size:60px;""> </div>","null","FL","learning/Slide134.JPG","That was a dep.","",""
"","image-keyboard-response","410","542582","0.0-8.0-0.54","FL","8vhxe9t9g0","1500","1000","en","ke05us31","null","","","","","","","","learning/Slide135.JPG","null","","","","",""
"","html-keyboard-response","411","543734","0.0-8.0-1.54","FL","8vhxe9t9g0","1500","1000","en","ke05us31","null","","","","learningBlock2","","","","That was a tob.","null","","","","",""
"","html-keyboard-response","412","544738","0.0-8.0-2.54","FL","8vhxe9t9g0","1500","1000","en","ke05us31","null","","","","learningBlock2","","","","<div style=""font-size:60px;""> </div>","null","FL","learning/Slide135.JPG","That was a tob.","",""
"","image-keyboard-response","413","544915","0.0-8.0-0.55","FL","8vhxe9t9g0","1500","1000","en","ke05us31","null","","","","","","","","learning/Slide136.JPG","null","","","","",""
"","html-keyboard-response","414","546068","0.0-8.0-1.55","FL","8vhxe9t9g0","1500","1000","en","ke05us31","null","","","","learningBlock2","","","","That was a wug.","null","","","","",""
"","html-keyboard-response","415","547070","0.0-8.0-2.55","FL","8vhxe9t9g0","1500","1000","en","ke05us31","null","","","","learningBlock2","","","","<div style=""font-size:60px;""> </div>","null","FL","learning/Slide136.JPG","That was a wug.","",""
"","image-keyboard-response","416","547248","0.0-8.0-0.56","FL","8vhxe9t9g0","1500","1000","en","ke05us31","null","","","","","","","","learning/Slide137.JPG","null","","","","",""
"","html-keyboard-response","417","548400","0.0-8.0-1.56","FL","8vhxe9t9g0","1500","1000","en","ke05us31","null","","","","learningBlock2","","","","That was a tob.","null","","","","",""
"","html-keyboard-response","418","549403","0.0-8.0-2.56","FL","8vhxe9t9g0","1500","1000","en","ke05us31","null","","","","learningBlock2","","","","<div style=""font-size:60px;""> </div>","null","FL","learning/Slide137.JPG","That was a tob.","",""
"","image-keyboard-response","419","549580","0.0-8.0-0.57","FL","8vhxe9t9g0","1500","1000","en","ke05us31","null","","","","","","","","learning/Slide138.JPG","null","","","","",""
"","html-keyboard-response","420","550735","0.0-8.0-1.57","FL","8vhxe9t9g0","1500","1000","en","ke05us31","null","","","","learningBlock2","","","","That was a bim.","null","","","","",""
"","html-keyboard-response","421","551737","0.0-8.0-2.57","FL","8vhxe9t9g0","1500","1000","en","ke05us31","null","","","","learningBlock2","","","","<div style=""font-size:60px;""> </div>","null","FL","learning/Slide138.JPG","That was a bim.","",""
"","image-keyboard-response","422","551915","0.0-8.0-0.58","FL","8vhxe9t9g0","1500","1000","en","ke05us31","null","","","","","","","","learning/Slide139.JPG","null","","","","",""
"","html-keyboard-response","423","553068","0.0-8.0-1.58","FL","8vhxe9t9g0","1500","1000","en","ke05us31","null","","","","learningBlock2","","","","That was a wug.","null","","","","",""
"","html-keyboard-response","424","554070","0.0-8.0-2.58","FL","8vhxe9t9g0","1500","1000","en","ke05us31","null","","","","learningBlock2","","","","<div style=""font-size:60px;""> </div>","null","FL","learning/Slide139.JPG","That was a wug.","",""
"","image-keyboard-response","425","554247","0.0-8.0-0.59","FL","8vhxe9t9g0","1500","1000","en","ke05us31","null","","","","","","","","learning/Slide140.JPG","null","","","","",""
"","html-keyboard-response","426","555399","0.0-8.0-1.59","FL","8vhxe9t9g0","1500","1000","en","ke05us31","null","","","","learningBlock2","","","","That was a dep.","null","","","","",""
"","html-keyboard-response","427","556402","0.0-8.0-2.59","FL","8vhxe9t9g0","1500","1000","en","ke05us31","null","","","","learningBlock2","","","","<div style=""font-size:60px;""> </div>","null","FL","learning/Slide140.JPG","That was a dep.","",""
"","image-keyboard-response","428","556579","0.0-8.0-0.60","FL","8vhxe9t9g0","1500","1000","en","ke05us31","null","","","","","","","","learning/Slide141.JPG","null","","","","",""
"","html-keyboard-response","429","557732","0.0-8.0-1.60","FL","8vhxe9t9g0","1500","1000","en","ke05us31","null","","","","learningBlock2","","","","That was a tob.","null","","","","",""
"","html-keyboard-response","430","558734","0.0-8.0-2.60","FL","8vhxe9t9g0","1500","1000","en","ke05us31","null","","","","learningBlock2","","","","<div style=""font-size:60px;""> </div>","null","FL","learning/Slide141.JPG","That was a tob.","",""
"","image-keyboard-response","431","558912","0.0-8.0-0.61","FL","8vhxe9t9g0","1500","1000","en","ke05us31","null","","","","","","","","learning/Slide142.JPG","null","","","","",""
"","html-keyboard-response","432","560065","0.0-8.0-1.61","FL","8vhxe9t9g0","1500","1000","en","ke05us31","null","","","","learningBlock2","","","","That was a wug.","null","","","","",""
"","html-keyboard-response","433","561067","0.0-8.0-2.61","FL","8vhxe9t9g0","1500","1000","en","ke05us31","null","","","","learningBlock2","","","","<div style=""font-size:60px;""> </div>","null","FL","learning/Slide142.JPG","That was a wug.","",""
"","image-keyboard-response","434","561244","0.0-8.0-0.62","FL","8vhxe9t9g0","1500","1000","en","ke05us31","null","","","","","","","","learning/Slide143.JPG","null","","","","",""
"","html-keyboard-response","435","562397","0.0-8.0-1.62","FL","8vhxe9t9g0","1500","1000","en","ke05us31","null","","","","learningBlock2","","","","That was a bim.","null","","","","",""
"","html-keyboard-response","436","563400","0.0-8.0-2.62","FL","8vhxe9t9g0","1500","1000","en","ke05us31","null","","","","learningBlock2","","","","<div style=""font-size:60px;""> </div>","null","FL","learning/Slide143.JPG","That was a bim.","",""
"","image-keyboard-response","437","563577","0.0-8.0-0.63","FL","8vhxe9t9g0","1500","1000","en","ke05us31","null","","","","","","","","learning/Slide144.JPG","null","","","","",""
"","html-keyboard-response","438","564730","0.0-8.0-1.63","FL","8vhxe9t9g0","1500","1000","en","ke05us31","null","","","","learningBlock2","","","","That was a dep.","null","","","","",""
"","html-keyboard-response","439","565732","0.0-8.0-2.63","FL","8vhxe9t9g0","1500","1000","en","ke05us31","null","","","","learningBlock2","","","","<div style=""font-size:60px;""> </div>","null","FL","learning/Slide144.JPG","That was a dep.","",""
"","image-keyboard-response","440","565911","0.0-8.0-0.64","FL","8vhxe9t9g0","1500","1000","en","ke05us31","null","","","","","","","","learning/Slide145.JPG","null","","","","",""
"","html-keyboard-response","441","567064","0.0-8.0-1.64","FL","8vhxe9t9g0","1500","1000","en","ke05us31","null","","","","learningBlock2","","","","That was a bim.","null","","","","",""
"","html-keyboard-response","442","568067","0.0-8.0-2.64","FL","8vhxe9t9g0","1500","1000","en","ke05us31","null","","","","learningBlock2","","","","<div style=""font-size:60px;""> </div>","null","FL","learning/Slide145.JPG","That was a bim.","",""
"","image-keyboard-response","443","568244","0.0-8.0-0.65","FL","8vhxe9t9g0","1500","1000","en","ke05us31","null","","","","","","","","learning/Slide146.JPG","null","","","","",""
"","html-keyboard-response","444","569398","0.0-8.0-1.65","FL","8vhxe9t9g0","1500","1000","en","ke05us31","null","","","","learningBlock2","","","","That was a tob.","null","","","","",""
"","html-keyboard-response","445","570400","0.0-8.0-2.65","FL","8vhxe9t9g0","1500","1000","en","ke05us31","null","","","","learningBlock2","","","","<div style=""font-size:60px;""> </div>","null","FL","learning/Slide146.JPG","That was a tob.","",""
"","image-keyboard-response","446","570577","0.0-8.0-0.66","FL","8vhxe9t9g0","1500","1000","en","ke05us31","null","","","","","","","","learning/Slide147.JPG","null","","","","",""
"","html-keyboard-response","447","571731","0.0-8.0-1.66","FL","8vhxe9t9g0","1500","1000","en","ke05us31","null","","","","learningBlock2","","","","That was a wug.","null","","","","",""
"","html-keyboard-response","448","572734","0.0-8.0-2.66","FL","8vhxe9t9g0","1500","1000","en","ke05us31","null","","","","learningBlock2","","","","<div style=""font-size:60px;""> </div>","null","FL","learning/Slide147.JPG","That was a wug.","",""
"","image-keyboard-response","449","572911","0.0-8.0-0.67","FL","8vhxe9t9g0","1500","1000","en","ke05us31","null","","","","","","","","learning/Slide148.JPG","null","","","","",""
"","html-keyboard-response","450","574063","0.0-8.0-1.67","FL","8vhxe9t9g0","1500","1000","en","ke05us31","null","","","","learningBlock2","","","","That was a bim.","null","","","","",""
"","html-keyboard-response","451","575065","0.0-8.0-2.67","FL","8vhxe9t9g0","1500","1000","en","ke05us31","null","","","","learningBlock2","","","","<div style=""font-size:60px;""> </div>","null","FL","learning/Slide148.JPG","That was a bim.","",""
"","image-keyboard-response","452","575242","0.0-8.0-0.68","FL","8vhxe9t9g0","1500","1000","en","ke05us31","null","","","","","","","","learning/Slide149.JPG","null","","","","",""
"","html-keyboard-response","453","576395","0.0-8.0-1.68","FL","8vhxe9t9g0","1500","1000","en","ke05us31","null","","","","learningBlock2","","","","That was a dep.","null","","","","",""
"","html-keyboard-response","454","577397","0.0-8.0-2.68","FL","8vhxe9t9g0","1500","1000","en","ke05us31","null","","","","learningBlock2","","","","<div style=""font-size:60px;""> </div>","null","FL","learning/Slide149.JPG","That was a dep.","",""
"","image-keyboard-response","455","577575","0.0-8.0-0.69","FL","8vhxe9t9g0","1500","1000","en","ke05us31","null","","","","","","","","learning/Slide150.JPG","null","","","","",""
"","html-keyboard-response","456","578728","0.0-8.0-1.69","FL","8vhxe9t9g0","1500","1000","en","ke05us31","null","","","","learningBlock2","","","","That was a wug.","null","","","","",""
"","html-keyboard-response","457","579730","0.0-8.0-2.69","FL","8vhxe9t9g0","1500","1000","en","ke05us31","null","","","","learningBlock2","","","","<div style=""font-size:60px;""> </div>","null","FL","learning/Slide150.JPG","That was a wug.","",""
"","image-keyboard-response","458","579908","0.0-8.0-0.70","FL","8vhxe9t9g0","1500","1000","en","ke05us31","null","","","","","","","","learning/Slide151.JPG","null","","","","",""
"","html-keyboard-response","459","581061","0.0-8.0-1.70","FL","8vhxe9t9g0","1500","1000","en","ke05us31","null","","","","learningBlock2","","","","That was a dep.","null","","","","",""
"","html-keyboard-response","460","582063","0.0-8.0-2.70","FL","8vhxe9t9g0","1500","1000","en","ke05us31","null","","","","learningBlock2","","","","<div style=""font-size:60px;""> </div>","null","FL","learning/Slide151.JPG","That was a dep.","",""
"","image-keyboard-response","461","582242","0.0-8.0-0.71","FL","8vhxe9t9g0","1500","1000","en","ke05us31","null","","","","","","","","learning/Slide152.JPG","null","","","","",""
"","html-keyboard-response","462","583394","0.0-8.0-1.71","FL","8vhxe9t9g0","1500","1000","en","ke05us31","null","","","","learningBlock2","","","","That was a wug.","null","","","","",""
"","html-keyboard-response","463","584397","0.0-8.0-2.71","FL","8vhxe9t9g0","1500","1000","en","ke05us31","null","","","","learningBlock2","","","","<div style=""font-size:60px;""> </div>","null","FL","learning/Slide152.JPG","That was a wug.","",""
"","image-keyboard-response","464","584575","0.0-8.0-0.72","FL","8vhxe9t9g0","1500","1000","en","ke05us31","null","","","","","","","","learning/Slide153.JPG","null","","","","",""
"","html-keyboard-response","465","585727","0.0-8.0-1.72","FL","8vhxe9t9g0","1500","1000","en","ke05us31","null","","","","learningBlock2","","","","That was a bim.","null","","","","",""
"","html-keyboard-response","466","586730","0.0-8.0-2.72","FL","8vhxe9t9g0","1500","1000","en","ke05us31","null","","","","learningBlock2","","","","<div style=""font-size:60px;""> </div>","null","FL","learning/Slide153.JPG","That was a bim.","",""
"","image-keyboard-response","467","586908","0.0-8.0-0.73","FL","8vhxe9t9g0","1500","1000","en","ke05us31","null","","","","","","","","learning/Slide154.JPG","null","","","","",""
"","html-keyboard-response","468","588062","0.0-8.0-1.73","FL","8vhxe9t9g0","1500","1000","en","ke05us31","null","","","","learningBlock2","","","","That was a tob.","null","","","","",""
"","html-keyboard-response","469","589064","0.0-8.0-2.73","FL","8vhxe9t9g0","1500","1000","en","ke05us31","null","","","","learningBlock2","","","","<div style=""font-size:60px;""> </div>","null","FL","learning/Slide154.JPG","That was a tob.","",""
"","image-keyboard-response","470","589242","0.0-8.0-0.74","FL","8vhxe9t9g0","1500","1000","en","ke05us31","null","","","","","","","","learning/Slide155.JPG","null","","","","",""
"","html-keyboard-response","471","590395","0.0-8.0-1.74","FL","8vhxe9t9g0","1500","1000","en","ke05us31","null","","","","learningBlock2","","","","That was a dep.","null","","","","",""
"","html-keyboard-response","472","591397","0.0-8.0-2.74","FL","8vhxe9t9g0","1500","1000","en","ke05us31","null","","","","learningBlock2","","","","<div style=""font-size:60px;""> </div>","null","FL","learning/Slide155.JPG","That was a dep.","",""
"","image-keyboard-response","473","591573","0.0-8.0-0.75","FL","8vhxe9t9g0","1500","1000","en","ke05us31","null","","","","","","","","learning/Slide156.JPG","null","","","","",""
"","html-keyboard-response","474","592728","0.0-8.0-1.75","FL","8vhxe9t9g0","1500","1000","en","ke05us31","null","","","","learningBlock2","","","","That was a bim.","null","","","","",""
"","html-keyboard-response","475","593731","0.0-8.0-2.75","FL","8vhxe9t9g0","1500","1000","en","ke05us31","null","","","","learningBlock2","","","","<div style=""font-size:60px;""> </div>","null","FL","learning/Slide156.JPG","That was a bim.","",""
"","image-keyboard-response","476","593910","0.0-8.0-0.76","FL","8vhxe9t9g0","1500","1000","en","ke05us31","null","","","","","","","","learning/Slide157.JPG","null","","","","",""
"","html-keyboard-response","477","595062","0.0-8.0-1.76","FL","8vhxe9t9g0","1500","1000","en","ke05us31","null","","","","learningBlock2","","","","That was a dep.","null","","","","",""
"","html-keyboard-response","478","596065","0.0-8.0-2.76","FL","8vhxe9t9g0","1500","1000","en","ke05us31","null","","","","learningBlock2","","","","<div style=""font-size:60px;""> </div>","null","FL","learning/Slide157.JPG","That was a dep.","",""
"","image-keyboard-response","479","596242","0.0-8.0-0.77","FL","8vhxe9t9g0","1500","1000","en","ke05us31","null","","","","","","","","learning/Slide158.JPG","null","","","","",""
"","html-keyboard-response","480","597395","0.0-8.0-1.77","FL","8vhxe9t9g0","1500","1000","en","ke05us31","null","","","","learningBlock2","","","","That was a tob.","null","","","","",""
"","html-keyboard-response","481","598398","0.0-8.0-2.77","FL","8vhxe9t9g0","1500","1000","en","ke05us31","null","","","","learningBlock2","","","","<div style=""font-size:60px;""> </div>","null","FL","learning/Slide158.JPG","That was a tob.","",""
"","image-keyboard-response","482","598576","0.0-8.0-0.78","FL","8vhxe9t9g0","1500","1000","en","ke05us31","null","","","","","","","","learning/Slide159.JPG","null","","","","",""
"","html-keyboard-response","483","599728","0.0-8.0-1.78","FL","8vhxe9t9g0","1500","1000","en","ke05us31","null","","","","learningBlock2","","","","That was a dep.","null","","","","",""
"","html-keyboard-response","484","600731","0.0-8.0-2.78","FL","8vhxe9t9g0","1500","1000","en","ke05us31","null","","","","learningBlock2","","","","<div style=""font-size:60px;""> </div>","null","FL","learning/Slide159.JPG","That was a dep.","",""
"","image-keyboard-response","485","600909","0.0-8.0-0.79","FL","8vhxe9t9g0","1500","1000","en","ke05us31","null","","","","","","","","learning/Slide160.JPG","null","","","","",""
