"success","trial_type","trial_index","time_elapsed","internal_node_id","condition","subject","screen_width","screen_height","language","codeword","rt","responses","url","view_history","test_part","final_height_px","final_width_px","scale_factor","stimulus","key_press","learningType","presentedImage","presentedLabel","button_pressed","response"
"true","fullscreen","0","5210","0.0-0.0","LF","plssjv82xb","1280","800","de","Fr.11:45","","","","","","","","","","","","","","",""
"","survey-html-form","1","10740","0.0-1.0","LF","plssjv82xb","1280","800","de","Fr.11:45","5526.684999989811","{""language"":""de""}","","","","","","","","","","","","",""
"","external-html","2","164929","0.0-2.0-0.0","LF","plssjv82xb","1280","800","de","Fr.11:45","154176.26500001643","","text/information.html","","","","","","","","","","","",""
"","external-html","3","222424","0.0-2.0-1.0","LF","plssjv82xb","1280","800","de","Fr.11:45","57432.37500003306","","text/consent.html","","","","","","","","","","","",""
"","survey-html-form","4","405022","0.0-2.0-2.0","LF","plssjv82xb","1280","800","de","Fr.11:45","182604.7799999942","{""codeword_enter"":""Fr.11:45""}","","","","","","","","","","","","",""
"","instructions","5","489649","0.0-4.0","LF","plssjv82xb","1280","800","de","Fr.11:45","NA","","","[{""page_index"":0,""viewing_time"":7408.155000011902},{""page_index"":1,""viewing_time"":75714.90999998059}]","instructions","","","","","","","","","",""
"","resize","6","604044","0.0-5.0","LF","plssjv82xb","1280","800","de","Fr.11:45","","","","","","","426","2.7047619047619045","","","","","","",""
"","html-keyboard-response","7","605047","0.0-6.0-0.0","LF","plssjv82xb","1280","800","de","Fr.11:45","null","","","","learningBlock1","","","","This is a tob:","null","","","","",""
"","image-keyboard-response","8","605376","0.0-6.0-1.0","LF","plssjv82xb","1280","800","de","Fr.11:45","null","","","","","","","","learning/Slide1.JPG","null","","","","",""
"","html-keyboard-response","9","606382","0.0-6.0-2.0","LF","plssjv82xb","1280","800","de","Fr.11:45","null","","","","learningBlock1","","","","<div style=""font-size:60px;""> </div>","null","LF","learning/Slide1.JPG","This is a tob:","",""
"","html-keyboard-response","10","607386","0.0-6.0-0.1","LF","plssjv82xb","1280","800","de","Fr.11:45","null","","","","learningBlock1","","","","This is a wug:","null","","","","",""
"","image-keyboard-response","11","607719","0.0-6.0-1.1","LF","plssjv82xb","1280","800","de","Fr.11:45","null","","","","","","","","learning/Slide2.JPG","null","","","","",""
"","html-keyboard-response","12","608722","0.0-6.0-2.1","LF","plssjv82xb","1280","800","de","Fr.11:45","null","","","","learningBlock1","","","","<div style=""font-size:60px;""> </div>","null","LF","learning/Slide2.JPG","This is a wug:","",""
"","html-keyboard-response","13","609727","0.0-6.0-0.2","LF","plssjv82xb","1280","800","de","Fr.11:45","null","","","","learningBlock1","","","","This is a bim:","null","","","","",""
"","image-keyboard-response","14","610056","0.0-6.0-1.2","LF","plssjv82xb","1280","800","de","Fr.11:45","null","","","","","","","","learning/Slide3.JPG","null","","","","",""
"","html-keyboard-response","15","611061","0.0-6.0-2.2","LF","plssjv82xb","1280","800","de","Fr.11:45","null","","","","learningBlock1","","","","<div style=""font-size:60px;""> </div>","null","LF","learning/Slide3.JPG","This is a bim:","",""
"","html-keyboard-response","16","612063","0.0-6.0-0.3","LF","plssjv82xb","1280","800","de","Fr.11:45","null","","","","learningBlock1","","","","This is a dep:","null","","","","",""
"","image-keyboard-response","17","612395","0.0-6.0-1.3","LF","plssjv82xb","1280","800","de","Fr.11:45","null","","","","","","","","learning/Slide4.JPG","null","","","","",""
"","html-keyboard-response","18","613400","0.0-6.0-2.3","LF","plssjv82xb","1280","800","de","Fr.11:45","null","","","","learningBlock1","","","","<div style=""font-size:60px;""> </div>","null","LF","learning/Slide4.JPG","This is a dep:","",""
"","html-keyboard-response","19","614403","0.0-6.0-0.4","LF","plssjv82xb","1280","800","de","Fr.11:45","null","","","","learningBlock1","","","","This is a wug:","null","","","","",""
"","image-keyboard-response","20","614736","0.0-6.0-1.4","LF","plssjv82xb","1280","800","de","Fr.11:45","null","","","","","","","","learning/Slide5.JPG","null","","","","",""
"","html-keyboard-response","21","615739","0.0-6.0-2.4","LF","plssjv82xb","1280","800","de","Fr.11:45","null","","","","learningBlock1","","","","<div style=""font-size:60px;""> </div>","null","LF","learning/Slide5.JPG","This is a wug:","",""
"","html-keyboard-response","22","616741","0.0-6.0-0.5","LF","plssjv82xb","1280","800","de","Fr.11:45","null","","","","learningBlock1","","","","This is a dep:","null","","","","",""
"","image-keyboard-response","23","617073","0.0-6.0-1.5","LF","plssjv82xb","1280","800","de","Fr.11:45","null","","","","","","","","learning/Slide6.JPG","null","","","","",""
"","html-keyboard-response","24","618075","0.0-6.0-2.5","LF","plssjv82xb","1280","800","de","Fr.11:45","null","","","","learningBlock1","","","","<div style=""font-size:60px;""> </div>","null","LF","learning/Slide6.JPG","This is a dep:","",""
"","html-keyboard-response","25","619076","0.0-6.0-0.6","LF","plssjv82xb","1280","800","de","Fr.11:45","null","","","","learningBlock1","","","","This is a wug:","null","","","","",""
"","image-keyboard-response","26","619406","0.0-6.0-1.6","LF","plssjv82xb","1280","800","de","Fr.11:45","null","","","","","","","","learning/Slide7.JPG","null","","","","",""
"","html-keyboard-response","27","620407","0.0-6.0-2.6","LF","plssjv82xb","1280","800","de","Fr.11:45","null","","","","learningBlock1","","","","<div style=""font-size:60px;""> </div>","null","LF","learning/Slide7.JPG","This is a wug:","",""
"","html-keyboard-response","28","621410","0.0-6.0-0.7","LF","plssjv82xb","1280","800","de","Fr.11:45","null","","","","learningBlock1","","","","This is a bim:","null","","","","",""
"","image-keyboard-response","29","621739","0.0-6.0-1.7","LF","plssjv82xb","1280","800","de","Fr.11:45","null","","","","","","","","learning/Slide8.JPG","null","","","","",""
"","html-keyboard-response","30","622741","0.0-6.0-2.7","LF","plssjv82xb","1280","800","de","Fr.11:45","null","","","","learningBlock1","","","","<div style=""font-size:60px;""> </div>","null","LF","learning/Slide8.JPG","This is a bim:","",""
"","html-keyboard-response","31","623743","0.0-6.0-0.8","LF","plssjv82xb","1280","800","de","Fr.11:45","null","","","","learningBlock1","","","","This is a wug:","null","","","","",""
"","image-keyboard-response","32","624073","0.0-6.0-1.8","LF","plssjv82xb","1280","800","de","Fr.11:45","null","","","","","","","","learning/Slide9.JPG","null","","","","",""
"","html-keyboard-response","33","625076","0.0-6.0-2.8","LF","plssjv82xb","1280","800","de","Fr.11:45","null","","","","learningBlock1","","","","<div style=""font-size:60px;""> </div>","null","LF","learning/Slide9.JPG","This is a wug:","",""
"","html-keyboard-response","34","626078","0.0-6.0-0.9","LF","plssjv82xb","1280","800","de","Fr.11:45","null","","","","learningBlock1","","","","This is a dep:","null","","","","",""
"","image-keyboard-response","35","626406","0.0-6.0-1.9","LF","plssjv82xb","1280","800","de","Fr.11:45","null","","","","","","","","learning/Slide10.JPG","null","","","","",""
"","html-keyboard-response","36","627408","0.0-6.0-2.9","LF","plssjv82xb","1280","800","de","Fr.11:45","null","","","","learningBlock1","","","","<div style=""font-size:60px;""> </div>","null","LF","learning/Slide10.JPG","This is a dep:","",""
"","html-keyboard-response","37","628409","0.0-6.0-0.10","LF","plssjv82xb","1280","800","de","Fr.11:45","null","","","","learningBlock1","","","","This is a tob:","null","","","","",""
"","image-keyboard-response","38","628745","0.0-6.0-1.10","LF","plssjv82xb","1280","800","de","Fr.11:45","null","","","","","","","","learning/Slide11.JPG","null","","","","",""
"","html-keyboard-response","39","629749","0.0-6.0-2.10","LF","plssjv82xb","1280","800","de","Fr.11:45","null","","","","learningBlock1","","","","<div style=""font-size:60px;""> </div>","null","LF","learning/Slide11.JPG","This is a tob:","",""
"","html-keyboard-response","40","630754","0.0-6.0-0.11","LF","plssjv82xb","1280","800","de","Fr.11:45","null","","","","learningBlock1","","","","This is a dep:","null","","","","",""
"","image-keyboard-response","41","631086","0.0-6.0-1.11","LF","plssjv82xb","1280","800","de","Fr.11:45","null","","","","","","","","learning/Slide12.JPG","null","","","","",""
"","html-keyboard-response","42","632087","0.0-6.0-2.11","LF","plssjv82xb","1280","800","de","Fr.11:45","null","","","","learningBlock1","","","","<div style=""font-size:60px;""> </div>","null","LF","learning/Slide12.JPG","This is a dep:","",""
"","html-keyboard-response","43","633089","0.0-6.0-0.12","LF","plssjv82xb","1280","800","de","Fr.11:45","null","","","","learningBlock1","","","","This is a bim:","null","","","","",""
"","image-keyboard-response","44","633418","0.0-6.0-1.12","LF","plssjv82xb","1280","800","de","Fr.11:45","null","","","","","","","","learning/Slide13.JPG","null","","","","",""
"","html-keyboard-response","45","634422","0.0-6.0-2.12","LF","plssjv82xb","1280","800","de","Fr.11:45","null","","","","learningBlock1","","","","<div style=""font-size:60px;""> </div>","null","LF","learning/Slide13.JPG","This is a bim:","",""
"","html-keyboard-response","46","635428","0.0-6.0-0.13","LF","plssjv82xb","1280","800","de","Fr.11:45","null","","","","learningBlock1","","","","This is a wug:","null","","","","",""
"","image-keyboard-response","47","635758","0.0-6.0-1.13","LF","plssjv82xb","1280","800","de","Fr.11:45","null","","","","","","","","learning/Slide14.JPG","null","","","","",""
"","html-keyboard-response","48","636763","0.0-6.0-2.13","LF","plssjv82xb","1280","800","de","Fr.11:45","null","","","","learningBlock1","","","","<div style=""font-size:60px;""> </div>","null","LF","learning/Slide14.JPG","This is a wug:","",""
"","html-keyboard-response","49","637764","0.0-6.0-0.14","LF","plssjv82xb","1280","800","de","Fr.11:45","null","","","","learningBlock1","","","","This is a tob:","null","","","","",""
"","image-keyboard-response","50","638096","0.0-6.0-1.14","LF","plssjv82xb","1280","800","de","Fr.11:45","null","","","","","","","","learning/Slide15.JPG","null","","","","",""
"","html-keyboard-response","51","639099","0.0-6.0-2.14","LF","plssjv82xb","1280","800","de","Fr.11:45","null","","","","learningBlock1","","","","<div style=""font-size:60px;""> </div>","null","LF","learning/Slide15.JPG","This is a tob:","",""
"","html-keyboard-response","52","640100","0.0-6.0-0.15","LF","plssjv82xb","1280","800","de","Fr.11:45","null","","","","learningBlock1","","","","This is a dep:","null","","","","",""
"","image-keyboard-response","53","640436","0.0-6.0-1.15","LF","plssjv82xb","1280","800","de","Fr.11:45","null","","","","","","","","learning/Slide16.JPG","null","","","","",""
"","html-keyboard-response","54","641439","0.0-6.0-2.15","LF","plssjv82xb","1280","800","de","Fr.11:45","null","","","","learningBlock1","","","","<div style=""font-size:60px;""> </div>","null","LF","learning/Slide16.JPG","This is a dep:","",""
"","html-keyboard-response","55","642443","0.0-6.0-0.16","LF","plssjv82xb","1280","800","de","Fr.11:45","null","","","","learningBlock1","","","","This is a bim:","null","","","","",""
"","image-keyboard-response","56","642777","0.0-6.0-1.16","LF","plssjv82xb","1280","800","de","Fr.11:45","null","","","","","","","","learning/Slide17.JPG","null","","","","",""
"","html-keyboard-response","57","643778","0.0-6.0-2.16","LF","plssjv82xb","1280","800","de","Fr.11:45","null","","","","learningBlock1","","","","<div style=""font-size:60px;""> </div>","null","LF","learning/Slide17.JPG","This is a bim:","",""
"","html-keyboard-response","58","644783","0.0-6.0-0.17","LF","plssjv82xb","1280","800","de","Fr.11:45","null","","","","learningBlock1","","","","This is a tob:","null","","","","",""
"","image-keyboard-response","59","645113","0.0-6.0-1.17","LF","plssjv82xb","1280","800","de","Fr.11:45","null","","","","","","","","learning/Slide18.JPG","null","","","","",""
"","html-keyboard-response","60","646114","0.0-6.0-2.17","LF","plssjv82xb","1280","800","de","Fr.11:45","null","","","","learningBlock1","","","","<div style=""font-size:60px;""> </div>","null","LF","learning/Slide18.JPG","This is a tob:","",""
"","html-keyboard-response","61","647115","0.0-6.0-0.18","LF","plssjv82xb","1280","800","de","Fr.11:45","null","","","","learningBlock1","","","","This is a wug:","null","","","","",""
"","image-keyboard-response","62","647448","0.0-6.0-1.18","LF","plssjv82xb","1280","800","de","Fr.11:45","null","","","","","","","","learning/Slide19.JPG","null","","","","",""
"","html-keyboard-response","63","648452","0.0-6.0-2.18","LF","plssjv82xb","1280","800","de","Fr.11:45","null","","","","learningBlock1","","","","<div style=""font-size:60px;""> </div>","null","LF","learning/Slide19.JPG","This is a wug:","",""
"","html-keyboard-response","64","649456","0.0-6.0-0.19","LF","plssjv82xb","1280","800","de","Fr.11:45","null","","","","learningBlock1","","","","This is a bim:","null","","","","",""
"","image-keyboard-response","65","649789","0.0-6.0-1.19","LF","plssjv82xb","1280","800","de","Fr.11:45","null","","","","","","","","learning/Slide20.JPG","null","","","","",""
"","html-keyboard-response","66","650793","0.0-6.0-2.19","LF","plssjv82xb","1280","800","de","Fr.11:45","null","","","","learningBlock1","","","","<div style=""font-size:60px;""> </div>","null","LF","learning/Slide20.JPG","This is a bim:","",""
"","html-keyboard-response","67","651799","0.0-6.0-0.20","LF","plssjv82xb","1280","800","de","Fr.11:45","null","","","","learningBlock1","","","","This is a dep:","null","","","","",""
"","image-keyboard-response","68","652129","0.0-6.0-1.20","LF","plssjv82xb","1280","800","de","Fr.11:45","null","","","","","","","","learning/Slide21.JPG","null","","","","",""
"","html-keyboard-response","69","653135","0.0-6.0-2.20","LF","plssjv82xb","1280","800","de","Fr.11:45","null","","","","learningBlock1","","","","<div style=""font-size:60px;""> </div>","null","LF","learning/Slide21.JPG","This is a dep:","",""
"","html-keyboard-response","70","654139","0.0-6.0-0.21","LF","plssjv82xb","1280","800","de","Fr.11:45","null","","","","learningBlock1","","","","This is a bim:","null","","","","",""
"","image-keyboard-response","71","654472","0.0-6.0-1.21","LF","plssjv82xb","1280","800","de","Fr.11:45","null","","","","","","","","learning/Slide22.JPG","null","","","","",""
"","html-keyboard-response","72","655478","0.0-6.0-2.21","LF","plssjv82xb","1280","800","de","Fr.11:45","null","","","","learningBlock1","","","","<div style=""font-size:60px;""> </div>","null","LF","learning/Slide22.JPG","This is a bim:","",""
"","html-keyboard-response","73","656480","0.0-6.0-0.22","LF","plssjv82xb","1280","800","de","Fr.11:45","null","","","","learningBlock1","","","","This is a tob:","null","","","","",""
"","image-keyboard-response","74","656811","0.0-6.0-1.22","LF","plssjv82xb","1280","800","de","Fr.11:45","null","","","","","","","","learning/Slide23.JPG","null","","","","",""
"","html-keyboard-response","75","657814","0.0-6.0-2.22","LF","plssjv82xb","1280","800","de","Fr.11:45","null","","","","learningBlock1","","","","<div style=""font-size:60px;""> </div>","null","LF","learning/Slide23.JPG","This is a tob:","",""
"","html-keyboard-response","76","658816","0.0-6.0-0.23","LF","plssjv82xb","1280","800","de","Fr.11:45","null","","","","learningBlock1","","","","This is a wug:","null","","","","",""
"","image-keyboard-response","77","659143","0.0-6.0-1.23","LF","plssjv82xb","1280","800","de","Fr.11:45","null","","","","","","","","learning/Slide24.JPG","null","","","","",""
"","html-keyboard-response","78","660148","0.0-6.0-2.23","LF","plssjv82xb","1280","800","de","Fr.11:45","null","","","","learningBlock1","","","","<div style=""font-size:60px;""> </div>","null","LF","learning/Slide24.JPG","This is a wug:","",""
"","html-keyboard-response","79","661151","0.0-6.0-0.24","LF","plssjv82xb","1280","800","de","Fr.11:45","null","","","","learningBlock1","","","","This is a dep:","null","","","","",""
"","image-keyboard-response","80","661486","0.0-6.0-1.24","LF","plssjv82xb","1280","800","de","Fr.11:45","null","","","","","","","","learning/Slide25.JPG","null","","","","",""
"","html-keyboard-response","81","662489","0.0-6.0-2.24","LF","plssjv82xb","1280","800","de","Fr.11:45","null","","","","learningBlock1","","","","<div style=""font-size:60px;""> </div>","null","LF","learning/Slide25.JPG","This is a dep:","",""
"","html-keyboard-response","82","663493","0.0-6.0-0.25","LF","plssjv82xb","1280","800","de","Fr.11:45","null","","","","learningBlock1","","","","This is a wug:","null","","","","",""
"","image-keyboard-response","83","663822","0.0-6.0-1.25","LF","plssjv82xb","1280","800","de","Fr.11:45","null","","","","","","","","learning/Slide26.JPG","null","","","","",""
"","html-keyboard-response","84","664826","0.0-6.0-2.25","LF","plssjv82xb","1280","800","de","Fr.11:45","null","","","","learningBlock1","","","","<div style=""font-size:60px;""> </div>","null","LF","learning/Slide26.JPG","This is a wug:","",""
"","html-keyboard-response","85","665829","0.0-6.0-0.26","LF","plssjv82xb","1280","800","de","Fr.11:45","null","","","","learningBlock1","","","","This is a bim:","null","","","","",""
"","image-keyboard-response","86","666161","0.0-6.0-1.26","LF","plssjv82xb","1280","800","de","Fr.11:45","null","","","","","","","","learning/Slide27.JPG","null","","","","",""
"","html-keyboard-response","87","667162","0.0-6.0-2.26","LF","plssjv82xb","1280","800","de","Fr.11:45","null","","","","learningBlock1","","","","<div style=""font-size:60px;""> </div>","null","LF","learning/Slide27.JPG","This is a bim:","",""
"","html-keyboard-response","88","668164","0.0-6.0-0.27","LF","plssjv82xb","1280","800","de","Fr.11:45","null","","","","learningBlock1","","","","This is a dep:","null","","","","",""
"","image-keyboard-response","89","668493","0.0-6.0-1.27","LF","plssjv82xb","1280","800","de","Fr.11:45","null","","","","","","","","learning/Slide28.JPG","null","","","","",""
"","html-keyboard-response","90","669496","0.0-6.0-2.27","LF","plssjv82xb","1280","800","de","Fr.11:45","null","","","","learningBlock1","","","","<div style=""font-size:60px;""> </div>","null","LF","learning/Slide28.JPG","This is a dep:","",""
"","html-keyboard-response","91","670501","0.0-6.0-0.28","LF","plssjv82xb","1280","800","de","Fr.11:45","null","","","","learningBlock1","","","","This is a tob:","null","","","","",""
"","image-keyboard-response","92","670836","0.0-6.0-1.28","LF","plssjv82xb","1280","800","de","Fr.11:45","null","","","","","","","","learning/Slide29.JPG","null","","","","",""
"","html-keyboard-response","93","671840","0.0-6.0-2.28","LF","plssjv82xb","1280","800","de","Fr.11:45","null","","","","learningBlock1","","","","<div style=""font-size:60px;""> </div>","null","LF","learning/Slide29.JPG","This is a tob:","",""
"","html-keyboard-response","94","672846","0.0-6.0-0.29","LF","plssjv82xb","1280","800","de","Fr.11:45","null","","","","learningBlock1","","","","This is a dep:","null","","","","",""
"","image-keyboard-response","95","673179","0.0-6.0-1.29","LF","plssjv82xb","1280","800","de","Fr.11:45","null","","","","","","","","learning/Slide30.JPG","null","","","","",""
"","html-keyboard-response","96","674184","0.0-6.0-2.29","LF","plssjv82xb","1280","800","de","Fr.11:45","null","","","","learningBlock1","","","","<div style=""font-size:60px;""> </div>","null","LF","learning/Slide30.JPG","This is a dep:","",""
"","html-keyboard-response","97","675189","0.0-6.0-0.30","LF","plssjv82xb","1280","800","de","Fr.11:45","null","","","","learningBlock1","","","","This is a wug:","null","","","","",""
"","image-keyboard-response","98","675522","0.0-6.0-1.30","LF","plssjv82xb","1280","800","de","Fr.11:45","null","","","","","","","","learning/Slide31.JPG","null","","","","",""
"","html-keyboard-response","99","676524","0.0-6.0-2.30","LF","plssjv82xb","1280","800","de","Fr.11:45","null","","","","learningBlock1","","","","<div style=""font-size:60px;""> </div>","null","LF","learning/Slide31.JPG","This is a wug:","",""
"","html-keyboard-response","100","677525","0.0-6.0-0.31","LF","plssjv82xb","1280","800","de","Fr.11:45","null","","","","learningBlock1","","","","This is a tob:","null","","","","",""
"","image-keyboard-response","101","677855","0.0-6.0-1.31","LF","plssjv82xb","1280","800","de","Fr.11:45","null","","","","","","","","learning/Slide32.JPG","null","","","","",""
"","html-keyboard-response","102","678857","0.0-6.0-2.31","LF","plssjv82xb","1280","800","de","Fr.11:45","null","","","","learningBlock1","","","","<div style=""font-size:60px;""> </div>","null","LF","learning/Slide32.JPG","This is a tob:","",""
"","html-keyboard-response","103","679858","0.0-6.0-0.32","LF","plssjv82xb","1280","800","de","Fr.11:45","null","","","","learningBlock1","","","","This is a bim:","null","","","","",""
"","image-keyboard-response","104","680193","0.0-6.0-1.32","LF","plssjv82xb","1280","800","de","Fr.11:45","null","","","","","","","","learning/Slide33.JPG","null","","","","",""
"","html-keyboard-response","105","681196","0.0-6.0-2.32","LF","plssjv82xb","1280","800","de","Fr.11:45","null","","","","learningBlock1","","","","<div style=""font-size:60px;""> </div>","null","LF","learning/Slide33.JPG","This is a bim:","",""
"","html-keyboard-response","106","682198","0.0-6.0-0.33","LF","plssjv82xb","1280","800","de","Fr.11:45","null","","","","learningBlock1","","","","This is a tob:","null","","","","",""
"","image-keyboard-response","107","682525","0.0-6.0-1.33","LF","plssjv82xb","1280","800","de","Fr.11:45","null","","","","","","","","learning/Slide34.JPG","null","","","","",""
"","html-keyboard-response","108","683530","0.0-6.0-2.33","LF","plssjv82xb","1280","800","de","Fr.11:45","null","","","","learningBlock1","","","","<div style=""font-size:60px;""> </div>","null","LF","learning/Slide34.JPG","This is a tob:","",""
"","html-keyboard-response","109","684532","0.0-6.0-0.34","LF","plssjv82xb","1280","800","de","Fr.11:45","null","","","","learningBlock1","","","","This is a bim:","null","","","","",""
"","image-keyboard-response","110","684864","0.0-6.0-1.34","LF","plssjv82xb","1280","800","de","Fr.11:45","null","","","","","","","","learning/Slide35.JPG","null","","","","",""
"","html-keyboard-response","111","685869","0.0-6.0-2.34","LF","plssjv82xb","1280","800","de","Fr.11:45","null","","","","learningBlock1","","","","<div style=""font-size:60px;""> </div>","null","LF","learning/Slide35.JPG","This is a bim:","",""
"","html-keyboard-response","112","686872","0.0-6.0-0.35","LF","plssjv82xb","1280","800","de","Fr.11:45","null","","","","learningBlock1","","","","This is a dep:","null","","","","",""
"","image-keyboard-response","113","687205","0.0-6.0-1.35","LF","plssjv82xb","1280","800","de","Fr.11:45","null","","","","","","","","learning/Slide36.JPG","null","","","","",""
"","html-keyboard-response","114","688207","0.0-6.0-2.35","LF","plssjv82xb","1280","800","de","Fr.11:45","null","","","","learningBlock1","","","","<div style=""font-size:60px;""> </div>","null","LF","learning/Slide36.JPG","This is a dep:","",""
"","html-keyboard-response","115","689211","0.0-6.0-0.36","LF","plssjv82xb","1280","800","de","Fr.11:45","null","","","","learningBlock1","","","","This is a tob:","null","","","","",""
"","image-keyboard-response","116","689545","0.0-6.0-1.36","LF","plssjv82xb","1280","800","de","Fr.11:45","null","","","","","","","","learning/Slide37.JPG","null","","","","",""
"","html-keyboard-response","117","690549","0.0-6.0-2.36","LF","plssjv82xb","1280","800","de","Fr.11:45","null","","","","learningBlock1","","","","<div style=""font-size:60px;""> </div>","null","LF","learning/Slide37.JPG","This is a tob:","",""
"","html-keyboard-response","118","691555","0.0-6.0-0.37","LF","plssjv82xb","1280","800","de","Fr.11:45","null","","","","learningBlock1","","","","This is a wug:","null","","","","",""
"","image-keyboard-response","119","691889","0.0-6.0-1.37","LF","plssjv82xb","1280","800","de","Fr.11:45","null","","","","","","","","learning/Slide38.JPG","null","","","","",""
"","html-keyboard-response","120","692892","0.0-6.0-2.37","LF","plssjv82xb","1280","800","de","Fr.11:45","null","","","","learningBlock1","","","","<div style=""font-size:60px;""> </div>","null","LF","learning/Slide38.JPG","This is a wug:","",""
"","html-keyboard-response","121","693898","0.0-6.0-0.38","LF","plssjv82xb","1280","800","de","Fr.11:45","null","","","","learningBlock1","","","","This is a bim:","null","","","","",""
"","image-keyboard-response","122","694226","0.0-6.0-1.38","LF","plssjv82xb","1280","800","de","Fr.11:45","null","","","","","","","","learning/Slide39.JPG","null","","","","",""
"","html-keyboard-response","123","695231","0.0-6.0-2.38","LF","plssjv82xb","1280","800","de","Fr.11:45","null","","","","learningBlock1","","","","<div style=""font-size:60px;""> </div>","null","LF","learning/Slide39.JPG","This is a bim:","",""
"","html-keyboard-response","124","696236","0.0-6.0-0.39","LF","plssjv82xb","1280","800","de","Fr.11:45","null","","","","learningBlock1","","","","This is a tob:","null","","","","",""
"","image-keyboard-response","125","696567","0.0-6.0-1.39","LF","plssjv82xb","1280","800","de","Fr.11:45","null","","","","","","","","learning/Slide40.JPG","null","","","","",""
"","html-keyboard-response","126","697572","0.0-6.0-2.39","LF","plssjv82xb","1280","800","de","Fr.11:45","null","","","","learningBlock1","","","","<div style=""font-size:60px;""> </div>","null","LF","learning/Slide40.JPG","This is a tob:","",""
"","html-keyboard-response","127","698576","0.0-6.0-0.40","LF","plssjv82xb","1280","800","de","Fr.11:45","null","","","","learningBlock1","","","","This is a bim:","null","","","","",""
"","image-keyboard-response","128","698905","0.0-6.0-1.40","LF","plssjv82xb","1280","800","de","Fr.11:45","null","","","","","","","","learning/Slide41.JPG","null","","","","",""
"","html-keyboard-response","129","699906","0.0-6.0-2.40","LF","plssjv82xb","1280","800","de","Fr.11:45","null","","","","learningBlock1","","","","<div style=""font-size:60px;""> </div>","null","LF","learning/Slide41.JPG","This is a bim:","",""
"","html-keyboard-response","130","700911","0.0-6.0-0.41","LF","plssjv82xb","1280","800","de","Fr.11:45","null","","","","learningBlock1","","","","This is a dep:","null","","","","",""
"","image-keyboard-response","131","701238","0.0-6.0-1.41","LF","plssjv82xb","1280","800","de","Fr.11:45","null","","","","","","","","learning/Slide42.JPG","null","","","","",""
"","html-keyboard-response","132","702245","0.0-6.0-2.41","LF","plssjv82xb","1280","800","de","Fr.11:45","null","","","","learningBlock1","","","","<div style=""font-size:60px;""> </div>","null","LF","learning/Slide42.JPG","This is a dep:","",""
"","html-keyboard-response","133","703250","0.0-6.0-0.42","LF","plssjv82xb","1280","800","de","Fr.11:45","null","","","","learningBlock1","","","","This is a wug:","null","","","","",""
"","image-keyboard-response","134","703586","0.0-6.0-1.42","LF","plssjv82xb","1280","800","de","Fr.11:45","null","","","","","","","","learning/Slide43.JPG","null","","","","",""
"","html-keyboard-response","135","704589","0.0-6.0-2.42","LF","plssjv82xb","1280","800","de","Fr.11:45","null","","","","learningBlock1","","","","<div style=""font-size:60px;""> </div>","null","LF","learning/Slide43.JPG","This is a wug:","",""
"","html-keyboard-response","136","705593","0.0-6.0-0.43","LF","plssjv82xb","1280","800","de","Fr.11:45","null","","","","learningBlock1","","","","This is a bim:","null","","","","",""
"","image-keyboard-response","137","705922","0.0-6.0-1.43","LF","plssjv82xb","1280","800","de","Fr.11:45","null","","","","","","","","learning/Slide44.JPG","null","","","","",""
"","html-keyboard-response","138","706923","0.0-6.0-2.43","LF","plssjv82xb","1280","800","de","Fr.11:45","null","","","","learningBlock1","","","","<div style=""font-size:60px;""> </div>","null","LF","learning/Slide44.JPG","This is a bim:","",""
"","html-keyboard-response","139","707929","0.0-6.0-0.44","LF","plssjv82xb","1280","800","de","Fr.11:45","null","","","","learningBlock1","","","","This is a wug:","null","","","","",""
"","image-keyboard-response","140","708257","0.0-6.0-1.44","LF","plssjv82xb","1280","800","de","Fr.11:45","null","","","","","","","","learning/Slide45.JPG","null","","","","",""
"","html-keyboard-response","141","709260","0.0-6.0-2.44","LF","plssjv82xb","1280","800","de","Fr.11:45","null","","","","learningBlock1","","","","<div style=""font-size:60px;""> </div>","null","LF","learning/Slide45.JPG","This is a wug:","",""
"","html-keyboard-response","142","710263","0.0-6.0-0.45","LF","plssjv82xb","1280","800","de","Fr.11:45","null","","","","learningBlock1","","","","This is a dep:","null","","","","",""
"","image-keyboard-response","143","710596","0.0-6.0-1.45","LF","plssjv82xb","1280","800","de","Fr.11:45","null","","","","","","","","learning/Slide46.JPG","null","","","","",""
"","html-keyboard-response","144","711602","0.0-6.0-2.45","LF","plssjv82xb","1280","800","de","Fr.11:45","null","","","","learningBlock1","","","","<div style=""font-size:60px;""> </div>","null","LF","learning/Slide46.JPG","This is a dep:","",""
"","html-keyboard-response","145","712605","0.0-6.0-0.46","LF","plssjv82xb","1280","800","de","Fr.11:45","null","","","","learningBlock1","","","","This is a tob:","null","","","","",""
"","image-keyboard-response","146","712939","0.0-6.0-1.46","LF","plssjv82xb","1280","800","de","Fr.11:45","null","","","","","","","","learning/Slide47.JPG","null","","","","",""
"","html-keyboard-response","147","713942","0.0-6.0-2.46","LF","plssjv82xb","1280","800","de","Fr.11:45","null","","","","learningBlock1","","","","<div style=""font-size:60px;""> </div>","null","LF","learning/Slide47.JPG","This is a tob:","",""
"","html-keyboard-response","148","714948","0.0-6.0-0.47","LF","plssjv82xb","1280","800","de","Fr.11:45","null","","","","learningBlock1","","","","This is a bim:","null","","","","",""
"","image-keyboard-response","149","715275","0.0-6.0-1.47","LF","plssjv82xb","1280","800","de","Fr.11:45","null","","","","","","","","learning/Slide48.JPG","null","","","","",""
"","html-keyboard-response","150","716281","0.0-6.0-2.47","LF","plssjv82xb","1280","800","de","Fr.11:45","null","","","","learningBlock1","","","","<div style=""font-size:60px;""> </div>","null","LF","learning/Slide48.JPG","This is a bim:","",""
"","html-keyboard-response","151","717283","0.0-6.0-0.48","LF","plssjv82xb","1280","800","de","Fr.11:45","null","","","","learningBlock1","","","","This is a dep:","null","","","","",""
"","image-keyboard-response","152","717615","0.0-6.0-1.48","LF","plssjv82xb","1280","800","de","Fr.11:45","null","","","","","","","","learning/Slide49.JPG","null","","","","",""
"","html-keyboard-response","153","718616","0.0-6.0-2.48","LF","plssjv82xb","1280","800","de","Fr.11:45","null","","","","learningBlock1","","","","<div style=""font-size:60px;""> </div>","null","LF","learning/Slide49.JPG","This is a dep:","",""
"","html-keyboard-response","154","719622","0.0-6.0-0.49","LF","plssjv82xb","1280","800","de","Fr.11:45","null","","","","learningBlock1","","","","This is a tob:","null","","","","",""
"","image-keyboard-response","155","719957","0.0-6.0-1.49","LF","plssjv82xb","1280","800","de","Fr.11:45","null","","","","","","","","learning/Slide50.JPG","null","","","","",""
"","html-keyboard-response","156","720959","0.0-6.0-2.49","LF","plssjv82xb","1280","800","de","Fr.11:45","null","","","","learningBlock1","","","","<div style=""font-size:60px;""> </div>","null","LF","learning/Slide50.JPG","This is a tob:","",""
"","html-keyboard-response","157","721963","0.0-6.0-0.50","LF","plssjv82xb","1280","800","de","Fr.11:45","null","","","","learningBlock1","","","","This is a bim:","null","","","","",""
"","image-keyboard-response","158","722296","0.0-6.0-1.50","LF","plssjv82xb","1280","800","de","Fr.11:45","null","","","","","","","","learning/Slide51.JPG","null","","","","",""
"","html-keyboard-response","159","723300","0.0-6.0-2.50","LF","plssjv82xb","1280","800","de","Fr.11:45","null","","","","learningBlock1","","","","<div style=""font-size:60px;""> </div>","null","LF","learning/Slide51.JPG","This is a bim:","",""
"","html-keyboard-response","160","724306","0.0-6.0-0.51","LF","plssjv82xb","1280","800","de","Fr.11:45","null","","","","learningBlock1","","","","This is a wug:","null","","","","",""
"","image-keyboard-response","161","724641","0.0-6.0-1.51","LF","plssjv82xb","1280","800","de","Fr.11:45","null","","","","","","","","learning/Slide52.JPG","null","","","","",""
"","html-keyboard-response","162","725646","0.0-6.0-2.51","LF","plssjv82xb","1280","800","de","Fr.11:45","null","","","","learningBlock1","","","","<div style=""font-size:60px;""> </div>","null","LF","learning/Slide52.JPG","This is a wug:","",""
"","html-keyboard-response","163","726649","0.0-6.0-0.52","LF","plssjv82xb","1280","800","de","Fr.11:45","null","","","","learningBlock1","","","","This is a tob:","null","","","","",""
"","image-keyboard-response","164","726977","0.0-6.0-1.52","LF","plssjv82xb","1280","800","de","Fr.11:45","null","","","","","","","","learning/Slide53.JPG","null","","","","",""
"","html-keyboard-response","165","727980","0.0-6.0-2.52","LF","plssjv82xb","1280","800","de","Fr.11:45","null","","","","learningBlock1","","","","<div style=""font-size:60px;""> </div>","null","LF","learning/Slide53.JPG","This is a tob:","",""
"","html-keyboard-response","166","728986","0.0-6.0-0.53","LF","plssjv82xb","1280","800","de","Fr.11:45","null","","","","learningBlock1","","","","This is a dep:","null","","","","",""
"","image-keyboard-response","167","729315","0.0-6.0-1.53","LF","plssjv82xb","1280","800","de","Fr.11:45","null","","","","","","","","learning/Slide54.JPG","null","","","","",""
"","html-keyboard-response","168","730316","0.0-6.0-2.53","LF","plssjv82xb","1280","800","de","Fr.11:45","null","","","","learningBlock1","","","","<div style=""font-size:60px;""> </div>","null","LF","learning/Slide54.JPG","This is a dep:","",""
"","html-keyboard-response","169","731317","0.0-6.0-0.54","LF","plssjv82xb","1280","800","de","Fr.11:45","null","","","","learningBlock1","","","","This is a bim:","null","","","","",""
"","image-keyboard-response","170","731652","0.0-6.0-1.54","LF","plssjv82xb","1280","800","de","Fr.11:45","null","","","","","","","","learning/Slide55.JPG","null","","","","",""
"","html-keyboard-response","171","732655","0.0-6.0-2.54","LF","plssjv82xb","1280","800","de","Fr.11:45","null","","","","learningBlock1","","","","<div style=""font-size:60px;""> </div>","null","LF","learning/Slide55.JPG","This is a bim:","",""
"","html-keyboard-response","172","733657","0.0-6.0-0.55","LF","plssjv82xb","1280","800","de","Fr.11:45","null","","","","learningBlock1","","","","This is a tob:","null","","","","",""
"","image-keyboard-response","173","733988","0.0-6.0-1.55","LF","plssjv82xb","1280","800","de","Fr.11:45","null","","","","","","","","learning/Slide56.JPG","null","","","","",""
"","html-keyboard-response","174","734992","0.0-6.0-2.55","LF","plssjv82xb","1280","800","de","Fr.11:45","null","","","","learningBlock1","","","","<div style=""font-size:60px;""> </div>","null","LF","learning/Slide56.JPG","This is a tob:","",""
"","html-keyboard-response","175","735995","0.0-6.0-0.56","LF","plssjv82xb","1280","800","de","Fr.11:45","null","","","","learningBlock1","","","","This is a dep:","null","","","","",""
"","image-keyboard-response","176","736325","0.0-6.0-1.56","LF","plssjv82xb","1280","800","de","Fr.11:45","null","","","","","","","","learning/Slide57.JPG","null","","","","",""
"","html-keyboard-response","177","737330","0.0-6.0-2.56","LF","plssjv82xb","1280","800","de","Fr.11:45","null","","","","learningBlock1","","","","<div style=""font-size:60px;""> </div>","null","LF","learning/Slide57.JPG","This is a dep:","",""
"","html-keyboard-response","178","738335","0.0-6.0-0.57","LF","plssjv82xb","1280","800","de","Fr.11:45","null","","","","learningBlock1","","","","This is a wug:","null","","","","",""
"","image-keyboard-response","179","738666","0.0-6.0-1.57","LF","plssjv82xb","1280","800","de","Fr.11:45","null","","","","","","","","learning/Slide58.JPG","null","","","","",""
"","html-keyboard-response","180","739671","0.0-6.0-2.57","LF","plssjv82xb","1280","800","de","Fr.11:45","null","","","","learningBlock1","","","","<div style=""font-size:60px;""> </div>","null","LF","learning/Slide58.JPG","This is a wug:","",""
"","html-keyboard-response","181","740673","0.0-6.0-0.58","LF","plssjv82xb","1280","800","de","Fr.11:45","null","","","","learningBlock1","","","","This is a dep:","null","","","","",""
"","image-keyboard-response","182","741005","0.0-6.0-1.58","LF","plssjv82xb","1280","800","de","Fr.11:45","null","","","","","","","","learning/Slide59.JPG","null","","","","",""
"","html-keyboard-response","183","742007","0.0-6.0-2.58","LF","plssjv82xb","1280","800","de","Fr.11:45","null","","","","learningBlock1","","","","<div style=""font-size:60px;""> </div>","null","LF","learning/Slide59.JPG","This is a dep:","",""
"","html-keyboard-response","184","743012","0.0-6.0-0.59","LF","plssjv82xb","1280","800","de","Fr.11:45","null","","","","learningBlock1","","","","This is a wug:","null","","","","",""
"","image-keyboard-response","185","743344","0.0-6.0-1.59","LF","plssjv82xb","1280","800","de","Fr.11:45","null","","","","","","","","learning/Slide60.JPG","null","","","","",""
"","html-keyboard-response","186","744346","0.0-6.0-2.59","LF","plssjv82xb","1280","800","de","Fr.11:45","null","","","","learningBlock1","","","","<div style=""font-size:60px;""> </div>","null","LF","learning/Slide60.JPG","This is a wug:","",""
"","html-keyboard-response","187","745355","0.0-6.0-0.60","LF","plssjv82xb","1280","800","de","Fr.11:45","null","","","","learningBlock1","","","","This is a bim:","null","","","","",""
"","image-keyboard-response","188","745688","0.0-6.0-1.60","LF","plssjv82xb","1280","800","de","Fr.11:45","null","","","","","","","","learning/Slide61.JPG","null","","","","",""
"","html-keyboard-response","189","746694","0.0-6.0-2.60","LF","plssjv82xb","1280","800","de","Fr.11:45","null","","","","learningBlock1","","","","<div style=""font-size:60px;""> </div>","null","LF","learning/Slide61.JPG","This is a bim:","",""
"","html-keyboard-response","190","747697","0.0-6.0-0.61","LF","plssjv82xb","1280","800","de","Fr.11:45","null","","","","learningBlock1","","","","This is a dep:","null","","","","",""
"","image-keyboard-response","191","748025","0.0-6.0-1.61","LF","plssjv82xb","1280","800","de","Fr.11:45","null","","","","","","","","learning/Slide62.JPG","null","","","","",""
"","html-keyboard-response","192","749028","0.0-6.0-2.61","LF","plssjv82xb","1280","800","de","Fr.11:45","null","","","","learningBlock1","","","","<div style=""font-size:60px;""> </div>","null","LF","learning/Slide62.JPG","This is a dep:","",""
"","html-keyboard-response","193","750030","0.0-6.0-0.62","LF","plssjv82xb","1280","800","de","Fr.11:45","null","","","","learningBlock1","","","","This is a bim:","null","","","","",""
"","image-keyboard-response","194","750366","0.0-6.0-1.62","LF","plssjv82xb","1280","800","de","Fr.11:45","null","","","","","","","","learning/Slide63.JPG","null","","","","",""
"","html-keyboard-response","195","751372","0.0-6.0-2.62","LF","plssjv82xb","1280","800","de","Fr.11:45","null","","","","learningBlock1","","","","<div style=""font-size:60px;""> </div>","null","LF","learning/Slide63.JPG","This is a bim:","",""
"","html-keyboard-response","196","752377","0.0-6.0-0.63","LF","plssjv82xb","1280","800","de","Fr.11:45","null","","","","learningBlock1","","","","This is a tob:","null","","","","",""
"","image-keyboard-response","197","752710","0.0-6.0-1.63","LF","plssjv82xb","1280","800","de","Fr.11:45","null","","","","","","","","learning/Slide64.JPG","null","","","","",""
"","html-keyboard-response","198","753712","0.0-6.0-2.63","LF","plssjv82xb","1280","800","de","Fr.11:45","null","","","","learningBlock1","","","","<div style=""font-size:60px;""> </div>","null","LF","learning/Slide64.JPG","This is a tob:","",""
"","html-keyboard-response","199","754714","0.0-6.0-0.64","LF","plssjv82xb","1280","800","de","Fr.11:45","null","","","","learningBlock1","","","","This is a wug:","null","","","","",""
"","image-keyboard-response","200","755047","0.0-6.0-1.64","LF","plssjv82xb","1280","800","de","Fr.11:45","null","","","","","","","","learning/Slide65.JPG","null","","","","",""
"","html-keyboard-response","201","756052","0.0-6.0-2.64","LF","plssjv82xb","1280","800","de","Fr.11:45","null","","","","learningBlock1","","","","<div style=""font-size:60px;""> </div>","null","LF","learning/Slide65.JPG","This is a wug:","",""
"","html-keyboard-response","202","757055","0.0-6.0-0.65","LF","plssjv82xb","1280","800","de","Fr.11:45","null","","","","learningBlock1","","","","This is a dep:","null","","","","",""
"","image-keyboard-response","203","757388","0.0-6.0-1.65","LF","plssjv82xb","1280","800","de","Fr.11:45","null","","","","","","","","learning/Slide66.JPG","null","","","","",""
"","html-keyboard-response","204","758392","0.0-6.0-2.65","LF","plssjv82xb","1280","800","de","Fr.11:45","null","","","","learningBlock1","","","","<div style=""font-size:60px;""> </div>","null","LF","learning/Slide66.JPG","This is a dep:","",""
"","html-keyboard-response","205","759394","0.0-6.0-0.66","LF","plssjv82xb","1280","800","de","Fr.11:45","null","","","","learningBlock1","","","","This is a tob:","null","","","","",""
"","image-keyboard-response","206","759726","0.0-6.0-1.66","LF","plssjv82xb","1280","800","de","Fr.11:45","null","","","","","","","","learning/Slide67.JPG","null","","","","",""
"","html-keyboard-response","207","760732","0.0-6.0-2.66","LF","plssjv82xb","1280","800","de","Fr.11:45","null","","","","learningBlock1","","","","<div style=""font-size:60px;""> </div>","null","LF","learning/Slide67.JPG","This is a tob:","",""
"","html-keyboard-response","208","761738","0.0-6.0-0.67","LF","plssjv82xb","1280","800","de","Fr.11:45","null","","","","learningBlock1","","","","This is a wug:","null","","","","",""
"","image-keyboard-response","209","762071","0.0-6.0-1.67","LF","plssjv82xb","1280","800","de","Fr.11:45","null","","","","","","","","learning/Slide68.JPG","null","","","","",""
"","html-keyboard-response","210","763073","0.0-6.0-2.67","LF","plssjv82xb","1280","800","de","Fr.11:45","null","","","","learningBlock1","","","","<div style=""font-size:60px;""> </div>","null","LF","learning/Slide68.JPG","This is a wug:","",""
"","html-keyboard-response","211","764077","0.0-6.0-0.68","LF","plssjv82xb","1280","800","de","Fr.11:45","null","","","","learningBlock1","","","","This is a tob:","null","","","","",""
"","image-keyboard-response","212","764408","0.0-6.0-1.68","LF","plssjv82xb","1280","800","de","Fr.11:45","null","","","","","","","","learning/Slide69.JPG","null","","","","",""
"","html-keyboard-response","213","765409","0.0-6.0-2.68","LF","plssjv82xb","1280","800","de","Fr.11:45","null","","","","learningBlock1","","","","<div style=""font-size:60px;""> </div>","null","LF","learning/Slide69.JPG","This is a tob:","",""
"","html-keyboard-response","214","766413","0.0-6.0-0.69","LF","plssjv82xb","1280","800","de","Fr.11:45","null","","","","learningBlock1","","","","This is a dep:","null","","","","",""
"","image-keyboard-response","215","766743","0.0-6.0-1.69","LF","plssjv82xb","1280","800","de","Fr.11:45","null","","","","","","","","learning/Slide70.JPG","null","","","","",""
"","html-keyboard-response","216","767747","0.0-6.0-2.69","LF","plssjv82xb","1280","800","de","Fr.11:45","null","","","","learningBlock1","","","","<div style=""font-size:60px;""> </div>","null","LF","learning/Slide70.JPG","This is a dep:","",""
"","html-keyboard-response","217","768748","0.0-6.0-0.70","LF","plssjv82xb","1280","800","de","Fr.11:45","null","","","","learningBlock1","","","","This is a wug:","null","","","","",""
"","image-keyboard-response","218","769076","0.0-6.0-1.70","LF","plssjv82xb","1280","800","de","Fr.11:45","null","","","","","","","","learning/Slide71.JPG","null","","","","",""
"","html-keyboard-response","219","770081","0.0-6.0-2.70","LF","plssjv82xb","1280","800","de","Fr.11:45","null","","","","learningBlock1","","","","<div style=""font-size:60px;""> </div>","null","LF","learning/Slide71.JPG","This is a wug:","",""
"","html-keyboard-response","220","771083","0.0-6.0-0.71","LF","plssjv82xb","1280","800","de","Fr.11:45","null","","","","learningBlock1","","","","This is a bim:","null","","","","",""
"","image-keyboard-response","221","771417","0.0-6.0-1.71","LF","plssjv82xb","1280","800","de","Fr.11:45","null","","","","","","","","learning/Slide72.JPG","null","","","","",""
"","html-keyboard-response","222","772421","0.0-6.0-2.71","LF","plssjv82xb","1280","800","de","Fr.11:45","null","","","","learningBlock1","","","","<div style=""font-size:60px;""> </div>","null","LF","learning/Slide72.JPG","This is a bim:","",""
"","html-keyboard-response","223","773424","0.0-6.0-0.72","LF","plssjv82xb","1280","800","de","Fr.11:45","null","","","","learningBlock1","","","","This is a wug:","null","","","","",""
"","image-keyboard-response","224","773755","0.0-6.0-1.72","LF","plssjv82xb","1280","800","de","Fr.11:45","null","","","","","","","","learning/Slide73.JPG","null","","","","",""
"","html-keyboard-response","225","774757","0.0-6.0-2.72","LF","plssjv82xb","1280","800","de","Fr.11:45","null","","","","learningBlock1","","","","<div style=""font-size:60px;""> </div>","null","LF","learning/Slide73.JPG","This is a wug:","",""
"","html-keyboard-response","226","775759","0.0-6.0-0.73","LF","plssjv82xb","1280","800","de","Fr.11:45","null","","","","learningBlock1","","","","This is a dep:","null","","","","",""
"","image-keyboard-response","227","776088","0.0-6.0-1.73","LF","plssjv82xb","1280","800","de","Fr.11:45","null","","","","","","","","learning/Slide74.JPG","null","","","","",""
"","html-keyboard-response","228","777092","0.0-6.0-2.73","LF","plssjv82xb","1280","800","de","Fr.11:45","null","","","","learningBlock1","","","","<div style=""font-size:60px;""> </div>","null","LF","learning/Slide74.JPG","This is a dep:","",""
"","html-keyboard-response","229","778094","0.0-6.0-0.74","LF","plssjv82xb","1280","800","de","Fr.11:45","null","","","","learningBlock1","","","","This is a tob:","null","","","","",""
"","image-keyboard-response","230","778421","0.0-6.0-1.74","LF","plssjv82xb","1280","800","de","Fr.11:45","null","","","","","","","","learning/Slide75.JPG","null","","","","",""
"","html-keyboard-response","231","779427","0.0-6.0-2.74","LF","plssjv82xb","1280","800","de","Fr.11:45","null","","","","learningBlock1","","","","<div style=""font-size:60px;""> </div>","null","LF","learning/Slide75.JPG","This is a tob:","",""
"","html-keyboard-response","232","780432","0.0-6.0-0.75","LF","plssjv82xb","1280","800","de","Fr.11:45","null","","","","learningBlock1","","","","This is a bim:","null","","","","",""
"","image-keyboard-response","233","780763","0.0-6.0-1.75","LF","plssjv82xb","1280","800","de","Fr.11:45","null","","","","","","","","learning/Slide76.JPG","null","","","","",""
"","html-keyboard-response","234","781765","0.0-6.0-2.75","LF","plssjv82xb","1280","800","de","Fr.11:45","null","","","","learningBlock1","","","","<div style=""font-size:60px;""> </div>","null","LF","learning/Slide76.JPG","This is a bim:","",""
"","html-keyboard-response","235","782766","0.0-6.0-0.76","LF","plssjv82xb","1280","800","de","Fr.11:45","null","","","","learningBlock1","","","","This is a tob:","null","","","","",""
"","image-keyboard-response","236","783101","0.0-6.0-1.76","LF","plssjv82xb","1280","800","de","Fr.11:45","null","","","","","","","","learning/Slide77.JPG","null","","","","",""
"","html-keyboard-response","237","784106","0.0-6.0-2.76","LF","plssjv82xb","1280","800","de","Fr.11:45","null","","","","learningBlock1","","","","<div style=""font-size:60px;""> </div>","null","LF","learning/Slide77.JPG","This is a tob:","",""
"","html-keyboard-response","238","785108","0.0-6.0-0.77","LF","plssjv82xb","1280","800","de","Fr.11:45","null","","","","learningBlock1","","","","This is a wug:","null","","","","",""
"","image-keyboard-response","239","785438","0.0-6.0-1.77","LF","plssjv82xb","1280","800","de","Fr.11:45","null","","","","","","","","learning/Slide78.JPG","null","","","","",""
"","html-keyboard-response","240","786442","0.0-6.0-2.77","LF","plssjv82xb","1280","800","de","Fr.11:45","null","","","","learningBlock1","","","","<div style=""font-size:60px;""> </div>","null","LF","learning/Slide78.JPG","This is a wug:","",""
"","html-keyboard-response","241","787447","0.0-6.0-0.78","LF","plssjv82xb","1280","800","de","Fr.11:45","null","","","","learningBlock1","","","","This is a bim:","null","","","","",""
"","image-keyboard-response","242","787775","0.0-6.0-1.78","LF","plssjv82xb","1280","800","de","Fr.11:45","null","","","","","","","","learning/Slide79.JPG","null","","","","",""
"","html-keyboard-response","243","788777","0.0-6.0-2.78","LF","plssjv82xb","1280","800","de","Fr.11:45","null","","","","learningBlock1","","","","<div style=""font-size:60px;""> </div>","null","LF","learning/Slide79.JPG","This is a bim:","",""
"","html-keyboard-response","244","789778","0.0-6.0-0.79","LF","plssjv82xb","1280","800","de","Fr.11:45","null","","","","learningBlock1","","","","This is a tob:","null","","","","",""
"","image-keyboard-response","245","790112","0.0-6.0-1.79","LF","plssjv82xb","1280","800","de","Fr.11:45","null","","","","","","","","learning/Slide80.JPG","null","","","","",""
"","html-keyboard-response","246","791114","0.0-6.0-2.79","LF","plssjv82xb","1280","800","de","Fr.11:45","null","","","","learningBlock1","","","","<div style=""font-size:60px;""> </div>","null","LF","learning/Slide80.JPG","This is a tob:","",""
"","instructions","247","933289","0.0-7.0","LF","plssjv82xb","1280","800","de","Fr.11:45","NA","","","[{""page_index"":0,""viewing_time"":142175.23500003153}]","instructions","","","","","","","","","",""
"","html-keyboard-response","248","934290","0.0-8.0-0.0","LF","plssjv82xb","1280","800","de","Fr.11:45","null","","","","learningBlock2","","","","This is a wug:","null","","","","",""
"","image-keyboard-response","249","934620","0.0-8.0-1.0","LF","plssjv82xb","1280","800","de","Fr.11:45","null","","","","","","","","learning/Slide81.JPG","null","","","","",""
"","html-keyboard-response","250","935622","0.0-8.0-2.0","LF","plssjv82xb","1280","800","de","Fr.11:45","null","","","","learningBlock2","","","","<div style=""font-size:60px;""> </div>","null","LF","learning/Slide81.JPG","This is a wug:","",""
"","html-keyboard-response","251","936624","0.0-8.0-0.1","LF","plssjv82xb","1280","800","de","Fr.11:45","null","","","","learningBlock2","","","","This is a bim:","null","","","","",""
"","image-keyboard-response","252","936955","0.0-8.0-1.1","LF","plssjv82xb","1280","800","de","Fr.11:45","null","","","","","","","","learning/Slide82.JPG","null","","","","",""
"","html-keyboard-response","253","937960","0.0-8.0-2.1","LF","plssjv82xb","1280","800","de","Fr.11:45","null","","","","learningBlock2","","","","<div style=""font-size:60px;""> </div>","null","LF","learning/Slide82.JPG","This is a bim:","",""
"","html-keyboard-response","254","938962","0.0-8.0-0.2","LF","plssjv82xb","1280","800","de","Fr.11:45","null","","","","learningBlock2","","","","This is a wug:","null","","","","",""
"","image-keyboard-response","255","939291","0.0-8.0-1.2","LF","plssjv82xb","1280","800","de","Fr.11:45","null","","","","","","","","learning/Slide83.JPG","null","","","","",""
"","html-keyboard-response","256","940294","0.0-8.0-2.2","LF","plssjv82xb","1280","800","de","Fr.11:45","null","","","","learningBlock2","","","","<div style=""font-size:60px;""> </div>","null","LF","learning/Slide83.JPG","This is a wug:","",""
"","html-keyboard-response","257","941298","0.0-8.0-0.3","LF","plssjv82xb","1280","800","de","Fr.11:45","null","","","","learningBlock2","","","","This is a dep:","null","","","","",""
"","image-keyboard-response","258","941629","0.0-8.0-1.3","LF","plssjv82xb","1280","800","de","Fr.11:45","null","","","","","","","","learning/Slide84.JPG","null","","","","",""
"","html-keyboard-response","259","942634","0.0-8.0-2.3","LF","plssjv82xb","1280","800","de","Fr.11:45","null","","","","learningBlock2","","","","<div style=""font-size:60px;""> </div>","null","LF","learning/Slide84.JPG","This is a dep:","",""
"","html-keyboard-response","260","943638","0.0-8.0-0.4","LF","plssjv82xb","1280","800","de","Fr.11:45","null","","","","learningBlock2","","","","This is a bim:","null","","","","",""
"","image-keyboard-response","261","943970","0.0-8.0-1.4","LF","plssjv82xb","1280","800","de","Fr.11:45","null","","","","","","","","learning/Slide85.JPG","null","","","","",""
"","html-keyboard-response","262","944971","0.0-8.0-2.4","LF","plssjv82xb","1280","800","de","Fr.11:45","null","","","","learningBlock2","","","","<div style=""font-size:60px;""> </div>","null","LF","learning/Slide85.JPG","This is a bim:","",""
"","html-keyboard-response","263","945974","0.0-8.0-0.5","LF","plssjv82xb","1280","800","de","Fr.11:45","null","","","","learningBlock2","","","","This is a tob:","null","","","","",""
"","image-keyboard-response","264","946303","0.0-8.0-1.5","LF","plssjv82xb","1280","800","de","Fr.11:45","null","","","","","","","","learning/Slide86.JPG","null","","","","",""
"","html-keyboard-response","265","947307","0.0-8.0-2.5","LF","plssjv82xb","1280","800","de","Fr.11:45","null","","","","learningBlock2","","","","<div style=""font-size:60px;""> </div>","null","LF","learning/Slide86.JPG","This is a tob:","",""
"","html-keyboard-response","266","948312","0.0-8.0-0.6","LF","plssjv82xb","1280","800","de","Fr.11:45","null","","","","learningBlock2","","","","This is a wug:","null","","","","",""
"","image-keyboard-response","267","948645","0.0-8.0-1.6","LF","plssjv82xb","1280","800","de","Fr.11:45","null","","","","","","","","learning/Slide87.JPG","null","","","","",""
"","html-keyboard-response","268","949648","0.0-8.0-2.6","LF","plssjv82xb","1280","800","de","Fr.11:45","null","","","","learningBlock2","","","","<div style=""font-size:60px;""> </div>","null","LF","learning/Slide87.JPG","This is a wug:","",""
"","html-keyboard-response","269","950654","0.0-8.0-0.7","LF","plssjv82xb","1280","800","de","Fr.11:45","null","","","","learningBlock2","","","","This is a tob:","null","","","","",""
"","image-keyboard-response","270","950987","0.0-8.0-1.7","LF","plssjv82xb","1280","800","de","Fr.11:45","null","","","","","","","","learning/Slide88.JPG","null","","","","",""
"","html-keyboard-response","271","951991","0.0-8.0-2.7","LF","plssjv82xb","1280","800","de","Fr.11:45","null","","","","learningBlock2","","","","<div style=""font-size:60px;""> </div>","null","LF","learning/Slide88.JPG","This is a tob:","",""
"","html-keyboard-response","272","952996","0.0-8.0-0.8","LF","plssjv82xb","1280","800","de","Fr.11:45","null","","","","learningBlock2","","","","This is a bim:","null","","","","",""
"","image-keyboard-response","273","953323","0.0-8.0-1.8","LF","plssjv82xb","1280","800","de","Fr.11:45","null","","","","","","","","learning/Slide89.JPG","null","","","","",""
"","html-keyboard-response","274","954330","0.0-8.0-2.8","LF","plssjv82xb","1280","800","de","Fr.11:45","null","","","","learningBlock2","","","","<div style=""font-size:60px;""> </div>","null","LF","learning/Slide89.JPG","This is a bim:","",""
"","html-keyboard-response","275","955331","0.0-8.0-0.9","LF","plssjv82xb","1280","800","de","Fr.11:45","null","","","","learningBlock2","","","","This is a dep:","null","","","","",""
"","image-keyboard-response","276","955666","0.0-8.0-1.9","LF","plssjv82xb","1280","800","de","Fr.11:45","null","","","","","","","","learning/Slide90.JPG","null","","","","",""
"","html-keyboard-response","277","956670","0.0-8.0-2.9","LF","plssjv82xb","1280","800","de","Fr.11:45","null","","","","learningBlock2","","","","<div style=""font-size:60px;""> </div>","null","LF","learning/Slide90.JPG","This is a dep:","",""
"","html-keyboard-response","278","957673","0.0-8.0-0.10","LF","plssjv82xb","1280","800","de","Fr.11:45","null","","","","learningBlock2","","","","This is a wug:","null","","","","",""
"","image-keyboard-response","279","958007","0.0-8.0-1.10","LF","plssjv82xb","1280","800","de","Fr.11:45","null","","","","","","","","learning/Slide91.JPG","null","","","","",""
"","html-keyboard-response","280","959010","0.0-8.0-2.10","LF","plssjv82xb","1280","800","de","Fr.11:45","null","","","","learningBlock2","","","","<div style=""font-size:60px;""> </div>","null","LF","learning/Slide91.JPG","This is a wug:","",""
"","html-keyboard-response","281","960012","0.0-8.0-0.11","LF","plssjv82xb","1280","800","de","Fr.11:45","null","","","","learningBlock2","","","","This is a tob:","null","","","","",""
"","image-keyboard-response","282","960344","0.0-8.0-1.11","LF","plssjv82xb","1280","800","de","Fr.11:45","null","","","","","","","","learning/Slide92.JPG","null","","","","",""
"","html-keyboard-response","283","961350","0.0-8.0-2.11","LF","plssjv82xb","1280","800","de","Fr.11:45","null","","","","learningBlock2","","","","<div style=""font-size:60px;""> </div>","null","LF","learning/Slide92.JPG","This is a tob:","",""
"","html-keyboard-response","284","962354","0.0-8.0-0.12","LF","plssjv82xb","1280","800","de","Fr.11:45","null","","","","learningBlock2","","","","This is a bim:","null","","","","",""
"","image-keyboard-response","285","962684","0.0-8.0-1.12","LF","plssjv82xb","1280","800","de","Fr.11:45","null","","","","","","","","learning/Slide93.JPG","null","","","","",""
"","html-keyboard-response","286","963687","0.0-8.0-2.12","LF","plssjv82xb","1280","800","de","Fr.11:45","null","","","","learningBlock2","","","","<div style=""font-size:60px;""> </div>","null","LF","learning/Slide93.JPG","This is a bim:","",""
"","html-keyboard-response","287","964688","0.0-8.0-0.13","LF","plssjv82xb","1280","800","de","Fr.11:45","null","","","","learningBlock2","","","","This is a tob:","null","","","","",""
"","image-keyboard-response","288","965020","0.0-8.0-1.13","LF","plssjv82xb","1280","800","de","Fr.11:45","null","","","","","","","","learning/Slide94.JPG","null","","","","",""
"","html-keyboard-response","289","966025","0.0-8.0-2.13","LF","plssjv82xb","1280","800","de","Fr.11:45","null","","","","learningBlock2","","","","<div style=""font-size:60px;""> </div>","null","LF","learning/Slide94.JPG","This is a tob:","",""
"","html-keyboard-response","290","967028","0.0-8.0-0.14","LF","plssjv82xb","1280","800","de","Fr.11:45","null","","","","learningBlock2","","","","This is a wug:","null","","","","",""
"","image-keyboard-response","291","967357","0.0-8.0-1.14","LF","plssjv82xb","1280","800","de","Fr.11:45","null","","","","","","","","learning/Slide95.JPG","null","","","","",""
"","html-keyboard-response","292","968359","0.0-8.0-2.14","LF","plssjv82xb","1280","800","de","Fr.11:45","null","","","","learningBlock2","","","","<div style=""font-size:60px;""> </div>","null","LF","learning/Slide95.JPG","This is a wug:","",""
"","html-keyboard-response","293","969361","0.0-8.0-0.15","LF","plssjv82xb","1280","800","de","Fr.11:45","null","","","","learningBlock2","","","","This is a tob:","null","","","","",""
"","image-keyboard-response","294","969694","0.0-8.0-1.15","LF","plssjv82xb","1280","800","de","Fr.11:45","null","","","","","","","","learning/Slide96.JPG","null","","","","",""
"","html-keyboard-response","295","970697","0.0-8.0-2.15","LF","plssjv82xb","1280","800","de","Fr.11:45","null","","","","learningBlock2","","","","<div style=""font-size:60px;""> </div>","null","LF","learning/Slide96.JPG","This is a tob:","",""
"","html-keyboard-response","296","971700","0.0-8.0-0.16","LF","plssjv82xb","1280","800","de","Fr.11:45","null","","","","learningBlock2","","","","This is a dep:","null","","","","",""
"","image-keyboard-response","297","972034","0.0-8.0-1.16","LF","plssjv82xb","1280","800","de","Fr.11:45","null","","","","","","","","learning/Slide97.JPG","null","","","","",""
"","html-keyboard-response","298","973036","0.0-8.0-2.16","LF","plssjv82xb","1280","800","de","Fr.11:45","null","","","","learningBlock2","","","","<div style=""font-size:60px;""> </div>","null","LF","learning/Slide97.JPG","This is a dep:","",""
"","html-keyboard-response","299","974040","0.0-8.0-0.17","LF","plssjv82xb","1280","800","de","Fr.11:45","null","","","","learningBlock2","","","","This is a bim:","null","","","","",""
"","image-keyboard-response","300","974373","0.0-8.0-1.17","LF","plssjv82xb","1280","800","de","Fr.11:45","null","","","","","","","","learning/Slide98.JPG","null","","","","",""
"","html-keyboard-response","301","975379","0.0-8.0-2.17","LF","plssjv82xb","1280","800","de","Fr.11:45","null","","","","learningBlock2","","","","<div style=""font-size:60px;""> </div>","null","LF","learning/Slide98.JPG","This is a bim:","",""
"","html-keyboard-response","302","976384","0.0-8.0-0.18","LF","plssjv82xb","1280","800","de","Fr.11:45","null","","","","learningBlock2","","","","This is a dep:","null","","","","",""
"","image-keyboard-response","303","976714","0.0-8.0-1.18","LF","plssjv82xb","1280","800","de","Fr.11:45","null","","","","","","","","learning/Slide99.JPG","null","","","","",""
"","html-keyboard-response","304","977720","0.0-8.0-2.18","LF","plssjv82xb","1280","800","de","Fr.11:45","null","","","","learningBlock2","","","","<div style=""font-size:60px;""> </div>","null","LF","learning/Slide99.JPG","This is a dep:","",""
"","html-keyboard-response","305","978722","0.0-8.0-0.19","LF","plssjv82xb","1280","800","de","Fr.11:45","null","","","","learningBlock2","","","","This is a bim:","null","","","","",""
"","image-keyboard-response","306","979053","0.0-8.0-1.19","LF","plssjv82xb","1280","800","de","Fr.11:45","null","","","","","","","","learning/Slide100.JPG","null","","","","",""
"","html-keyboard-response","307","980056","0.0-8.0-2.19","LF","plssjv82xb","1280","800","de","Fr.11:45","null","","","","learningBlock2","","","","<div style=""font-size:60px;""> </div>","null","LF","learning/Slide100.JPG","This is a bim:","",""
"","html-keyboard-response","308","981058","0.0-8.0-0.20","LF","plssjv82xb","1280","800","de","Fr.11:45","null","","","","learningBlock2","","","","This is a tob:","null","","","","",""
"","image-keyboard-response","309","981393","0.0-8.0-1.20","LF","plssjv82xb","1280","800","de","Fr.11:45","null","","","","","","","","learning/Slide101.JPG","null","","","","",""
"","html-keyboard-response","310","982395","0.0-8.0-2.20","LF","plssjv82xb","1280","800","de","Fr.11:45","null","","","","learningBlock2","","","","<div style=""font-size:60px;""> </div>","null","LF","learning/Slide101.JPG","This is a tob:","",""
"","html-keyboard-response","311","983397","0.0-8.0-0.21","LF","plssjv82xb","1280","800","de","Fr.11:45","null","","","","learningBlock2","","","","This is a bim:","null","","","","",""
"","image-keyboard-response","312","983729","0.0-8.0-1.21","LF","plssjv82xb","1280","800","de","Fr.11:45","null","","","","","","","","learning/Slide102.JPG","null","","","","",""
"","html-keyboard-response","313","984734","0.0-8.0-2.21","LF","plssjv82xb","1280","800","de","Fr.11:45","null","","","","learningBlock2","","","","<div style=""font-size:60px;""> </div>","null","LF","learning/Slide102.JPG","This is a bim:","",""
"","html-keyboard-response","314","985737","0.0-8.0-0.22","LF","plssjv82xb","1280","800","de","Fr.11:45","null","","","","learningBlock2","","","","This is a dep:","null","","","","",""
"","image-keyboard-response","315","986070","0.0-8.0-1.22","LF","plssjv82xb","1280","800","de","Fr.11:45","null","","","","","","","","learning/Slide103.JPG","null","","","","",""
"","html-keyboard-response","316","987072","0.0-8.0-2.22","LF","plssjv82xb","1280","800","de","Fr.11:45","null","","","","learningBlock2","","","","<div style=""font-size:60px;""> </div>","null","LF","learning/Slide103.JPG","This is a dep:","",""
"","html-keyboard-response","317","988074","0.0-8.0-0.23","LF","plssjv82xb","1280","800","de","Fr.11:45","null","","","","learningBlock2","","","","This is a tob:","null","","","","",""
"","image-keyboard-response","318","988403","0.0-8.0-1.23","LF","plssjv82xb","1280","800","de","Fr.11:45","null","","","","","","","","learning/Slide104.JPG","null","","","","",""
"","html-keyboard-response","319","989408","0.0-8.0-2.23","LF","plssjv82xb","1280","800","de","Fr.11:45","null","","","","learningBlock2","","","","<div style=""font-size:60px;""> </div>","null","LF","learning/Slide104.JPG","This is a tob:","",""
"","html-keyboard-response","320","990413","0.0-8.0-0.24","LF","plssjv82xb","1280","800","de","Fr.11:45","null","","","","learningBlock2","","","","This is a dep:","null","","","","",""
"","image-keyboard-response","321","990742","0.0-8.0-1.24","LF","plssjv82xb","1280","800","de","Fr.11:45","null","","","","","","","","learning/Slide105.JPG","null","","","","",""
"","html-keyboard-response","322","991745","0.0-8.0-2.24","LF","plssjv82xb","1280","800","de","Fr.11:45","null","","","","learningBlock2","","","","<div style=""font-size:60px;""> </div>","null","LF","learning/Slide105.JPG","This is a dep:","",""
"","html-keyboard-response","323","992746","0.0-8.0-0.25","LF","plssjv82xb","1280","800","de","Fr.11:45","null","","","","learningBlock2","","","","This is a wug:","null","","","","",""
"","image-keyboard-response","324","993077","0.0-8.0-1.25","LF","plssjv82xb","1280","800","de","Fr.11:45","null","","","","","","","","learning/Slide106.JPG","null","","","","",""
"","html-keyboard-response","325","994078","0.0-8.0-2.25","LF","plssjv82xb","1280","800","de","Fr.11:45","null","","","","learningBlock2","","","","<div style=""font-size:60px;""> </div>","null","LF","learning/Slide106.JPG","This is a wug:","",""
"","html-keyboard-response","326","995082","0.0-8.0-0.26","LF","plssjv82xb","1280","800","de","Fr.11:45","null","","","","learningBlock2","","","","This is a bim:","null","","","","",""
"","image-keyboard-response","327","995416","0.0-8.0-1.26","LF","plssjv82xb","1280","800","de","Fr.11:45","null","","","","","","","","learning/Slide107.JPG","null","","","","",""
"","html-keyboard-response","328","996420","0.0-8.0-2.26","LF","plssjv82xb","1280","800","de","Fr.11:45","null","","","","learningBlock2","","","","<div style=""font-size:60px;""> </div>","null","LF","learning/Slide107.JPG","This is a bim:","",""
"","html-keyboard-response","329","997422","0.0-8.0-0.27","LF","plssjv82xb","1280","800","de","Fr.11:45","null","","","","learningBlock2","","","","This is a dep:","null","","","","",""
"","image-keyboard-response","330","997753","0.0-8.0-1.27","LF","plssjv82xb","1280","800","de","Fr.11:45","null","","","","","","","","learning/Slide108.JPG","null","","","","",""
"","html-keyboard-response","331","998754","0.0-8.0-2.27","LF","plssjv82xb","1280","800","de","Fr.11:45","null","","","","learningBlock2","","","","<div style=""font-size:60px;""> </div>","null","LF","learning/Slide108.JPG","This is a dep:","",""
"","html-keyboard-response","332","999760","0.0-8.0-0.28","LF","plssjv82xb","1280","800","de","Fr.11:45","null","","","","learningBlock2","","","","This is a wug:","null","","","","",""
"","image-keyboard-response","333","1000090","0.0-8.0-1.28","LF","plssjv82xb","1280","800","de","Fr.11:45","null","","","","","","","","learning/Slide109.JPG","null","","","","",""
"","html-keyboard-response","334","1001092","0.0-8.0-2.28","LF","plssjv82xb","1280","800","de","Fr.11:45","null","","","","learningBlock2","","","","<div style=""font-size:60px;""> </div>","null","LF","learning/Slide109.JPG","This is a wug:","",""
"","html-keyboard-response","335","1002094","0.0-8.0-0.29","LF","plssjv82xb","1280","800","de","Fr.11:45","null","","","","learningBlock2","","","","This is a bim:","null","","","","",""
"","image-keyboard-response","336","1002425","0.0-8.0-1.29","LF","plssjv82xb","1280","800","de","Fr.11:45","null","","","","","","","","learning/Slide110.JPG","null","","","","",""
"","html-keyboard-response","337","1003429","0.0-8.0-2.29","LF","plssjv82xb","1280","800","de","Fr.11:45","null","","","","learningBlock2","","","","<div style=""font-size:60px;""> </div>","null","LF","learning/Slide110.JPG","This is a bim:","",""
"","html-keyboard-response","338","1004434","0.0-8.0-0.30","LF","plssjv82xb","1280","800","de","Fr.11:45","null","","","","learningBlock2","","","","This is a tob:","null","","","","",""
"","image-keyboard-response","339","1004764","0.0-8.0-1.30","LF","plssjv82xb","1280","800","de","Fr.11:45","null","","","","","","","","learning/Slide111.JPG","null","","","","",""
"","html-keyboard-response","340","1005770","0.0-8.0-2.30","LF","plssjv82xb","1280","800","de","Fr.11:45","null","","","","learningBlock2","","","","<div style=""font-size:60px;""> </div>","null","LF","learning/Slide111.JPG","This is a tob:","",""
"","html-keyboard-response","341","1006771","0.0-8.0-0.31","LF","plssjv82xb","1280","800","de","Fr.11:45","null","","","","learningBlock2","","","","This is a wug:","null","","","","",""
"","image-keyboard-response","342","1007103","0.0-8.0-1.31","LF","plssjv82xb","1280","800","de","Fr.11:45","null","","","","","","","","learning/Slide112.JPG","null","","","","",""
"","html-keyboard-response","343","1008105","0.0-8.0-2.31","LF","plssjv82xb","1280","800","de","Fr.11:45","null","","","","learningBlock2","","","","<div style=""font-size:60px;""> </div>","null","LF","learning/Slide112.JPG","This is a wug:","",""
"","html-keyboard-response","344","1009106","0.0-8.0-0.32","LF","plssjv82xb","1280","800","de","Fr.11:45","null","","","","learningBlock2","","","","This is a tob:","null","","","","",""
"","image-keyboard-response","345","1009436","0.0-8.0-1.32","LF","plssjv82xb","1280","800","de","Fr.11:45","null","","","","","","","","learning/Slide113.JPG","null","","","","",""
"","html-keyboard-response","346","1010442","0.0-8.0-2.32","LF","plssjv82xb","1280","800","de","Fr.11:45","null","","","","learningBlock2","","","","<div style=""font-size:60px;""> </div>","null","LF","learning/Slide113.JPG","This is a tob:","",""
"","html-keyboard-response","347","1011444","0.0-8.0-0.33","LF","plssjv82xb","1280","800","de","Fr.11:45","null","","","","learningBlock2","","","","This is a wug:","null","","","","",""
"","image-keyboard-response","348","1011776","0.0-8.0-1.33","LF","plssjv82xb","1280","800","de","Fr.11:45","null","","","","","","","","learning/Slide114.JPG","null","","","","",""
"","html-keyboard-response","349","1012777","0.0-8.0-2.33","LF","plssjv82xb","1280","800","de","Fr.11:45","null","","","","learningBlock2","","","","<div style=""font-size:60px;""> </div>","null","LF","learning/Slide114.JPG","This is a wug:","",""
"","html-keyboard-response","350","1013780","0.0-8.0-0.34","LF","plssjv82xb","1280","800","de","Fr.11:45","null","","","","learningBlock2","","","","This is a bim:","null","","","","",""
"","image-keyboard-response","351","1014110","0.0-8.0-1.34","LF","plssjv82xb","1280","800","de","Fr.11:45","null","","","","","","","","learning/Slide115.JPG","null","","","","",""
"","html-keyboard-response","352","1015113","0.0-8.0-2.34","LF","plssjv82xb","1280","800","de","Fr.11:45","null","","","","learningBlock2","","","","<div style=""font-size:60px;""> </div>","null","LF","learning/Slide115.JPG","This is a bim:","",""
"","html-keyboard-response","353","1016117","0.0-8.0-0.35","LF","plssjv82xb","1280","800","de","Fr.11:45","null","","","","learningBlock2","","","","This is a dep:","null","","","","",""
"","image-keyboard-response","354","1016453","0.0-8.0-1.35","LF","plssjv82xb","1280","800","de","Fr.11:45","null","","","","","","","","learning/Slide116.JPG","null","","","","",""
"","html-keyboard-response","355","1017455","0.0-8.0-2.35","LF","plssjv82xb","1280","800","de","Fr.11:45","null","","","","learningBlock2","","","","<div style=""font-size:60px;""> </div>","null","LF","learning/Slide116.JPG","This is a dep:","",""
"","html-keyboard-response","356","1018456","0.0-8.0-0.36","LF","plssjv82xb","1280","800","de","Fr.11:45","null","","","","learningBlock2","","","","This is a tob:","null","","","","",""
"","image-keyboard-response","357","1018786","0.0-8.0-1.36","LF","plssjv82xb","1280","800","de","Fr.11:45","null","","","","","","","","learning/Slide117.JPG","null","","","","",""
"","html-keyboard-response","358","1019789","0.0-8.0-2.36","LF","plssjv82xb","1280","800","de","Fr.11:45","null","","","","learningBlock2","","","","<div style=""font-size:60px;""> </div>","null","LF","learning/Slide117.JPG","This is a tob:","",""
"","html-keyboard-response","359","1020793","0.0-8.0-0.37","LF","plssjv82xb","1280","800","de","Fr.11:45","null","","","","learningBlock2","","","","This is a dep:","null","","","","",""
"","image-keyboard-response","360","1021125","0.0-8.0-1.37","LF","plssjv82xb","1280","800","de","Fr.11:45","null","","","","","","","","learning/Slide118.JPG","null","","","","",""
"","html-keyboard-response","361","1022127","0.0-8.0-2.37","LF","plssjv82xb","1280","800","de","Fr.11:45","null","","","","learningBlock2","","","","<div style=""font-size:60px;""> </div>","null","LF","learning/Slide118.JPG","This is a dep:","",""
"","html-keyboard-response","362","1023131","0.0-8.0-0.38","LF","plssjv82xb","1280","800","de","Fr.11:45","null","","","","learningBlock2","","","","This is a wug:","null","","","","",""
"","image-keyboard-response","363","1023464","0.0-8.0-1.38","LF","plssjv82xb","1280","800","de","Fr.11:45","null","","","","","","","","learning/Slide119.JPG","null","","","","",""
"","html-keyboard-response","364","1024470","0.0-8.0-2.38","LF","plssjv82xb","1280","800","de","Fr.11:45","null","","","","learningBlock2","","","","<div style=""font-size:60px;""> </div>","null","LF","learning/Slide119.JPG","This is a wug:","",""
"","html-keyboard-response","365","1025474","0.0-8.0-0.39","LF","plssjv82xb","1280","800","de","Fr.11:45","null","","","","learningBlock2","","","","This is a dep:","null","","","","",""
"","image-keyboard-response","366","1025803","0.0-8.0-1.39","LF","plssjv82xb","1280","800","de","Fr.11:45","null","","","","","","","","learning/Slide120.JPG","null","","","","",""
"","html-keyboard-response","367","1026806","0.0-8.0-2.39","LF","plssjv82xb","1280","800","de","Fr.11:45","null","","","","learningBlock2","","","","<div style=""font-size:60px;""> </div>","null","LF","learning/Slide120.JPG","This is a dep:","",""
"","html-keyboard-response","368","1027811","0.0-8.0-0.40","LF","plssjv82xb","1280","800","de","Fr.11:45","null","","","","learningBlock2","","","","This is a bim:","null","","","","",""
"","image-keyboard-response","369","1028143","0.0-8.0-1.40","LF","plssjv82xb","1280","800","de","Fr.11:45","null","","","","","","","","learning/Slide121.JPG","null","","","","",""
"","html-keyboard-response","370","1029145","0.0-8.0-2.40","LF","plssjv82xb","1280","800","de","Fr.11:45","null","","","","learningBlock2","","","","<div style=""font-size:60px;""> </div>","null","LF","learning/Slide121.JPG","This is a bim:","",""
"","html-keyboard-response","371","1030151","0.0-8.0-0.41","LF","plssjv82xb","1280","800","de","Fr.11:45","null","","","","learningBlock2","","","","This is a wug:","null","","","","",""
"","image-keyboard-response","372","1030483","0.0-8.0-1.41","LF","plssjv82xb","1280","800","de","Fr.11:45","null","","","","","","","","learning/Slide122.JPG","null","","","","",""
"","html-keyboard-response","373","1031486","0.0-8.0-2.41","LF","plssjv82xb","1280","800","de","Fr.11:45","null","","","","learningBlock2","","","","<div style=""font-size:60px;""> </div>","null","LF","learning/Slide122.JPG","This is a wug:","",""
"","html-keyboard-response","374","1032492","0.0-8.0-0.42","LF","plssjv82xb","1280","800","de","Fr.11:45","null","","","","learningBlock2","","","","This is a bim:","null","","","","",""
"","image-keyboard-response","375","1032821","0.0-8.0-1.42","LF","plssjv82xb","1280","800","de","Fr.11:45","null","","","","","","","","learning/Slide123.JPG","null","","","","",""
"","html-keyboard-response","376","1033823","0.0-8.0-2.42","LF","plssjv82xb","1280","800","de","Fr.11:45","null","","","","learningBlock2","","","","<div style=""font-size:60px;""> </div>","null","LF","learning/Slide123.JPG","This is a bim:","",""
"","html-keyboard-response","377","1034825","0.0-8.0-0.43","LF","plssjv82xb","1280","800","de","Fr.11:45","null","","","","learningBlock2","","","","This is a tob:","null","","","","",""
"","image-keyboard-response","378","1035155","0.0-8.0-1.43","LF","plssjv82xb","1280","800","de","Fr.11:45","null","","","","","","","","learning/Slide124.JPG","null","","","","",""
"","html-keyboard-response","379","1036159","0.0-8.0-2.43","LF","plssjv82xb","1280","800","de","Fr.11:45","null","","","","learningBlock2","","","","<div style=""font-size:60px;""> </div>","null","LF","learning/Slide124.JPG","This is a tob:","",""
"","html-keyboard-response","380","1037161","0.0-8.0-0.44","LF","plssjv82xb","1280","800","de","Fr.11:45","null","","","","learningBlock2","","","","This is a bim:","null","","","","",""
"","image-keyboard-response","381","1037492","0.0-8.0-1.44","LF","plssjv82xb","1280","800","de","Fr.11:45","null","","","","","","","","learning/Slide125.JPG","null","","","","",""
"","html-keyboard-response","382","1038494","0.0-8.0-2.44","LF","plssjv82xb","1280","800","de","Fr.11:45","null","","","","learningBlock2","","","","<div style=""font-size:60px;""> </div>","null","LF","learning/Slide125.JPG","This is a bim:","",""
"","html-keyboard-response","383","1039496","0.0-8.0-0.45","LF","plssjv82xb","1280","800","de","Fr.11:45","null","","","","learningBlock2","","","","This is a tob:","null","","","","",""
"","image-keyboard-response","384","1039828","0.0-8.0-1.45","LF","plssjv82xb","1280","800","de","Fr.11:45","null","","","","","","","","learning/Slide126.JPG","null","","","","",""
"","html-keyboard-response","385","1040833","0.0-8.0-2.45","LF","plssjv82xb","1280","800","de","Fr.11:45","null","","","","learningBlock2","","","","<div style=""font-size:60px;""> </div>","null","LF","learning/Slide126.JPG","This is a tob:","",""
"","html-keyboard-response","386","1041838","0.0-8.0-0.46","LF","plssjv82xb","1280","800","de","Fr.11:45","null","","","","learningBlock2","","","","This is a dep:","null","","","","",""
"","image-keyboard-response","387","1042169","0.0-8.0-1.46","LF","plssjv82xb","1280","800","de","Fr.11:45","null","","","","","","","","learning/Slide127.JPG","null","","","","",""
"","html-keyboard-response","388","1043171","0.0-8.0-2.46","LF","plssjv82xb","1280","800","de","Fr.11:45","null","","","","learningBlock2","","","","<div style=""font-size:60px;""> </div>","null","LF","learning/Slide127.JPG","This is a dep:","",""
"","html-keyboard-response","389","1044177","0.0-8.0-0.47","LF","plssjv82xb","1280","800","de","Fr.11:45","null","","","","learningBlock2","","","","This is a wug:","null","","","","",""
"","image-keyboard-response","390","1044507","0.0-8.0-1.47","LF","plssjv82xb","1280","800","de","Fr.11:45","null","","","","","","","","learning/Slide128.JPG","null","","","","",""
"","html-keyboard-response","391","1045510","0.0-8.0-2.47","LF","plssjv82xb","1280","800","de","Fr.11:45","null","","","","learningBlock2","","","","<div style=""font-size:60px;""> </div>","null","LF","learning/Slide128.JPG","This is a wug:","",""
"","html-keyboard-response","392","1046514","0.0-8.0-0.48","LF","plssjv82xb","1280","800","de","Fr.11:45","null","","","","learningBlock2","","","","This is a tob:","null","","","","",""
"","image-keyboard-response","393","1046846","0.0-8.0-1.48","LF","plssjv82xb","1280","800","de","Fr.11:45","null","","","","","","","","learning/Slide129.JPG","null","","","","",""
"","html-keyboard-response","394","1047853","0.0-8.0-2.48","LF","plssjv82xb","1280","800","de","Fr.11:45","null","","","","learningBlock2","","","","<div style=""font-size:60px;""> </div>","null","LF","learning/Slide129.JPG","This is a tob:","",""
"","html-keyboard-response","395","1048858","0.0-8.0-0.49","LF","plssjv82xb","1280","800","de","Fr.11:45","null","","","","learningBlock2","","","","This is a wug:","null","","","","",""
"","image-keyboard-response","396","1049188","0.0-8.0-1.49","LF","plssjv82xb","1280","800","de","Fr.11:45","null","","","","","","","","learning/Slide130.JPG","null","","","","",""
"","html-keyboard-response","397","1050193","0.0-8.0-2.49","LF","plssjv82xb","1280","800","de","Fr.11:45","null","","","","learningBlock2","","","","<div style=""font-size:60px;""> </div>","null","LF","learning/Slide130.JPG","This is a wug:","",""
"","html-keyboard-response","398","1051194","0.0-8.0-0.50","LF","plssjv82xb","1280","800","de","Fr.11:45","null","","","","learningBlock2","","","","This is a bim:","null","","","","",""
"","image-keyboard-response","399","1051527","0.0-8.0-1.50","LF","plssjv82xb","1280","800","de","Fr.11:45","null","","","","","","","","learning/Slide131.JPG","null","","","","",""
"","html-keyboard-response","400","1052530","0.0-8.0-2.50","LF","plssjv82xb","1280","800","de","Fr.11:45","null","","","","learningBlock2","","","","<div style=""font-size:60px;""> </div>","null","LF","learning/Slide131.JPG","This is a bim:","",""
"","html-keyboard-response","401","1053538","0.0-8.0-0.51","LF","plssjv82xb","1280","800","de","Fr.11:45","null","","","","learningBlock2","","","","This is a dep:","null","","","","",""
"","image-keyboard-response","402","1053869","0.0-8.0-1.51","LF","plssjv82xb","1280","800","de","Fr.11:45","null","","","","","","","","learning/Slide132.JPG","null","","","","",""
"","html-keyboard-response","403","1054872","0.0-8.0-2.51","LF","plssjv82xb","1280","800","de","Fr.11:45","null","","","","learningBlock2","","","","<div style=""font-size:60px;""> </div>","null","LF","learning/Slide132.JPG","This is a dep:","",""
"","html-keyboard-response","404","1055880","0.0-8.0-0.52","LF","plssjv82xb","1280","800","de","Fr.11:45","null","","","","learningBlock2","","","","This is a tob:","null","","","","",""
"","image-keyboard-response","405","1056211","0.0-8.0-1.52","LF","plssjv82xb","1280","800","de","Fr.11:45","null","","","","","","","","learning/Slide133.JPG","null","","","","",""
"","html-keyboard-response","406","1057215","0.0-8.0-2.52","LF","plssjv82xb","1280","800","de","Fr.11:45","null","","","","learningBlock2","","","","<div style=""font-size:60px;""> </div>","null","LF","learning/Slide133.JPG","This is a tob:","",""
"","html-keyboard-response","407","1058219","0.0-8.0-0.53","LF","plssjv82xb","1280","800","de","Fr.11:45","null","","","","learningBlock2","","","","This is a dep:","null","","","","",""
"","image-keyboard-response","408","1058553","0.0-8.0-1.53","LF","plssjv82xb","1280","800","de","Fr.11:45","null","","","","","","","","learning/Slide134.JPG","null","","","","",""
"","html-keyboard-response","409","1059555","0.0-8.0-2.53","LF","plssjv82xb","1280","800","de","Fr.11:45","null","","","","learningBlock2","","","","<div style=""font-size:60px;""> </div>","null","LF","learning/Slide134.JPG","This is a dep:","",""
"","html-keyboard-response","410","1060557","0.0-8.0-0.54","LF","plssjv82xb","1280","800","de","Fr.11:45","null","","","","learningBlock2","","","","This is a tob:","null","","","","",""
"","image-keyboard-response","411","1060890","0.0-8.0-1.54","LF","plssjv82xb","1280","800","de","Fr.11:45","null","","","","","","","","learning/Slide135.JPG","null","","","","",""
"","html-keyboard-response","412","1061894","0.0-8.0-2.54","LF","plssjv82xb","1280","800","de","Fr.11:45","null","","","","learningBlock2","","","","<div style=""font-size:60px;""> </div>","null","LF","learning/Slide135.JPG","This is a tob:","",""
"","html-keyboard-response","413","1062895","0.0-8.0-0.55","LF","plssjv82xb","1280","800","de","Fr.11:45","null","","","","learningBlock2","","","","This is a wug:","null","","","","",""
"","image-keyboard-response","414","1063226","0.0-8.0-1.55","LF","plssjv82xb","1280","800","de","Fr.11:45","null","","","","","","","","learning/Slide136.JPG","null","","","","",""
"","html-keyboard-response","415","1064228","0.0-8.0-2.55","LF","plssjv82xb","1280","800","de","Fr.11:45","null","","","","learningBlock2","","","","<div style=""font-size:60px;""> </div>","null","LF","learning/Slide136.JPG","This is a wug:","",""
"","html-keyboard-response","416","1065233","0.0-8.0-0.56","LF","plssjv82xb","1280","800","de","Fr.11:45","null","","","","learningBlock2","","","","This is a tob:","null","","","","",""
"","image-keyboard-response","417","1065565","0.0-8.0-1.56","LF","plssjv82xb","1280","800","de","Fr.11:45","null","","","","","","","","learning/Slide137.JPG","null","","","","",""
"","html-keyboard-response","418","1066569","0.0-8.0-2.56","LF","plssjv82xb","1280","800","de","Fr.11:45","null","","","","learningBlock2","","","","<div style=""font-size:60px;""> </div>","null","LF","learning/Slide137.JPG","This is a tob:","",""
"","html-keyboard-response","419","1067572","0.0-8.0-0.57","LF","plssjv82xb","1280","800","de","Fr.11:45","null","","","","learningBlock2","","","","This is a bim:","null","","","","",""
"","image-keyboard-response","420","1067903","0.0-8.0-1.57","LF","plssjv82xb","1280","800","de","Fr.11:45","null","","","","","","","","learning/Slide138.JPG","null","","","","",""
"","html-keyboard-response","421","1068908","0.0-8.0-2.57","LF","plssjv82xb","1280","800","de","Fr.11:45","null","","","","learningBlock2","","","","<div style=""font-size:60px;""> </div>","null","LF","learning/Slide138.JPG","This is a bim:","",""
"","html-keyboard-response","422","1069910","0.0-8.0-0.58","LF","plssjv82xb","1280","800","de","Fr.11:45","null","","","","learningBlock2","","","","This is a wug:","null","","","","",""
"","image-keyboard-response","423","1070243","0.0-8.0-1.58","LF","plssjv82xb","1280","800","de","Fr.11:45","null","","","","","","","","learning/Slide139.JPG","null","","","","",""
"","html-keyboard-response","424","1071248","0.0-8.0-2.58","LF","plssjv82xb","1280","800","de","Fr.11:45","null","","","","learningBlock2","","","","<div style=""font-size:60px;""> </div>","null","LF","learning/Slide139.JPG","This is a wug:","",""
"","html-keyboard-response","425","1072253","0.0-8.0-0.59","LF","plssjv82xb","1280","800","de","Fr.11:45","null","","","","learningBlock2","","","","This is a dep:","null","","","","",""
"","image-keyboard-response","426","1072583","0.0-8.0-1.59","LF","plssjv82xb","1280","800","de","Fr.11:45","null","","","","","","","","learning/Slide140.JPG","null","","","","",""
"","html-keyboard-response","427","1073586","0.0-8.0-2.59","LF","plssjv82xb","1280","800","de","Fr.11:45","null","","","","learningBlock2","","","","<div style=""font-size:60px;""> </div>","null","LF","learning/Slide140.JPG","This is a dep:","",""
"","html-keyboard-response","428","1074588","0.0-8.0-0.60","LF","plssjv82xb","1280","800","de","Fr.11:45","null","","","","learningBlock2","","","","This is a tob:","null","","","","",""
"","image-keyboard-response","429","1074919","0.0-8.0-1.60","LF","plssjv82xb","1280","800","de","Fr.11:45","null","","","","","","","","learning/Slide141.JPG","null","","","","",""
"","html-keyboard-response","430","1075921","0.0-8.0-2.60","LF","plssjv82xb","1280","800","de","Fr.11:45","null","","","","learningBlock2","","","","<div style=""font-size:60px;""> </div>","null","LF","learning/Slide141.JPG","This is a tob:","",""
"","html-keyboard-response","431","1076924","0.0-8.0-0.61","LF","plssjv82xb","1280","800","de","Fr.11:45","null","","","","learningBlock2","","","","This is a wug:","null","","","","",""
"","image-keyboard-response","432","1077258","0.0-8.0-1.61","LF","plssjv82xb","1280","800","de","Fr.11:45","null","","","","","","","","learning/Slide142.JPG","null","","","","",""
"","html-keyboard-response","433","1078259","0.0-8.0-2.61","LF","plssjv82xb","1280","800","de","Fr.11:45","null","","","","learningBlock2","","","","<div style=""font-size:60px;""> </div>","null","LF","learning/Slide142.JPG","This is a wug:","",""
"","html-keyboard-response","434","1079262","0.0-8.0-0.62","LF","plssjv82xb","1280","800","de","Fr.11:45","null","","","","learningBlock2","","","","This is a bim:","null","","","","",""
"","image-keyboard-response","435","1079594","0.0-8.0-1.62","LF","plssjv82xb","1280","800","de","Fr.11:45","null","","","","","","","","learning/Slide143.JPG","null","","","","",""
"","html-keyboard-response","436","1080600","0.0-8.0-2.62","LF","plssjv82xb","1280","800","de","Fr.11:45","null","","","","learningBlock2","","","","<div style=""font-size:60px;""> </div>","null","LF","learning/Slide143.JPG","This is a bim:","",""
"","html-keyboard-response","437","1081603","0.0-8.0-0.63","LF","plssjv82xb","1280","800","de","Fr.11:45","null","","","","learningBlock2","","","","This is a dep:","null","","","","",""
"","image-keyboard-response","438","1081936","0.0-8.0-1.63","LF","plssjv82xb","1280","800","de","Fr.11:45","null","","","","","","","","learning/Slide144.JPG","null","","","","",""
"","html-keyboard-response","439","1082942","0.0-8.0-2.63","LF","plssjv82xb","1280","800","de","Fr.11:45","null","","","","learningBlock2","","","","<div style=""font-size:60px;""> </div>","null","LF","learning/Slide144.JPG","This is a dep:","",""
"","html-keyboard-response","440","1083946","0.0-8.0-0.64","LF","plssjv82xb","1280","800","de","Fr.11:45","null","","","","learningBlock2","","","","This is a bim:","null","","","","",""
"","image-keyboard-response","441","1084276","0.0-8.0-1.64","LF","plssjv82xb","1280","800","de","Fr.11:45","null","","","","","","","","learning/Slide145.JPG","null","","","","",""
"","html-keyboard-response","442","1085282","0.0-8.0-2.64","LF","plssjv82xb","1280","800","de","Fr.11:45","null","","","","learningBlock2","","","","<div style=""font-size:60px;""> </div>","null","LF","learning/Slide145.JPG","This is a bim:","",""
"","html-keyboard-response","443","1086286","0.0-8.0-0.65","LF","plssjv82xb","1280","800","de","Fr.11:45","null","","","","learningBlock2","","","","This is a tob:","null","","","","",""
"","image-keyboard-response","444","1086614","0.0-8.0-1.65","LF","plssjv82xb","1280","800","de","Fr.11:45","null","","","","","","","","learning/Slide146.JPG","null","","","","",""
"","html-keyboard-response","445","1087619","0.0-8.0-2.65","LF","plssjv82xb","1280","800","de","Fr.11:45","null","","","","learningBlock2","","","","<div style=""font-size:60px;""> </div>","null","LF","learning/Slide146.JPG","This is a tob:","",""
"","html-keyboard-response","446","1088623","0.0-8.0-0.66","LF","plssjv82xb","1280","800","de","Fr.11:45","null","","","","learningBlock2","","","","This is a wug:","null","","","","",""
"","image-keyboard-response","447","1088954","0.0-8.0-1.66","LF","plssjv82xb","1280","800","de","Fr.11:45","null","","","","","","","","learning/Slide147.JPG","null","","","","",""
"","html-keyboard-response","448","1089956","0.0-8.0-2.66","LF","plssjv82xb","1280","800","de","Fr.11:45","null","","","","learningBlock2","","","","<div style=""font-size:60px;""> </div>","null","LF","learning/Slide147.JPG","This is a wug:","",""
"","html-keyboard-response","449","1090961","0.0-8.0-0.67","LF","plssjv82xb","1280","800","de","Fr.11:45","null","","","","learningBlock2","","","","This is a bim:","null","","","","",""
"","image-keyboard-response","450","1091292","0.0-8.0-1.67","LF","plssjv82xb","1280","800","de","Fr.11:45","null","","","","","","","","learning/Slide148.JPG","null","","","","",""
"","html-keyboard-response","451","1092294","0.0-8.0-2.67","LF","plssjv82xb","1280","800","de","Fr.11:45","null","","","","learningBlock2","","","","<div style=""font-size:60px;""> </div>","null","LF","learning/Slide148.JPG","This is a bim:","",""
"","html-keyboard-response","452","1093296","0.0-8.0-0.68","LF","plssjv82xb","1280","800","de","Fr.11:45","null","","","","learningBlock2","","","","This is a dep:","null","","","","",""
"","image-keyboard-response","453","1093626","0.0-8.0-1.68","LF","plssjv82xb","1280","800","de","Fr.11:45","null","","","","","","","","learning/Slide149.JPG","null","","","","",""
"","html-keyboard-response","454","1094630","0.0-8.0-2.68","LF","plssjv82xb","1280","800","de","Fr.11:45","null","","","","learningBlock2","","","","<div style=""font-size:60px;""> </div>","null","LF","learning/Slide149.JPG","This is a dep:","",""
"","html-keyboard-response","455","1095635","0.0-8.0-0.69","LF","plssjv82xb","1280","800","de","Fr.11:45","null","","","","learningBlock2","","","","This is a wug:","null","","","","",""
"","image-keyboard-response","456","1095963","0.0-8.0-1.69","LF","plssjv82xb","1280","800","de","Fr.11:45","null","","","","","","","","learning/Slide150.JPG","null","","","","",""
"","html-keyboard-response","457","1096971","0.0-8.0-2.69","LF","plssjv82xb","1280","800","de","Fr.11:45","null","","","","learningBlock2","","","","<div style=""font-size:60px;""> </div>","null","LF","learning/Slide150.JPG","This is a wug:","",""
"","html-keyboard-response","458","1097974","0.0-8.0-0.70","LF","plssjv82xb","1280","800","de","Fr.11:45","null","","","","learningBlock2","","","","This is a dep:","null","","","","",""
"","image-keyboard-response","459","1098305","0.0-8.0-1.70","LF","plssjv82xb","1280","800","de","Fr.11:45","null","","","","","","","","learning/Slide151.JPG","null","","","","",""
"","html-keyboard-response","460","1099306","0.0-8.0-2.70","LF","plssjv82xb","1280","800","de","Fr.11:45","null","","","","learningBlock2","","","","<div style=""font-size:60px;""> </div>","null","LF","learning/Slide151.JPG","This is a dep:","",""
"","html-keyboard-response","461","1100308","0.0-8.0-0.71","LF","plssjv82xb","1280","800","de","Fr.11:45","null","","","","learningBlock2","","","","This is a wug:","null","","","","",""
"","image-keyboard-response","462","1100636","0.0-8.0-1.71","LF","plssjv82xb","1280","800","de","Fr.11:45","null","","","","","","","","learning/Slide152.JPG","null","","","","",""
"","html-keyboard-response","463","1101638","0.0-8.0-2.71","LF","plssjv82xb","1280","800","de","Fr.11:45","null","","","","learningBlock2","","","","<div style=""font-size:60px;""> </div>","null","LF","learning/Slide152.JPG","This is a wug:","",""
"","html-keyboard-response","464","1102640","0.0-8.0-0.72","LF","plssjv82xb","1280","800","de","Fr.11:45","null","","","","learningBlock2","","","","This is a bim:","null","","","","",""
"","image-keyboard-response","465","1102971","0.0-8.0-1.72","LF","plssjv82xb","1280","800","de","Fr.11:45","null","","","","","","","","learning/Slide153.JPG","null","","","","",""
"","html-keyboard-response","466","1103976","0.0-8.0-2.72","LF","plssjv82xb","1280","800","de","Fr.11:45","null","","","","learningBlock2","","","","<div style=""font-size:60px;""> </div>","null","LF","learning/Slide153.JPG","This is a bim:","",""
"","html-keyboard-response","467","1104977","0.0-8.0-0.73","LF","plssjv82xb","1280","800","de","Fr.11:45","null","","","","learningBlock2","","","","This is a tob:","null","","","","",""
"","image-keyboard-response","468","1105307","0.0-8.0-1.73","LF","plssjv82xb","1280","800","de","Fr.11:45","null","","","","","","","","learning/Slide154.JPG","null","","","","",""
"","html-keyboard-response","469","1106310","0.0-8.0-2.73","LF","plssjv82xb","1280","800","de","Fr.11:45","null","","","","learningBlock2","","","","<div style=""font-size:60px;""> </div>","null","LF","learning/Slide154.JPG","This is a tob:","",""
"","html-keyboard-response","470","1107313","0.0-8.0-0.74","LF","plssjv82xb","1280","800","de","Fr.11:45","null","","","","learningBlock2","","","","This is a dep:","null","","","","",""
"","image-keyboard-response","471","1107644","0.0-8.0-1.74","LF","plssjv82xb","1280","800","de","Fr.11:45","null","","","","","","","","learning/Slide155.JPG","null","","","","",""
"","html-keyboard-response","472","1108649","0.0-8.0-2.74","LF","plssjv82xb","1280","800","de","Fr.11:45","null","","","","learningBlock2","","","","<div style=""font-size:60px;""> </div>","null","LF","learning/Slide155.JPG","This is a dep:","",""
"","html-keyboard-response","473","1109652","0.0-8.0-0.75","LF","plssjv82xb","1280","800","de","Fr.11:45","null","","","","learningBlock2","","","","This is a bim:","null","","","","",""
"","image-keyboard-response","474","1109983","0.0-8.0-1.75","LF","plssjv82xb","1280","800","de","Fr.11:45","null","","","","","","","","learning/Slide156.JPG","null","","","","",""
"","html-keyboard-response","475","1110986","0.0-8.0-2.75","LF","plssjv82xb","1280","800","de","Fr.11:45","null","","","","learningBlock2","","","","<div style=""font-size:60px;""> </div>","null","LF","learning/Slide156.JPG","This is a bim:","",""
"","html-keyboard-response","476","1111987","0.0-8.0-0.76","LF","plssjv82xb","1280","800","de","Fr.11:45","null","","","","learningBlock2","","","","This is a dep:","null","","","","",""
"","image-keyboard-response","477","1112320","0.0-8.0-1.76","LF","plssjv82xb","1280","800","de","Fr.11:45","null","","","","","","","","learning/Slide157.JPG","null","","","","",""
"","html-keyboard-response","478","1113324","0.0-8.0-2.76","LF","plssjv82xb","1280","800","de","Fr.11:45","null","","","","learningBlock2","","","","<div style=""font-size:60px;""> </div>","null","LF","learning/Slide157.JPG","This is a dep:","",""
"","html-keyboard-response","479","1114327","0.0-8.0-0.77","LF","plssjv82xb","1280","800","de","Fr.11:45","null","","","","learningBlock2","","","","This is a tob:","null","","","","",""
"","image-keyboard-response","480","1114663","0.0-8.0-1.77","LF","plssjv82xb","1280","800","de","Fr.11:45","null","","","","","","","","learning/Slide158.JPG","null","","","","",""
"","html-keyboard-response","481","1115669","0.0-8.0-2.77","LF","plssjv82xb","1280","800","de","Fr.11:45","null","","","","learningBlock2","","","","<div style=""font-size:60px;""> </div>","null","LF","learning/Slide158.JPG","This is a tob:","",""
"","html-keyboard-response","482","1116673","0.0-8.0-0.78","LF","plssjv82xb","1280","800","de","Fr.11:45","null","","","","learningBlock2","","","","This is a dep:","null","","","","",""
"","image-keyboard-response","483","1117003","0.0-8.0-1.78","LF","plssjv82xb","1280","800","de","Fr.11:45","null","","","","","","","","learning/Slide159.JPG","null","","","","",""
"","html-keyboard-response","484","1118007","0.0-8.0-2.78","LF","plssjv82xb","1280","800","de","Fr.11:45","null","","","","learningBlock2","","","","<div style=""font-size:60px;""> </div>","null","LF","learning/Slide159.JPG","This is a dep:","",""
"","html-keyboard-response","485","1119012","0.0-8.0-0.79","LF","plssjv82xb","1280","800","de","Fr.11:45","null","","","","learningBlock2","","","","This is a wug:","null","","","","",""
"","image-keyboard-response","486","1119342","0.0-8.0-1.79","LF","plssjv82xb","1280","800","de","Fr.11:45","null","","","","","","","","learning/Slide160.JPG","null","","","","",""
"","html-keyboard-response","487","1120346","0.0-8.0-2.79","LF","plssjv82xb","1280","800","de","Fr.11:45","null","","","","learningBlock2","","","","<div style=""font-size:60px;""> </div>","null","LF","learning/Slide160.JPG","This is a wug:","",""
"","resize2","488","1142662","0.0-9.0","LF","plssjv82xb","1280","800","de","Fr.11:45","","","","","","","104","1.04","","","","","","",""
