"success","trial_type","trial_index","time_elapsed","internal_node_id","condition","subject","screen_width","screen_height","language","codeword","rt","responses","url","view_history","test_part","final_height_px","final_width_px","scale_factor","stimulus","key_press","learningType","presentedImage","presentedLabel","button_pressed","response"
"true","fullscreen","0","2884","0.0-0.0","FL","wmv7c0r6c5","1440","900","en","va04ik29","","","","","","","","","","","","","","",""
"","survey-html-form","1","6450","0.0-1.0","FL","wmv7c0r6c5","1440","900","en","va04ik29","3557.480000000396","{""language"":""en""}","","","","","","","","","","","","",""
"","external-html","2","168320","0.0-3.0-0.0","FL","wmv7c0r6c5","1440","900","en","va04ik29","161833.73500000016","","text/information_english.html","","","","","","","","","","","",""
"","external-html","3","189407","0.0-3.0-1.0","FL","wmv7c0r6c5","1440","900","en","va04ik29","21030.52000000025","","text/consent_english.html","","","","","","","","","","","",""
"","survey-html-form","4","296201","0.0-3.0-2.0","FL","wmv7c0r6c5","1440","900","en","va04ik29","106785.82000000004","{""codeword_enter"":""va04ik29""}","","","","","","","","","","","","",""
"","instructions","5","353844","0.0-4.0","FL","wmv7c0r6c5","1440","900","en","va04ik29","NA","","","[{""page_index"":0,""viewing_time"":20501.11000000016},{""page_index"":1,""viewing_time"":35634.47499999986}]","instructions","","","","","","","","","",""
"","resize","6","407148","0.0-5.0","FL","wmv7c0r6c5","1440","900","en","va04ik29","","","","","","","428","2.7174603174603176","","","","","","",""
"","image-keyboard-response","7","407332","0.0-6.0-0.0","FL","wmv7c0r6c5","1440","900","en","va04ik29","null","","","","","","","","learning/Slide1.JPG","null","","","","",""
"","html-keyboard-response","8","408487","0.0-6.0-1.0","FL","wmv7c0r6c5","1440","900","en","va04ik29","null","","","","learningBlock1","","","","That was a tob.","null","","","","",""
"","html-keyboard-response","9","409493","0.0-6.0-2.0","FL","wmv7c0r6c5","1440","900","en","va04ik29","null","","","","learningBlock1","","","","<div style=""font-size:60px;""> </div>","null","FL","learning/Slide1.JPG","That was a tob.","",""
"","image-keyboard-response","10","409673","0.0-6.0-0.1","FL","wmv7c0r6c5","1440","900","en","va04ik29","null","","","","","","","","learning/Slide2.JPG","null","","","","",""
"","html-keyboard-response","11","410831","0.0-6.0-1.1","FL","wmv7c0r6c5","1440","900","en","va04ik29","null","","","","learningBlock1","","","","That was a wug.","null","","","","",""
"","html-keyboard-response","12","411835","0.0-6.0-2.1","FL","wmv7c0r6c5","1440","900","en","va04ik29","null","","","","learningBlock1","","","","<div style=""font-size:60px;""> </div>","null","FL","learning/Slide2.JPG","That was a wug.","",""
"","image-keyboard-response","13","412017","0.0-6.0-0.2","FL","wmv7c0r6c5","1440","900","en","va04ik29","null","","","","","","","","learning/Slide3.JPG","null","","","","",""
"","html-keyboard-response","14","413171","0.0-6.0-1.2","FL","wmv7c0r6c5","1440","900","en","va04ik29","null","","","","learningBlock1","","","","That was a bim.","null","","","","",""
"","html-keyboard-response","15","414176","0.0-6.0-2.2","FL","wmv7c0r6c5","1440","900","en","va04ik29","null","","","","learningBlock1","","","","<div style=""font-size:60px;""> </div>","null","FL","learning/Slide3.JPG","That was a bim.","",""
"","image-keyboard-response","16","414357","0.0-6.0-0.3","FL","wmv7c0r6c5","1440","900","en","va04ik29","null","","","","","","","","learning/Slide4.JPG","null","","","","",""
"","html-keyboard-response","17","415514","0.0-6.0-1.3","FL","wmv7c0r6c5","1440","900","en","va04ik29","null","","","","learningBlock1","","","","That was a dep.","null","","","","",""
"","html-keyboard-response","18","416518","0.0-6.0-2.3","FL","wmv7c0r6c5","1440","900","en","va04ik29","null","","","","learningBlock1","","","","<div style=""font-size:60px;""> </div>","null","FL","learning/Slide4.JPG","That was a dep.","",""
"","image-keyboard-response","19","416700","0.0-6.0-0.4","FL","wmv7c0r6c5","1440","900","en","va04ik29","null","","","","","","","","learning/Slide5.JPG","null","","","","",""
"","html-keyboard-response","20","417860","0.0-6.0-1.4","FL","wmv7c0r6c5","1440","900","en","va04ik29","null","","","","learningBlock1","","","","That was a wug.","null","","","","",""
"","html-keyboard-response","21","418866","0.0-6.0-2.4","FL","wmv7c0r6c5","1440","900","en","va04ik29","null","","","","learningBlock1","","","","<div style=""font-size:60px;""> </div>","null","FL","learning/Slide5.JPG","That was a wug.","",""
"","image-keyboard-response","22","419047","0.0-6.0-0.5","FL","wmv7c0r6c5","1440","900","en","va04ik29","null","","","","","","","","learning/Slide6.JPG","null","","","","",""
"","html-keyboard-response","23","420202","0.0-6.0-1.5","FL","wmv7c0r6c5","1440","900","en","va04ik29","null","","","","learningBlock1","","","","That was a dep.","null","","","","",""
"","html-keyboard-response","24","421206","0.0-6.0-2.5","FL","wmv7c0r6c5","1440","900","en","va04ik29","null","","","","learningBlock1","","","","<div style=""font-size:60px;""> </div>","null","FL","learning/Slide6.JPG","That was a dep.","",""
"","image-keyboard-response","25","421384","0.0-6.0-0.6","FL","wmv7c0r6c5","1440","900","en","va04ik29","null","","","","","","","","learning/Slide7.JPG","null","","","","",""
"","html-keyboard-response","26","422545","0.0-6.0-1.6","FL","wmv7c0r6c5","1440","900","en","va04ik29","null","","","","learningBlock1","","","","That was a wug.","null","","","","",""
"","html-keyboard-response","27","423550","0.0-6.0-2.6","FL","wmv7c0r6c5","1440","900","en","va04ik29","null","","","","learningBlock1","","","","<div style=""font-size:60px;""> </div>","null","FL","learning/Slide7.JPG","That was a wug.","",""
"","image-keyboard-response","28","423732","0.0-6.0-0.7","FL","wmv7c0r6c5","1440","900","en","va04ik29","null","","","","","","","","learning/Slide8.JPG","null","","","","",""
"","html-keyboard-response","29","424890","0.0-6.0-1.7","FL","wmv7c0r6c5","1440","900","en","va04ik29","null","","","","learningBlock1","","","","That was a bim.","null","","","","",""
"","html-keyboard-response","30","425894","0.0-6.0-2.7","FL","wmv7c0r6c5","1440","900","en","va04ik29","null","","","","learningBlock1","","","","<div style=""font-size:60px;""> </div>","null","FL","learning/Slide8.JPG","That was a bim.","",""
"","image-keyboard-response","31","426075","0.0-6.0-0.8","FL","wmv7c0r6c5","1440","900","en","va04ik29","null","","","","","","","","learning/Slide9.JPG","null","","","","",""
"","html-keyboard-response","32","427232","0.0-6.0-1.8","FL","wmv7c0r6c5","1440","900","en","va04ik29","null","","","","learningBlock1","","","","That was a wug.","null","","","","",""
"","html-keyboard-response","33","428238","0.0-6.0-2.8","FL","wmv7c0r6c5","1440","900","en","va04ik29","null","","","","learningBlock1","","","","<div style=""font-size:60px;""> </div>","null","FL","learning/Slide9.JPG","That was a wug.","",""
"","image-keyboard-response","34","428415","0.0-6.0-0.9","FL","wmv7c0r6c5","1440","900","en","va04ik29","null","","","","","","","","learning/Slide10.JPG","null","","","","",""
"","html-keyboard-response","35","429573","0.0-6.0-1.9","FL","wmv7c0r6c5","1440","900","en","va04ik29","null","","","","learningBlock1","","","","That was a dep.","null","","","","",""
"","html-keyboard-response","36","430579","0.0-6.0-2.9","FL","wmv7c0r6c5","1440","900","en","va04ik29","null","","","","learningBlock1","","","","<div style=""font-size:60px;""> </div>","null","FL","learning/Slide10.JPG","That was a dep.","",""
"","image-keyboard-response","37","430760","0.0-6.0-0.10","FL","wmv7c0r6c5","1440","900","en","va04ik29","null","","","","","","","","learning/Slide11.JPG","null","","","","",""
"","html-keyboard-response","38","431917","0.0-6.0-1.10","FL","wmv7c0r6c5","1440","900","en","va04ik29","null","","","","learningBlock1","","","","That was a tob.","null","","","","",""
"","html-keyboard-response","39","432922","0.0-6.0-2.10","FL","wmv7c0r6c5","1440","900","en","va04ik29","null","","","","learningBlock1","","","","<div style=""font-size:60px;""> </div>","null","FL","learning/Slide11.JPG","That was a tob.","",""
"","image-keyboard-response","40","433099","0.0-6.0-0.11","FL","wmv7c0r6c5","1440","900","en","va04ik29","null","","","","","","","","learning/Slide12.JPG","null","","","","",""
"","html-keyboard-response","41","434260","0.0-6.0-1.11","FL","wmv7c0r6c5","1440","900","en","va04ik29","null","","","","learningBlock1","","","","That was a dep.","null","","","","",""
"","html-keyboard-response","42","435266","0.0-6.0-2.11","FL","wmv7c0r6c5","1440","900","en","va04ik29","null","","","","learningBlock1","","","","<div style=""font-size:60px;""> </div>","null","FL","learning/Slide12.JPG","That was a dep.","",""
"","image-keyboard-response","43","435443","0.0-6.0-0.12","FL","wmv7c0r6c5","1440","900","en","va04ik29","null","","","","","","","","learning/Slide13.JPG","null","","","","",""
"","html-keyboard-response","44","436600","0.0-6.0-1.12","FL","wmv7c0r6c5","1440","900","en","va04ik29","null","","","","learningBlock1","","","","That was a bim.","null","","","","",""
"","html-keyboard-response","45","437605","0.0-6.0-2.12","FL","wmv7c0r6c5","1440","900","en","va04ik29","null","","","","learningBlock1","","","","<div style=""font-size:60px;""> </div>","null","FL","learning/Slide13.JPG","That was a bim.","",""
"","image-keyboard-response","46","437786","0.0-6.0-0.13","FL","wmv7c0r6c5","1440","900","en","va04ik29","null","","","","","","","","learning/Slide14.JPG","null","","","","",""
"","html-keyboard-response","47","438943","0.0-6.0-1.13","FL","wmv7c0r6c5","1440","900","en","va04ik29","null","","","","learningBlock1","","","","That was a wug.","null","","","","",""
"","html-keyboard-response","48","439948","0.0-6.0-2.13","FL","wmv7c0r6c5","1440","900","en","va04ik29","null","","","","learningBlock1","","","","<div style=""font-size:60px;""> </div>","null","FL","learning/Slide14.JPG","That was a wug.","",""
"","image-keyboard-response","49","440128","0.0-6.0-0.14","FL","wmv7c0r6c5","1440","900","en","va04ik29","null","","","","","","","","learning/Slide15.JPG","null","","","","",""
"","html-keyboard-response","50","441285","0.0-6.0-1.14","FL","wmv7c0r6c5","1440","900","en","va04ik29","null","","","","learningBlock1","","","","That was a tob.","null","","","","",""
"","html-keyboard-response","51","442289","0.0-6.0-2.14","FL","wmv7c0r6c5","1440","900","en","va04ik29","null","","","","learningBlock1","","","","<div style=""font-size:60px;""> </div>","null","FL","learning/Slide15.JPG","That was a tob.","",""
"","image-keyboard-response","52","442467","0.0-6.0-0.15","FL","wmv7c0r6c5","1440","900","en","va04ik29","null","","","","","","","","learning/Slide16.JPG","null","","","","",""
"","html-keyboard-response","53","443628","0.0-6.0-1.15","FL","wmv7c0r6c5","1440","900","en","va04ik29","null","","","","learningBlock1","","","","That was a dep.","null","","","","",""
"","html-keyboard-response","54","444632","0.0-6.0-2.15","FL","wmv7c0r6c5","1440","900","en","va04ik29","null","","","","learningBlock1","","","","<div style=""font-size:60px;""> </div>","null","FL","learning/Slide16.JPG","That was a dep.","",""
"","image-keyboard-response","55","444814","0.0-6.0-0.16","FL","wmv7c0r6c5","1440","900","en","va04ik29","null","","","","","","","","learning/Slide17.JPG","null","","","","",""
"","html-keyboard-response","56","445975","0.0-6.0-1.16","FL","wmv7c0r6c5","1440","900","en","va04ik29","null","","","","learningBlock1","","","","That was a bim.","null","","","","",""
"","html-keyboard-response","57","446979","0.0-6.0-2.16","FL","wmv7c0r6c5","1440","900","en","va04ik29","null","","","","learningBlock1","","","","<div style=""font-size:60px;""> </div>","null","FL","learning/Slide17.JPG","That was a bim.","",""
"","image-keyboard-response","58","447161","0.0-6.0-0.17","FL","wmv7c0r6c5","1440","900","en","va04ik29","null","","","","","","","","learning/Slide18.JPG","null","","","","",""
"","html-keyboard-response","59","448318","0.0-6.0-1.17","FL","wmv7c0r6c5","1440","900","en","va04ik29","null","","","","learningBlock1","","","","That was a tob.","null","","","","",""
"","html-keyboard-response","60","449322","0.0-6.0-2.17","FL","wmv7c0r6c5","1440","900","en","va04ik29","null","","","","learningBlock1","","","","<div style=""font-size:60px;""> </div>","null","FL","learning/Slide18.JPG","That was a tob.","",""
"","image-keyboard-response","61","449503","0.0-6.0-0.18","FL","wmv7c0r6c5","1440","900","en","va04ik29","null","","","","","","","","learning/Slide19.JPG","null","","","","",""
"","html-keyboard-response","62","450665","0.0-6.0-1.18","FL","wmv7c0r6c5","1440","900","en","va04ik29","null","","","","learningBlock1","","","","That was a wug.","null","","","","",""
"","html-keyboard-response","63","451669","0.0-6.0-2.18","FL","wmv7c0r6c5","1440","900","en","va04ik29","null","","","","learningBlock1","","","","<div style=""font-size:60px;""> </div>","null","FL","learning/Slide19.JPG","That was a wug.","",""
"","image-keyboard-response","64","451851","0.0-6.0-0.19","FL","wmv7c0r6c5","1440","900","en","va04ik29","null","","","","","","","","learning/Slide20.JPG","null","","","","",""
"","html-keyboard-response","65","453002","0.0-6.0-1.19","FL","wmv7c0r6c5","1440","900","en","va04ik29","null","","","","learningBlock1","","","","That was a bim.","null","","","","",""
"","html-keyboard-response","66","454007","0.0-6.0-2.19","FL","wmv7c0r6c5","1440","900","en","va04ik29","null","","","","learningBlock1","","","","<div style=""font-size:60px;""> </div>","null","FL","learning/Slide20.JPG","That was a bim.","",""
"","image-keyboard-response","67","454184","0.0-6.0-0.20","FL","wmv7c0r6c5","1440","900","en","va04ik29","null","","","","","","","","learning/Slide21.JPG","null","","","","",""
"","html-keyboard-response","68","455341","0.0-6.0-1.20","FL","wmv7c0r6c5","1440","900","en","va04ik29","null","","","","learningBlock1","","","","That was a dep.","null","","","","",""
"","html-keyboard-response","69","456355","0.0-6.0-2.20","FL","wmv7c0r6c5","1440","900","en","va04ik29","null","","","","learningBlock1","","","","<div style=""font-size:60px;""> </div>","null","FL","learning/Slide21.JPG","That was a dep.","",""
"","image-keyboard-response","70","456536","0.0-6.0-0.21","FL","wmv7c0r6c5","1440","900","en","va04ik29","null","","","","","","","","learning/Slide22.JPG","null","","","","",""
"","html-keyboard-response","71","457690","0.0-6.0-1.21","FL","wmv7c0r6c5","1440","900","en","va04ik29","null","","","","learningBlock1","","","","That was a bim.","null","","","","",""
"","html-keyboard-response","72","458695","0.0-6.0-2.21","FL","wmv7c0r6c5","1440","900","en","va04ik29","null","","","","learningBlock1","","","","<div style=""font-size:60px;""> </div>","null","FL","learning/Slide22.JPG","That was a bim.","",""
"","image-keyboard-response","73","458876","0.0-6.0-0.22","FL","wmv7c0r6c5","1440","900","en","va04ik29","null","","","","","","","","learning/Slide23.JPG","null","","","","",""
"","html-keyboard-response","74","460038","0.0-6.0-1.22","FL","wmv7c0r6c5","1440","900","en","va04ik29","null","","","","learningBlock1","","","","That was a tob.","null","","","","",""
"","html-keyboard-response","75","461042","0.0-6.0-2.22","FL","wmv7c0r6c5","1440","900","en","va04ik29","null","","","","learningBlock1","","","","<div style=""font-size:60px;""> </div>","null","FL","learning/Slide23.JPG","That was a tob.","",""
"","image-keyboard-response","76","461223","0.0-6.0-0.23","FL","wmv7c0r6c5","1440","900","en","va04ik29","null","","","","","","","","learning/Slide24.JPG","null","","","","",""
"","html-keyboard-response","77","462384","0.0-6.0-1.23","FL","wmv7c0r6c5","1440","900","en","va04ik29","null","","","","learningBlock1","","","","That was a wug.","null","","","","",""
"","html-keyboard-response","78","463389","0.0-6.0-2.23","FL","wmv7c0r6c5","1440","900","en","va04ik29","null","","","","learningBlock1","","","","<div style=""font-size:60px;""> </div>","null","FL","learning/Slide24.JPG","That was a wug.","",""
"","image-keyboard-response","79","463569","0.0-6.0-0.24","FL","wmv7c0r6c5","1440","900","en","va04ik29","null","","","","","","","","learning/Slide25.JPG","null","","","","",""
"","html-keyboard-response","80","464727","0.0-6.0-1.24","FL","wmv7c0r6c5","1440","900","en","va04ik29","null","","","","learningBlock1","","","","That was a dep.","null","","","","",""
"","html-keyboard-response","81","465731","0.0-6.0-2.24","FL","wmv7c0r6c5","1440","900","en","va04ik29","null","","","","learningBlock1","","","","<div style=""font-size:60px;""> </div>","null","FL","learning/Slide25.JPG","That was a dep.","",""
"","image-keyboard-response","82","465913","0.0-6.0-0.25","FL","wmv7c0r6c5","1440","900","en","va04ik29","null","","","","","","","","learning/Slide26.JPG","null","","","","",""
"","html-keyboard-response","83","467072","0.0-6.0-1.25","FL","wmv7c0r6c5","1440","900","en","va04ik29","null","","","","learningBlock1","","","","That was a wug.","null","","","","",""
"","html-keyboard-response","84","468077","0.0-6.0-2.25","FL","wmv7c0r6c5","1440","900","en","va04ik29","null","","","","learningBlock1","","","","<div style=""font-size:60px;""> </div>","null","FL","learning/Slide26.JPG","That was a wug.","",""
"","image-keyboard-response","85","468254","0.0-6.0-0.26","FL","wmv7c0r6c5","1440","900","en","va04ik29","null","","","","","","","","learning/Slide27.JPG","null","","","","",""
"","html-keyboard-response","86","469416","0.0-6.0-1.26","FL","wmv7c0r6c5","1440","900","en","va04ik29","null","","","","learningBlock1","","","","That was a bim.","null","","","","",""
"","html-keyboard-response","87","470420","0.0-6.0-2.26","FL","wmv7c0r6c5","1440","900","en","va04ik29","null","","","","learningBlock1","","","","<div style=""font-size:60px;""> </div>","null","FL","learning/Slide27.JPG","That was a bim.","",""
"","image-keyboard-response","88","470597","0.0-6.0-0.27","FL","wmv7c0r6c5","1440","900","en","va04ik29","null","","","","","","","","learning/Slide28.JPG","null","","","","",""
"","html-keyboard-response","89","471758","0.0-6.0-1.27","FL","wmv7c0r6c5","1440","900","en","va04ik29","null","","","","learningBlock1","","","","That was a dep.","null","","","","",""
"","html-keyboard-response","90","472762","0.0-6.0-2.27","FL","wmv7c0r6c5","1440","900","en","va04ik29","null","","","","learningBlock1","","","","<div style=""font-size:60px;""> </div>","null","FL","learning/Slide28.JPG","That was a dep.","",""
"","image-keyboard-response","91","472943","0.0-6.0-0.28","FL","wmv7c0r6c5","1440","900","en","va04ik29","null","","","","","","","","learning/Slide29.JPG","null","","","","",""
"","html-keyboard-response","92","474096","0.0-6.0-1.28","FL","wmv7c0r6c5","1440","900","en","va04ik29","null","","","","learningBlock1","","","","That was a tob.","null","","","","",""
"","html-keyboard-response","93","475102","0.0-6.0-2.28","FL","wmv7c0r6c5","1440","900","en","va04ik29","null","","","","learningBlock1","","","","<div style=""font-size:60px;""> </div>","null","FL","learning/Slide29.JPG","That was a tob.","",""
"","image-keyboard-response","94","475280","0.0-6.0-0.29","FL","wmv7c0r6c5","1440","900","en","va04ik29","null","","","","","","","","learning/Slide30.JPG","null","","","","",""
"","html-keyboard-response","95","476431","0.0-6.0-1.29","FL","wmv7c0r6c5","1440","900","en","va04ik29","null","","","","learningBlock1","","","","That was a dep.","null","","","","",""
"","html-keyboard-response","96","477436","0.0-6.0-2.29","FL","wmv7c0r6c5","1440","900","en","va04ik29","null","","","","learningBlock1","","","","<div style=""font-size:60px;""> </div>","null","FL","learning/Slide30.JPG","That was a dep.","",""
"","image-keyboard-response","97","477614","0.0-6.0-0.30","FL","wmv7c0r6c5","1440","900","en","va04ik29","null","","","","","","","","learning/Slide31.JPG","null","","","","",""
"","html-keyboard-response","98","478770","0.0-6.0-1.30","FL","wmv7c0r6c5","1440","900","en","va04ik29","null","","","","learningBlock1","","","","That was a wug.","null","","","","",""
"","html-keyboard-response","99","479772","0.0-6.0-2.30","FL","wmv7c0r6c5","1440","900","en","va04ik29","null","","","","learningBlock1","","","","<div style=""font-size:60px;""> </div>","null","FL","learning/Slide31.JPG","That was a wug.","",""
"","image-keyboard-response","100","479949","0.0-6.0-0.31","FL","wmv7c0r6c5","1440","900","en","va04ik29","null","","","","","","","","learning/Slide32.JPG","null","","","","",""
"","html-keyboard-response","101","481101","0.0-6.0-1.31","FL","wmv7c0r6c5","1440","900","en","va04ik29","null","","","","learningBlock1","","","","That was a tob.","null","","","","",""
"","html-keyboard-response","102","482105","0.0-6.0-2.31","FL","wmv7c0r6c5","1440","900","en","va04ik29","null","","","","learningBlock1","","","","<div style=""font-size:60px;""> </div>","null","FL","learning/Slide32.JPG","That was a tob.","",""
"","image-keyboard-response","103","482283","0.0-6.0-0.32","FL","wmv7c0r6c5","1440","900","en","va04ik29","null","","","","","","","","learning/Slide33.JPG","null","","","","",""
"","html-keyboard-response","104","483438","0.0-6.0-1.32","FL","wmv7c0r6c5","1440","900","en","va04ik29","null","","","","learningBlock1","","","","That was a bim.","null","","","","",""
"","html-keyboard-response","105","484442","0.0-6.0-2.32","FL","wmv7c0r6c5","1440","900","en","va04ik29","null","","","","learningBlock1","","","","<div style=""font-size:60px;""> </div>","null","FL","learning/Slide33.JPG","That was a bim.","",""
"","image-keyboard-response","106","484620","0.0-6.0-0.33","FL","wmv7c0r6c5","1440","900","en","va04ik29","null","","","","","","","","learning/Slide34.JPG","null","","","","",""
"","html-keyboard-response","107","485773","0.0-6.0-1.33","FL","wmv7c0r6c5","1440","900","en","va04ik29","null","","","","learningBlock1","","","","That was a tob.","null","","","","",""
"","html-keyboard-response","108","486775","0.0-6.0-2.33","FL","wmv7c0r6c5","1440","900","en","va04ik29","null","","","","learningBlock1","","","","<div style=""font-size:60px;""> </div>","null","FL","learning/Slide34.JPG","That was a tob.","",""
"","image-keyboard-response","109","486956","0.0-6.0-0.34","FL","wmv7c0r6c5","1440","900","en","va04ik29","null","","","","","","","","learning/Slide35.JPG","null","","","","",""
"","html-keyboard-response","110","488108","0.0-6.0-1.34","FL","wmv7c0r6c5","1440","900","en","va04ik29","null","","","","learningBlock1","","","","That was a bim.","null","","","","",""
"","html-keyboard-response","111","489111","0.0-6.0-2.34","FL","wmv7c0r6c5","1440","900","en","va04ik29","null","","","","learningBlock1","","","","<div style=""font-size:60px;""> </div>","null","FL","learning/Slide35.JPG","That was a bim.","",""
"","image-keyboard-response","112","489287","0.0-6.0-0.35","FL","wmv7c0r6c5","1440","900","en","va04ik29","null","","","","","","","","learning/Slide36.JPG","null","","","","",""
"","html-keyboard-response","113","490441","0.0-6.0-1.35","FL","wmv7c0r6c5","1440","900","en","va04ik29","null","","","","learningBlock1","","","","That was a dep.","null","","","","",""
"","html-keyboard-response","114","491443","0.0-6.0-2.35","FL","wmv7c0r6c5","1440","900","en","va04ik29","null","","","","learningBlock1","","","","<div style=""font-size:60px;""> </div>","null","FL","learning/Slide36.JPG","That was a dep.","",""
"","image-keyboard-response","115","491621","0.0-6.0-0.36","FL","wmv7c0r6c5","1440","900","en","va04ik29","null","","","","","","","","learning/Slide37.JPG","null","","","","",""
"","html-keyboard-response","116","492775","0.0-6.0-1.36","FL","wmv7c0r6c5","1440","900","en","va04ik29","null","","","","learningBlock1","","","","That was a tob.","null","","","","",""
"","html-keyboard-response","117","493779","0.0-6.0-2.36","FL","wmv7c0r6c5","1440","900","en","va04ik29","null","","","","learningBlock1","","","","<div style=""font-size:60px;""> </div>","null","FL","learning/Slide37.JPG","That was a tob.","",""
"","image-keyboard-response","118","493956","0.0-6.0-0.37","FL","wmv7c0r6c5","1440","900","en","va04ik29","null","","","","","","","","learning/Slide38.JPG","null","","","","",""
"","html-keyboard-response","119","495110","0.0-6.0-1.37","FL","wmv7c0r6c5","1440","900","en","va04ik29","null","","","","learningBlock1","","","","That was a wug.","null","","","","",""
"","html-keyboard-response","120","496113","0.0-6.0-2.37","FL","wmv7c0r6c5","1440","900","en","va04ik29","null","","","","learningBlock1","","","","<div style=""font-size:60px;""> </div>","null","FL","learning/Slide38.JPG","That was a wug.","",""
"","image-keyboard-response","121","496290","0.0-6.0-0.38","FL","wmv7c0r6c5","1440","900","en","va04ik29","null","","","","","","","","learning/Slide39.JPG","null","","","","",""
"","html-keyboard-response","122","497441","0.0-6.0-1.38","FL","wmv7c0r6c5","1440","900","en","va04ik29","null","","","","learningBlock1","","","","That was a bim.","null","","","","",""
"","html-keyboard-response","123","498445","0.0-6.0-2.38","FL","wmv7c0r6c5","1440","900","en","va04ik29","null","","","","learningBlock1","","","","<div style=""font-size:60px;""> </div>","null","FL","learning/Slide39.JPG","That was a bim.","",""
"","image-keyboard-response","124","498622","0.0-6.0-0.39","FL","wmv7c0r6c5","1440","900","en","va04ik29","null","","","","","","","","learning/Slide40.JPG","null","","","","",""
"","html-keyboard-response","125","499773","0.0-6.0-1.39","FL","wmv7c0r6c5","1440","900","en","va04ik29","null","","","","learningBlock1","","","","That was a tob.","null","","","","",""
"","html-keyboard-response","126","500777","0.0-6.0-2.39","FL","wmv7c0r6c5","1440","900","en","va04ik29","null","","","","learningBlock1","","","","<div style=""font-size:60px;""> </div>","null","FL","learning/Slide40.JPG","That was a tob.","",""
"","image-keyboard-response","127","500956","0.0-6.0-0.40","FL","wmv7c0r6c5","1440","900","en","va04ik29","null","","","","","","","","learning/Slide41.JPG","null","","","","",""
"","html-keyboard-response","128","502110","0.0-6.0-1.40","FL","wmv7c0r6c5","1440","900","en","va04ik29","null","","","","learningBlock1","","","","That was a bim.","null","","","","",""
"","html-keyboard-response","129","503114","0.0-6.0-2.40","FL","wmv7c0r6c5","1440","900","en","va04ik29","null","","","","learningBlock1","","","","<div style=""font-size:60px;""> </div>","null","FL","learning/Slide41.JPG","That was a bim.","",""
"","image-keyboard-response","130","503291","0.0-6.0-0.41","FL","wmv7c0r6c5","1440","900","en","va04ik29","null","","","","","","","","learning/Slide42.JPG","null","","","","",""
"","html-keyboard-response","131","504443","0.0-6.0-1.41","FL","wmv7c0r6c5","1440","900","en","va04ik29","null","","","","learningBlock1","","","","That was a dep.","null","","","","",""
"","html-keyboard-response","132","505447","0.0-6.0-2.41","FL","wmv7c0r6c5","1440","900","en","va04ik29","null","","","","learningBlock1","","","","<div style=""font-size:60px;""> </div>","null","FL","learning/Slide42.JPG","That was a dep.","",""
"","image-keyboard-response","133","505623","0.0-6.0-0.42","FL","wmv7c0r6c5","1440","900","en","va04ik29","null","","","","","","","","learning/Slide43.JPG","null","","","","",""
"","html-keyboard-response","134","506780","0.0-6.0-1.42","FL","wmv7c0r6c5","1440","900","en","va04ik29","null","","","","learningBlock1","","","","That was a wug.","null","","","","",""
"","html-keyboard-response","135","507784","0.0-6.0-2.42","FL","wmv7c0r6c5","1440","900","en","va04ik29","null","","","","learningBlock1","","","","<div style=""font-size:60px;""> </div>","null","FL","learning/Slide43.JPG","That was a wug.","",""
"","image-keyboard-response","136","507960","0.0-6.0-0.43","FL","wmv7c0r6c5","1440","900","en","va04ik29","null","","","","","","","","learning/Slide44.JPG","null","","","","",""
"","html-keyboard-response","137","509114","0.0-6.0-1.43","FL","wmv7c0r6c5","1440","900","en","va04ik29","null","","","","learningBlock1","","","","That was a bim.","null","","","","",""
"","html-keyboard-response","138","510120","0.0-6.0-2.43","FL","wmv7c0r6c5","1440","900","en","va04ik29","null","","","","learningBlock1","","","","<div style=""font-size:60px;""> </div>","null","FL","learning/Slide44.JPG","That was a bim.","",""
"","image-keyboard-response","139","510297","0.0-6.0-0.44","FL","wmv7c0r6c5","1440","900","en","va04ik29","null","","","","","","","","learning/Slide45.JPG","null","","","","",""
"","html-keyboard-response","140","511450","0.0-6.0-1.44","FL","wmv7c0r6c5","1440","900","en","va04ik29","null","","","","learningBlock1","","","","That was a wug.","null","","","","",""
"","html-keyboard-response","141","512455","0.0-6.0-2.44","FL","wmv7c0r6c5","1440","900","en","va04ik29","null","","","","learningBlock1","","","","<div style=""font-size:60px;""> </div>","null","FL","learning/Slide45.JPG","That was a wug.","",""
"","image-keyboard-response","142","512632","0.0-6.0-0.45","FL","wmv7c0r6c5","1440","900","en","va04ik29","null","","","","","","","","learning/Slide46.JPG","null","","","","",""
"","html-keyboard-response","143","513787","0.0-6.0-1.45","FL","wmv7c0r6c5","1440","900","en","va04ik29","null","","","","learningBlock1","","","","That was a dep.","null","","","","",""
"","html-keyboard-response","144","514791","0.0-6.0-2.45","FL","wmv7c0r6c5","1440","900","en","va04ik29","null","","","","learningBlock1","","","","<div style=""font-size:60px;""> </div>","null","FL","learning/Slide46.JPG","That was a dep.","",""
"","image-keyboard-response","145","514969","0.0-6.0-0.46","FL","wmv7c0r6c5","1440","900","en","va04ik29","null","","","","","","","","learning/Slide47.JPG","null","","","","",""
"","html-keyboard-response","146","516124","0.0-6.0-1.46","FL","wmv7c0r6c5","1440","900","en","va04ik29","null","","","","learningBlock1","","","","That was a tob.","null","","","","",""
"","html-keyboard-response","147","517128","0.0-6.0-2.46","FL","wmv7c0r6c5","1440","900","en","va04ik29","null","","","","learningBlock1","","","","<div style=""font-size:60px;""> </div>","null","FL","learning/Slide47.JPG","That was a tob.","",""
"","image-keyboard-response","148","517307","0.0-6.0-0.47","FL","wmv7c0r6c5","1440","900","en","va04ik29","null","","","","","","","","learning/Slide48.JPG","null","","","","",""
"","html-keyboard-response","149","518458","0.0-6.0-1.47","FL","wmv7c0r6c5","1440","900","en","va04ik29","null","","","","learningBlock1","","","","That was a bim.","null","","","","",""
"","html-keyboard-response","150","519463","0.0-6.0-2.47","FL","wmv7c0r6c5","1440","900","en","va04ik29","null","","","","learningBlock1","","","","<div style=""font-size:60px;""> </div>","null","FL","learning/Slide48.JPG","That was a bim.","",""
"","image-keyboard-response","151","519641","0.0-6.0-0.48","FL","wmv7c0r6c5","1440","900","en","va04ik29","null","","","","","","","","learning/Slide49.JPG","null","","","","",""
"","html-keyboard-response","152","520799","0.0-6.0-1.48","FL","wmv7c0r6c5","1440","900","en","va04ik29","null","","","","learningBlock1","","","","That was a dep.","null","","","","",""
"","html-keyboard-response","153","521803","0.0-6.0-2.48","FL","wmv7c0r6c5","1440","900","en","va04ik29","null","","","","learningBlock1","","","","<div style=""font-size:60px;""> </div>","null","FL","learning/Slide49.JPG","That was a dep.","",""
"","image-keyboard-response","154","521979","0.0-6.0-0.49","FL","wmv7c0r6c5","1440","900","en","va04ik29","null","","","","","","","","learning/Slide50.JPG","null","","","","",""
"","html-keyboard-response","155","523135","0.0-6.0-1.49","FL","wmv7c0r6c5","1440","900","en","va04ik29","null","","","","learningBlock1","","","","That was a tob.","null","","","","",""
"","html-keyboard-response","156","524138","0.0-6.0-2.49","FL","wmv7c0r6c5","1440","900","en","va04ik29","null","","","","learningBlock1","","","","<div style=""font-size:60px;""> </div>","null","FL","learning/Slide50.JPG","That was a tob.","",""
"","image-keyboard-response","157","524316","0.0-6.0-0.50","FL","wmv7c0r6c5","1440","900","en","va04ik29","null","","","","","","","","learning/Slide51.JPG","null","","","","",""
"","html-keyboard-response","158","525475","0.0-6.0-1.50","FL","wmv7c0r6c5","1440","900","en","va04ik29","null","","","","learningBlock1","","","","That was a bim.","null","","","","",""
"","html-keyboard-response","159","526479","0.0-6.0-2.50","FL","wmv7c0r6c5","1440","900","en","va04ik29","null","","","","learningBlock1","","","","<div style=""font-size:60px;""> </div>","null","FL","learning/Slide51.JPG","That was a bim.","",""
"","image-keyboard-response","160","526659","0.0-6.0-0.51","FL","wmv7c0r6c5","1440","900","en","va04ik29","null","","","","","","","","learning/Slide52.JPG","null","","","","",""
"","html-keyboard-response","161","527816","0.0-6.0-1.51","FL","wmv7c0r6c5","1440","900","en","va04ik29","null","","","","learningBlock1","","","","That was a wug.","null","","","","",""
"","html-keyboard-response","162","528820","0.0-6.0-2.51","FL","wmv7c0r6c5","1440","900","en","va04ik29","null","","","","learningBlock1","","","","<div style=""font-size:60px;""> </div>","null","FL","learning/Slide52.JPG","That was a wug.","",""
"","image-keyboard-response","163","529002","0.0-6.0-0.52","FL","wmv7c0r6c5","1440","900","en","va04ik29","null","","","","","","","","learning/Slide53.JPG","null","","","","",""
"","html-keyboard-response","164","530159","0.0-6.0-1.52","FL","wmv7c0r6c5","1440","900","en","va04ik29","null","","","","learningBlock1","","","","That was a tob.","null","","","","",""
"","html-keyboard-response","165","531165","0.0-6.0-2.52","FL","wmv7c0r6c5","1440","900","en","va04ik29","null","","","","learningBlock1","","","","<div style=""font-size:60px;""> </div>","null","FL","learning/Slide53.JPG","That was a tob.","",""
"","image-keyboard-response","166","531342","0.0-6.0-0.53","FL","wmv7c0r6c5","1440","900","en","va04ik29","null","","","","","","","","learning/Slide54.JPG","null","","","","",""
"","html-keyboard-response","167","532494","0.0-6.0-1.53","FL","wmv7c0r6c5","1440","900","en","va04ik29","null","","","","learningBlock1","","","","That was a dep.","null","","","","",""
"","html-keyboard-response","168","533498","0.0-6.0-2.53","FL","wmv7c0r6c5","1440","900","en","va04ik29","null","","","","learningBlock1","","","","<div style=""font-size:60px;""> </div>","null","FL","learning/Slide54.JPG","That was a dep.","",""
"","image-keyboard-response","169","533676","0.0-6.0-0.54","FL","wmv7c0r6c5","1440","900","en","va04ik29","null","","","","","","","","learning/Slide55.JPG","null","","","","",""
"","html-keyboard-response","170","534833","0.0-6.0-1.54","FL","wmv7c0r6c5","1440","900","en","va04ik29","null","","","","learningBlock1","","","","That was a bim.","null","","","","",""
"","html-keyboard-response","171","535836","0.0-6.0-2.54","FL","wmv7c0r6c5","1440","900","en","va04ik29","null","","","","learningBlock1","","","","<div style=""font-size:60px;""> </div>","null","FL","learning/Slide55.JPG","That was a bim.","",""
"","image-keyboard-response","172","536013","0.0-6.0-0.55","FL","wmv7c0r6c5","1440","900","en","va04ik29","null","","","","","","","","learning/Slide56.JPG","null","","","","",""
"","html-keyboard-response","173","537174","0.0-6.0-1.55","FL","wmv7c0r6c5","1440","900","en","va04ik29","null","","","","learningBlock1","","","","That was a tob.","null","","","","",""
"","html-keyboard-response","174","538178","0.0-6.0-2.55","FL","wmv7c0r6c5","1440","900","en","va04ik29","null","","","","learningBlock1","","","","<div style=""font-size:60px;""> </div>","null","FL","learning/Slide56.JPG","That was a tob.","",""
"","image-keyboard-response","175","538359","0.0-6.0-0.56","FL","wmv7c0r6c5","1440","900","en","va04ik29","null","","","","","","","","learning/Slide57.JPG","null","","","","",""
"","html-keyboard-response","176","539515","0.0-6.0-1.56","FL","wmv7c0r6c5","1440","900","en","va04ik29","null","","","","learningBlock1","","","","That was a dep.","null","","","","",""
"","html-keyboard-response","177","540520","0.0-6.0-2.56","FL","wmv7c0r6c5","1440","900","en","va04ik29","null","","","","learningBlock1","","","","<div style=""font-size:60px;""> </div>","null","FL","learning/Slide57.JPG","That was a dep.","",""
"","image-keyboard-response","178","540697","0.0-6.0-0.57","FL","wmv7c0r6c5","1440","900","en","va04ik29","null","","","","","","","","learning/Slide58.JPG","null","","","","",""
"","html-keyboard-response","179","541858","0.0-6.0-1.57","FL","wmv7c0r6c5","1440","900","en","va04ik29","null","","","","learningBlock1","","","","That was a wug.","null","","","","",""
"","html-keyboard-response","180","542860","0.0-6.0-2.57","FL","wmv7c0r6c5","1440","900","en","va04ik29","null","","","","learningBlock1","","","","<div style=""font-size:60px;""> </div>","null","FL","learning/Slide58.JPG","That was a wug.","",""
"","image-keyboard-response","181","543041","0.0-6.0-0.58","FL","wmv7c0r6c5","1440","900","en","va04ik29","null","","","","","","","","learning/Slide59.JPG","null","","","","",""
"","html-keyboard-response","182","544199","0.0-6.0-1.58","FL","wmv7c0r6c5","1440","900","en","va04ik29","null","","","","learningBlock1","","","","That was a dep.","null","","","","",""
"","html-keyboard-response","183","545203","0.0-6.0-2.58","FL","wmv7c0r6c5","1440","900","en","va04ik29","null","","","","learningBlock1","","","","<div style=""font-size:60px;""> </div>","null","FL","learning/Slide59.JPG","That was a dep.","",""
"","image-keyboard-response","184","545380","0.0-6.0-0.59","FL","wmv7c0r6c5","1440","900","en","va04ik29","null","","","","","","","","learning/Slide60.JPG","null","","","","",""
"","html-keyboard-response","185","546535","0.0-6.0-1.59","FL","wmv7c0r6c5","1440","900","en","va04ik29","null","","","","learningBlock1","","","","That was a wug.","null","","","","",""
"","html-keyboard-response","186","547539","0.0-6.0-2.59","FL","wmv7c0r6c5","1440","900","en","va04ik29","null","","","","learningBlock1","","","","<div style=""font-size:60px;""> </div>","null","FL","learning/Slide60.JPG","That was a wug.","",""
"","image-keyboard-response","187","547717","0.0-6.0-0.60","FL","wmv7c0r6c5","1440","900","en","va04ik29","null","","","","","","","","learning/Slide61.JPG","null","","","","",""
"","html-keyboard-response","188","548877","0.0-6.0-1.60","FL","wmv7c0r6c5","1440","900","en","va04ik29","null","","","","learningBlock1","","","","That was a bim.","null","","","","",""
"","html-keyboard-response","189","549881","0.0-6.0-2.60","FL","wmv7c0r6c5","1440","900","en","va04ik29","null","","","","learningBlock1","","","","<div style=""font-size:60px;""> </div>","null","FL","learning/Slide61.JPG","That was a bim.","",""
"","image-keyboard-response","190","550061","0.0-6.0-0.61","FL","wmv7c0r6c5","1440","900","en","va04ik29","null","","","","","","","","learning/Slide62.JPG","null","","","","",""
"","html-keyboard-response","191","551218","0.0-6.0-1.61","FL","wmv7c0r6c5","1440","900","en","va04ik29","null","","","","learningBlock1","","","","That was a dep.","null","","","","",""
"","html-keyboard-response","192","552223","0.0-6.0-2.61","FL","wmv7c0r6c5","1440","900","en","va04ik29","null","","","","learningBlock1","","","","<div style=""font-size:60px;""> </div>","null","FL","learning/Slide62.JPG","That was a dep.","",""
"","image-keyboard-response","193","552404","0.0-6.0-0.62","FL","wmv7c0r6c5","1440","900","en","va04ik29","null","","","","","","","","learning/Slide63.JPG","null","","","","",""
"","html-keyboard-response","194","553564","0.0-6.0-1.62","FL","wmv7c0r6c5","1440","900","en","va04ik29","null","","","","learningBlock1","","","","That was a bim.","null","","","","",""
"","html-keyboard-response","195","554569","0.0-6.0-2.62","FL","wmv7c0r6c5","1440","900","en","va04ik29","null","","","","learningBlock1","","","","<div style=""font-size:60px;""> </div>","null","FL","learning/Slide63.JPG","That was a bim.","",""
"","image-keyboard-response","196","554747","0.0-6.0-0.63","FL","wmv7c0r6c5","1440","900","en","va04ik29","null","","","","","","","","learning/Slide64.JPG","null","","","","",""
"","html-keyboard-response","197","555908","0.0-6.0-1.63","FL","wmv7c0r6c5","1440","900","en","va04ik29","null","","","","learningBlock1","","","","That was a tob.","null","","","","",""
"","html-keyboard-response","198","556913","0.0-6.0-2.63","FL","wmv7c0r6c5","1440","900","en","va04ik29","null","","","","learningBlock1","","","","<div style=""font-size:60px;""> </div>","null","FL","learning/Slide64.JPG","That was a tob.","",""
"","image-keyboard-response","199","557095","0.0-6.0-0.64","FL","wmv7c0r6c5","1440","900","en","va04ik29","null","","","","","","","","learning/Slide65.JPG","null","","","","",""
"","html-keyboard-response","200","558247","0.0-6.0-1.64","FL","wmv7c0r6c5","1440","900","en","va04ik29","null","","","","learningBlock1","","","","That was a wug.","null","","","","",""
"","html-keyboard-response","201","559251","0.0-6.0-2.64","FL","wmv7c0r6c5","1440","900","en","va04ik29","null","","","","learningBlock1","","","","<div style=""font-size:60px;""> </div>","null","FL","learning/Slide65.JPG","That was a wug.","",""
"","image-keyboard-response","202","559428","0.0-6.0-0.65","FL","wmv7c0r6c5","1440","900","en","va04ik29","null","","","","","","","","learning/Slide66.JPG","null","","","","",""
"","html-keyboard-response","203","560583","0.0-6.0-1.65","FL","wmv7c0r6c5","1440","900","en","va04ik29","null","","","","learningBlock1","","","","That was a dep.","null","","","","",""
"","html-keyboard-response","204","561588","0.0-6.0-2.65","FL","wmv7c0r6c5","1440","900","en","va04ik29","null","","","","learningBlock1","","","","<div style=""font-size:60px;""> </div>","null","FL","learning/Slide66.JPG","That was a dep.","",""
"","image-keyboard-response","205","561769","0.0-6.0-0.66","FL","wmv7c0r6c5","1440","900","en","va04ik29","null","","","","","","","","learning/Slide67.JPG","null","","","","",""
"","html-keyboard-response","206","562927","0.0-6.0-1.66","FL","wmv7c0r6c5","1440","900","en","va04ik29","null","","","","learningBlock1","","","","That was a tob.","null","","","","",""
"","html-keyboard-response","207","563929","0.0-6.0-2.66","FL","wmv7c0r6c5","1440","900","en","va04ik29","null","","","","learningBlock1","","","","<div style=""font-size:60px;""> </div>","null","FL","learning/Slide67.JPG","That was a tob.","",""
"","image-keyboard-response","208","564110","0.0-6.0-0.67","FL","wmv7c0r6c5","1440","900","en","va04ik29","null","","","","","","","","learning/Slide68.JPG","null","","","","",""
"","html-keyboard-response","209","565271","0.0-6.0-1.67","FL","wmv7c0r6c5","1440","900","en","va04ik29","null","","","","learningBlock1","","","","That was a wug.","null","","","","",""
"","html-keyboard-response","210","566276","0.0-6.0-2.67","FL","wmv7c0r6c5","1440","900","en","va04ik29","null","","","","learningBlock1","","","","<div style=""font-size:60px;""> </div>","null","FL","learning/Slide68.JPG","That was a wug.","",""
"","image-keyboard-response","211","566458","0.0-6.0-0.68","FL","wmv7c0r6c5","1440","900","en","va04ik29","null","","","","","","","","learning/Slide69.JPG","null","","","","",""
"","html-keyboard-response","212","567612","0.0-6.0-1.68","FL","wmv7c0r6c5","1440","900","en","va04ik29","null","","","","learningBlock1","","","","That was a tob.","null","","","","",""
"","html-keyboard-response","213","568616","0.0-6.0-2.68","FL","wmv7c0r6c5","1440","900","en","va04ik29","null","","","","learningBlock1","","","","<div style=""font-size:60px;""> </div>","null","FL","learning/Slide69.JPG","That was a tob.","",""
"","image-keyboard-response","214","568796","0.0-6.0-0.69","FL","wmv7c0r6c5","1440","900","en","va04ik29","null","","","","","","","","learning/Slide70.JPG","null","","","","",""
"","html-keyboard-response","215","569954","0.0-6.0-1.69","FL","wmv7c0r6c5","1440","900","en","va04ik29","null","","","","learningBlock1","","","","That was a dep.","null","","","","",""
"","html-keyboard-response","216","570958","0.0-6.0-2.69","FL","wmv7c0r6c5","1440","900","en","va04ik29","null","","","","learningBlock1","","","","<div style=""font-size:60px;""> </div>","null","FL","learning/Slide70.JPG","That was a dep.","",""
"","image-keyboard-response","217","571134","0.0-6.0-0.70","FL","wmv7c0r6c5","1440","900","en","va04ik29","null","","","","","","","","learning/Slide71.JPG","null","","","","",""
"","html-keyboard-response","218","572291","0.0-6.0-1.70","FL","wmv7c0r6c5","1440","900","en","va04ik29","null","","","","learningBlock1","","","","That was a wug.","null","","","","",""
"","html-keyboard-response","219","573295","0.0-6.0-2.70","FL","wmv7c0r6c5","1440","900","en","va04ik29","null","","","","learningBlock1","","","","<div style=""font-size:60px;""> </div>","null","FL","learning/Slide71.JPG","That was a wug.","",""
"","image-keyboard-response","220","573474","0.0-6.0-0.71","FL","wmv7c0r6c5","1440","900","en","va04ik29","null","","","","","","","","learning/Slide72.JPG","null","","","","",""
"","html-keyboard-response","221","574631","0.0-6.0-1.71","FL","wmv7c0r6c5","1440","900","en","va04ik29","null","","","","learningBlock1","","","","That was a bim.","null","","","","",""
"","html-keyboard-response","222","575636","0.0-6.0-2.71","FL","wmv7c0r6c5","1440","900","en","va04ik29","null","","","","learningBlock1","","","","<div style=""font-size:60px;""> </div>","null","FL","learning/Slide72.JPG","That was a bim.","",""
"","image-keyboard-response","223","575814","0.0-6.0-0.72","FL","wmv7c0r6c5","1440","900","en","va04ik29","null","","","","","","","","learning/Slide73.JPG","null","","","","",""
"","html-keyboard-response","224","576968","0.0-6.0-1.72","FL","wmv7c0r6c5","1440","900","en","va04ik29","null","","","","learningBlock1","","","","That was a wug.","null","","","","",""
"","html-keyboard-response","225","577971","0.0-6.0-2.72","FL","wmv7c0r6c5","1440","900","en","va04ik29","null","","","","learningBlock1","","","","<div style=""font-size:60px;""> </div>","null","FL","learning/Slide73.JPG","That was a wug.","",""
"","image-keyboard-response","226","578149","0.0-6.0-0.73","FL","wmv7c0r6c5","1440","900","en","va04ik29","null","","","","","","","","learning/Slide74.JPG","null","","","","",""
"","html-keyboard-response","227","579304","0.0-6.0-1.73","FL","wmv7c0r6c5","1440","900","en","va04ik29","null","","","","learningBlock1","","","","That was a dep.","null","","","","",""
"","html-keyboard-response","228","580308","0.0-6.0-2.73","FL","wmv7c0r6c5","1440","900","en","va04ik29","null","","","","learningBlock1","","","","<div style=""font-size:60px;""> </div>","null","FL","learning/Slide74.JPG","That was a dep.","",""
"","image-keyboard-response","229","580489","0.0-6.0-0.74","FL","wmv7c0r6c5","1440","900","en","va04ik29","null","","","","","","","","learning/Slide75.JPG","null","","","","",""
"","html-keyboard-response","230","581642","0.0-6.0-1.74","FL","wmv7c0r6c5","1440","900","en","va04ik29","null","","","","learningBlock1","","","","That was a tob.","null","","","","",""
"","html-keyboard-response","231","582647","0.0-6.0-2.74","FL","wmv7c0r6c5","1440","900","en","va04ik29","null","","","","learningBlock1","","","","<div style=""font-size:60px;""> </div>","null","FL","learning/Slide75.JPG","That was a tob.","",""
"","image-keyboard-response","232","582827","0.0-6.0-0.75","FL","wmv7c0r6c5","1440","900","en","va04ik29","null","","","","","","","","learning/Slide76.JPG","null","","","","",""
"","html-keyboard-response","233","583982","0.0-6.0-1.75","FL","wmv7c0r6c5","1440","900","en","va04ik29","null","","","","learningBlock1","","","","That was a bim.","null","","","","",""
"","html-keyboard-response","234","584986","0.0-6.0-2.75","FL","wmv7c0r6c5","1440","900","en","va04ik29","null","","","","learningBlock1","","","","<div style=""font-size:60px;""> </div>","null","FL","learning/Slide76.JPG","That was a bim.","",""
"","image-keyboard-response","235","585164","0.0-6.0-0.76","FL","wmv7c0r6c5","1440","900","en","va04ik29","null","","","","","","","","learning/Slide77.JPG","null","","","","",""
"","html-keyboard-response","236","586320","0.0-6.0-1.76","FL","wmv7c0r6c5","1440","900","en","va04ik29","null","","","","learningBlock1","","","","That was a tob.","null","","","","",""
"","html-keyboard-response","237","587324","0.0-6.0-2.76","FL","wmv7c0r6c5","1440","900","en","va04ik29","null","","","","learningBlock1","","","","<div style=""font-size:60px;""> </div>","null","FL","learning/Slide77.JPG","That was a tob.","",""
"","image-keyboard-response","238","587503","0.0-6.0-0.77","FL","wmv7c0r6c5","1440","900","en","va04ik29","null","","","","","","","","learning/Slide78.JPG","null","","","","",""
"","html-keyboard-response","239","588661","0.0-6.0-1.77","FL","wmv7c0r6c5","1440","900","en","va04ik29","null","","","","learningBlock1","","","","That was a wug.","null","","","","",""
"","html-keyboard-response","240","589665","0.0-6.0-2.77","FL","wmv7c0r6c5","1440","900","en","va04ik29","null","","","","learningBlock1","","","","<div style=""font-size:60px;""> </div>","null","FL","learning/Slide78.JPG","That was a wug.","",""
"","image-keyboard-response","241","589842","0.0-6.0-0.78","FL","wmv7c0r6c5","1440","900","en","va04ik29","null","","","","","","","","learning/Slide79.JPG","null","","","","",""
"","html-keyboard-response","242","591003","0.0-6.0-1.78","FL","wmv7c0r6c5","1440","900","en","va04ik29","null","","","","learningBlock1","","","","That was a bim.","null","","","","",""
"","html-keyboard-response","243","592006","0.0-6.0-2.78","FL","wmv7c0r6c5","1440","900","en","va04ik29","null","","","","learningBlock1","","","","<div style=""font-size:60px;""> </div>","null","FL","learning/Slide79.JPG","That was a bim.","",""
"","image-keyboard-response","244","592187","0.0-6.0-0.79","FL","wmv7c0r6c5","1440","900","en","va04ik29","null","","","","","","","","learning/Slide80.JPG","null","","","","",""
"","html-keyboard-response","245","593344","0.0-6.0-1.79","FL","wmv7c0r6c5","1440","900","en","va04ik29","null","","","","learningBlock1","","","","That was a tob.","null","","","","",""
"","html-keyboard-response","246","594348","0.0-6.0-2.79","FL","wmv7c0r6c5","1440","900","en","va04ik29","null","","","","learningBlock1","","","","<div style=""font-size:60px;""> </div>","null","FL","learning/Slide80.JPG","That was a tob.","",""
"","instructions","247","597127","0.0-7.0","FL","wmv7c0r6c5","1440","900","en","va04ik29","NA","","","[{""page_index"":0,""viewing_time"":2778.54000000027}]","instructions","","","","","","","","","",""
"","image-keyboard-response","248","597309","0.0-8.0-0.0","FL","wmv7c0r6c5","1440","900","en","va04ik29","null","","","","","","","","learning/Slide81.JPG","null","","","","",""
"","html-keyboard-response","249","598465","0.0-8.0-1.0","FL","wmv7c0r6c5","1440","900","en","va04ik29","null","","","","learningBlock2","","","","That was a wug.","null","","","","",""
"","html-keyboard-response","250","599467","0.0-8.0-2.0","FL","wmv7c0r6c5","1440","900","en","va04ik29","null","","","","learningBlock2","","","","<div style=""font-size:60px;""> </div>","null","FL","learning/Slide81.JPG","That was a wug.","",""
"","image-keyboard-response","251","599646","0.0-8.0-0.1","FL","wmv7c0r6c5","1440","900","en","va04ik29","null","","","","","","","","learning/Slide82.JPG","null","","","","",""
"","html-keyboard-response","252","600805","0.0-8.0-1.1","FL","wmv7c0r6c5","1440","900","en","va04ik29","null","","","","learningBlock2","","","","That was a bim.","null","","","","",""
"","html-keyboard-response","253","601809","0.0-8.0-2.1","FL","wmv7c0r6c5","1440","900","en","va04ik29","null","","","","learningBlock2","","","","<div style=""font-size:60px;""> </div>","null","FL","learning/Slide82.JPG","That was a bim.","",""
"","image-keyboard-response","254","601987","0.0-8.0-0.2","FL","wmv7c0r6c5","1440","900","en","va04ik29","null","","","","","","","","learning/Slide83.JPG","null","","","","",""
"","html-keyboard-response","255","603146","0.0-8.0-1.2","FL","wmv7c0r6c5","1440","900","en","va04ik29","null","","","","learningBlock2","","","","That was a wug.","null","","","","",""
"","html-keyboard-response","256","604150","0.0-8.0-2.2","FL","wmv7c0r6c5","1440","900","en","va04ik29","null","","","","learningBlock2","","","","<div style=""font-size:60px;""> </div>","null","FL","learning/Slide83.JPG","That was a wug.","",""
"","image-keyboard-response","257","604329","0.0-8.0-0.3","FL","wmv7c0r6c5","1440","900","en","va04ik29","null","","","","","","","","learning/Slide84.JPG","null","","","","",""
"","html-keyboard-response","258","605485","0.0-8.0-1.3","FL","wmv7c0r6c5","1440","900","en","va04ik29","null","","","","learningBlock2","","","","That was a dep.","null","","","","",""
"","html-keyboard-response","259","606489","0.0-8.0-2.3","FL","wmv7c0r6c5","1440","900","en","va04ik29","null","","","","learningBlock2","","","","<div style=""font-size:60px;""> </div>","null","FL","learning/Slide84.JPG","That was a dep.","",""
"","image-keyboard-response","260","606667","0.0-8.0-0.4","FL","wmv7c0r6c5","1440","900","en","va04ik29","null","","","","","","","","learning/Slide85.JPG","null","","","","",""
"","html-keyboard-response","261","607824","0.0-8.0-1.4","FL","wmv7c0r6c5","1440","900","en","va04ik29","null","","","","learningBlock2","","","","That was a bim.","null","","","","",""
"","html-keyboard-response","262","608828","0.0-8.0-2.4","FL","wmv7c0r6c5","1440","900","en","va04ik29","null","","","","learningBlock2","","","","<div style=""font-size:60px;""> </div>","null","FL","learning/Slide85.JPG","That was a bim.","",""
"","image-keyboard-response","263","609005","0.0-8.0-0.5","FL","wmv7c0r6c5","1440","900","en","va04ik29","null","","","","","","","","learning/Slide86.JPG","null","","","","",""
"","html-keyboard-response","264","610163","0.0-8.0-1.5","FL","wmv7c0r6c5","1440","900","en","va04ik29","null","","","","learningBlock2","","","","That was a tob.","null","","","","",""
"","html-keyboard-response","265","611168","0.0-8.0-2.5","FL","wmv7c0r6c5","1440","900","en","va04ik29","null","","","","learningBlock2","","","","<div style=""font-size:60px;""> </div>","null","FL","learning/Slide86.JPG","That was a tob.","",""
"","image-keyboard-response","266","611349","0.0-8.0-0.6","FL","wmv7c0r6c5","1440","900","en","va04ik29","null","","","","","","","","learning/Slide87.JPG","null","","","","",""
"","html-keyboard-response","267","612502","0.0-8.0-1.6","FL","wmv7c0r6c5","1440","900","en","va04ik29","null","","","","learningBlock2","","","","That was a wug.","null","","","","",""
"","html-keyboard-response","268","613507","0.0-8.0-2.6","FL","wmv7c0r6c5","1440","900","en","va04ik29","null","","","","learningBlock2","","","","<div style=""font-size:60px;""> </div>","null","FL","learning/Slide87.JPG","That was a wug.","",""
"","image-keyboard-response","269","613684","0.0-8.0-0.7","FL","wmv7c0r6c5","1440","900","en","va04ik29","null","","","","","","","","learning/Slide88.JPG","null","","","","",""
"","html-keyboard-response","270","614837","0.0-8.0-1.7","FL","wmv7c0r6c5","1440","900","en","va04ik29","null","","","","learningBlock2","","","","That was a tob.","null","","","","",""
"","html-keyboard-response","271","615841","0.0-8.0-2.7","FL","wmv7c0r6c5","1440","900","en","va04ik29","null","","","","learningBlock2","","","","<div style=""font-size:60px;""> </div>","null","FL","learning/Slide88.JPG","That was a tob.","",""
"","image-keyboard-response","272","616018","0.0-8.0-0.8","FL","wmv7c0r6c5","1440","900","en","va04ik29","null","","","","","","","","learning/Slide89.JPG","null","","","","",""
"","html-keyboard-response","273","617175","0.0-8.0-1.8","FL","wmv7c0r6c5","1440","900","en","va04ik29","null","","","","learningBlock2","","","","That was a bim.","null","","","","",""
"","html-keyboard-response","274","618179","0.0-8.0-2.8","FL","wmv7c0r6c5","1440","900","en","va04ik29","null","","","","learningBlock2","","","","<div style=""font-size:60px;""> </div>","null","FL","learning/Slide89.JPG","That was a bim.","",""
"","image-keyboard-response","275","618356","0.0-8.0-0.9","FL","wmv7c0r6c5","1440","900","en","va04ik29","null","","","","","","","","learning/Slide90.JPG","null","","","","",""
"","html-keyboard-response","276","619517","0.0-8.0-1.9","FL","wmv7c0r6c5","1440","900","en","va04ik29","null","","","","learningBlock2","","","","That was a dep.","null","","","","",""
"","html-keyboard-response","277","620521","0.0-8.0-2.9","FL","wmv7c0r6c5","1440","900","en","va04ik29","null","","","","learningBlock2","","","","<div style=""font-size:60px;""> </div>","null","FL","learning/Slide90.JPG","That was a dep.","",""
"","image-keyboard-response","278","620701","0.0-8.0-0.10","FL","wmv7c0r6c5","1440","900","en","va04ik29","null","","","","","","","","learning/Slide91.JPG","null","","","","",""
"","html-keyboard-response","279","621859","0.0-8.0-1.10","FL","wmv7c0r6c5","1440","900","en","va04ik29","null","","","","learningBlock2","","","","That was a wug.","null","","","","",""
"","html-keyboard-response","280","622865","0.0-8.0-2.10","FL","wmv7c0r6c5","1440","900","en","va04ik29","null","","","","learningBlock2","","","","<div style=""font-size:60px;""> </div>","null","FL","learning/Slide91.JPG","That was a wug.","",""
"","image-keyboard-response","281","623042","0.0-8.0-0.11","FL","wmv7c0r6c5","1440","900","en","va04ik29","null","","","","","","","","learning/Slide92.JPG","null","","","","",""
"","html-keyboard-response","282","624196","0.0-8.0-1.11","FL","wmv7c0r6c5","1440","900","en","va04ik29","null","","","","learningBlock2","","","","That was a tob.","null","","","","",""
"","html-keyboard-response","283","625200","0.0-8.0-2.11","FL","wmv7c0r6c5","1440","900","en","va04ik29","null","","","","learningBlock2","","","","<div style=""font-size:60px;""> </div>","null","FL","learning/Slide92.JPG","That was a tob.","",""
"","image-keyboard-response","284","625377","0.0-8.0-0.12","FL","wmv7c0r6c5","1440","900","en","va04ik29","null","","","","","","","","learning/Slide93.JPG","null","","","","",""
"","html-keyboard-response","285","626534","0.0-8.0-1.12","FL","wmv7c0r6c5","1440","900","en","va04ik29","null","","","","learningBlock2","","","","That was a bim.","null","","","","",""
"","html-keyboard-response","286","627538","0.0-8.0-2.12","FL","wmv7c0r6c5","1440","900","en","va04ik29","null","","","","learningBlock2","","","","<div style=""font-size:60px;""> </div>","null","FL","learning/Slide93.JPG","That was a bim.","",""
"","image-keyboard-response","287","627716","0.0-8.0-0.13","FL","wmv7c0r6c5","1440","900","en","va04ik29","null","","","","","","","","learning/Slide94.JPG","null","","","","",""
"","html-keyboard-response","288","628871","0.0-8.0-1.13","FL","wmv7c0r6c5","1440","900","en","va04ik29","null","","","","learningBlock2","","","","That was a tob.","null","","","","",""
"","html-keyboard-response","289","629876","0.0-8.0-2.13","FL","wmv7c0r6c5","1440","900","en","va04ik29","null","","","","learningBlock2","","","","<div style=""font-size:60px;""> </div>","null","FL","learning/Slide94.JPG","That was a tob.","",""
"","image-keyboard-response","290","630053","0.0-8.0-0.14","FL","wmv7c0r6c5","1440","900","en","va04ik29","null","","","","","","","","learning/Slide95.JPG","null","","","","",""
"","html-keyboard-response","291","631214","0.0-8.0-1.14","FL","wmv7c0r6c5","1440","900","en","va04ik29","null","","","","learningBlock2","","","","That was a wug.","null","","","","",""
"","html-keyboard-response","292","632219","0.0-8.0-2.14","FL","wmv7c0r6c5","1440","900","en","va04ik29","null","","","","learningBlock2","","","","<div style=""font-size:60px;""> </div>","null","FL","learning/Slide95.JPG","That was a wug.","",""
"","image-keyboard-response","293","632401","0.0-8.0-0.15","FL","wmv7c0r6c5","1440","900","en","va04ik29","null","","","","","","","","learning/Slide96.JPG","null","","","","",""
"","html-keyboard-response","294","633556","0.0-8.0-1.15","FL","wmv7c0r6c5","1440","900","en","va04ik29","null","","","","learningBlock2","","","","That was a tob.","null","","","","",""
"","html-keyboard-response","295","634562","0.0-8.0-2.15","FL","wmv7c0r6c5","1440","900","en","va04ik29","null","","","","learningBlock2","","","","<div style=""font-size:60px;""> </div>","null","FL","learning/Slide96.JPG","That was a tob.","",""
"","image-keyboard-response","296","634740","0.0-8.0-0.16","FL","wmv7c0r6c5","1440","900","en","va04ik29","null","","","","","","","","learning/Slide97.JPG","null","","","","",""
"","html-keyboard-response","297","635893","0.0-8.0-1.16","FL","wmv7c0r6c5","1440","900","en","va04ik29","null","","","","learningBlock2","","","","That was a dep.","null","","","","",""
"","html-keyboard-response","298","636899","0.0-8.0-2.16","FL","wmv7c0r6c5","1440","900","en","va04ik29","null","","","","learningBlock2","","","","<div style=""font-size:60px;""> </div>","null","FL","learning/Slide97.JPG","That was a dep.","",""
"","image-keyboard-response","299","637077","0.0-8.0-0.17","FL","wmv7c0r6c5","1440","900","en","va04ik29","null","","","","","","","","learning/Slide98.JPG","null","","","","",""
"","html-keyboard-response","300","638239","0.0-8.0-1.17","FL","wmv7c0r6c5","1440","900","en","va04ik29","null","","","","learningBlock2","","","","That was a bim.","null","","","","",""
"","html-keyboard-response","301","639244","0.0-8.0-2.17","FL","wmv7c0r6c5","1440","900","en","va04ik29","null","","","","learningBlock2","","","","<div style=""font-size:60px;""> </div>","null","FL","learning/Slide98.JPG","That was a bim.","",""
"","image-keyboard-response","302","639424","0.0-8.0-0.18","FL","wmv7c0r6c5","1440","900","en","va04ik29","null","","","","","","","","learning/Slide99.JPG","null","","","","",""
"","html-keyboard-response","303","640581","0.0-8.0-1.18","FL","wmv7c0r6c5","1440","900","en","va04ik29","null","","","","learningBlock2","","","","That was a dep.","null","","","","",""
"","html-keyboard-response","304","641586","0.0-8.0-2.18","FL","wmv7c0r6c5","1440","900","en","va04ik29","null","","","","learningBlock2","","","","<div style=""font-size:60px;""> </div>","null","FL","learning/Slide99.JPG","That was a dep.","",""
"","image-keyboard-response","305","641764","0.0-8.0-0.19","FL","wmv7c0r6c5","1440","900","en","va04ik29","null","","","","","","","","learning/Slide100.JPG","null","","","","",""
"","html-keyboard-response","306","642921","0.0-8.0-1.19","FL","wmv7c0r6c5","1440","900","en","va04ik29","null","","","","learningBlock2","","","","That was a bim.","null","","","","",""
"","html-keyboard-response","307","643926","0.0-8.0-2.19","FL","wmv7c0r6c5","1440","900","en","va04ik29","null","","","","learningBlock2","","","","<div style=""font-size:60px;""> </div>","null","FL","learning/Slide100.JPG","That was a bim.","",""
"","image-keyboard-response","308","644107","0.0-8.0-0.20","FL","wmv7c0r6c5","1440","900","en","va04ik29","null","","","","","","","","learning/Slide101.JPG","null","","","","",""
"","html-keyboard-response","309","645269","0.0-8.0-1.20","FL","wmv7c0r6c5","1440","900","en","va04ik29","null","","","","learningBlock2","","","","That was a tob.","null","","","","",""
"","html-keyboard-response","310","646274","0.0-8.0-2.20","FL","wmv7c0r6c5","1440","900","en","va04ik29","null","","","","learningBlock2","","","","<div style=""font-size:60px;""> </div>","null","FL","learning/Slide101.JPG","That was a tob.","",""
"","image-keyboard-response","311","646451","0.0-8.0-0.21","FL","wmv7c0r6c5","1440","900","en","va04ik29","null","","","","","","","","learning/Slide102.JPG","null","","","","",""
"","html-keyboard-response","312","647607","0.0-8.0-1.21","FL","wmv7c0r6c5","1440","900","en","va04ik29","null","","","","learningBlock2","","","","That was a bim.","null","","","","",""
"","html-keyboard-response","313","648613","0.0-8.0-2.21","FL","wmv7c0r6c5","1440","900","en","va04ik29","null","","","","learningBlock2","","","","<div style=""font-size:60px;""> </div>","null","FL","learning/Slide102.JPG","That was a bim.","",""
"","image-keyboard-response","314","648793","0.0-8.0-0.22","FL","wmv7c0r6c5","1440","900","en","va04ik29","null","","","","","","","","learning/Slide103.JPG","null","","","","",""
"","html-keyboard-response","315","649951","0.0-8.0-1.22","FL","wmv7c0r6c5","1440","900","en","va04ik29","null","","","","learningBlock2","","","","That was a dep.","null","","","","",""
"","html-keyboard-response","316","650958","0.0-8.0-2.22","FL","wmv7c0r6c5","1440","900","en","va04ik29","null","","","","learningBlock2","","","","<div style=""font-size:60px;""> </div>","null","FL","learning/Slide103.JPG","That was a dep.","",""
"","image-keyboard-response","317","651136","0.0-8.0-0.23","FL","wmv7c0r6c5","1440","900","en","va04ik29","null","","","","","","","","learning/Slide104.JPG","null","","","","",""
"","html-keyboard-response","318","652289","0.0-8.0-1.23","FL","wmv7c0r6c5","1440","900","en","va04ik29","null","","","","learningBlock2","","","","That was a tob.","null","","","","",""
"","html-keyboard-response","319","653294","0.0-8.0-2.23","FL","wmv7c0r6c5","1440","900","en","va04ik29","null","","","","learningBlock2","","","","<div style=""font-size:60px;""> </div>","null","FL","learning/Slide104.JPG","That was a tob.","",""
"","image-keyboard-response","320","653472","0.0-8.0-0.24","FL","wmv7c0r6c5","1440","900","en","va04ik29","null","","","","","","","","learning/Slide105.JPG","null","","","","",""
"","html-keyboard-response","321","654626","0.0-8.0-1.24","FL","wmv7c0r6c5","1440","900","en","va04ik29","null","","","","learningBlock2","","","","That was a dep.","null","","","","",""
"","html-keyboard-response","322","655631","0.0-8.0-2.24","FL","wmv7c0r6c5","1440","900","en","va04ik29","null","","","","learningBlock2","","","","<div style=""font-size:60px;""> </div>","null","FL","learning/Slide105.JPG","That was a dep.","",""
"","image-keyboard-response","323","655812","0.0-8.0-0.25","FL","wmv7c0r6c5","1440","900","en","va04ik29","null","","","","","","","","learning/Slide106.JPG","null","","","","",""
"","html-keyboard-response","324","656974","0.0-8.0-1.25","FL","wmv7c0r6c5","1440","900","en","va04ik29","null","","","","learningBlock2","","","","That was a wug.","null","","","","",""
"","html-keyboard-response","325","657979","0.0-8.0-2.25","FL","wmv7c0r6c5","1440","900","en","va04ik29","null","","","","learningBlock2","","","","<div style=""font-size:60px;""> </div>","null","FL","learning/Slide106.JPG","That was a wug.","",""
"","image-keyboard-response","326","658156","0.0-8.0-0.26","FL","wmv7c0r6c5","1440","900","en","va04ik29","null","","","","","","","","learning/Slide107.JPG","null","","","","",""
"","html-keyboard-response","327","659308","0.0-8.0-1.26","FL","wmv7c0r6c5","1440","900","en","va04ik29","null","","","","learningBlock2","","","","That was a bim.","null","","","","",""
"","html-keyboard-response","328","660312","0.0-8.0-2.26","FL","wmv7c0r6c5","1440","900","en","va04ik29","null","","","","learningBlock2","","","","<div style=""font-size:60px;""> </div>","null","FL","learning/Slide107.JPG","That was a bim.","",""
"","image-keyboard-response","329","660491","0.0-8.0-0.27","FL","wmv7c0r6c5","1440","900","en","va04ik29","null","","","","","","","","learning/Slide108.JPG","null","","","","",""
"","html-keyboard-response","330","661652","0.0-8.0-1.27","FL","wmv7c0r6c5","1440","900","en","va04ik29","null","","","","learningBlock2","","","","That was a dep.","null","","","","",""
"","html-keyboard-response","331","662658","0.0-8.0-2.27","FL","wmv7c0r6c5","1440","900","en","va04ik29","null","","","","learningBlock2","","","","<div style=""font-size:60px;""> </div>","null","FL","learning/Slide108.JPG","That was a dep.","",""
"","image-keyboard-response","332","662835","0.0-8.0-0.28","FL","wmv7c0r6c5","1440","900","en","va04ik29","null","","","","","","","","learning/Slide109.JPG","null","","","","",""
"","html-keyboard-response","333","663996","0.0-8.0-1.28","FL","wmv7c0r6c5","1440","900","en","va04ik29","null","","","","learningBlock2","","","","That was a wug.","null","","","","",""
"","html-keyboard-response","334","665001","0.0-8.0-2.28","FL","wmv7c0r6c5","1440","900","en","va04ik29","null","","","","learningBlock2","","","","<div style=""font-size:60px;""> </div>","null","FL","learning/Slide109.JPG","That was a wug.","",""
"","image-keyboard-response","335","665180","0.0-8.0-0.29","FL","wmv7c0r6c5","1440","900","en","va04ik29","null","","","","","","","","learning/Slide110.JPG","null","","","","",""
"","html-keyboard-response","336","666340","0.0-8.0-1.29","FL","wmv7c0r6c5","1440","900","en","va04ik29","null","","","","learningBlock2","","","","That was a bim.","null","","","","",""
"","html-keyboard-response","337","667344","0.0-8.0-2.29","FL","wmv7c0r6c5","1440","900","en","va04ik29","null","","","","learningBlock2","","","","<div style=""font-size:60px;""> </div>","null","FL","learning/Slide110.JPG","That was a bim.","",""
"","image-keyboard-response","338","667526","0.0-8.0-0.30","FL","wmv7c0r6c5","1440","900","en","va04ik29","null","","","","","","","","learning/Slide111.JPG","null","","","","",""
"","html-keyboard-response","339","668682","0.0-8.0-1.30","FL","wmv7c0r6c5","1440","900","en","va04ik29","null","","","","learningBlock2","","","","That was a tob.","null","","","","",""
"","html-keyboard-response","340","669687","0.0-8.0-2.30","FL","wmv7c0r6c5","1440","900","en","va04ik29","null","","","","learningBlock2","","","","<div style=""font-size:60px;""> </div>","null","FL","learning/Slide111.JPG","That was a tob.","",""
"","image-keyboard-response","341","669868","0.0-8.0-0.31","FL","wmv7c0r6c5","1440","900","en","va04ik29","null","","","","","","","","learning/Slide112.JPG","null","","","","",""
"","html-keyboard-response","342","671024","0.0-8.0-1.31","FL","wmv7c0r6c5","1440","900","en","va04ik29","null","","","","learningBlock2","","","","That was a wug.","null","","","","",""
"","html-keyboard-response","343","672029","0.0-8.0-2.31","FL","wmv7c0r6c5","1440","900","en","va04ik29","null","","","","learningBlock2","","","","<div style=""font-size:60px;""> </div>","null","FL","learning/Slide112.JPG","That was a wug.","",""
"","image-keyboard-response","344","672210","0.0-8.0-0.32","FL","wmv7c0r6c5","1440","900","en","va04ik29","null","","","","","","","","learning/Slide113.JPG","null","","","","",""
"","html-keyboard-response","345","673372","0.0-8.0-1.32","FL","wmv7c0r6c5","1440","900","en","va04ik29","null","","","","learningBlock2","","","","That was a tob.","null","","","","",""
"","html-keyboard-response","346","674376","0.0-8.0-2.32","FL","wmv7c0r6c5","1440","900","en","va04ik29","null","","","","learningBlock2","","","","<div style=""font-size:60px;""> </div>","null","FL","learning/Slide113.JPG","That was a tob.","",""
"","image-keyboard-response","347","674557","0.0-8.0-0.33","FL","wmv7c0r6c5","1440","900","en","va04ik29","null","","","","","","","","learning/Slide114.JPG","null","","","","",""
"","html-keyboard-response","348","675713","0.0-8.0-1.33","FL","wmv7c0r6c5","1440","900","en","va04ik29","null","","","","learningBlock2","","","","That was a wug.","null","","","","",""
"","html-keyboard-response","349","676717","0.0-8.0-2.33","FL","wmv7c0r6c5","1440","900","en","va04ik29","null","","","","learningBlock2","","","","<div style=""font-size:60px;""> </div>","null","FL","learning/Slide114.JPG","That was a wug.","",""
"","image-keyboard-response","350","676895","0.0-8.0-0.34","FL","wmv7c0r6c5","1440","900","en","va04ik29","null","","","","","","","","learning/Slide115.JPG","null","","","","",""
"","html-keyboard-response","351","678048","0.0-8.0-1.34","FL","wmv7c0r6c5","1440","900","en","va04ik29","null","","","","learningBlock2","","","","That was a bim.","null","","","","",""
"","html-keyboard-response","352","679053","0.0-8.0-2.34","FL","wmv7c0r6c5","1440","900","en","va04ik29","null","","","","learningBlock2","","","","<div style=""font-size:60px;""> </div>","null","FL","learning/Slide115.JPG","That was a bim.","",""
"","image-keyboard-response","353","679230","0.0-8.0-0.35","FL","wmv7c0r6c5","1440","900","en","va04ik29","null","","","","","","","","learning/Slide116.JPG","null","","","","",""
"","html-keyboard-response","354","680391","0.0-8.0-1.35","FL","wmv7c0r6c5","1440","900","en","va04ik29","null","","","","learningBlock2","","","","That was a dep.","null","","","","",""
"","html-keyboard-response","355","681396","0.0-8.0-2.35","FL","wmv7c0r6c5","1440","900","en","va04ik29","null","","","","learningBlock2","","","","<div style=""font-size:60px;""> </div>","null","FL","learning/Slide116.JPG","That was a dep.","",""
"","image-keyboard-response","356","681577","0.0-8.0-0.36","FL","wmv7c0r6c5","1440","900","en","va04ik29","null","","","","","","","","learning/Slide117.JPG","null","","","","",""
"","html-keyboard-response","357","682731","0.0-8.0-1.36","FL","wmv7c0r6c5","1440","900","en","va04ik29","null","","","","learningBlock2","","","","That was a tob.","null","","","","",""
"","html-keyboard-response","358","683735","0.0-8.0-2.36","FL","wmv7c0r6c5","1440","900","en","va04ik29","null","","","","learningBlock2","","","","<div style=""font-size:60px;""> </div>","null","FL","learning/Slide117.JPG","That was a tob.","",""
"","image-keyboard-response","359","683916","0.0-8.0-0.37","FL","wmv7c0r6c5","1440","900","en","va04ik29","null","","","","","","","","learning/Slide118.JPG","null","","","","",""
"","html-keyboard-response","360","685071","0.0-8.0-1.37","FL","wmv7c0r6c5","1440","900","en","va04ik29","null","","","","learningBlock2","","","","That was a dep.","null","","","","",""
"","html-keyboard-response","361","686075","0.0-8.0-2.37","FL","wmv7c0r6c5","1440","900","en","va04ik29","null","","","","learningBlock2","","","","<div style=""font-size:60px;""> </div>","null","FL","learning/Slide118.JPG","That was a dep.","",""
"","image-keyboard-response","362","686252","0.0-8.0-0.38","FL","wmv7c0r6c5","1440","900","en","va04ik29","null","","","","","","","","learning/Slide119.JPG","null","","","","",""
"","html-keyboard-response","363","687413","0.0-8.0-1.38","FL","wmv7c0r6c5","1440","900","en","va04ik29","null","","","","learningBlock2","","","","That was a wug.","null","","","","",""
"","html-keyboard-response","364","688417","0.0-8.0-2.38","FL","wmv7c0r6c5","1440","900","en","va04ik29","null","","","","learningBlock2","","","","<div style=""font-size:60px;""> </div>","null","FL","learning/Slide119.JPG","That was a wug.","",""
"","image-keyboard-response","365","688596","0.0-8.0-0.39","FL","wmv7c0r6c5","1440","900","en","va04ik29","null","","","","","","","","learning/Slide120.JPG","null","","","","",""
"","html-keyboard-response","366","689753","0.0-8.0-1.39","FL","wmv7c0r6c5","1440","900","en","va04ik29","null","","","","learningBlock2","","","","That was a dep.","null","","","","",""
"","html-keyboard-response","367","690757","0.0-8.0-2.39","FL","wmv7c0r6c5","1440","900","en","va04ik29","null","","","","learningBlock2","","","","<div style=""font-size:60px;""> </div>","null","FL","learning/Slide120.JPG","That was a dep.","",""
"","image-keyboard-response","368","690936","0.0-8.0-0.40","FL","wmv7c0r6c5","1440","900","en","va04ik29","null","","","","","","","","learning/Slide121.JPG","null","","","","",""
"","html-keyboard-response","369","692097","0.0-8.0-1.40","FL","wmv7c0r6c5","1440","900","en","va04ik29","null","","","","learningBlock2","","","","That was a bim.","null","","","","",""
"","html-keyboard-response","370","693102","0.0-8.0-2.40","FL","wmv7c0r6c5","1440","900","en","va04ik29","null","","","","learningBlock2","","","","<div style=""font-size:60px;""> </div>","null","FL","learning/Slide121.JPG","That was a bim.","",""
"","image-keyboard-response","371","693281","0.0-8.0-0.41","FL","wmv7c0r6c5","1440","900","en","va04ik29","null","","","","","","","","learning/Slide122.JPG","null","","","","",""
"","html-keyboard-response","372","694434","0.0-8.0-1.41","FL","wmv7c0r6c5","1440","900","en","va04ik29","null","","","","learningBlock2","","","","That was a wug.","null","","","","",""
"","html-keyboard-response","373","695438","0.0-8.0-2.41","FL","wmv7c0r6c5","1440","900","en","va04ik29","null","","","","learningBlock2","","","","<div style=""font-size:60px;""> </div>","null","FL","learning/Slide122.JPG","That was a wug.","",""
"","image-keyboard-response","374","695618","0.0-8.0-0.42","FL","wmv7c0r6c5","1440","900","en","va04ik29","null","","","","","","","","learning/Slide123.JPG","null","","","","",""
"","html-keyboard-response","375","696772","0.0-8.0-1.42","FL","wmv7c0r6c5","1440","900","en","va04ik29","null","","","","learningBlock2","","","","That was a bim.","null","","","","",""
"","html-keyboard-response","376","697776","0.0-8.0-2.42","FL","wmv7c0r6c5","1440","900","en","va04ik29","null","","","","learningBlock2","","","","<div style=""font-size:60px;""> </div>","null","FL","learning/Slide123.JPG","That was a bim.","",""
"","image-keyboard-response","377","697955","0.0-8.0-0.43","FL","wmv7c0r6c5","1440","900","en","va04ik29","null","","","","","","","","learning/Slide124.JPG","null","","","","",""
"","html-keyboard-response","378","699112","0.0-8.0-1.43","FL","wmv7c0r6c5","1440","900","en","va04ik29","null","","","","learningBlock2","","","","That was a tob.","null","","","","",""
"","html-keyboard-response","379","700117","0.0-8.0-2.43","FL","wmv7c0r6c5","1440","900","en","va04ik29","null","","","","learningBlock2","","","","<div style=""font-size:60px;""> </div>","null","FL","learning/Slide124.JPG","That was a tob.","",""
"","image-keyboard-response","380","700298","0.0-8.0-0.44","FL","wmv7c0r6c5","1440","900","en","va04ik29","null","","","","","","","","learning/Slide125.JPG","null","","","","",""
"","html-keyboard-response","381","701455","0.0-8.0-1.44","FL","wmv7c0r6c5","1440","900","en","va04ik29","null","","","","learningBlock2","","","","That was a bim.","null","","","","",""
"","html-keyboard-response","382","702459","0.0-8.0-2.44","FL","wmv7c0r6c5","1440","900","en","va04ik29","null","","","","learningBlock2","","","","<div style=""font-size:60px;""> </div>","null","FL","learning/Slide125.JPG","That was a bim.","",""
"","image-keyboard-response","383","702641","0.0-8.0-0.45","FL","wmv7c0r6c5","1440","900","en","va04ik29","null","","","","","","","","learning/Slide126.JPG","null","","","","",""
"","html-keyboard-response","384","703799","0.0-8.0-1.45","FL","wmv7c0r6c5","1440","900","en","va04ik29","null","","","","learningBlock2","","","","That was a tob.","null","","","","",""
"","html-keyboard-response","385","704803","0.0-8.0-2.45","FL","wmv7c0r6c5","1440","900","en","va04ik29","null","","","","learningBlock2","","","","<div style=""font-size:60px;""> </div>","null","FL","learning/Slide126.JPG","That was a tob.","",""
"","image-keyboard-response","386","704982","0.0-8.0-0.46","FL","wmv7c0r6c5","1440","900","en","va04ik29","null","","","","","","","","learning/Slide127.JPG","null","","","","",""
"","html-keyboard-response","387","706134","0.0-8.0-1.46","FL","wmv7c0r6c5","1440","900","en","va04ik29","null","","","","learningBlock2","","","","That was a dep.","null","","","","",""
"","html-keyboard-response","388","707138","0.0-8.0-2.46","FL","wmv7c0r6c5","1440","900","en","va04ik29","null","","","","learningBlock2","","","","<div style=""font-size:60px;""> </div>","null","FL","learning/Slide127.JPG","That was a dep.","",""
"","image-keyboard-response","389","707316","0.0-8.0-0.47","FL","wmv7c0r6c5","1440","900","en","va04ik29","null","","","","","","","","learning/Slide128.JPG","null","","","","",""
"","html-keyboard-response","390","708473","0.0-8.0-1.47","FL","wmv7c0r6c5","1440","900","en","va04ik29","null","","","","learningBlock2","","","","That was a wug.","null","","","","",""
"","html-keyboard-response","391","709477","0.0-8.0-2.47","FL","wmv7c0r6c5","1440","900","en","va04ik29","null","","","","learningBlock2","","","","<div style=""font-size:60px;""> </div>","null","FL","learning/Slide128.JPG","That was a wug.","",""
"","image-keyboard-response","392","709658","0.0-8.0-0.48","FL","wmv7c0r6c5","1440","900","en","va04ik29","null","","","","","","","","learning/Slide129.JPG","null","","","","",""
"","html-keyboard-response","393","710816","0.0-8.0-1.48","FL","wmv7c0r6c5","1440","900","en","va04ik29","null","","","","learningBlock2","","","","That was a tob.","null","","","","",""
"","html-keyboard-response","394","711820","0.0-8.0-2.48","FL","wmv7c0r6c5","1440","900","en","va04ik29","null","","","","learningBlock2","","","","<div style=""font-size:60px;""> </div>","null","FL","learning/Slide129.JPG","That was a tob.","",""
"","image-keyboard-response","395","712002","0.0-8.0-0.49","FL","wmv7c0r6c5","1440","900","en","va04ik29","null","","","","","","","","learning/Slide130.JPG","null","","","","",""
"","html-keyboard-response","396","713159","0.0-8.0-1.49","FL","wmv7c0r6c5","1440","900","en","va04ik29","null","","","","learningBlock2","","","","That was a wug.","null","","","","",""
"","html-keyboard-response","397","714160","0.0-8.0-2.49","FL","wmv7c0r6c5","1440","900","en","va04ik29","null","","","","learningBlock2","","","","<div style=""font-size:60px;""> </div>","null","FL","learning/Slide130.JPG","That was a wug.","",""
"","image-keyboard-response","398","714339","0.0-8.0-0.50","FL","wmv7c0r6c5","1440","900","en","va04ik29","null","","","","","","","","learning/Slide131.JPG","null","","","","",""
"","html-keyboard-response","399","715491","0.0-8.0-1.50","FL","wmv7c0r6c5","1440","900","en","va04ik29","null","","","","learningBlock2","","","","That was a bim.","null","","","","",""
"","html-keyboard-response","400","716495","0.0-8.0-2.50","FL","wmv7c0r6c5","1440","900","en","va04ik29","null","","","","learningBlock2","","","","<div style=""font-size:60px;""> </div>","null","FL","learning/Slide131.JPG","That was a bim.","",""
"","image-keyboard-response","401","716677","0.0-8.0-0.51","FL","wmv7c0r6c5","1440","900","en","va04ik29","null","","","","","","","","learning/Slide132.JPG","null","","","","",""
"","html-keyboard-response","402","717834","0.0-8.0-1.51","FL","wmv7c0r6c5","1440","900","en","va04ik29","null","","","","learningBlock2","","","","That was a dep.","null","","","","",""
"","html-keyboard-response","403","718838","0.0-8.0-2.51","FL","wmv7c0r6c5","1440","900","en","va04ik29","null","","","","learningBlock2","","","","<div style=""font-size:60px;""> </div>","null","FL","learning/Slide132.JPG","That was a dep.","",""
"","image-keyboard-response","404","719018","0.0-8.0-0.52","FL","wmv7c0r6c5","1440","900","en","va04ik29","null","","","","","","","","learning/Slide133.JPG","null","","","","",""
"","html-keyboard-response","405","720178","0.0-8.0-1.52","FL","wmv7c0r6c5","1440","900","en","va04ik29","null","","","","learningBlock2","","","","That was a tob.","null","","","","",""
"","html-keyboard-response","406","721183","0.0-8.0-2.52","FL","wmv7c0r6c5","1440","900","en","va04ik29","null","","","","learningBlock2","","","","<div style=""font-size:60px;""> </div>","null","FL","learning/Slide133.JPG","That was a tob.","",""
"","image-keyboard-response","407","721365","0.0-8.0-0.53","FL","wmv7c0r6c5","1440","900","en","va04ik29","null","","","","","","","","learning/Slide134.JPG","null","","","","",""
"","html-keyboard-response","408","722519","0.0-8.0-1.53","FL","wmv7c0r6c5","1440","900","en","va04ik29","null","","","","learningBlock2","","","","That was a dep.","null","","","","",""
"","html-keyboard-response","409","723524","0.0-8.0-2.53","FL","wmv7c0r6c5","1440","900","en","va04ik29","null","","","","learningBlock2","","","","<div style=""font-size:60px;""> </div>","null","FL","learning/Slide134.JPG","That was a dep.","",""
"","image-keyboard-response","410","723705","0.0-8.0-0.54","FL","wmv7c0r6c5","1440","900","en","va04ik29","null","","","","","","","","learning/Slide135.JPG","null","","","","",""
"","html-keyboard-response","411","724864","0.0-8.0-1.54","FL","wmv7c0r6c5","1440","900","en","va04ik29","null","","","","learningBlock2","","","","That was a tob.","null","","","","",""
"","html-keyboard-response","412","725869","0.0-8.0-2.54","FL","wmv7c0r6c5","1440","900","en","va04ik29","null","","","","learningBlock2","","","","<div style=""font-size:60px;""> </div>","null","FL","learning/Slide135.JPG","That was a tob.","",""
"","image-keyboard-response","413","726048","0.0-8.0-0.55","FL","wmv7c0r6c5","1440","900","en","va04ik29","null","","","","","","","","learning/Slide136.JPG","null","","","","",""
"","html-keyboard-response","414","727202","0.0-8.0-1.55","FL","wmv7c0r6c5","1440","900","en","va04ik29","null","","","","learningBlock2","","","","That was a wug.","null","","","","",""
"","html-keyboard-response","415","728207","0.0-8.0-2.55","FL","wmv7c0r6c5","1440","900","en","va04ik29","null","","","","learningBlock2","","","","<div style=""font-size:60px;""> </div>","null","FL","learning/Slide136.JPG","That was a wug.","",""
"","image-keyboard-response","416","728388","0.0-8.0-0.56","FL","wmv7c0r6c5","1440","900","en","va04ik29","null","","","","","","","","learning/Slide137.JPG","null","","","","",""
"","html-keyboard-response","417","729549","0.0-8.0-1.56","FL","wmv7c0r6c5","1440","900","en","va04ik29","null","","","","learningBlock2","","","","That was a tob.","null","","","","",""
"","html-keyboard-response","418","730553","0.0-8.0-2.56","FL","wmv7c0r6c5","1440","900","en","va04ik29","null","","","","learningBlock2","","","","<div style=""font-size:60px;""> </div>","null","FL","learning/Slide137.JPG","That was a tob.","",""
"","image-keyboard-response","419","730735","0.0-8.0-0.57","FL","wmv7c0r6c5","1440","900","en","va04ik29","null","","","","","","","","learning/Slide138.JPG","null","","","","",""
"","html-keyboard-response","420","731892","0.0-8.0-1.57","FL","wmv7c0r6c5","1440","900","en","va04ik29","null","","","","learningBlock2","","","","That was a bim.","null","","","","",""
"","html-keyboard-response","421","732896","0.0-8.0-2.57","FL","wmv7c0r6c5","1440","900","en","va04ik29","null","","","","learningBlock2","","","","<div style=""font-size:60px;""> </div>","null","FL","learning/Slide138.JPG","That was a bim.","",""
"","image-keyboard-response","422","733076","0.0-8.0-0.58","FL","wmv7c0r6c5","1440","900","en","va04ik29","null","","","","","","","","learning/Slide139.JPG","null","","","","",""
"","html-keyboard-response","423","734235","0.0-8.0-1.58","FL","wmv7c0r6c5","1440","900","en","va04ik29","null","","","","learningBlock2","","","","That was a wug.","null","","","","",""
"","html-keyboard-response","424","735239","0.0-8.0-2.58","FL","wmv7c0r6c5","1440","900","en","va04ik29","null","","","","learningBlock2","","","","<div style=""font-size:60px;""> </div>","null","FL","learning/Slide139.JPG","That was a wug.","",""
"","image-keyboard-response","425","735418","0.0-8.0-0.59","FL","wmv7c0r6c5","1440","900","en","va04ik29","null","","","","","","","","learning/Slide140.JPG","null","","","","",""
"","html-keyboard-response","426","736575","0.0-8.0-1.59","FL","wmv7c0r6c5","1440","900","en","va04ik29","null","","","","learningBlock2","","","","That was a dep.","null","","","","",""
"","html-keyboard-response","427","737579","0.0-8.0-2.59","FL","wmv7c0r6c5","1440","900","en","va04ik29","null","","","","learningBlock2","","","","<div style=""font-size:60px;""> </div>","null","FL","learning/Slide140.JPG","That was a dep.","",""
"","image-keyboard-response","428","737761","0.0-8.0-0.60","FL","wmv7c0r6c5","1440","900","en","va04ik29","null","","","","","","","","learning/Slide141.JPG","null","","","","",""
"","html-keyboard-response","429","738919","0.0-8.0-1.60","FL","wmv7c0r6c5","1440","900","en","va04ik29","null","","","","learningBlock2","","","","That was a tob.","null","","","","",""
"","html-keyboard-response","430","739925","0.0-8.0-2.60","FL","wmv7c0r6c5","1440","900","en","va04ik29","null","","","","learningBlock2","","","","<div style=""font-size:60px;""> </div>","null","FL","learning/Slide141.JPG","That was a tob.","",""
"","image-keyboard-response","431","740103","0.0-8.0-0.61","FL","wmv7c0r6c5","1440","900","en","va04ik29","null","","","","","","","","learning/Slide142.JPG","null","","","","",""
"","html-keyboard-response","432","741260","0.0-8.0-1.61","FL","wmv7c0r6c5","1440","900","en","va04ik29","null","","","","learningBlock2","","","","That was a wug.","null","","","","",""
"","html-keyboard-response","433","742264","0.0-8.0-2.61","FL","wmv7c0r6c5","1440","900","en","va04ik29","null","","","","learningBlock2","","","","<div style=""font-size:60px;""> </div>","null","FL","learning/Slide142.JPG","That was a wug.","",""
"","image-keyboard-response","434","742442","0.0-8.0-0.62","FL","wmv7c0r6c5","1440","900","en","va04ik29","null","","","","","","","","learning/Slide143.JPG","null","","","","",""
"","html-keyboard-response","435","743597","0.0-8.0-1.62","FL","wmv7c0r6c5","1440","900","en","va04ik29","null","","","","learningBlock2","","","","That was a bim.","null","","","","",""
"","html-keyboard-response","436","744601","0.0-8.0-2.62","FL","wmv7c0r6c5","1440","900","en","va04ik29","null","","","","learningBlock2","","","","<div style=""font-size:60px;""> </div>","null","FL","learning/Slide143.JPG","That was a bim.","",""
"","image-keyboard-response","437","744783","0.0-8.0-0.63","FL","wmv7c0r6c5","1440","900","en","va04ik29","null","","","","","","","","learning/Slide144.JPG","null","","","","",""
"","html-keyboard-response","438","745938","0.0-8.0-1.63","FL","wmv7c0r6c5","1440","900","en","va04ik29","null","","","","learningBlock2","","","","That was a dep.","null","","","","",""
"","html-keyboard-response","439","746942","0.0-8.0-2.63","FL","wmv7c0r6c5","1440","900","en","va04ik29","null","","","","learningBlock2","","","","<div style=""font-size:60px;""> </div>","null","FL","learning/Slide144.JPG","That was a dep.","",""
"","image-keyboard-response","440","747123","0.0-8.0-0.64","FL","wmv7c0r6c5","1440","900","en","va04ik29","null","","","","","","","","learning/Slide145.JPG","null","","","","",""
"","html-keyboard-response","441","748284","0.0-8.0-1.64","FL","wmv7c0r6c5","1440","900","en","va04ik29","null","","","","learningBlock2","","","","That was a bim.","null","","","","",""
"","html-keyboard-response","442","749288","0.0-8.0-2.64","FL","wmv7c0r6c5","1440","900","en","va04ik29","null","","","","learningBlock2","","","","<div style=""font-size:60px;""> </div>","null","FL","learning/Slide145.JPG","That was a bim.","",""
"","image-keyboard-response","443","749470","0.0-8.0-0.65","FL","wmv7c0r6c5","1440","900","en","va04ik29","null","","","","","","","","learning/Slide146.JPG","null","","","","",""
"","html-keyboard-response","444","750627","0.0-8.0-1.65","FL","wmv7c0r6c5","1440","900","en","va04ik29","null","","","","learningBlock2","","","","That was a tob.","null","","","","",""
"","html-keyboard-response","445","751631","0.0-8.0-2.65","FL","wmv7c0r6c5","1440","900","en","va04ik29","null","","","","learningBlock2","","","","<div style=""font-size:60px;""> </div>","null","FL","learning/Slide146.JPG","That was a tob.","",""
"","image-keyboard-response","446","751813","0.0-8.0-0.66","FL","wmv7c0r6c5","1440","900","en","va04ik29","null","","","","","","","","learning/Slide147.JPG","null","","","","",""
"","html-keyboard-response","447","752970","0.0-8.0-1.66","FL","wmv7c0r6c5","1440","900","en","va04ik29","null","","","","learningBlock2","","","","That was a wug.","null","","","","",""
"","html-keyboard-response","448","753975","0.0-8.0-2.66","FL","wmv7c0r6c5","1440","900","en","va04ik29","null","","","","learningBlock2","","","","<div style=""font-size:60px;""> </div>","null","FL","learning/Slide147.JPG","That was a wug.","",""
"","image-keyboard-response","449","754156","0.0-8.0-0.67","FL","wmv7c0r6c5","1440","900","en","va04ik29","null","","","","","","","","learning/Slide148.JPG","null","","","","",""
"","html-keyboard-response","450","755313","0.0-8.0-1.67","FL","wmv7c0r6c5","1440","900","en","va04ik29","null","","","","learningBlock2","","","","That was a bim.","null","","","","",""
"","html-keyboard-response","451","756317","0.0-8.0-2.67","FL","wmv7c0r6c5","1440","900","en","va04ik29","null","","","","learningBlock2","","","","<div style=""font-size:60px;""> </div>","null","FL","learning/Slide148.JPG","That was a bim.","",""
"","image-keyboard-response","452","756494","0.0-8.0-0.68","FL","wmv7c0r6c5","1440","900","en","va04ik29","null","","","","","","","","learning/Slide149.JPG","null","","","","",""
"","html-keyboard-response","453","757653","0.0-8.0-1.68","FL","wmv7c0r6c5","1440","900","en","va04ik29","null","","","","learningBlock2","","","","That was a dep.","null","","","","",""
"","html-keyboard-response","454","758656","0.0-8.0-2.68","FL","wmv7c0r6c5","1440","900","en","va04ik29","null","","","","learningBlock2","","","","<div style=""font-size:60px;""> </div>","null","FL","learning/Slide149.JPG","That was a dep.","",""
"","image-keyboard-response","455","758838","0.0-8.0-0.69","FL","wmv7c0r6c5","1440","900","en","va04ik29","null","","","","","","","","learning/Slide150.JPG","null","","","","",""
"","html-keyboard-response","456","759999","0.0-8.0-1.69","FL","wmv7c0r6c5","1440","900","en","va04ik29","null","","","","learningBlock2","","","","That was a wug.","null","","","","",""
"","html-keyboard-response","457","761003","0.0-8.0-2.69","FL","wmv7c0r6c5","1440","900","en","va04ik29","null","","","","learningBlock2","","","","<div style=""font-size:60px;""> </div>","null","FL","learning/Slide150.JPG","That was a wug.","",""
"","image-keyboard-response","458","761181","0.0-8.0-0.70","FL","wmv7c0r6c5","1440","900","en","va04ik29","null","","","","","","","","learning/Slide151.JPG","null","","","","",""
"","html-keyboard-response","459","762337","0.0-8.0-1.70","FL","wmv7c0r6c5","1440","900","en","va04ik29","null","","","","learningBlock2","","","","That was a dep.","null","","","","",""
"","html-keyboard-response","460","763339","0.0-8.0-2.70","FL","wmv7c0r6c5","1440","900","en","va04ik29","null","","","","learningBlock2","","","","<div style=""font-size:60px;""> </div>","null","FL","learning/Slide151.JPG","That was a dep.","",""
"","image-keyboard-response","461","763521","0.0-8.0-0.71","FL","wmv7c0r6c5","1440","900","en","va04ik29","null","","","","","","","","learning/Slide152.JPG","null","","","","",""
"","html-keyboard-response","462","764681","0.0-8.0-1.71","FL","wmv7c0r6c5","1440","900","en","va04ik29","null","","","","learningBlock2","","","","That was a wug.","null","","","","",""
"","html-keyboard-response","463","765685","0.0-8.0-2.71","FL","wmv7c0r6c5","1440","900","en","va04ik29","null","","","","learningBlock2","","","","<div style=""font-size:60px;""> </div>","null","FL","learning/Slide152.JPG","That was a wug.","",""
"","image-keyboard-response","464","765866","0.0-8.0-0.72","FL","wmv7c0r6c5","1440","900","en","va04ik29","null","","","","","","","","learning/Slide153.JPG","null","","","","",""
"","html-keyboard-response","465","767028","0.0-8.0-1.72","FL","wmv7c0r6c5","1440","900","en","va04ik29","null","","","","learningBlock2","","","","That was a bim.","null","","","","",""
"","html-keyboard-response","466","768032","0.0-8.0-2.72","FL","wmv7c0r6c5","1440","900","en","va04ik29","null","","","","learningBlock2","","","","<div style=""font-size:60px;""> </div>","null","FL","learning/Slide153.JPG","That was a bim.","",""
"","image-keyboard-response","467","768213","0.0-8.0-0.73","FL","wmv7c0r6c5","1440","900","en","va04ik29","null","","","","","","","","learning/Slide154.JPG","null","","","","",""
"","html-keyboard-response","468","769374","0.0-8.0-1.73","FL","wmv7c0r6c5","1440","900","en","va04ik29","null","","","","learningBlock2","","","","That was a tob.","null","","","","",""
"","html-keyboard-response","469","770378","0.0-8.0-2.73","FL","wmv7c0r6c5","1440","900","en","va04ik29","null","","","","learningBlock2","","","","<div style=""font-size:60px;""> </div>","null","FL","learning/Slide154.JPG","That was a tob.","",""
"","image-keyboard-response","470","770559","0.0-8.0-0.74","FL","wmv7c0r6c5","1440","900","en","va04ik29","null","","","","","","","","learning/Slide155.JPG","null","","","","",""
"","html-keyboard-response","471","771721","0.0-8.0-1.74","FL","wmv7c0r6c5","1440","900","en","va04ik29","null","","","","learningBlock2","","","","That was a dep.","null","","","","",""
"","html-keyboard-response","472","772724","0.0-8.0-2.74","FL","wmv7c0r6c5","1440","900","en","va04ik29","null","","","","learningBlock2","","","","<div style=""font-size:60px;""> </div>","null","FL","learning/Slide155.JPG","That was a dep.","",""
"","image-keyboard-response","473","772905","0.0-8.0-0.75","FL","wmv7c0r6c5","1440","900","en","va04ik29","null","","","","","","","","learning/Slide156.JPG","null","","","","",""
"","html-keyboard-response","474","774058","0.0-8.0-1.75","FL","wmv7c0r6c5","1440","900","en","va04ik29","null","","","","learningBlock2","","","","That was a bim.","null","","","","",""
"","html-keyboard-response","475","775062","0.0-8.0-2.75","FL","wmv7c0r6c5","1440","900","en","va04ik29","null","","","","learningBlock2","","","","<div style=""font-size:60px;""> </div>","null","FL","learning/Slide156.JPG","That was a bim.","",""
"","image-keyboard-response","476","775238","0.0-8.0-0.76","FL","wmv7c0r6c5","1440","900","en","va04ik29","null","","","","","","","","learning/Slide157.JPG","null","","","","",""
"","html-keyboard-response","477","776393","0.0-8.0-1.76","FL","wmv7c0r6c5","1440","900","en","va04ik29","null","","","","learningBlock2","","","","That was a dep.","null","","","","",""
"","html-keyboard-response","478","777397","0.0-8.0-2.76","FL","wmv7c0r6c5","1440","900","en","va04ik29","null","","","","learningBlock2","","","","<div style=""font-size:60px;""> </div>","null","FL","learning/Slide157.JPG","That was a dep.","",""
"","image-keyboard-response","479","777574","0.0-8.0-0.77","FL","wmv7c0r6c5","1440","900","en","va04ik29","null","","","","","","","","learning/Slide158.JPG","null","","","","",""
"","html-keyboard-response","480","778727","0.0-8.0-1.77","FL","wmv7c0r6c5","1440","900","en","va04ik29","null","","","","learningBlock2","","","","That was a tob.","null","","","","",""
"","html-keyboard-response","481","779731","0.0-8.0-2.77","FL","wmv7c0r6c5","1440","900","en","va04ik29","null","","","","learningBlock2","","","","<div style=""font-size:60px;""> </div>","null","FL","learning/Slide158.JPG","That was a tob.","",""
"","image-keyboard-response","482","779913","0.0-8.0-0.78","FL","wmv7c0r6c5","1440","900","en","va04ik29","null","","","","","","","","learning/Slide159.JPG","null","","","","",""
"","html-keyboard-response","483","781073","0.0-8.0-1.78","FL","wmv7c0r6c5","1440","900","en","va04ik29","null","","","","learningBlock2","","","","That was a dep.","null","","","","",""
"","html-keyboard-response","484","782077","0.0-8.0-2.78","FL","wmv7c0r6c5","1440","900","en","va04ik29","null","","","","learningBlock2","","","","<div style=""font-size:60px;""> </div>","null","FL","learning/Slide159.JPG","That was a dep.","",""
"","image-keyboard-response","485","782257","0.0-8.0-0.79","FL","wmv7c0r6c5","1440","900","en","va04ik29","null","","","","","","","","learning/Slide160.JPG","null","","","","",""
"","html-keyboard-response","486","783413","0.0-8.0-1.79","FL","wmv7c0r6c5","1440","900","en","va04ik29","null","","","","learningBlock2","","","","That was a wug.","null","","","","",""
"","html-keyboard-response","487","784417","0.0-8.0-2.79","FL","wmv7c0r6c5","1440","900","en","va04ik29","null","","","","learningBlock2","","","","<div style=""font-size:60px;""> </div>","null","FL","learning/Slide160.JPG","That was a wug.","",""
"","resize2","488","793623","0.0-9.0","FL","wmv7c0r6c5","1440","900","en","va04ik29","","","","","","","104","1.04","","","","","","",""
