"success","trial_type","trial_index","time_elapsed","internal_node_id","condition","subject","screen_width","screen_height","language","codeword","rt","responses","url","view_history","test_part","final_height_px","final_width_px","scale_factor","stimulus","key_press","learningType","presentedImage","presentedLabel","button_pressed","response"
"true","fullscreen","0","2267","0.0-0.0","LF","yzwvuo5jcw","1280","720","en","ya08ya01","","","","","","","","","","","","","","",""
"","survey-html-form","1","3004","0.0-1.0","LF","yzwvuo5jcw","1280","720","en","ya08ya01","730.574999935925","{""language"":""en""}","","","","","","","","","","","","",""
"","external-html","2","5789","0.0-3.0-0.0","LF","yzwvuo5jcw","1280","720","en","ya08ya01","2759.3099999940023","","text/information_english.html","","","","","","","","","","","",""
"","external-html","3","17310","0.0-3.0-1.0","LF","yzwvuo5jcw","1280","720","en","ya08ya01","11499.610000057146","","text/consent_english.html","","","","","","","","","","","",""
"","survey-html-form","4","42036","0.0-3.0-2.0","LF","yzwvuo5jcw","1280","720","en","ya08ya01","24718.355000019073","{""codeword_enter"":""ya08ya01""}","","","","","","","","","","","","",""
"","instructions","5","45674","0.0-4.0","LF","yzwvuo5jcw","1280","720","en","ya08ya01","NA","","","[{""page_index"":0,""viewing_time"":1128.444999922067},{""page_index"":1,""viewing_time"":1005.5649999994785}]","instructions","","","","","","","","","",""
"","resize","6","54703","0.0-5.0","LF","yzwvuo5jcw","1280","720","en","ya08ya01","","","","","","","360","2.2857142857142856","","","","","","",""
"","html-keyboard-response","7","55710","0.0-6.0-0.0","LF","yzwvuo5jcw","1280","720","en","ya08ya01","null","","","","learningBlock1","","","","This is a tob:","null","","","","",""
"","image-keyboard-response","8","56048","0.0-6.0-1.0","LF","yzwvuo5jcw","1280","720","en","ya08ya01","null","","","","","","","","learning/Slide1.JPG","null","","","","",""
"","html-keyboard-response","9","57050","0.0-6.0-2.0","LF","yzwvuo5jcw","1280","720","en","ya08ya01","null","","","","learningBlock1","","","","<div style=""font-size:60px;""> </div>","null","LF","learning/Slide1.JPG","This is a tob:","",""
"","html-keyboard-response","10","58052","0.0-6.0-0.1","LF","yzwvuo5jcw","1280","720","en","ya08ya01","null","","","","learningBlock1","","","","This is a wug:","null","","","","",""
"","image-keyboard-response","11","58381","0.0-6.0-1.1","LF","yzwvuo5jcw","1280","720","en","ya08ya01","null","","","","","","","","learning/Slide2.JPG","null","","","","",""
"","html-keyboard-response","12","59383","0.0-6.0-2.1","LF","yzwvuo5jcw","1280","720","en","ya08ya01","null","","","","learningBlock1","","","","<div style=""font-size:60px;""> </div>","null","LF","learning/Slide2.JPG","This is a wug:","",""
"","html-keyboard-response","13","60386","0.0-6.0-0.2","LF","yzwvuo5jcw","1280","720","en","ya08ya01","null","","","","learningBlock1","","","","This is a bim:","null","","","","",""
"","image-keyboard-response","14","60714","0.0-6.0-1.2","LF","yzwvuo5jcw","1280","720","en","ya08ya01","null","","","","","","","","learning/Slide3.JPG","null","","","","",""
"","html-keyboard-response","15","61719","0.0-6.0-2.2","LF","yzwvuo5jcw","1280","720","en","ya08ya01","null","","","","learningBlock1","","","","<div style=""font-size:60px;""> </div>","null","LF","learning/Slide3.JPG","This is a bim:","",""
"","html-keyboard-response","16","62722","0.0-6.0-0.3","LF","yzwvuo5jcw","1280","720","en","ya08ya01","null","","","","learningBlock1","","","","This is a dep:","null","","","","",""
"","image-keyboard-response","17","63050","0.0-6.0-1.3","LF","yzwvuo5jcw","1280","720","en","ya08ya01","null","","","","","","","","learning/Slide4.JPG","null","","","","",""
"","html-keyboard-response","18","64052","0.0-6.0-2.3","LF","yzwvuo5jcw","1280","720","en","ya08ya01","null","","","","learningBlock1","","","","<div style=""font-size:60px;""> </div>","null","LF","learning/Slide4.JPG","This is a dep:","",""
"","html-keyboard-response","19","65060","0.0-6.0-0.4","LF","yzwvuo5jcw","1280","720","en","ya08ya01","null","","","","learningBlock1","","","","This is a wug:","null","","","","",""
"","image-keyboard-response","20","65389","0.0-6.0-1.4","LF","yzwvuo5jcw","1280","720","en","ya08ya01","null","","","","","","","","learning/Slide5.JPG","null","","","","",""
"","html-keyboard-response","21","66392","0.0-6.0-2.4","LF","yzwvuo5jcw","1280","720","en","ya08ya01","null","","","","learningBlock1","","","","<div style=""font-size:60px;""> </div>","null","LF","learning/Slide5.JPG","This is a wug:","",""
"","html-keyboard-response","22","67395","0.0-6.0-0.5","LF","yzwvuo5jcw","1280","720","en","ya08ya01","null","","","","learningBlock1","","","","This is a dep:","null","","","","",""
"","image-keyboard-response","23","67723","0.0-6.0-1.5","LF","yzwvuo5jcw","1280","720","en","ya08ya01","null","","","","","","","","learning/Slide6.JPG","null","","","","",""
"","html-keyboard-response","24","68727","0.0-6.0-2.5","LF","yzwvuo5jcw","1280","720","en","ya08ya01","null","","","","learningBlock1","","","","<div style=""font-size:60px;""> </div>","null","LF","learning/Slide6.JPG","This is a dep:","",""
"","html-keyboard-response","25","69731","0.0-6.0-0.6","LF","yzwvuo5jcw","1280","720","en","ya08ya01","null","","","","learningBlock1","","","","This is a wug:","null","","","","",""
"","image-keyboard-response","26","70060","0.0-6.0-1.6","LF","yzwvuo5jcw","1280","720","en","ya08ya01","null","","","","","","","","learning/Slide7.JPG","null","","","","",""
"","html-keyboard-response","27","71062","0.0-6.0-2.6","LF","yzwvuo5jcw","1280","720","en","ya08ya01","null","","","","learningBlock1","","","","<div style=""font-size:60px;""> </div>","null","LF","learning/Slide7.JPG","This is a wug:","",""
"","html-keyboard-response","28","72065","0.0-6.0-0.7","LF","yzwvuo5jcw","1280","720","en","ya08ya01","null","","","","learningBlock1","","","","This is a bim:","null","","","","",""
"","image-keyboard-response","29","72409","0.0-6.0-1.7","LF","yzwvuo5jcw","1280","720","en","ya08ya01","null","","","","","","","","learning/Slide8.JPG","null","","","","",""
"","html-keyboard-response","30","73411","0.0-6.0-2.7","LF","yzwvuo5jcw","1280","720","en","ya08ya01","null","","","","learningBlock1","","","","<div style=""font-size:60px;""> </div>","null","LF","learning/Slide8.JPG","This is a bim:","",""
"","html-keyboard-response","31","74414","0.0-6.0-0.8","LF","yzwvuo5jcw","1280","720","en","ya08ya01","null","","","","learningBlock1","","","","This is a wug:","null","","","","",""
"","image-keyboard-response","32","74743","0.0-6.0-1.8","LF","yzwvuo5jcw","1280","720","en","ya08ya01","null","","","","","","","","learning/Slide9.JPG","null","","","","",""
"","html-keyboard-response","33","75749","0.0-6.0-2.8","LF","yzwvuo5jcw","1280","720","en","ya08ya01","null","","","","learningBlock1","","","","<div style=""font-size:60px;""> </div>","null","LF","learning/Slide9.JPG","This is a wug:","",""
"","html-keyboard-response","34","76753","0.0-6.0-0.9","LF","yzwvuo5jcw","1280","720","en","ya08ya01","null","","","","learningBlock1","","","","This is a dep:","null","","","","",""
"","image-keyboard-response","35","77082","0.0-6.0-1.9","LF","yzwvuo5jcw","1280","720","en","ya08ya01","null","","","","","","","","learning/Slide10.JPG","null","","","","",""
"","html-keyboard-response","36","78086","0.0-6.0-2.9","LF","yzwvuo5jcw","1280","720","en","ya08ya01","null","","","","learningBlock1","","","","<div style=""font-size:60px;""> </div>","null","LF","learning/Slide10.JPG","This is a dep:","",""
"","html-keyboard-response","37","79091","0.0-6.0-0.10","LF","yzwvuo5jcw","1280","720","en","ya08ya01","null","","","","learningBlock1","","","","This is a tob:","null","","","","",""
"","image-keyboard-response","38","79421","0.0-6.0-1.10","LF","yzwvuo5jcw","1280","720","en","ya08ya01","null","","","","","","","","learning/Slide11.JPG","null","","","","",""
"","html-keyboard-response","39","80423","0.0-6.0-2.10","LF","yzwvuo5jcw","1280","720","en","ya08ya01","null","","","","learningBlock1","","","","<div style=""font-size:60px;""> </div>","null","LF","learning/Slide11.JPG","This is a tob:","",""
"","html-keyboard-response","40","81425","0.0-6.0-0.11","LF","yzwvuo5jcw","1280","720","en","ya08ya01","null","","","","learningBlock1","","","","This is a dep:","null","","","","",""
"","image-keyboard-response","41","81754","0.0-6.0-1.11","LF","yzwvuo5jcw","1280","720","en","ya08ya01","null","","","","","","","","learning/Slide12.JPG","null","","","","",""
"","html-keyboard-response","42","82757","0.0-6.0-2.11","LF","yzwvuo5jcw","1280","720","en","ya08ya01","null","","","","learningBlock1","","","","<div style=""font-size:60px;""> </div>","null","LF","learning/Slide12.JPG","This is a dep:","",""
"","html-keyboard-response","43","83761","0.0-6.0-0.12","LF","yzwvuo5jcw","1280","720","en","ya08ya01","null","","","","learningBlock1","","","","This is a bim:","null","","","","",""
"","image-keyboard-response","44","84089","0.0-6.0-1.12","LF","yzwvuo5jcw","1280","720","en","ya08ya01","null","","","","","","","","learning/Slide13.JPG","null","","","","",""
"","html-keyboard-response","45","85091","0.0-6.0-2.12","LF","yzwvuo5jcw","1280","720","en","ya08ya01","null","","","","learningBlock1","","","","<div style=""font-size:60px;""> </div>","null","LF","learning/Slide13.JPG","This is a bim:","",""
"","html-keyboard-response","46","86097","0.0-6.0-0.13","LF","yzwvuo5jcw","1280","720","en","ya08ya01","null","","","","learningBlock1","","","","This is a wug:","null","","","","",""
"","image-keyboard-response","47","86426","0.0-6.0-1.13","LF","yzwvuo5jcw","1280","720","en","ya08ya01","null","","","","","","","","learning/Slide14.JPG","null","","","","",""
"","html-keyboard-response","48","87428","0.0-6.0-2.13","LF","yzwvuo5jcw","1280","720","en","ya08ya01","null","","","","learningBlock1","","","","<div style=""font-size:60px;""> </div>","null","LF","learning/Slide14.JPG","This is a wug:","",""
"","html-keyboard-response","49","88430","0.0-6.0-0.14","LF","yzwvuo5jcw","1280","720","en","ya08ya01","null","","","","learningBlock1","","","","This is a tob:","null","","","","",""
"","image-keyboard-response","50","88760","0.0-6.0-1.14","LF","yzwvuo5jcw","1280","720","en","ya08ya01","null","","","","","","","","learning/Slide15.JPG","null","","","","",""
"","html-keyboard-response","51","89763","0.0-6.0-2.14","LF","yzwvuo5jcw","1280","720","en","ya08ya01","null","","","","learningBlock1","","","","<div style=""font-size:60px;""> </div>","null","LF","learning/Slide15.JPG","This is a tob:","",""
"","html-keyboard-response","52","90766","0.0-6.0-0.15","LF","yzwvuo5jcw","1280","720","en","ya08ya01","null","","","","learningBlock1","","","","This is a dep:","null","","","","",""
"","image-keyboard-response","53","91096","0.0-6.0-1.15","LF","yzwvuo5jcw","1280","720","en","ya08ya01","null","","","","","","","","learning/Slide16.JPG","null","","","","",""
"","html-keyboard-response","54","92100","0.0-6.0-2.15","LF","yzwvuo5jcw","1280","720","en","ya08ya01","null","","","","learningBlock1","","","","<div style=""font-size:60px;""> </div>","null","LF","learning/Slide16.JPG","This is a dep:","",""
"","html-keyboard-response","55","93103","0.0-6.0-0.16","LF","yzwvuo5jcw","1280","720","en","ya08ya01","null","","","","learningBlock1","","","","This is a bim:","null","","","","",""
"","image-keyboard-response","56","93433","0.0-6.0-1.16","LF","yzwvuo5jcw","1280","720","en","ya08ya01","null","","","","","","","","learning/Slide17.JPG","null","","","","",""
"","html-keyboard-response","57","94436","0.0-6.0-2.16","LF","yzwvuo5jcw","1280","720","en","ya08ya01","null","","","","learningBlock1","","","","<div style=""font-size:60px;""> </div>","null","LF","learning/Slide17.JPG","This is a bim:","",""
"","html-keyboard-response","58","95440","0.0-6.0-0.17","LF","yzwvuo5jcw","1280","720","en","ya08ya01","null","","","","learningBlock1","","","","This is a tob:","null","","","","",""
"","image-keyboard-response","59","95768","0.0-6.0-1.17","LF","yzwvuo5jcw","1280","720","en","ya08ya01","null","","","","","","","","learning/Slide18.JPG","null","","","","",""
"","html-keyboard-response","60","96770","0.0-6.0-2.17","LF","yzwvuo5jcw","1280","720","en","ya08ya01","null","","","","learningBlock1","","","","<div style=""font-size:60px;""> </div>","null","LF","learning/Slide18.JPG","This is a tob:","",""
"","html-keyboard-response","61","97773","0.0-6.0-0.18","LF","yzwvuo5jcw","1280","720","en","ya08ya01","null","","","","learningBlock1","","","","This is a wug:","null","","","","",""
"","image-keyboard-response","62","98101","0.0-6.0-1.18","LF","yzwvuo5jcw","1280","720","en","ya08ya01","null","","","","","","","","learning/Slide19.JPG","null","","","","",""
"","html-keyboard-response","63","99104","0.0-6.0-2.18","LF","yzwvuo5jcw","1280","720","en","ya08ya01","null","","","","learningBlock1","","","","<div style=""font-size:60px;""> </div>","null","LF","learning/Slide19.JPG","This is a wug:","",""
"","html-keyboard-response","64","100106","0.0-6.0-0.19","LF","yzwvuo5jcw","1280","720","en","ya08ya01","null","","","","learningBlock1","","","","This is a bim:","null","","","","",""
"","image-keyboard-response","65","100434","0.0-6.0-1.19","LF","yzwvuo5jcw","1280","720","en","ya08ya01","null","","","","","","","","learning/Slide20.JPG","null","","","","",""
"","html-keyboard-response","66","101436","0.0-6.0-2.19","LF","yzwvuo5jcw","1280","720","en","ya08ya01","null","","","","learningBlock1","","","","<div style=""font-size:60px;""> </div>","null","LF","learning/Slide20.JPG","This is a bim:","",""
"","html-keyboard-response","67","102439","0.0-6.0-0.20","LF","yzwvuo5jcw","1280","720","en","ya08ya01","null","","","","learningBlock1","","","","This is a dep:","null","","","","",""
"","image-keyboard-response","68","102767","0.0-6.0-1.20","LF","yzwvuo5jcw","1280","720","en","ya08ya01","null","","","","","","","","learning/Slide21.JPG","null","","","","",""
"","html-keyboard-response","69","103774","0.0-6.0-2.20","LF","yzwvuo5jcw","1280","720","en","ya08ya01","null","","","","learningBlock1","","","","<div style=""font-size:60px;""> </div>","null","LF","learning/Slide21.JPG","This is a dep:","",""
"","html-keyboard-response","70","104776","0.0-6.0-0.21","LF","yzwvuo5jcw","1280","720","en","ya08ya01","null","","","","learningBlock1","","","","This is a bim:","null","","","","",""
"","image-keyboard-response","71","105105","0.0-6.0-1.21","LF","yzwvuo5jcw","1280","720","en","ya08ya01","null","","","","","","","","learning/Slide22.JPG","null","","","","",""
"","html-keyboard-response","72","106107","0.0-6.0-2.21","LF","yzwvuo5jcw","1280","720","en","ya08ya01","null","","","","learningBlock1","","","","<div style=""font-size:60px;""> </div>","null","LF","learning/Slide22.JPG","This is a bim:","",""
"","html-keyboard-response","73","107115","0.0-6.0-0.22","LF","yzwvuo5jcw","1280","720","en","ya08ya01","null","","","","learningBlock1","","","","This is a tob:","null","","","","",""
"","image-keyboard-response","74","107443","0.0-6.0-1.22","LF","yzwvuo5jcw","1280","720","en","ya08ya01","null","","","","","","","","learning/Slide23.JPG","null","","","","",""
"","html-keyboard-response","75","108445","0.0-6.0-2.22","LF","yzwvuo5jcw","1280","720","en","ya08ya01","null","","","","learningBlock1","","","","<div style=""font-size:60px;""> </div>","null","LF","learning/Slide23.JPG","This is a tob:","",""
"","html-keyboard-response","76","109448","0.0-6.0-0.23","LF","yzwvuo5jcw","1280","720","en","ya08ya01","null","","","","learningBlock1","","","","This is a wug:","null","","","","",""
"","image-keyboard-response","77","109776","0.0-6.0-1.23","LF","yzwvuo5jcw","1280","720","en","ya08ya01","null","","","","","","","","learning/Slide24.JPG","null","","","","",""
"","html-keyboard-response","78","110778","0.0-6.0-2.23","LF","yzwvuo5jcw","1280","720","en","ya08ya01","null","","","","learningBlock1","","","","<div style=""font-size:60px;""> </div>","null","LF","learning/Slide24.JPG","This is a wug:","",""
"","html-keyboard-response","79","111782","0.0-6.0-0.24","LF","yzwvuo5jcw","1280","720","en","ya08ya01","null","","","","learningBlock1","","","","This is a dep:","null","","","","",""
"","image-keyboard-response","80","112114","0.0-6.0-1.24","LF","yzwvuo5jcw","1280","720","en","ya08ya01","null","","","","","","","","learning/Slide25.JPG","null","","","","",""
"","html-keyboard-response","81","113117","0.0-6.0-2.24","LF","yzwvuo5jcw","1280","720","en","ya08ya01","null","","","","learningBlock1","","","","<div style=""font-size:60px;""> </div>","null","LF","learning/Slide25.JPG","This is a dep:","",""
"","html-keyboard-response","82","114119","0.0-6.0-0.25","LF","yzwvuo5jcw","1280","720","en","ya08ya01","null","","","","learningBlock1","","","","This is a wug:","null","","","","",""
"","image-keyboard-response","83","114453","0.0-6.0-1.25","LF","yzwvuo5jcw","1280","720","en","ya08ya01","null","","","","","","","","learning/Slide26.JPG","null","","","","",""
"","html-keyboard-response","84","115455","0.0-6.0-2.25","LF","yzwvuo5jcw","1280","720","en","ya08ya01","null","","","","learningBlock1","","","","<div style=""font-size:60px;""> </div>","null","LF","learning/Slide26.JPG","This is a wug:","",""
"","html-keyboard-response","85","116458","0.0-6.0-0.26","LF","yzwvuo5jcw","1280","720","en","ya08ya01","null","","","","learningBlock1","","","","This is a bim:","null","","","","",""
"","image-keyboard-response","86","116787","0.0-6.0-1.26","LF","yzwvuo5jcw","1280","720","en","ya08ya01","null","","","","","","","","learning/Slide27.JPG","null","","","","",""
"","html-keyboard-response","87","117790","0.0-6.0-2.26","LF","yzwvuo5jcw","1280","720","en","ya08ya01","null","","","","learningBlock1","","","","<div style=""font-size:60px;""> </div>","null","LF","learning/Slide27.JPG","This is a bim:","",""
"","html-keyboard-response","88","118793","0.0-6.0-0.27","LF","yzwvuo5jcw","1280","720","en","ya08ya01","null","","","","learningBlock1","","","","This is a dep:","null","","","","",""
"","image-keyboard-response","89","119126","0.0-6.0-1.27","LF","yzwvuo5jcw","1280","720","en","ya08ya01","null","","","","","","","","learning/Slide28.JPG","null","","","","",""
"","html-keyboard-response","90","120128","0.0-6.0-2.27","LF","yzwvuo5jcw","1280","720","en","ya08ya01","null","","","","learningBlock1","","","","<div style=""font-size:60px;""> </div>","null","LF","learning/Slide28.JPG","This is a dep:","",""
"","html-keyboard-response","91","121130","0.0-6.0-0.28","LF","yzwvuo5jcw","1280","720","en","ya08ya01","null","","","","learningBlock1","","","","This is a tob:","null","","","","",""
"","image-keyboard-response","92","121458","0.0-6.0-1.28","LF","yzwvuo5jcw","1280","720","en","ya08ya01","null","","","","","","","","learning/Slide29.JPG","null","","","","",""
"","html-keyboard-response","93","122462","0.0-6.0-2.28","LF","yzwvuo5jcw","1280","720","en","ya08ya01","null","","","","learningBlock1","","","","<div style=""font-size:60px;""> </div>","null","LF","learning/Slide29.JPG","This is a tob:","",""
"","html-keyboard-response","94","123466","0.0-6.0-0.29","LF","yzwvuo5jcw","1280","720","en","ya08ya01","null","","","","learningBlock1","","","","This is a dep:","null","","","","",""
"","image-keyboard-response","95","123794","0.0-6.0-1.29","LF","yzwvuo5jcw","1280","720","en","ya08ya01","null","","","","","","","","learning/Slide30.JPG","null","","","","",""
"","html-keyboard-response","96","124797","0.0-6.0-2.29","LF","yzwvuo5jcw","1280","720","en","ya08ya01","null","","","","learningBlock1","","","","<div style=""font-size:60px;""> </div>","null","LF","learning/Slide30.JPG","This is a dep:","",""
"","html-keyboard-response","97","125799","0.0-6.0-0.30","LF","yzwvuo5jcw","1280","720","en","ya08ya01","null","","","","learningBlock1","","","","This is a wug:","null","","","","",""
"","image-keyboard-response","98","126130","0.0-6.0-1.30","LF","yzwvuo5jcw","1280","720","en","ya08ya01","null","","","","","","","","learning/Slide31.JPG","null","","","","",""
"","html-keyboard-response","99","127133","0.0-6.0-2.30","LF","yzwvuo5jcw","1280","720","en","ya08ya01","null","","","","learningBlock1","","","","<div style=""font-size:60px;""> </div>","null","LF","learning/Slide31.JPG","This is a wug:","",""
"","html-keyboard-response","100","128135","0.0-6.0-0.31","LF","yzwvuo5jcw","1280","720","en","ya08ya01","null","","","","learningBlock1","","","","This is a tob:","null","","","","",""
"","image-keyboard-response","101","128466","0.0-6.0-1.31","LF","yzwvuo5jcw","1280","720","en","ya08ya01","null","","","","","","","","learning/Slide32.JPG","null","","","","",""
"","html-keyboard-response","102","129471","0.0-6.0-2.31","LF","yzwvuo5jcw","1280","720","en","ya08ya01","null","","","","learningBlock1","","","","<div style=""font-size:60px;""> </div>","null","LF","learning/Slide32.JPG","This is a tob:","",""
"","html-keyboard-response","103","130478","0.0-6.0-0.32","LF","yzwvuo5jcw","1280","720","en","ya08ya01","null","","","","learningBlock1","","","","This is a bim:","null","","","","",""
"","image-keyboard-response","104","130805","0.0-6.0-1.32","LF","yzwvuo5jcw","1280","720","en","ya08ya01","null","","","","","","","","learning/Slide33.JPG","null","","","","",""
"","html-keyboard-response","105","131808","0.0-6.0-2.32","LF","yzwvuo5jcw","1280","720","en","ya08ya01","null","","","","learningBlock1","","","","<div style=""font-size:60px;""> </div>","null","LF","learning/Slide33.JPG","This is a bim:","",""
"","html-keyboard-response","106","132810","0.0-6.0-0.33","LF","yzwvuo5jcw","1280","720","en","ya08ya01","null","","","","learningBlock1","","","","This is a tob:","null","","","","",""
"","image-keyboard-response","107","133138","0.0-6.0-1.33","LF","yzwvuo5jcw","1280","720","en","ya08ya01","null","","","","","","","","learning/Slide34.JPG","null","","","","",""
"","html-keyboard-response","108","134141","0.0-6.0-2.33","LF","yzwvuo5jcw","1280","720","en","ya08ya01","null","","","","learningBlock1","","","","<div style=""font-size:60px;""> </div>","null","LF","learning/Slide34.JPG","This is a tob:","",""
"","html-keyboard-response","109","135143","0.0-6.0-0.34","LF","yzwvuo5jcw","1280","720","en","ya08ya01","null","","","","learningBlock1","","","","This is a bim:","null","","","","",""
"","image-keyboard-response","110","135474","0.0-6.0-1.34","LF","yzwvuo5jcw","1280","720","en","ya08ya01","null","","","","","","","","learning/Slide35.JPG","null","","","","",""
"","html-keyboard-response","111","136477","0.0-6.0-2.34","LF","yzwvuo5jcw","1280","720","en","ya08ya01","null","","","","learningBlock1","","","","<div style=""font-size:60px;""> </div>","null","LF","learning/Slide35.JPG","This is a bim:","",""
"","html-keyboard-response","112","137480","0.0-6.0-0.35","LF","yzwvuo5jcw","1280","720","en","ya08ya01","null","","","","learningBlock1","","","","This is a dep:","null","","","","",""
"","image-keyboard-response","113","137808","0.0-6.0-1.35","LF","yzwvuo5jcw","1280","720","en","ya08ya01","null","","","","","","","","learning/Slide36.JPG","null","","","","",""
"","html-keyboard-response","114","138810","0.0-6.0-2.35","LF","yzwvuo5jcw","1280","720","en","ya08ya01","null","","","","learningBlock1","","","","<div style=""font-size:60px;""> </div>","null","LF","learning/Slide36.JPG","This is a dep:","",""
"","html-keyboard-response","115","139812","0.0-6.0-0.36","LF","yzwvuo5jcw","1280","720","en","ya08ya01","null","","","","learningBlock1","","","","This is a tob:","null","","","","",""
"","image-keyboard-response","116","140140","0.0-6.0-1.36","LF","yzwvuo5jcw","1280","720","en","ya08ya01","null","","","","","","","","learning/Slide37.JPG","null","","","","",""
"","html-keyboard-response","117","141143","0.0-6.0-2.36","LF","yzwvuo5jcw","1280","720","en","ya08ya01","null","","","","learningBlock1","","","","<div style=""font-size:60px;""> </div>","null","LF","learning/Slide37.JPG","This is a tob:","",""
"","html-keyboard-response","118","142145","0.0-6.0-0.37","LF","yzwvuo5jcw","1280","720","en","ya08ya01","null","","","","learningBlock1","","","","This is a wug:","null","","","","",""
"","image-keyboard-response","119","142475","0.0-6.0-1.37","LF","yzwvuo5jcw","1280","720","en","ya08ya01","null","","","","","","","","learning/Slide38.JPG","null","","","","",""
"","html-keyboard-response","120","143477","0.0-6.0-2.37","LF","yzwvuo5jcw","1280","720","en","ya08ya01","null","","","","learningBlock1","","","","<div style=""font-size:60px;""> </div>","null","LF","learning/Slide38.JPG","This is a wug:","",""
"","html-keyboard-response","121","144480","0.0-6.0-0.38","LF","yzwvuo5jcw","1280","720","en","ya08ya01","null","","","","learningBlock1","","","","This is a bim:","null","","","","",""
"","image-keyboard-response","122","144807","0.0-6.0-1.38","LF","yzwvuo5jcw","1280","720","en","ya08ya01","null","","","","","","","","learning/Slide39.JPG","null","","","","",""
"","html-keyboard-response","123","145810","0.0-6.0-2.38","LF","yzwvuo5jcw","1280","720","en","ya08ya01","null","","","","learningBlock1","","","","<div style=""font-size:60px;""> </div>","null","LF","learning/Slide39.JPG","This is a bim:","",""
"","html-keyboard-response","124","146811","0.0-6.0-0.39","LF","yzwvuo5jcw","1280","720","en","ya08ya01","null","","","","learningBlock1","","","","This is a tob:","null","","","","",""
"","image-keyboard-response","125","147139","0.0-6.0-1.39","LF","yzwvuo5jcw","1280","720","en","ya08ya01","null","","","","","","","","learning/Slide40.JPG","null","","","","",""
"","html-keyboard-response","126","148141","0.0-6.0-2.39","LF","yzwvuo5jcw","1280","720","en","ya08ya01","null","","","","learningBlock1","","","","<div style=""font-size:60px;""> </div>","null","LF","learning/Slide40.JPG","This is a tob:","",""
"","html-keyboard-response","127","149144","0.0-6.0-0.40","LF","yzwvuo5jcw","1280","720","en","ya08ya01","null","","","","learningBlock1","","","","This is a bim:","null","","","","",""
"","image-keyboard-response","128","149475","0.0-6.0-1.40","LF","yzwvuo5jcw","1280","720","en","ya08ya01","null","","","","","","","","learning/Slide41.JPG","null","","","","",""
"","html-keyboard-response","129","150478","0.0-6.0-2.40","LF","yzwvuo5jcw","1280","720","en","ya08ya01","null","","","","learningBlock1","","","","<div style=""font-size:60px;""> </div>","null","LF","learning/Slide41.JPG","This is a bim:","",""
"","html-keyboard-response","130","151484","0.0-6.0-0.41","LF","yzwvuo5jcw","1280","720","en","ya08ya01","null","","","","learningBlock1","","","","This is a dep:","null","","","","",""
"","image-keyboard-response","131","151813","0.0-6.0-1.41","LF","yzwvuo5jcw","1280","720","en","ya08ya01","null","","","","","","","","learning/Slide42.JPG","null","","","","",""
"","html-keyboard-response","132","152815","0.0-6.0-2.41","LF","yzwvuo5jcw","1280","720","en","ya08ya01","null","","","","learningBlock1","","","","<div style=""font-size:60px;""> </div>","null","LF","learning/Slide42.JPG","This is a dep:","",""
"","html-keyboard-response","133","153818","0.0-6.0-0.42","LF","yzwvuo5jcw","1280","720","en","ya08ya01","null","","","","learningBlock1","","","","This is a wug:","null","","","","",""
"","image-keyboard-response","134","154149","0.0-6.0-1.42","LF","yzwvuo5jcw","1280","720","en","ya08ya01","null","","","","","","","","learning/Slide43.JPG","null","","","","",""
"","html-keyboard-response","135","155151","0.0-6.0-2.42","LF","yzwvuo5jcw","1280","720","en","ya08ya01","null","","","","learningBlock1","","","","<div style=""font-size:60px;""> </div>","null","LF","learning/Slide43.JPG","This is a wug:","",""
"","html-keyboard-response","136","156154","0.0-6.0-0.43","LF","yzwvuo5jcw","1280","720","en","ya08ya01","null","","","","learningBlock1","","","","This is a bim:","null","","","","",""
"","image-keyboard-response","137","156482","0.0-6.0-1.43","LF","yzwvuo5jcw","1280","720","en","ya08ya01","null","","","","","","","","learning/Slide44.JPG","null","","","","",""
"","html-keyboard-response","138","157486","0.0-6.0-2.43","LF","yzwvuo5jcw","1280","720","en","ya08ya01","null","","","","learningBlock1","","","","<div style=""font-size:60px;""> </div>","null","LF","learning/Slide44.JPG","This is a bim:","",""
"","html-keyboard-response","139","158492","0.0-6.0-0.44","LF","yzwvuo5jcw","1280","720","en","ya08ya01","null","","","","learningBlock1","","","","This is a wug:","null","","","","",""
"","image-keyboard-response","140","158821","0.0-6.0-1.44","LF","yzwvuo5jcw","1280","720","en","ya08ya01","null","","","","","","","","learning/Slide45.JPG","null","","","","",""
"","html-keyboard-response","141","159823","0.0-6.0-2.44","LF","yzwvuo5jcw","1280","720","en","ya08ya01","null","","","","learningBlock1","","","","<div style=""font-size:60px;""> </div>","null","LF","learning/Slide45.JPG","This is a wug:","",""
"","html-keyboard-response","142","160826","0.0-6.0-0.45","LF","yzwvuo5jcw","1280","720","en","ya08ya01","null","","","","learningBlock1","","","","This is a dep:","null","","","","",""
"","image-keyboard-response","143","161153","0.0-6.0-1.45","LF","yzwvuo5jcw","1280","720","en","ya08ya01","null","","","","","","","","learning/Slide46.JPG","null","","","","",""
"","html-keyboard-response","144","162155","0.0-6.0-2.45","LF","yzwvuo5jcw","1280","720","en","ya08ya01","null","","","","learningBlock1","","","","<div style=""font-size:60px;""> </div>","null","LF","learning/Slide46.JPG","This is a dep:","",""
"","html-keyboard-response","145","163158","0.0-6.0-0.46","LF","yzwvuo5jcw","1280","720","en","ya08ya01","null","","","","learningBlock1","","","","This is a tob:","null","","","","",""
"","image-keyboard-response","146","163489","0.0-6.0-1.46","LF","yzwvuo5jcw","1280","720","en","ya08ya01","null","","","","","","","","learning/Slide47.JPG","null","","","","",""
"","html-keyboard-response","147","164491","0.0-6.0-2.46","LF","yzwvuo5jcw","1280","720","en","ya08ya01","null","","","","learningBlock1","","","","<div style=""font-size:60px;""> </div>","null","LF","learning/Slide47.JPG","This is a tob:","",""
"","html-keyboard-response","148","165494","0.0-6.0-0.47","LF","yzwvuo5jcw","1280","720","en","ya08ya01","null","","","","learningBlock1","","","","This is a bim:","null","","","","",""
"","image-keyboard-response","149","165822","0.0-6.0-1.47","LF","yzwvuo5jcw","1280","720","en","ya08ya01","null","","","","","","","","learning/Slide48.JPG","null","","","","",""
"","html-keyboard-response","150","166823","0.0-6.0-2.47","LF","yzwvuo5jcw","1280","720","en","ya08ya01","null","","","","learningBlock1","","","","<div style=""font-size:60px;""> </div>","null","LF","learning/Slide48.JPG","This is a bim:","",""
"","html-keyboard-response","151","167826","0.0-6.0-0.48","LF","yzwvuo5jcw","1280","720","en","ya08ya01","null","","","","learningBlock1","","","","This is a dep:","null","","","","",""
"","image-keyboard-response","152","168155","0.0-6.0-1.48","LF","yzwvuo5jcw","1280","720","en","ya08ya01","null","","","","","","","","learning/Slide49.JPG","null","","","","",""
"","html-keyboard-response","153","169157","0.0-6.0-2.48","LF","yzwvuo5jcw","1280","720","en","ya08ya01","null","","","","learningBlock1","","","","<div style=""font-size:60px;""> </div>","null","LF","learning/Slide49.JPG","This is a dep:","",""
"","html-keyboard-response","154","170159","0.0-6.0-0.49","LF","yzwvuo5jcw","1280","720","en","ya08ya01","null","","","","learningBlock1","","","","This is a tob:","null","","","","",""
"","image-keyboard-response","155","170487","0.0-6.0-1.49","LF","yzwvuo5jcw","1280","720","en","ya08ya01","null","","","","","","","","learning/Slide50.JPG","null","","","","",""
"","html-keyboard-response","156","171489","0.0-6.0-2.49","LF","yzwvuo5jcw","1280","720","en","ya08ya01","null","","","","learningBlock1","","","","<div style=""font-size:60px;""> </div>","null","LF","learning/Slide50.JPG","This is a tob:","",""
"","html-keyboard-response","157","172491","0.0-6.0-0.50","LF","yzwvuo5jcw","1280","720","en","ya08ya01","null","","","","learningBlock1","","","","This is a bim:","null","","","","",""
"","image-keyboard-response","158","172819","0.0-6.0-1.50","LF","yzwvuo5jcw","1280","720","en","ya08ya01","null","","","","","","","","learning/Slide51.JPG","null","","","","",""
"","html-keyboard-response","159","173822","0.0-6.0-2.50","LF","yzwvuo5jcw","1280","720","en","ya08ya01","null","","","","learningBlock1","","","","<div style=""font-size:60px;""> </div>","null","LF","learning/Slide51.JPG","This is a bim:","",""
"","html-keyboard-response","160","174825","0.0-6.0-0.51","LF","yzwvuo5jcw","1280","720","en","ya08ya01","null","","","","learningBlock1","","","","This is a wug:","null","","","","",""
"","image-keyboard-response","161","175154","0.0-6.0-1.51","LF","yzwvuo5jcw","1280","720","en","ya08ya01","null","","","","","","","","learning/Slide52.JPG","null","","","","",""
"","html-keyboard-response","162","176156","0.0-6.0-2.51","LF","yzwvuo5jcw","1280","720","en","ya08ya01","null","","","","learningBlock1","","","","<div style=""font-size:60px;""> </div>","null","LF","learning/Slide52.JPG","This is a wug:","",""
"","html-keyboard-response","163","177159","0.0-6.0-0.52","LF","yzwvuo5jcw","1280","720","en","ya08ya01","null","","","","learningBlock1","","","","This is a tob:","null","","","","",""
"","image-keyboard-response","164","177488","0.0-6.0-1.52","LF","yzwvuo5jcw","1280","720","en","ya08ya01","null","","","","","","","","learning/Slide53.JPG","null","","","","",""
"","html-keyboard-response","165","178491","0.0-6.0-2.52","LF","yzwvuo5jcw","1280","720","en","ya08ya01","null","","","","learningBlock1","","","","<div style=""font-size:60px;""> </div>","null","LF","learning/Slide53.JPG","This is a tob:","",""
"","html-keyboard-response","166","179495","0.0-6.0-0.53","LF","yzwvuo5jcw","1280","720","en","ya08ya01","null","","","","learningBlock1","","","","This is a dep:","null","","","","",""
"","image-keyboard-response","167","179824","0.0-6.0-1.53","LF","yzwvuo5jcw","1280","720","en","ya08ya01","null","","","","","","","","learning/Slide54.JPG","null","","","","",""
"","html-keyboard-response","168","180827","0.0-6.0-2.53","LF","yzwvuo5jcw","1280","720","en","ya08ya01","null","","","","learningBlock1","","","","<div style=""font-size:60px;""> </div>","null","LF","learning/Slide54.JPG","This is a dep:","",""
"","html-keyboard-response","169","181831","0.0-6.0-0.54","LF","yzwvuo5jcw","1280","720","en","ya08ya01","null","","","","learningBlock1","","","","This is a bim:","null","","","","",""
"","image-keyboard-response","170","182160","0.0-6.0-1.54","LF","yzwvuo5jcw","1280","720","en","ya08ya01","null","","","","","","","","learning/Slide55.JPG","null","","","","",""
"","html-keyboard-response","171","183162","0.0-6.0-2.54","LF","yzwvuo5jcw","1280","720","en","ya08ya01","null","","","","learningBlock1","","","","<div style=""font-size:60px;""> </div>","null","LF","learning/Slide55.JPG","This is a bim:","",""
"","html-keyboard-response","172","184165","0.0-6.0-0.55","LF","yzwvuo5jcw","1280","720","en","ya08ya01","null","","","","learningBlock1","","","","This is a tob:","null","","","","",""
"","image-keyboard-response","173","184493","0.0-6.0-1.55","LF","yzwvuo5jcw","1280","720","en","ya08ya01","null","","","","","","","","learning/Slide56.JPG","null","","","","",""
"","html-keyboard-response","174","185495","0.0-6.0-2.55","LF","yzwvuo5jcw","1280","720","en","ya08ya01","null","","","","learningBlock1","","","","<div style=""font-size:60px;""> </div>","null","LF","learning/Slide56.JPG","This is a tob:","",""
"","html-keyboard-response","175","186496","0.0-6.0-0.56","LF","yzwvuo5jcw","1280","720","en","ya08ya01","null","","","","learningBlock1","","","","This is a dep:","null","","","","",""
"","image-keyboard-response","176","186824","0.0-6.0-1.56","LF","yzwvuo5jcw","1280","720","en","ya08ya01","null","","","","","","","","learning/Slide57.JPG","null","","","","",""
"","html-keyboard-response","177","187825","0.0-6.0-2.56","LF","yzwvuo5jcw","1280","720","en","ya08ya01","null","","","","learningBlock1","","","","<div style=""font-size:60px;""> </div>","null","LF","learning/Slide57.JPG","This is a dep:","",""
"","html-keyboard-response","178","188829","0.0-6.0-0.57","LF","yzwvuo5jcw","1280","720","en","ya08ya01","null","","","","learningBlock1","","","","This is a wug:","null","","","","",""
"","image-keyboard-response","179","189157","0.0-6.0-1.57","LF","yzwvuo5jcw","1280","720","en","ya08ya01","null","","","","","","","","learning/Slide58.JPG","null","","","","",""
"","html-keyboard-response","180","190161","0.0-6.0-2.57","LF","yzwvuo5jcw","1280","720","en","ya08ya01","null","","","","learningBlock1","","","","<div style=""font-size:60px;""> </div>","null","LF","learning/Slide58.JPG","This is a wug:","",""
"","html-keyboard-response","181","191164","0.0-6.0-0.58","LF","yzwvuo5jcw","1280","720","en","ya08ya01","null","","","","learningBlock1","","","","This is a dep:","null","","","","",""
"","image-keyboard-response","182","191493","0.0-6.0-1.58","LF","yzwvuo5jcw","1280","720","en","ya08ya01","null","","","","","","","","learning/Slide59.JPG","null","","","","",""
"","html-keyboard-response","183","192496","0.0-6.0-2.58","LF","yzwvuo5jcw","1280","720","en","ya08ya01","null","","","","learningBlock1","","","","<div style=""font-size:60px;""> </div>","null","LF","learning/Slide59.JPG","This is a dep:","",""
"","html-keyboard-response","184","193500","0.0-6.0-0.59","LF","yzwvuo5jcw","1280","720","en","ya08ya01","null","","","","learningBlock1","","","","This is a wug:","null","","","","",""
"","image-keyboard-response","185","193827","0.0-6.0-1.59","LF","yzwvuo5jcw","1280","720","en","ya08ya01","null","","","","","","","","learning/Slide60.JPG","null","","","","",""
"","html-keyboard-response","186","194830","0.0-6.0-2.59","LF","yzwvuo5jcw","1280","720","en","ya08ya01","null","","","","learningBlock1","","","","<div style=""font-size:60px;""> </div>","null","LF","learning/Slide60.JPG","This is a wug:","",""
"","html-keyboard-response","187","195832","0.0-6.0-0.60","LF","yzwvuo5jcw","1280","720","en","ya08ya01","null","","","","learningBlock1","","","","This is a bim:","null","","","","",""
"","image-keyboard-response","188","196159","0.0-6.0-1.60","LF","yzwvuo5jcw","1280","720","en","ya08ya01","null","","","","","","","","learning/Slide61.JPG","null","","","","",""
"","html-keyboard-response","189","197162","0.0-6.0-2.60","LF","yzwvuo5jcw","1280","720","en","ya08ya01","null","","","","learningBlock1","","","","<div style=""font-size:60px;""> </div>","null","LF","learning/Slide61.JPG","This is a bim:","",""
"","html-keyboard-response","190","198166","0.0-6.0-0.61","LF","yzwvuo5jcw","1280","720","en","ya08ya01","null","","","","learningBlock1","","","","This is a dep:","null","","","","",""
"","image-keyboard-response","191","198497","0.0-6.0-1.61","LF","yzwvuo5jcw","1280","720","en","ya08ya01","null","","","","","","","","learning/Slide62.JPG","null","","","","",""
"","html-keyboard-response","192","199499","0.0-6.0-2.61","LF","yzwvuo5jcw","1280","720","en","ya08ya01","null","","","","learningBlock1","","","","<div style=""font-size:60px;""> </div>","null","LF","learning/Slide62.JPG","This is a dep:","",""
"","html-keyboard-response","193","200501","0.0-6.0-0.62","LF","yzwvuo5jcw","1280","720","en","ya08ya01","null","","","","learningBlock1","","","","This is a bim:","null","","","","",""
"","image-keyboard-response","194","200829","0.0-6.0-1.62","LF","yzwvuo5jcw","1280","720","en","ya08ya01","null","","","","","","","","learning/Slide63.JPG","null","","","","",""
"","html-keyboard-response","195","201835","0.0-6.0-2.62","LF","yzwvuo5jcw","1280","720","en","ya08ya01","null","","","","learningBlock1","","","","<div style=""font-size:60px;""> </div>","null","LF","learning/Slide63.JPG","This is a bim:","",""
"","html-keyboard-response","196","202840","0.0-6.0-0.63","LF","yzwvuo5jcw","1280","720","en","ya08ya01","null","","","","learningBlock1","","","","This is a tob:","null","","","","",""
"","image-keyboard-response","197","203169","0.0-6.0-1.63","LF","yzwvuo5jcw","1280","720","en","ya08ya01","null","","","","","","","","learning/Slide64.JPG","null","","","","",""
"","html-keyboard-response","198","204172","0.0-6.0-2.63","LF","yzwvuo5jcw","1280","720","en","ya08ya01","null","","","","learningBlock1","","","","<div style=""font-size:60px;""> </div>","null","LF","learning/Slide64.JPG","This is a tob:","",""
"","html-keyboard-response","199","205174","0.0-6.0-0.64","LF","yzwvuo5jcw","1280","720","en","ya08ya01","null","","","","learningBlock1","","","","This is a wug:","null","","","","",""
"","image-keyboard-response","200","205504","0.0-6.0-1.64","LF","yzwvuo5jcw","1280","720","en","ya08ya01","null","","","","","","","","learning/Slide65.JPG","null","","","","",""
"","html-keyboard-response","201","206507","0.0-6.0-2.64","LF","yzwvuo5jcw","1280","720","en","ya08ya01","null","","","","learningBlock1","","","","<div style=""font-size:60px;""> </div>","null","LF","learning/Slide65.JPG","This is a wug:","",""
"","html-keyboard-response","202","207510","0.0-6.0-0.65","LF","yzwvuo5jcw","1280","720","en","ya08ya01","null","","","","learningBlock1","","","","This is a dep:","null","","","","",""
"","image-keyboard-response","203","207841","0.0-6.0-1.65","LF","yzwvuo5jcw","1280","720","en","ya08ya01","null","","","","","","","","learning/Slide66.JPG","null","","","","",""
"","html-keyboard-response","204","208846","0.0-6.0-2.65","LF","yzwvuo5jcw","1280","720","en","ya08ya01","null","","","","learningBlock1","","","","<div style=""font-size:60px;""> </div>","null","LF","learning/Slide66.JPG","This is a dep:","",""
"","html-keyboard-response","205","209851","0.0-6.0-0.66","LF","yzwvuo5jcw","1280","720","en","ya08ya01","null","","","","learningBlock1","","","","This is a tob:","null","","","","",""
"","image-keyboard-response","206","210178","0.0-6.0-1.66","LF","yzwvuo5jcw","1280","720","en","ya08ya01","null","","","","","","","","learning/Slide67.JPG","null","","","","",""
"","html-keyboard-response","207","211180","0.0-6.0-2.66","LF","yzwvuo5jcw","1280","720","en","ya08ya01","null","","","","learningBlock1","","","","<div style=""font-size:60px;""> </div>","null","LF","learning/Slide67.JPG","This is a tob:","",""
"","html-keyboard-response","208","212184","0.0-6.0-0.67","LF","yzwvuo5jcw","1280","720","en","ya08ya01","null","","","","learningBlock1","","","","This is a wug:","null","","","","",""
"","image-keyboard-response","209","212514","0.0-6.0-1.67","LF","yzwvuo5jcw","1280","720","en","ya08ya01","null","","","","","","","","learning/Slide68.JPG","null","","","","",""
"","html-keyboard-response","210","213516","0.0-6.0-2.67","LF","yzwvuo5jcw","1280","720","en","ya08ya01","null","","","","learningBlock1","","","","<div style=""font-size:60px;""> </div>","null","LF","learning/Slide68.JPG","This is a wug:","",""
"","html-keyboard-response","211","214519","0.0-6.0-0.68","LF","yzwvuo5jcw","1280","720","en","ya08ya01","null","","","","learningBlock1","","","","This is a tob:","null","","","","",""
"","image-keyboard-response","212","214850","0.0-6.0-1.68","LF","yzwvuo5jcw","1280","720","en","ya08ya01","null","","","","","","","","learning/Slide69.JPG","null","","","","",""
"","html-keyboard-response","213","215853","0.0-6.0-2.68","LF","yzwvuo5jcw","1280","720","en","ya08ya01","null","","","","learningBlock1","","","","<div style=""font-size:60px;""> </div>","null","LF","learning/Slide69.JPG","This is a tob:","",""
"","html-keyboard-response","214","216856","0.0-6.0-0.69","LF","yzwvuo5jcw","1280","720","en","ya08ya01","null","","","","learningBlock1","","","","This is a dep:","null","","","","",""
"","image-keyboard-response","215","217183","0.0-6.0-1.69","LF","yzwvuo5jcw","1280","720","en","ya08ya01","null","","","","","","","","learning/Slide70.JPG","null","","","","",""
"","html-keyboard-response","216","218185","0.0-6.0-2.69","LF","yzwvuo5jcw","1280","720","en","ya08ya01","null","","","","learningBlock1","","","","<div style=""font-size:60px;""> </div>","null","LF","learning/Slide70.JPG","This is a dep:","",""
"","html-keyboard-response","217","219189","0.0-6.0-0.70","LF","yzwvuo5jcw","1280","720","en","ya08ya01","null","","","","learningBlock1","","","","This is a wug:","null","","","","",""
"","image-keyboard-response","218","219517","0.0-6.0-1.70","LF","yzwvuo5jcw","1280","720","en","ya08ya01","null","","","","","","","","learning/Slide71.JPG","null","","","","",""
"","html-keyboard-response","219","220520","0.0-6.0-2.70","LF","yzwvuo5jcw","1280","720","en","ya08ya01","null","","","","learningBlock1","","","","<div style=""font-size:60px;""> </div>","null","LF","learning/Slide71.JPG","This is a wug:","",""
"","html-keyboard-response","220","221523","0.0-6.0-0.71","LF","yzwvuo5jcw","1280","720","en","ya08ya01","null","","","","learningBlock1","","","","This is a bim:","null","","","","",""
"","image-keyboard-response","221","221854","0.0-6.0-1.71","LF","yzwvuo5jcw","1280","720","en","ya08ya01","null","","","","","","","","learning/Slide72.JPG","null","","","","",""
"","html-keyboard-response","222","222857","0.0-6.0-2.71","LF","yzwvuo5jcw","1280","720","en","ya08ya01","null","","","","learningBlock1","","","","<div style=""font-size:60px;""> </div>","null","LF","learning/Slide72.JPG","This is a bim:","",""
"","html-keyboard-response","223","223865","0.0-6.0-0.72","LF","yzwvuo5jcw","1280","720","en","ya08ya01","null","","","","learningBlock1","","","","This is a wug:","null","","","","",""
"","image-keyboard-response","224","224193","0.0-6.0-1.72","LF","yzwvuo5jcw","1280","720","en","ya08ya01","null","","","","","","","","learning/Slide73.JPG","null","","","","",""
"","html-keyboard-response","225","225196","0.0-6.0-2.72","LF","yzwvuo5jcw","1280","720","en","ya08ya01","null","","","","learningBlock1","","","","<div style=""font-size:60px;""> </div>","null","LF","learning/Slide73.JPG","This is a wug:","",""
"","html-keyboard-response","226","226200","0.0-6.0-0.73","LF","yzwvuo5jcw","1280","720","en","ya08ya01","null","","","","learningBlock1","","","","This is a dep:","null","","","","",""
"","image-keyboard-response","227","226529","0.0-6.0-1.73","LF","yzwvuo5jcw","1280","720","en","ya08ya01","null","","","","","","","","learning/Slide74.JPG","null","","","","",""
"","html-keyboard-response","228","227532","0.0-6.0-2.73","LF","yzwvuo5jcw","1280","720","en","ya08ya01","null","","","","learningBlock1","","","","<div style=""font-size:60px;""> </div>","null","LF","learning/Slide74.JPG","This is a dep:","",""
"","html-keyboard-response","229","228535","0.0-6.0-0.74","LF","yzwvuo5jcw","1280","720","en","ya08ya01","null","","","","learningBlock1","","","","This is a tob:","null","","","","",""
"","image-keyboard-response","230","228874","0.0-6.0-1.74","LF","yzwvuo5jcw","1280","720","en","ya08ya01","null","","","","","","","","learning/Slide75.JPG","null","","","","",""
"","html-keyboard-response","231","229876","0.0-6.0-2.74","LF","yzwvuo5jcw","1280","720","en","ya08ya01","null","","","","learningBlock1","","","","<div style=""font-size:60px;""> </div>","null","LF","learning/Slide75.JPG","This is a tob:","",""
"","html-keyboard-response","232","230879","0.0-6.0-0.75","LF","yzwvuo5jcw","1280","720","en","ya08ya01","null","","","","learningBlock1","","","","This is a bim:","null","","","","",""
"","image-keyboard-response","233","231209","0.0-6.0-1.75","LF","yzwvuo5jcw","1280","720","en","ya08ya01","null","","","","","","","","learning/Slide76.JPG","null","","","","",""
"","html-keyboard-response","234","232213","0.0-6.0-2.75","LF","yzwvuo5jcw","1280","720","en","ya08ya01","null","","","","learningBlock1","","","","<div style=""font-size:60px;""> </div>","null","LF","learning/Slide76.JPG","This is a bim:","",""
"","html-keyboard-response","235","233218","0.0-6.0-0.76","LF","yzwvuo5jcw","1280","720","en","ya08ya01","null","","","","learningBlock1","","","","This is a tob:","null","","","","",""
"","image-keyboard-response","236","233548","0.0-6.0-1.76","LF","yzwvuo5jcw","1280","720","en","ya08ya01","null","","","","","","","","learning/Slide77.JPG","null","","","","",""
"","html-keyboard-response","237","234552","0.0-6.0-2.76","LF","yzwvuo5jcw","1280","720","en","ya08ya01","null","","","","learningBlock1","","","","<div style=""font-size:60px;""> </div>","null","LF","learning/Slide77.JPG","This is a tob:","",""
"","html-keyboard-response","238","235555","0.0-6.0-0.77","LF","yzwvuo5jcw","1280","720","en","ya08ya01","null","","","","learningBlock1","","","","This is a wug:","null","","","","",""
"","image-keyboard-response","239","235885","0.0-6.0-1.77","LF","yzwvuo5jcw","1280","720","en","ya08ya01","null","","","","","","","","learning/Slide78.JPG","null","","","","",""
"","html-keyboard-response","240","236887","0.0-6.0-2.77","LF","yzwvuo5jcw","1280","720","en","ya08ya01","null","","","","learningBlock1","","","","<div style=""font-size:60px;""> </div>","null","LF","learning/Slide78.JPG","This is a wug:","",""
"","html-keyboard-response","241","237890","0.0-6.0-0.78","LF","yzwvuo5jcw","1280","720","en","ya08ya01","null","","","","learningBlock1","","","","This is a bim:","null","","","","",""
"","image-keyboard-response","242","238218","0.0-6.0-1.78","LF","yzwvuo5jcw","1280","720","en","ya08ya01","null","","","","","","","","learning/Slide79.JPG","null","","","","",""
"","html-keyboard-response","243","239220","0.0-6.0-2.78","LF","yzwvuo5jcw","1280","720","en","ya08ya01","null","","","","learningBlock1","","","","<div style=""font-size:60px;""> </div>","null","LF","learning/Slide79.JPG","This is a bim:","",""
"","html-keyboard-response","244","240223","0.0-6.0-0.79","LF","yzwvuo5jcw","1280","720","en","ya08ya01","null","","","","learningBlock1","","","","This is a tob:","null","","","","",""
"","image-keyboard-response","245","240557","0.0-6.0-1.79","LF","yzwvuo5jcw","1280","720","en","ya08ya01","null","","","","","","","","learning/Slide80.JPG","null","","","","",""
"","html-keyboard-response","246","241561","0.0-6.0-2.79","LF","yzwvuo5jcw","1280","720","en","ya08ya01","null","","","","learningBlock1","","","","<div style=""font-size:60px;""> </div>","null","LF","learning/Slide80.JPG","This is a tob:","",""
"","instructions","247","245193","0.0-7.0","LF","yzwvuo5jcw","1280","720","en","ya08ya01","NA","","","[{""page_index"":0,""viewing_time"":3631.0949999606237}]","instructions","","","","","","","","","",""
"","html-keyboard-response","248","246198","0.0-8.0-0.0","LF","yzwvuo5jcw","1280","720","en","ya08ya01","null","","","","learningBlock2","","","","This is a wug:","null","","","","",""
"","image-keyboard-response","249","246526","0.0-8.0-1.0","LF","yzwvuo5jcw","1280","720","en","ya08ya01","null","","","","","","","","learning/Slide81.JPG","null","","","","",""
"","html-keyboard-response","250","247529","0.0-8.0-2.0","LF","yzwvuo5jcw","1280","720","en","ya08ya01","null","","","","learningBlock2","","","","<div style=""font-size:60px;""> </div>","null","LF","learning/Slide81.JPG","This is a wug:","",""
"","html-keyboard-response","251","248535","0.0-8.0-0.1","LF","yzwvuo5jcw","1280","720","en","ya08ya01","null","","","","learningBlock2","","","","This is a bim:","null","","","","",""
"","image-keyboard-response","252","248866","0.0-8.0-1.1","LF","yzwvuo5jcw","1280","720","en","ya08ya01","null","","","","","","","","learning/Slide82.JPG","null","","","","",""
"","html-keyboard-response","253","249869","0.0-8.0-2.1","LF","yzwvuo5jcw","1280","720","en","ya08ya01","null","","","","learningBlock2","","","","<div style=""font-size:60px;""> </div>","null","LF","learning/Slide82.JPG","This is a bim:","",""
"","html-keyboard-response","254","250876","0.0-8.0-0.2","LF","yzwvuo5jcw","1280","720","en","ya08ya01","null","","","","learningBlock2","","","","This is a wug:","null","","","","",""
"","image-keyboard-response","255","251211","0.0-8.0-1.2","LF","yzwvuo5jcw","1280","720","en","ya08ya01","null","","","","","","","","learning/Slide83.JPG","null","","","","",""
"","html-keyboard-response","256","252215","0.0-8.0-2.2","LF","yzwvuo5jcw","1280","720","en","ya08ya01","null","","","","learningBlock2","","","","<div style=""font-size:60px;""> </div>","null","LF","learning/Slide83.JPG","This is a wug:","",""
"","html-keyboard-response","257","253217","0.0-8.0-0.3","LF","yzwvuo5jcw","1280","720","en","ya08ya01","null","","","","learningBlock2","","","","This is a dep:","null","","","","",""
"","image-keyboard-response","258","253546","0.0-8.0-1.3","LF","yzwvuo5jcw","1280","720","en","ya08ya01","null","","","","","","","","learning/Slide84.JPG","null","","","","",""
"","html-keyboard-response","259","254548","0.0-8.0-2.3","LF","yzwvuo5jcw","1280","720","en","ya08ya01","null","","","","learningBlock2","","","","<div style=""font-size:60px;""> </div>","null","LF","learning/Slide84.JPG","This is a dep:","",""
"","html-keyboard-response","260","255555","0.0-8.0-0.4","LF","yzwvuo5jcw","1280","720","en","ya08ya01","null","","","","learningBlock2","","","","This is a bim:","null","","","","",""
"","image-keyboard-response","261","255884","0.0-8.0-1.4","LF","yzwvuo5jcw","1280","720","en","ya08ya01","null","","","","","","","","learning/Slide85.JPG","null","","","","",""
"","html-keyboard-response","262","256886","0.0-8.0-2.4","LF","yzwvuo5jcw","1280","720","en","ya08ya01","null","","","","learningBlock2","","","","<div style=""font-size:60px;""> </div>","null","LF","learning/Slide85.JPG","This is a bim:","",""
"","html-keyboard-response","263","257889","0.0-8.0-0.5","LF","yzwvuo5jcw","1280","720","en","ya08ya01","null","","","","learningBlock2","","","","This is a tob:","null","","","","",""
"","image-keyboard-response","264","258223","0.0-8.0-1.5","LF","yzwvuo5jcw","1280","720","en","ya08ya01","null","","","","","","","","learning/Slide86.JPG","null","","","","",""
"","html-keyboard-response","265","259227","0.0-8.0-2.5","LF","yzwvuo5jcw","1280","720","en","ya08ya01","null","","","","learningBlock2","","","","<div style=""font-size:60px;""> </div>","null","LF","learning/Slide86.JPG","This is a tob:","",""
"","html-keyboard-response","266","260232","0.0-8.0-0.6","LF","yzwvuo5jcw","1280","720","en","ya08ya01","null","","","","learningBlock2","","","","This is a wug:","null","","","","",""
"","image-keyboard-response","267","260561","0.0-8.0-1.6","LF","yzwvuo5jcw","1280","720","en","ya08ya01","null","","","","","","","","learning/Slide87.JPG","null","","","","",""
"","html-keyboard-response","268","261564","0.0-8.0-2.6","LF","yzwvuo5jcw","1280","720","en","ya08ya01","null","","","","learningBlock2","","","","<div style=""font-size:60px;""> </div>","null","LF","learning/Slide87.JPG","This is a wug:","",""
"","html-keyboard-response","269","262566","0.0-8.0-0.7","LF","yzwvuo5jcw","1280","720","en","ya08ya01","null","","","","learningBlock2","","","","This is a tob:","null","","","","",""
"","image-keyboard-response","270","262894","0.0-8.0-1.7","LF","yzwvuo5jcw","1280","720","en","ya08ya01","null","","","","","","","","learning/Slide88.JPG","null","","","","",""
"","html-keyboard-response","271","263898","0.0-8.0-2.7","LF","yzwvuo5jcw","1280","720","en","ya08ya01","null","","","","learningBlock2","","","","<div style=""font-size:60px;""> </div>","null","LF","learning/Slide88.JPG","This is a tob:","",""
"","html-keyboard-response","272","264901","0.0-8.0-0.8","LF","yzwvuo5jcw","1280","720","en","ya08ya01","null","","","","learningBlock2","","","","This is a bim:","null","","","","",""
"","image-keyboard-response","273","265228","0.0-8.0-1.8","LF","yzwvuo5jcw","1280","720","en","ya08ya01","null","","","","","","","","learning/Slide89.JPG","null","","","","",""
"","html-keyboard-response","274","266232","0.0-8.0-2.8","LF","yzwvuo5jcw","1280","720","en","ya08ya01","null","","","","learningBlock2","","","","<div style=""font-size:60px;""> </div>","null","LF","learning/Slide89.JPG","This is a bim:","",""
"","html-keyboard-response","275","267234","0.0-8.0-0.9","LF","yzwvuo5jcw","1280","720","en","ya08ya01","null","","","","learningBlock2","","","","This is a dep:","null","","","","",""
"","image-keyboard-response","276","267562","0.0-8.0-1.9","LF","yzwvuo5jcw","1280","720","en","ya08ya01","null","","","","","","","","learning/Slide90.JPG","null","","","","",""
"","html-keyboard-response","277","268564","0.0-8.0-2.9","LF","yzwvuo5jcw","1280","720","en","ya08ya01","null","","","","learningBlock2","","","","<div style=""font-size:60px;""> </div>","null","LF","learning/Slide90.JPG","This is a dep:","",""
"","html-keyboard-response","278","269566","0.0-8.0-0.10","LF","yzwvuo5jcw","1280","720","en","ya08ya01","null","","","","learningBlock2","","","","This is a wug:","null","","","","",""
"","image-keyboard-response","279","269895","0.0-8.0-1.10","LF","yzwvuo5jcw","1280","720","en","ya08ya01","null","","","","","","","","learning/Slide91.JPG","null","","","","",""
"","html-keyboard-response","280","270897","0.0-8.0-2.10","LF","yzwvuo5jcw","1280","720","en","ya08ya01","null","","","","learningBlock2","","","","<div style=""font-size:60px;""> </div>","null","LF","learning/Slide91.JPG","This is a wug:","",""
"","html-keyboard-response","281","271899","0.0-8.0-0.11","LF","yzwvuo5jcw","1280","720","en","ya08ya01","null","","","","learningBlock2","","","","This is a tob:","null","","","","",""
"","image-keyboard-response","282","272232","0.0-8.0-1.11","LF","yzwvuo5jcw","1280","720","en","ya08ya01","null","","","","","","","","learning/Slide92.JPG","null","","","","",""
"","html-keyboard-response","283","273236","0.0-8.0-2.11","LF","yzwvuo5jcw","1280","720","en","ya08ya01","null","","","","learningBlock2","","","","<div style=""font-size:60px;""> </div>","null","LF","learning/Slide92.JPG","This is a tob:","",""
"","html-keyboard-response","284","274239","0.0-8.0-0.12","LF","yzwvuo5jcw","1280","720","en","ya08ya01","null","","","","learningBlock2","","","","This is a bim:","null","","","","",""
"","image-keyboard-response","285","274567","0.0-8.0-1.12","LF","yzwvuo5jcw","1280","720","en","ya08ya01","null","","","","","","","","learning/Slide93.JPG","null","","","","",""
"","html-keyboard-response","286","275571","0.0-8.0-2.12","LF","yzwvuo5jcw","1280","720","en","ya08ya01","null","","","","learningBlock2","","","","<div style=""font-size:60px;""> </div>","null","LF","learning/Slide93.JPG","This is a bim:","",""
"","html-keyboard-response","287","276574","0.0-8.0-0.13","LF","yzwvuo5jcw","1280","720","en","ya08ya01","null","","","","learningBlock2","","","","This is a tob:","null","","","","",""
"","image-keyboard-response","288","276902","0.0-8.0-1.13","LF","yzwvuo5jcw","1280","720","en","ya08ya01","null","","","","","","","","learning/Slide94.JPG","null","","","","",""
"","html-keyboard-response","289","277904","0.0-8.0-2.13","LF","yzwvuo5jcw","1280","720","en","ya08ya01","null","","","","learningBlock2","","","","<div style=""font-size:60px;""> </div>","null","LF","learning/Slide94.JPG","This is a tob:","",""
"","html-keyboard-response","290","278907","0.0-8.0-0.14","LF","yzwvuo5jcw","1280","720","en","ya08ya01","null","","","","learningBlock2","","","","This is a wug:","null","","","","",""
"","image-keyboard-response","291","279236","0.0-8.0-1.14","LF","yzwvuo5jcw","1280","720","en","ya08ya01","null","","","","","","","","learning/Slide95.JPG","null","","","","",""
"","html-keyboard-response","292","280238","0.0-8.0-2.14","LF","yzwvuo5jcw","1280","720","en","ya08ya01","null","","","","learningBlock2","","","","<div style=""font-size:60px;""> </div>","null","LF","learning/Slide95.JPG","This is a wug:","",""
"","html-keyboard-response","293","281241","0.0-8.0-0.15","LF","yzwvuo5jcw","1280","720","en","ya08ya01","null","","","","learningBlock2","","","","This is a tob:","null","","","","",""
"","image-keyboard-response","294","281569","0.0-8.0-1.15","LF","yzwvuo5jcw","1280","720","en","ya08ya01","null","","","","","","","","learning/Slide96.JPG","null","","","","",""
"","html-keyboard-response","295","282573","0.0-8.0-2.15","LF","yzwvuo5jcw","1280","720","en","ya08ya01","null","","","","learningBlock2","","","","<div style=""font-size:60px;""> </div>","null","LF","learning/Slide96.JPG","This is a tob:","",""
"","html-keyboard-response","296","283576","0.0-8.0-0.16","LF","yzwvuo5jcw","1280","720","en","ya08ya01","null","","","","learningBlock2","","","","This is a dep:","null","","","","",""
"","image-keyboard-response","297","283906","0.0-8.0-1.16","LF","yzwvuo5jcw","1280","720","en","ya08ya01","null","","","","","","","","learning/Slide97.JPG","null","","","","",""
"","html-keyboard-response","298","284907","0.0-8.0-2.16","LF","yzwvuo5jcw","1280","720","en","ya08ya01","null","","","","learningBlock2","","","","<div style=""font-size:60px;""> </div>","null","LF","learning/Slide97.JPG","This is a dep:","",""
"","html-keyboard-response","299","285911","0.0-8.0-0.17","LF","yzwvuo5jcw","1280","720","en","ya08ya01","null","","","","learningBlock2","","","","This is a bim:","null","","","","",""
"","image-keyboard-response","300","286240","0.0-8.0-1.17","LF","yzwvuo5jcw","1280","720","en","ya08ya01","null","","","","","","","","learning/Slide98.JPG","null","","","","",""
"","html-keyboard-response","301","287242","0.0-8.0-2.17","LF","yzwvuo5jcw","1280","720","en","ya08ya01","null","","","","learningBlock2","","","","<div style=""font-size:60px;""> </div>","null","LF","learning/Slide98.JPG","This is a bim:","",""
"","html-keyboard-response","302","288245","0.0-8.0-0.18","LF","yzwvuo5jcw","1280","720","en","ya08ya01","null","","","","learningBlock2","","","","This is a dep:","null","","","","",""
"","image-keyboard-response","303","288572","0.0-8.0-1.18","LF","yzwvuo5jcw","1280","720","en","ya08ya01","null","","","","","","","","learning/Slide99.JPG","null","","","","",""
"","html-keyboard-response","304","289575","0.0-8.0-2.18","LF","yzwvuo5jcw","1280","720","en","ya08ya01","null","","","","learningBlock2","","","","<div style=""font-size:60px;""> </div>","null","LF","learning/Slide99.JPG","This is a dep:","",""
"","html-keyboard-response","305","290578","0.0-8.0-0.19","LF","yzwvuo5jcw","1280","720","en","ya08ya01","null","","","","learningBlock2","","","","This is a bim:","null","","","","",""
"","image-keyboard-response","306","290906","0.0-8.0-1.19","LF","yzwvuo5jcw","1280","720","en","ya08ya01","null","","","","","","","","learning/Slide100.JPG","null","","","","",""
"","html-keyboard-response","307","291908","0.0-8.0-2.19","LF","yzwvuo5jcw","1280","720","en","ya08ya01","null","","","","learningBlock2","","","","<div style=""font-size:60px;""> </div>","null","LF","learning/Slide100.JPG","This is a bim:","",""
"","html-keyboard-response","308","292910","0.0-8.0-0.20","LF","yzwvuo5jcw","1280","720","en","ya08ya01","null","","","","learningBlock2","","","","This is a tob:","null","","","","",""
"","image-keyboard-response","309","293241","0.0-8.0-1.20","LF","yzwvuo5jcw","1280","720","en","ya08ya01","null","","","","","","","","learning/Slide101.JPG","null","","","","",""
"","html-keyboard-response","310","294244","0.0-8.0-2.20","LF","yzwvuo5jcw","1280","720","en","ya08ya01","null","","","","learningBlock2","","","","<div style=""font-size:60px;""> </div>","null","LF","learning/Slide101.JPG","This is a tob:","",""
"","html-keyboard-response","311","295247","0.0-8.0-0.21","LF","yzwvuo5jcw","1280","720","en","ya08ya01","null","","","","learningBlock2","","","","This is a bim:","null","","","","",""
"","image-keyboard-response","312","295574","0.0-8.0-1.21","LF","yzwvuo5jcw","1280","720","en","ya08ya01","null","","","","","","","","learning/Slide102.JPG","null","","","","",""
"","html-keyboard-response","313","296577","0.0-8.0-2.21","LF","yzwvuo5jcw","1280","720","en","ya08ya01","null","","","","learningBlock2","","","","<div style=""font-size:60px;""> </div>","null","LF","learning/Slide102.JPG","This is a bim:","",""
"","html-keyboard-response","314","297579","0.0-8.0-0.22","LF","yzwvuo5jcw","1280","720","en","ya08ya01","null","","","","learningBlock2","","","","This is a dep:","null","","","","",""
"","image-keyboard-response","315","297907","0.0-8.0-1.22","LF","yzwvuo5jcw","1280","720","en","ya08ya01","null","","","","","","","","learning/Slide103.JPG","null","","","","",""
"","html-keyboard-response","316","298908","0.0-8.0-2.22","LF","yzwvuo5jcw","1280","720","en","ya08ya01","null","","","","learningBlock2","","","","<div style=""font-size:60px;""> </div>","null","LF","learning/Slide103.JPG","This is a dep:","",""
"","html-keyboard-response","317","299913","0.0-8.0-0.23","LF","yzwvuo5jcw","1280","720","en","ya08ya01","null","","","","learningBlock2","","","","This is a tob:","null","","","","",""
"","image-keyboard-response","318","300240","0.0-8.0-1.23","LF","yzwvuo5jcw","1280","720","en","ya08ya01","null","","","","","","","","learning/Slide104.JPG","null","","","","",""
"","html-keyboard-response","319","301248","0.0-8.0-2.23","LF","yzwvuo5jcw","1280","720","en","ya08ya01","null","","","","learningBlock2","","","","<div style=""font-size:60px;""> </div>","null","LF","learning/Slide104.JPG","This is a tob:","",""
"","html-keyboard-response","320","302264","0.0-8.0-0.24","LF","yzwvuo5jcw","1280","720","en","ya08ya01","null","","","","learningBlock2","","","","This is a dep:","null","","","","",""
"","image-keyboard-response","321","302606","0.0-8.0-1.24","LF","yzwvuo5jcw","1280","720","en","ya08ya01","null","","","","","","","","learning/Slide105.JPG","null","","","","",""
"","html-keyboard-response","322","303619","0.0-8.0-2.24","LF","yzwvuo5jcw","1280","720","en","ya08ya01","null","","","","learningBlock2","","","","<div style=""font-size:60px;""> </div>","null","LF","learning/Slide105.JPG","This is a dep:","",""
"","html-keyboard-response","323","304655","0.0-8.0-0.25","LF","yzwvuo5jcw","1280","720","en","ya08ya01","null","","","","learningBlock2","","","","This is a wug:","null","","","","",""
"","image-keyboard-response","324","305036","0.0-8.0-1.25","LF","yzwvuo5jcw","1280","720","en","ya08ya01","null","","","","","","","","learning/Slide106.JPG","null","","","","",""
"","html-keyboard-response","325","306057","0.0-8.0-2.25","LF","yzwvuo5jcw","1280","720","en","ya08ya01","null","","","","learningBlock2","","","","<div style=""font-size:60px;""> </div>","null","LF","learning/Slide106.JPG","This is a wug:","",""
"","html-keyboard-response","326","307087","0.0-8.0-0.26","LF","yzwvuo5jcw","1280","720","en","ya08ya01","null","","","","learningBlock2","","","","This is a bim:","null","","","","",""
"","image-keyboard-response","327","307428","0.0-8.0-1.26","LF","yzwvuo5jcw","1280","720","en","ya08ya01","null","","","","","","","","learning/Slide107.JPG","null","","","","",""
"","html-keyboard-response","328","308430","0.0-8.0-2.26","LF","yzwvuo5jcw","1280","720","en","ya08ya01","null","","","","learningBlock2","","","","<div style=""font-size:60px;""> </div>","null","LF","learning/Slide107.JPG","This is a bim:","",""
"","html-keyboard-response","329","309434","0.0-8.0-0.27","LF","yzwvuo5jcw","1280","720","en","ya08ya01","null","","","","learningBlock2","","","","This is a dep:","null","","","","",""
"","image-keyboard-response","330","309766","0.0-8.0-1.27","LF","yzwvuo5jcw","1280","720","en","ya08ya01","null","","","","","","","","learning/Slide108.JPG","null","","","","",""
"","html-keyboard-response","331","310768","0.0-8.0-2.27","LF","yzwvuo5jcw","1280","720","en","ya08ya01","null","","","","learningBlock2","","","","<div style=""font-size:60px;""> </div>","null","LF","learning/Slide108.JPG","This is a dep:","",""
"","html-keyboard-response","332","311772","0.0-8.0-0.28","LF","yzwvuo5jcw","1280","720","en","ya08ya01","null","","","","learningBlock2","","","","This is a wug:","null","","","","",""
"","image-keyboard-response","333","312102","0.0-8.0-1.28","LF","yzwvuo5jcw","1280","720","en","ya08ya01","null","","","","","","","","learning/Slide109.JPG","null","","","","",""
"","html-keyboard-response","334","313105","0.0-8.0-2.28","LF","yzwvuo5jcw","1280","720","en","ya08ya01","null","","","","learningBlock2","","","","<div style=""font-size:60px;""> </div>","null","LF","learning/Slide109.JPG","This is a wug:","",""
"","html-keyboard-response","335","314109","0.0-8.0-0.29","LF","yzwvuo5jcw","1280","720","en","ya08ya01","null","","","","learningBlock2","","","","This is a bim:","null","","","","",""
"","image-keyboard-response","336","314436","0.0-8.0-1.29","LF","yzwvuo5jcw","1280","720","en","ya08ya01","null","","","","","","","","learning/Slide110.JPG","null","","","","",""
"","html-keyboard-response","337","315483","0.0-8.0-2.29","LF","yzwvuo5jcw","1280","720","en","ya08ya01","null","","","","learningBlock2","","","","<div style=""font-size:60px;""> </div>","null","LF","learning/Slide110.JPG","This is a bim:","",""
"","html-keyboard-response","338","316486","0.0-8.0-0.30","LF","yzwvuo5jcw","1280","720","en","ya08ya01","null","","","","learningBlock2","","","","This is a tob:","null","","","","",""
"","image-keyboard-response","339","316815","0.0-8.0-1.30","LF","yzwvuo5jcw","1280","720","en","ya08ya01","null","","","","","","","","learning/Slide111.JPG","null","","","","",""
"","html-keyboard-response","340","317817","0.0-8.0-2.30","LF","yzwvuo5jcw","1280","720","en","ya08ya01","null","","","","learningBlock2","","","","<div style=""font-size:60px;""> </div>","null","LF","learning/Slide111.JPG","This is a tob:","",""
"","html-keyboard-response","341","318819","0.0-8.0-0.31","LF","yzwvuo5jcw","1280","720","en","ya08ya01","null","","","","learningBlock2","","","","This is a wug:","null","","","","",""
"","image-keyboard-response","342","319147","0.0-8.0-1.31","LF","yzwvuo5jcw","1280","720","en","ya08ya01","null","","","","","","","","learning/Slide112.JPG","null","","","","",""
"","html-keyboard-response","343","320149","0.0-8.0-2.31","LF","yzwvuo5jcw","1280","720","en","ya08ya01","null","","","","learningBlock2","","","","<div style=""font-size:60px;""> </div>","null","LF","learning/Slide112.JPG","This is a wug:","",""
"","html-keyboard-response","344","321153","0.0-8.0-0.32","LF","yzwvuo5jcw","1280","720","en","ya08ya01","null","","","","learningBlock2","","","","This is a tob:","null","","","","",""
"","image-keyboard-response","345","321482","0.0-8.0-1.32","LF","yzwvuo5jcw","1280","720","en","ya08ya01","null","","","","","","","","learning/Slide113.JPG","null","","","","",""
"","html-keyboard-response","346","322484","0.0-8.0-2.32","LF","yzwvuo5jcw","1280","720","en","ya08ya01","null","","","","learningBlock2","","","","<div style=""font-size:60px;""> </div>","null","LF","learning/Slide113.JPG","This is a tob:","",""
"","html-keyboard-response","347","323488","0.0-8.0-0.33","LF","yzwvuo5jcw","1280","720","en","ya08ya01","null","","","","learningBlock2","","","","This is a wug:","null","","","","",""
"","image-keyboard-response","348","323816","0.0-8.0-1.33","LF","yzwvuo5jcw","1280","720","en","ya08ya01","null","","","","","","","","learning/Slide114.JPG","null","","","","",""
"","html-keyboard-response","349","324819","0.0-8.0-2.33","LF","yzwvuo5jcw","1280","720","en","ya08ya01","null","","","","learningBlock2","","","","<div style=""font-size:60px;""> </div>","null","LF","learning/Slide114.JPG","This is a wug:","",""
"","html-keyboard-response","350","325821","0.0-8.0-0.34","LF","yzwvuo5jcw","1280","720","en","ya08ya01","null","","","","learningBlock2","","","","This is a bim:","null","","","","",""
"","image-keyboard-response","351","326149","0.0-8.0-1.34","LF","yzwvuo5jcw","1280","720","en","ya08ya01","null","","","","","","","","learning/Slide115.JPG","null","","","","",""
"","html-keyboard-response","352","327152","0.0-8.0-2.34","LF","yzwvuo5jcw","1280","720","en","ya08ya01","null","","","","learningBlock2","","","","<div style=""font-size:60px;""> </div>","null","LF","learning/Slide115.JPG","This is a bim:","",""
"","html-keyboard-response","353","328155","0.0-8.0-0.35","LF","yzwvuo5jcw","1280","720","en","ya08ya01","null","","","","learningBlock2","","","","This is a dep:","null","","","","",""
"","image-keyboard-response","354","328482","0.0-8.0-1.35","LF","yzwvuo5jcw","1280","720","en","ya08ya01","null","","","","","","","","learning/Slide116.JPG","null","","","","",""
"","html-keyboard-response","355","329485","0.0-8.0-2.35","LF","yzwvuo5jcw","1280","720","en","ya08ya01","null","","","","learningBlock2","","","","<div style=""font-size:60px;""> </div>","null","LF","learning/Slide116.JPG","This is a dep:","",""
"","html-keyboard-response","356","330491","0.0-8.0-0.36","LF","yzwvuo5jcw","1280","720","en","ya08ya01","null","","","","learningBlock2","","","","This is a tob:","null","","","","",""
"","image-keyboard-response","357","330819","0.0-8.0-1.36","LF","yzwvuo5jcw","1280","720","en","ya08ya01","null","","","","","","","","learning/Slide117.JPG","null","","","","",""
"","html-keyboard-response","358","331823","0.0-8.0-2.36","LF","yzwvuo5jcw","1280","720","en","ya08ya01","null","","","","learningBlock2","","","","<div style=""font-size:60px;""> </div>","null","LF","learning/Slide117.JPG","This is a tob:","",""
"","html-keyboard-response","359","332830","0.0-8.0-0.37","LF","yzwvuo5jcw","1280","720","en","ya08ya01","null","","","","learningBlock2","","","","This is a dep:","null","","","","",""
"","image-keyboard-response","360","333164","0.0-8.0-1.37","LF","yzwvuo5jcw","1280","720","en","ya08ya01","null","","","","","","","","learning/Slide118.JPG","null","","","","",""
"","html-keyboard-response","361","334166","0.0-8.0-2.37","LF","yzwvuo5jcw","1280","720","en","ya08ya01","null","","","","learningBlock2","","","","<div style=""font-size:60px;""> </div>","null","LF","learning/Slide118.JPG","This is a dep:","",""
"","html-keyboard-response","362","335168","0.0-8.0-0.38","LF","yzwvuo5jcw","1280","720","en","ya08ya01","null","","","","learningBlock2","","","","This is a wug:","null","","","","",""
"","image-keyboard-response","363","335496","0.0-8.0-1.38","LF","yzwvuo5jcw","1280","720","en","ya08ya01","null","","","","","","","","learning/Slide119.JPG","null","","","","",""
"","html-keyboard-response","364","336499","0.0-8.0-2.38","LF","yzwvuo5jcw","1280","720","en","ya08ya01","null","","","","learningBlock2","","","","<div style=""font-size:60px;""> </div>","null","LF","learning/Slide119.JPG","This is a wug:","",""
"","html-keyboard-response","365","337504","0.0-8.0-0.39","LF","yzwvuo5jcw","1280","720","en","ya08ya01","null","","","","learningBlock2","","","","This is a dep:","null","","","","",""
"","image-keyboard-response","366","337832","0.0-8.0-1.39","LF","yzwvuo5jcw","1280","720","en","ya08ya01","null","","","","","","","","learning/Slide120.JPG","null","","","","",""
"","html-keyboard-response","367","338834","0.0-8.0-2.39","LF","yzwvuo5jcw","1280","720","en","ya08ya01","null","","","","learningBlock2","","","","<div style=""font-size:60px;""> </div>","null","LF","learning/Slide120.JPG","This is a dep:","",""
"","html-keyboard-response","368","339843","0.0-8.0-0.40","LF","yzwvuo5jcw","1280","720","en","ya08ya01","null","","","","learningBlock2","","","","This is a bim:","null","","","","",""
"","image-keyboard-response","369","340172","0.0-8.0-1.40","LF","yzwvuo5jcw","1280","720","en","ya08ya01","null","","","","","","","","learning/Slide121.JPG","null","","","","",""
"","html-keyboard-response","370","341175","0.0-8.0-2.40","LF","yzwvuo5jcw","1280","720","en","ya08ya01","null","","","","learningBlock2","","","","<div style=""font-size:60px;""> </div>","null","LF","learning/Slide121.JPG","This is a bim:","",""
"","html-keyboard-response","371","342180","0.0-8.0-0.41","LF","yzwvuo5jcw","1280","720","en","ya08ya01","null","","","","learningBlock2","","","","This is a wug:","null","","","","",""
"","image-keyboard-response","372","342509","0.0-8.0-1.41","LF","yzwvuo5jcw","1280","720","en","ya08ya01","null","","","","","","","","learning/Slide122.JPG","null","","","","",""
"","html-keyboard-response","373","343511","0.0-8.0-2.41","LF","yzwvuo5jcw","1280","720","en","ya08ya01","null","","","","learningBlock2","","","","<div style=""font-size:60px;""> </div>","null","LF","learning/Slide122.JPG","This is a wug:","",""
"","html-keyboard-response","374","344512","0.0-8.0-0.42","LF","yzwvuo5jcw","1280","720","en","ya08ya01","null","","","","learningBlock2","","","","This is a bim:","null","","","","",""
"","image-keyboard-response","375","344840","0.0-8.0-1.42","LF","yzwvuo5jcw","1280","720","en","ya08ya01","null","","","","","","","","learning/Slide123.JPG","null","","","","",""
"","html-keyboard-response","376","345843","0.0-8.0-2.42","LF","yzwvuo5jcw","1280","720","en","ya08ya01","null","","","","learningBlock2","","","","<div style=""font-size:60px;""> </div>","null","LF","learning/Slide123.JPG","This is a bim:","",""
"","html-keyboard-response","377","346846","0.0-8.0-0.43","LF","yzwvuo5jcw","1280","720","en","ya08ya01","null","","","","learningBlock2","","","","This is a tob:","null","","","","",""
"","image-keyboard-response","378","347176","0.0-8.0-1.43","LF","yzwvuo5jcw","1280","720","en","ya08ya01","null","","","","","","","","learning/Slide124.JPG","null","","","","",""
"","html-keyboard-response","379","348178","0.0-8.0-2.43","LF","yzwvuo5jcw","1280","720","en","ya08ya01","null","","","","learningBlock2","","","","<div style=""font-size:60px;""> </div>","null","LF","learning/Slide124.JPG","This is a tob:","",""
"","html-keyboard-response","380","349182","0.0-8.0-0.44","LF","yzwvuo5jcw","1280","720","en","ya08ya01","null","","","","learningBlock2","","","","This is a bim:","null","","","","",""
"","image-keyboard-response","381","349510","0.0-8.0-1.44","LF","yzwvuo5jcw","1280","720","en","ya08ya01","null","","","","","","","","learning/Slide125.JPG","null","","","","",""
"","html-keyboard-response","382","350512","0.0-8.0-2.44","LF","yzwvuo5jcw","1280","720","en","ya08ya01","null","","","","learningBlock2","","","","<div style=""font-size:60px;""> </div>","null","LF","learning/Slide125.JPG","This is a bim:","",""
"","html-keyboard-response","383","351514","0.0-8.0-0.45","LF","yzwvuo5jcw","1280","720","en","ya08ya01","null","","","","learningBlock2","","","","This is a tob:","null","","","","",""
"","image-keyboard-response","384","351843","0.0-8.0-1.45","LF","yzwvuo5jcw","1280","720","en","ya08ya01","null","","","","","","","","learning/Slide126.JPG","null","","","","",""
"","html-keyboard-response","385","352846","0.0-8.0-2.45","LF","yzwvuo5jcw","1280","720","en","ya08ya01","null","","","","learningBlock2","","","","<div style=""font-size:60px;""> </div>","null","LF","learning/Slide126.JPG","This is a tob:","",""
"","html-keyboard-response","386","353854","0.0-8.0-0.46","LF","yzwvuo5jcw","1280","720","en","ya08ya01","null","","","","learningBlock2","","","","This is a dep:","null","","","","",""
"","image-keyboard-response","387","354181","0.0-8.0-1.46","LF","yzwvuo5jcw","1280","720","en","ya08ya01","null","","","","","","","","learning/Slide127.JPG","null","","","","",""
"","html-keyboard-response","388","355184","0.0-8.0-2.46","LF","yzwvuo5jcw","1280","720","en","ya08ya01","null","","","","learningBlock2","","","","<div style=""font-size:60px;""> </div>","null","LF","learning/Slide127.JPG","This is a dep:","",""
"","html-keyboard-response","389","356187","0.0-8.0-0.47","LF","yzwvuo5jcw","1280","720","en","ya08ya01","null","","","","learningBlock2","","","","This is a wug:","null","","","","",""
"","image-keyboard-response","390","356518","0.0-8.0-1.47","LF","yzwvuo5jcw","1280","720","en","ya08ya01","null","","","","","","","","learning/Slide128.JPG","null","","","","",""
"","html-keyboard-response","391","357521","0.0-8.0-2.47","LF","yzwvuo5jcw","1280","720","en","ya08ya01","null","","","","learningBlock2","","","","<div style=""font-size:60px;""> </div>","null","LF","learning/Slide128.JPG","This is a wug:","",""
"","html-keyboard-response","392","358523","0.0-8.0-0.48","LF","yzwvuo5jcw","1280","720","en","ya08ya01","null","","","","learningBlock2","","","","This is a tob:","null","","","","",""
"","image-keyboard-response","393","358851","0.0-8.0-1.48","LF","yzwvuo5jcw","1280","720","en","ya08ya01","null","","","","","","","","learning/Slide129.JPG","null","","","","",""
"","html-keyboard-response","394","359855","0.0-8.0-2.48","LF","yzwvuo5jcw","1280","720","en","ya08ya01","null","","","","learningBlock2","","","","<div style=""font-size:60px;""> </div>","null","LF","learning/Slide129.JPG","This is a tob:","",""
"","html-keyboard-response","395","360859","0.0-8.0-0.49","LF","yzwvuo5jcw","1280","720","en","ya08ya01","null","","","","learningBlock2","","","","This is a wug:","null","","","","",""
"","image-keyboard-response","396","361188","0.0-8.0-1.49","LF","yzwvuo5jcw","1280","720","en","ya08ya01","null","","","","","","","","learning/Slide130.JPG","null","","","","",""
"","html-keyboard-response","397","362190","0.0-8.0-2.49","LF","yzwvuo5jcw","1280","720","en","ya08ya01","null","","","","learningBlock2","","","","<div style=""font-size:60px;""> </div>","null","LF","learning/Slide130.JPG","This is a wug:","",""
"","html-keyboard-response","398","363193","0.0-8.0-0.50","LF","yzwvuo5jcw","1280","720","en","ya08ya01","null","","","","learningBlock2","","","","This is a bim:","null","","","","",""
"","image-keyboard-response","399","363522","0.0-8.0-1.50","LF","yzwvuo5jcw","1280","720","en","ya08ya01","null","","","","","","","","learning/Slide131.JPG","null","","","","",""
"","html-keyboard-response","400","364524","0.0-8.0-2.50","LF","yzwvuo5jcw","1280","720","en","ya08ya01","null","","","","learningBlock2","","","","<div style=""font-size:60px;""> </div>","null","LF","learning/Slide131.JPG","This is a bim:","",""
"","html-keyboard-response","401","365526","0.0-8.0-0.51","LF","yzwvuo5jcw","1280","720","en","ya08ya01","null","","","","learningBlock2","","","","This is a dep:","null","","","","",""
"","image-keyboard-response","402","365854","0.0-8.0-1.51","LF","yzwvuo5jcw","1280","720","en","ya08ya01","null","","","","","","","","learning/Slide132.JPG","null","","","","",""
"","html-keyboard-response","403","366856","0.0-8.0-2.51","LF","yzwvuo5jcw","1280","720","en","ya08ya01","null","","","","learningBlock2","","","","<div style=""font-size:60px;""> </div>","null","LF","learning/Slide132.JPG","This is a dep:","",""
"","html-keyboard-response","404","367862","0.0-8.0-0.52","LF","yzwvuo5jcw","1280","720","en","ya08ya01","null","","","","learningBlock2","","","","This is a tob:","null","","","","",""
"","image-keyboard-response","405","368191","0.0-8.0-1.52","LF","yzwvuo5jcw","1280","720","en","ya08ya01","null","","","","","","","","learning/Slide133.JPG","null","","","","",""
"","html-keyboard-response","406","369194","0.0-8.0-2.52","LF","yzwvuo5jcw","1280","720","en","ya08ya01","null","","","","learningBlock2","","","","<div style=""font-size:60px;""> </div>","null","LF","learning/Slide133.JPG","This is a tob:","",""
"","html-keyboard-response","407","370197","0.0-8.0-0.53","LF","yzwvuo5jcw","1280","720","en","ya08ya01","null","","","","learningBlock2","","","","This is a dep:","null","","","","",""
"","image-keyboard-response","408","370526","0.0-8.0-1.53","LF","yzwvuo5jcw","1280","720","en","ya08ya01","null","","","","","","","","learning/Slide134.JPG","null","","","","",""
"","html-keyboard-response","409","371529","0.0-8.0-2.53","LF","yzwvuo5jcw","1280","720","en","ya08ya01","null","","","","learningBlock2","","","","<div style=""font-size:60px;""> </div>","null","LF","learning/Slide134.JPG","This is a dep:","",""
"","html-keyboard-response","410","372531","0.0-8.0-0.54","LF","yzwvuo5jcw","1280","720","en","ya08ya01","null","","","","learningBlock2","","","","This is a tob:","null","","","","",""
"","image-keyboard-response","411","372860","0.0-8.0-1.54","LF","yzwvuo5jcw","1280","720","en","ya08ya01","null","","","","","","","","learning/Slide135.JPG","null","","","","",""
"","html-keyboard-response","412","373863","0.0-8.0-2.54","LF","yzwvuo5jcw","1280","720","en","ya08ya01","null","","","","learningBlock2","","","","<div style=""font-size:60px;""> </div>","null","LF","learning/Slide135.JPG","This is a tob:","",""
"","html-keyboard-response","413","374866","0.0-8.0-0.55","LF","yzwvuo5jcw","1280","720","en","ya08ya01","null","","","","learningBlock2","","","","This is a wug:","null","","","","",""
"","image-keyboard-response","414","375194","0.0-8.0-1.55","LF","yzwvuo5jcw","1280","720","en","ya08ya01","null","","","","","","","","learning/Slide136.JPG","null","","","","",""
"","html-keyboard-response","415","376197","0.0-8.0-2.55","LF","yzwvuo5jcw","1280","720","en","ya08ya01","null","","","","learningBlock2","","","","<div style=""font-size:60px;""> </div>","null","LF","learning/Slide136.JPG","This is a wug:","",""
"","html-keyboard-response","416","377199","0.0-8.0-0.56","LF","yzwvuo5jcw","1280","720","en","ya08ya01","null","","","","learningBlock2","","","","This is a tob:","null","","","","",""
"","image-keyboard-response","417","377528","0.0-8.0-1.56","LF","yzwvuo5jcw","1280","720","en","ya08ya01","null","","","","","","","","learning/Slide137.JPG","null","","","","",""
"","html-keyboard-response","418","378530","0.0-8.0-2.56","LF","yzwvuo5jcw","1280","720","en","ya08ya01","null","","","","learningBlock2","","","","<div style=""font-size:60px;""> </div>","null","LF","learning/Slide137.JPG","This is a tob:","",""
"","html-keyboard-response","419","379533","0.0-8.0-0.57","LF","yzwvuo5jcw","1280","720","en","ya08ya01","null","","","","learningBlock2","","","","This is a bim:","null","","","","",""
"","image-keyboard-response","420","379860","0.0-8.0-1.57","LF","yzwvuo5jcw","1280","720","en","ya08ya01","null","","","","","","","","learning/Slide138.JPG","null","","","","",""
"","html-keyboard-response","421","380863","0.0-8.0-2.57","LF","yzwvuo5jcw","1280","720","en","ya08ya01","null","","","","learningBlock2","","","","<div style=""font-size:60px;""> </div>","null","LF","learning/Slide138.JPG","This is a bim:","",""
"","html-keyboard-response","422","381867","0.0-8.0-0.58","LF","yzwvuo5jcw","1280","720","en","ya08ya01","null","","","","learningBlock2","","","","This is a wug:","null","","","","",""
"","image-keyboard-response","423","382195","0.0-8.0-1.58","LF","yzwvuo5jcw","1280","720","en","ya08ya01","null","","","","","","","","learning/Slide139.JPG","null","","","","",""
"","html-keyboard-response","424","383197","0.0-8.0-2.58","LF","yzwvuo5jcw","1280","720","en","ya08ya01","null","","","","learningBlock2","","","","<div style=""font-size:60px;""> </div>","null","LF","learning/Slide139.JPG","This is a wug:","",""
"","html-keyboard-response","425","384200","0.0-8.0-0.59","LF","yzwvuo5jcw","1280","720","en","ya08ya01","null","","","","learningBlock2","","","","This is a dep:","null","","","","",""
"","image-keyboard-response","426","384527","0.0-8.0-1.59","LF","yzwvuo5jcw","1280","720","en","ya08ya01","null","","","","","","","","learning/Slide140.JPG","null","","","","",""
"","html-keyboard-response","427","385531","0.0-8.0-2.59","LF","yzwvuo5jcw","1280","720","en","ya08ya01","null","","","","learningBlock2","","","","<div style=""font-size:60px;""> </div>","null","LF","learning/Slide140.JPG","This is a dep:","",""
"","html-keyboard-response","428","386533","0.0-8.0-0.60","LF","yzwvuo5jcw","1280","720","en","ya08ya01","null","","","","learningBlock2","","","","This is a tob:","null","","","","",""
"","image-keyboard-response","429","386862","0.0-8.0-1.60","LF","yzwvuo5jcw","1280","720","en","ya08ya01","null","","","","","","","","learning/Slide141.JPG","null","","","","",""
"","html-keyboard-response","430","387864","0.0-8.0-2.60","LF","yzwvuo5jcw","1280","720","en","ya08ya01","null","","","","learningBlock2","","","","<div style=""font-size:60px;""> </div>","null","LF","learning/Slide141.JPG","This is a tob:","",""
"","html-keyboard-response","431","388868","0.0-8.0-0.61","LF","yzwvuo5jcw","1280","720","en","ya08ya01","null","","","","learningBlock2","","","","This is a wug:","null","","","","",""
"","image-keyboard-response","432","389196","0.0-8.0-1.61","LF","yzwvuo5jcw","1280","720","en","ya08ya01","null","","","","","","","","learning/Slide142.JPG","null","","","","",""
"","html-keyboard-response","433","390199","0.0-8.0-2.61","LF","yzwvuo5jcw","1280","720","en","ya08ya01","null","","","","learningBlock2","","","","<div style=""font-size:60px;""> </div>","null","LF","learning/Slide142.JPG","This is a wug:","",""
"","html-keyboard-response","434","391201","0.0-8.0-0.62","LF","yzwvuo5jcw","1280","720","en","ya08ya01","null","","","","learningBlock2","","","","This is a bim:","null","","","","",""
"","image-keyboard-response","435","391528","0.0-8.0-1.62","LF","yzwvuo5jcw","1280","720","en","ya08ya01","null","","","","","","","","learning/Slide143.JPG","null","","","","",""
"","html-keyboard-response","436","392531","0.0-8.0-2.62","LF","yzwvuo5jcw","1280","720","en","ya08ya01","null","","","","learningBlock2","","","","<div style=""font-size:60px;""> </div>","null","LF","learning/Slide143.JPG","This is a bim:","",""
"","html-keyboard-response","437","393534","0.0-8.0-0.63","LF","yzwvuo5jcw","1280","720","en","ya08ya01","null","","","","learningBlock2","","","","This is a dep:","null","","","","",""
"","image-keyboard-response","438","393871","0.0-8.0-1.63","LF","yzwvuo5jcw","1280","720","en","ya08ya01","null","","","","","","","","learning/Slide144.JPG","null","","","","",""
"","html-keyboard-response","439","394873","0.0-8.0-2.63","LF","yzwvuo5jcw","1280","720","en","ya08ya01","null","","","","learningBlock2","","","","<div style=""font-size:60px;""> </div>","null","LF","learning/Slide144.JPG","This is a dep:","",""
"","html-keyboard-response","440","395874","0.0-8.0-0.64","LF","yzwvuo5jcw","1280","720","en","ya08ya01","null","","","","learningBlock2","","","","This is a bim:","null","","","","",""
"","image-keyboard-response","441","396203","0.0-8.0-1.64","LF","yzwvuo5jcw","1280","720","en","ya08ya01","null","","","","","","","","learning/Slide145.JPG","null","","","","",""
"","html-keyboard-response","442","397206","0.0-8.0-2.64","LF","yzwvuo5jcw","1280","720","en","ya08ya01","null","","","","learningBlock2","","","","<div style=""font-size:60px;""> </div>","null","LF","learning/Slide145.JPG","This is a bim:","",""
"","html-keyboard-response","443","398209","0.0-8.0-0.65","LF","yzwvuo5jcw","1280","720","en","ya08ya01","null","","","","learningBlock2","","","","This is a tob:","null","","","","",""
"","image-keyboard-response","444","398538","0.0-8.0-1.65","LF","yzwvuo5jcw","1280","720","en","ya08ya01","null","","","","","","","","learning/Slide146.JPG","null","","","","",""
"","html-keyboard-response","445","399541","0.0-8.0-2.65","LF","yzwvuo5jcw","1280","720","en","ya08ya01","null","","","","learningBlock2","","","","<div style=""font-size:60px;""> </div>","null","LF","learning/Slide146.JPG","This is a tob:","",""
"","html-keyboard-response","446","400543","0.0-8.0-0.66","LF","yzwvuo5jcw","1280","720","en","ya08ya01","null","","","","learningBlock2","","","","This is a wug:","null","","","","",""
"","image-keyboard-response","447","400871","0.0-8.0-1.66","LF","yzwvuo5jcw","1280","720","en","ya08ya01","null","","","","","","","","learning/Slide147.JPG","null","","","","",""
"","html-keyboard-response","448","401873","0.0-8.0-2.66","LF","yzwvuo5jcw","1280","720","en","ya08ya01","null","","","","learningBlock2","","","","<div style=""font-size:60px;""> </div>","null","LF","learning/Slide147.JPG","This is a wug:","",""
"","html-keyboard-response","449","402875","0.0-8.0-0.67","LF","yzwvuo5jcw","1280","720","en","ya08ya01","null","","","","learningBlock2","","","","This is a bim:","null","","","","",""
"","image-keyboard-response","450","403203","0.0-8.0-1.67","LF","yzwvuo5jcw","1280","720","en","ya08ya01","null","","","","","","","","learning/Slide148.JPG","null","","","","",""
"","html-keyboard-response","451","404205","0.0-8.0-2.67","LF","yzwvuo5jcw","1280","720","en","ya08ya01","null","","","","learningBlock2","","","","<div style=""font-size:60px;""> </div>","null","LF","learning/Slide148.JPG","This is a bim:","",""
"","html-keyboard-response","452","405209","0.0-8.0-0.68","LF","yzwvuo5jcw","1280","720","en","ya08ya01","null","","","","learningBlock2","","","","This is a dep:","null","","","","",""
"","image-keyboard-response","453","405536","0.0-8.0-1.68","LF","yzwvuo5jcw","1280","720","en","ya08ya01","null","","","","","","","","learning/Slide149.JPG","null","","","","",""
"","html-keyboard-response","454","406540","0.0-8.0-2.68","LF","yzwvuo5jcw","1280","720","en","ya08ya01","null","","","","learningBlock2","","","","<div style=""font-size:60px;""> </div>","null","LF","learning/Slide149.JPG","This is a dep:","",""
"","html-keyboard-response","455","407541","0.0-8.0-0.69","LF","yzwvuo5jcw","1280","720","en","ya08ya01","null","","","","learningBlock2","","","","This is a wug:","null","","","","",""
"","image-keyboard-response","456","407869","0.0-8.0-1.69","LF","yzwvuo5jcw","1280","720","en","ya08ya01","null","","","","","","","","learning/Slide150.JPG","null","","","","",""
"","html-keyboard-response","457","408871","0.0-8.0-2.69","LF","yzwvuo5jcw","1280","720","en","ya08ya01","null","","","","learningBlock2","","","","<div style=""font-size:60px;""> </div>","null","LF","learning/Slide150.JPG","This is a wug:","",""
"","html-keyboard-response","458","409873","0.0-8.0-0.70","LF","yzwvuo5jcw","1280","720","en","ya08ya01","null","","","","learningBlock2","","","","This is a dep:","null","","","","",""
"","image-keyboard-response","459","410201","0.0-8.0-1.70","LF","yzwvuo5jcw","1280","720","en","ya08ya01","null","","","","","","","","learning/Slide151.JPG","null","","","","",""
"","html-keyboard-response","460","411204","0.0-8.0-2.70","LF","yzwvuo5jcw","1280","720","en","ya08ya01","null","","","","learningBlock2","","","","<div style=""font-size:60px;""> </div>","null","LF","learning/Slide151.JPG","This is a dep:","",""
"","html-keyboard-response","461","412209","0.0-8.0-0.71","LF","yzwvuo5jcw","1280","720","en","ya08ya01","null","","","","learningBlock2","","","","This is a wug:","null","","","","",""
"","image-keyboard-response","462","412539","0.0-8.0-1.71","LF","yzwvuo5jcw","1280","720","en","ya08ya01","null","","","","","","","","learning/Slide152.JPG","null","","","","",""
"","html-keyboard-response","463","413541","0.0-8.0-2.71","LF","yzwvuo5jcw","1280","720","en","ya08ya01","null","","","","learningBlock2","","","","<div style=""font-size:60px;""> </div>","null","LF","learning/Slide152.JPG","This is a wug:","",""
"","html-keyboard-response","464","414546","0.0-8.0-0.72","LF","yzwvuo5jcw","1280","720","en","ya08ya01","null","","","","learningBlock2","","","","This is a bim:","null","","","","",""
"","image-keyboard-response","465","414874","0.0-8.0-1.72","LF","yzwvuo5jcw","1280","720","en","ya08ya01","null","","","","","","","","learning/Slide153.JPG","null","","","","",""
"","html-keyboard-response","466","415910","0.0-8.0-2.72","LF","yzwvuo5jcw","1280","720","en","ya08ya01","null","","","","learningBlock2","","","","<div style=""font-size:60px;""> </div>","null","LF","learning/Slide153.JPG","This is a bim:","",""
"","html-keyboard-response","467","416913","0.0-8.0-0.73","LF","yzwvuo5jcw","1280","720","en","ya08ya01","null","","","","learningBlock2","","","","This is a tob:","null","","","","",""
"","image-keyboard-response","468","417244","0.0-8.0-1.73","LF","yzwvuo5jcw","1280","720","en","ya08ya01","null","","","","","","","","learning/Slide154.JPG","null","","","","",""
"","html-keyboard-response","469","418248","0.0-8.0-2.73","LF","yzwvuo5jcw","1280","720","en","ya08ya01","null","","","","learningBlock2","","","","<div style=""font-size:60px;""> </div>","null","LF","learning/Slide154.JPG","This is a tob:","",""
"","html-keyboard-response","470","419254","0.0-8.0-0.74","LF","yzwvuo5jcw","1280","720","en","ya08ya01","null","","","","learningBlock2","","","","This is a dep:","null","","","","",""
"","image-keyboard-response","471","419591","0.0-8.0-1.74","LF","yzwvuo5jcw","1280","720","en","ya08ya01","null","","","","","","","","learning/Slide155.JPG","null","","","","",""
"","html-keyboard-response","472","420594","0.0-8.0-2.74","LF","yzwvuo5jcw","1280","720","en","ya08ya01","null","","","","learningBlock2","","","","<div style=""font-size:60px;""> </div>","null","LF","learning/Slide155.JPG","This is a dep:","",""
"","html-keyboard-response","473","421597","0.0-8.0-0.75","LF","yzwvuo5jcw","1280","720","en","ya08ya01","null","","","","learningBlock2","","","","This is a bim:","null","","","","",""
"","image-keyboard-response","474","421925","0.0-8.0-1.75","LF","yzwvuo5jcw","1280","720","en","ya08ya01","null","","","","","","","","learning/Slide156.JPG","null","","","","",""
"","html-keyboard-response","475","422928","0.0-8.0-2.75","LF","yzwvuo5jcw","1280","720","en","ya08ya01","null","","","","learningBlock2","","","","<div style=""font-size:60px;""> </div>","null","LF","learning/Slide156.JPG","This is a bim:","",""
"","html-keyboard-response","476","423932","0.0-8.0-0.76","LF","yzwvuo5jcw","1280","720","en","ya08ya01","null","","","","learningBlock2","","","","This is a dep:","null","","","","",""
"","image-keyboard-response","477","424260","0.0-8.0-1.76","LF","yzwvuo5jcw","1280","720","en","ya08ya01","null","","","","","","","","learning/Slide157.JPG","null","","","","",""
"","html-keyboard-response","478","425263","0.0-8.0-2.76","LF","yzwvuo5jcw","1280","720","en","ya08ya01","null","","","","learningBlock2","","","","<div style=""font-size:60px;""> </div>","null","LF","learning/Slide157.JPG","This is a dep:","",""
"","html-keyboard-response","479","426264","0.0-8.0-0.77","LF","yzwvuo5jcw","1280","720","en","ya08ya01","null","","","","learningBlock2","","","","This is a tob:","null","","","","",""
"","image-keyboard-response","480","426593","0.0-8.0-1.77","LF","yzwvuo5jcw","1280","720","en","ya08ya01","null","","","","","","","","learning/Slide158.JPG","null","","","","",""
"","html-keyboard-response","481","427595","0.0-8.0-2.77","LF","yzwvuo5jcw","1280","720","en","ya08ya01","null","","","","learningBlock2","","","","<div style=""font-size:60px;""> </div>","null","LF","learning/Slide158.JPG","This is a tob:","",""
"","html-keyboard-response","482","428598","0.0-8.0-0.78","LF","yzwvuo5jcw","1280","720","en","ya08ya01","null","","","","learningBlock2","","","","This is a dep:","null","","","","",""
"","image-keyboard-response","483","428927","0.0-8.0-1.78","LF","yzwvuo5jcw","1280","720","en","ya08ya01","null","","","","","","","","learning/Slide159.JPG","null","","","","",""
"","html-keyboard-response","484","429930","0.0-8.0-2.78","LF","yzwvuo5jcw","1280","720","en","ya08ya01","null","","","","learningBlock2","","","","<div style=""font-size:60px;""> </div>","null","LF","learning/Slide159.JPG","This is a dep:","",""
"","html-keyboard-response","485","430932","0.0-8.0-0.79","LF","yzwvuo5jcw","1280","720","en","ya08ya01","null","","","","learningBlock2","","","","This is a wug:","null","","","","",""
"","image-keyboard-response","486","431261","0.0-8.0-1.79","LF","yzwvuo5jcw","1280","720","en","ya08ya01","null","","","","","","","","learning/Slide160.JPG","null","","","","",""
"","html-keyboard-response","487","432264","0.0-8.0-2.79","LF","yzwvuo5jcw","1280","720","en","ya08ya01","null","","","","learningBlock2","","","","<div style=""font-size:60px;""> </div>","null","LF","learning/Slide160.JPG","This is a wug:","",""
"","resize2","488","434398","0.0-9.0","LF","yzwvuo5jcw","1280","720","en","ya08ya01","","","","","","","104","1.04","","","","","","",""
"","instructions","489","436155","0.0-10.0","LF","yzwvuo5jcw","1280","720","en","ya08ya01","NA","","","[{""page_index"":0,""viewing_time"":1755.879999953322}]","instructions","","","","","","","","","",""
