"success","trial_type","trial_index","time_elapsed","internal_node_id","condition","subject","screen_width","screen_height","language","codeword","rt","responses","url","view_history","test_part","final_height_px","final_width_px","scale_factor","stimulus","key_press","learningType","presentedImage","presentedLabel","button_pressed","response"
"true","fullscreen","0","6581","0.0-0.0","LF","yjk8vlfumr","2560","1080","de","dt06as01","","","","","","","","","","","","","","",""
"","survey-html-form","1","15712","0.0-1.0","LF","yjk8vlfumr","2560","1080","de","dt06as01","9129.810000013094","{""language"":""de""}","","","","","","","","","","","","",""
"","external-html","2","236541","0.0-2.0-0.0","LF","yjk8vlfumr","2560","1080","de","dt06as01","220740.5649999855","","text/information.html","","","","","","","","","","","",""
"","external-html","3","256734","0.0-2.0-1.0","LF","yjk8vlfumr","2560","1080","de","dt06as01","20123.590000002878","","text/consent.html","","","","","","","","","","","",""
"","survey-html-form","4","366135","0.0-2.0-2.0","LF","yjk8vlfumr","2560","1080","de","dt06as01","109404.63499998441","{""codeword_enter"":""dt06as01""}","","","","","","","","","","","","",""
"","instructions","5","384653","0.0-4.0","LF","yjk8vlfumr","2560","1080","de","dt06as01","NA","","","[{""page_index"":0,""viewing_time"":2916.7250000173226},{""page_index"":1,""viewing_time"":14096.105000004172}]","instructions","","","","","","","","","",""
"","resize","6","413372","0.0-5.0","LF","yjk8vlfumr","2560","1080","de","dt06as01","","","","","","","104","0.6603174603174603","","","","","","",""
"","html-keyboard-response","7","414379","0.0-6.0-0.0","LF","yjk8vlfumr","2560","1080","de","dt06as01","null","","","","learningBlock1","","","","This is a tob:","null","","","","",""
"","image-keyboard-response","8","414710","0.0-6.0-1.0","LF","yjk8vlfumr","2560","1080","de","dt06as01","null","","","","","","","","learning/Slide1.JPG","null","","","","",""
"","html-keyboard-response","9","415712","0.0-6.0-2.0","LF","yjk8vlfumr","2560","1080","de","dt06as01","null","","","","learningBlock1","","","","<div style=""font-size:60px;""> </div>","null","LF","learning/Slide1.JPG","This is a tob:","",""
"","html-keyboard-response","10","416715","0.0-6.0-0.1","LF","yjk8vlfumr","2560","1080","de","dt06as01","null","","","","learningBlock1","","","","This is a wug:","null","","","","",""
"","image-keyboard-response","11","417045","0.0-6.0-1.1","LF","yjk8vlfumr","2560","1080","de","dt06as01","null","","","","","","","","learning/Slide2.JPG","null","","","","",""
"","html-keyboard-response","12","418048","0.0-6.0-2.1","LF","yjk8vlfumr","2560","1080","de","dt06as01","null","","","","learningBlock1","","","","<div style=""font-size:60px;""> </div>","null","LF","learning/Slide2.JPG","This is a wug:","",""
"","html-keyboard-response","13","419051","0.0-6.0-0.2","LF","yjk8vlfumr","2560","1080","de","dt06as01","null","","","","learningBlock1","","","","This is a bim:","null","","","","",""
"","image-keyboard-response","14","419381","0.0-6.0-1.2","LF","yjk8vlfumr","2560","1080","de","dt06as01","null","","","","","","","","learning/Slide3.JPG","null","","","","",""
"","html-keyboard-response","15","420384","0.0-6.0-2.2","LF","yjk8vlfumr","2560","1080","de","dt06as01","null","","","","learningBlock1","","","","<div style=""font-size:60px;""> </div>","null","LF","learning/Slide3.JPG","This is a bim:","",""
"","html-keyboard-response","16","421385","0.0-6.0-0.3","LF","yjk8vlfumr","2560","1080","de","dt06as01","null","","","","learningBlock1","","","","This is a dep:","null","","","","",""
"","image-keyboard-response","17","421712","0.0-6.0-1.3","LF","yjk8vlfumr","2560","1080","de","dt06as01","null","","","","","","","","learning/Slide4.JPG","null","","","","",""
"","html-keyboard-response","18","422714","0.0-6.0-2.3","LF","yjk8vlfumr","2560","1080","de","dt06as01","null","","","","learningBlock1","","","","<div style=""font-size:60px;""> </div>","null","LF","learning/Slide4.JPG","This is a dep:","",""
"","html-keyboard-response","19","423717","0.0-6.0-0.4","LF","yjk8vlfumr","2560","1080","de","dt06as01","null","","","","learningBlock1","","","","This is a wug:","null","","","","",""
"","image-keyboard-response","20","424048","0.0-6.0-1.4","LF","yjk8vlfumr","2560","1080","de","dt06as01","null","","","","","","","","learning/Slide5.JPG","null","","","","",""
"","html-keyboard-response","21","425050","0.0-6.0-2.4","LF","yjk8vlfumr","2560","1080","de","dt06as01","null","","","","learningBlock1","","","","<div style=""font-size:60px;""> </div>","null","LF","learning/Slide5.JPG","This is a wug:","",""
"","html-keyboard-response","22","426053","0.0-6.0-0.5","LF","yjk8vlfumr","2560","1080","de","dt06as01","null","","","","learningBlock1","","","","This is a dep:","null","","","","",""
"","image-keyboard-response","23","426384","0.0-6.0-1.5","LF","yjk8vlfumr","2560","1080","de","dt06as01","null","","","","","","","","learning/Slide6.JPG","null","","","","",""
"","html-keyboard-response","24","427386","0.0-6.0-2.5","LF","yjk8vlfumr","2560","1080","de","dt06as01","null","","","","learningBlock1","","","","<div style=""font-size:60px;""> </div>","null","LF","learning/Slide6.JPG","This is a dep:","",""
"","html-keyboard-response","25","428389","0.0-6.0-0.6","LF","yjk8vlfumr","2560","1080","de","dt06as01","null","","","","learningBlock1","","","","This is a wug:","null","","","","",""
"","image-keyboard-response","26","428720","0.0-6.0-1.6","LF","yjk8vlfumr","2560","1080","de","dt06as01","null","","","","","","","","learning/Slide7.JPG","null","","","","",""
"","html-keyboard-response","27","429724","0.0-6.0-2.6","LF","yjk8vlfumr","2560","1080","de","dt06as01","null","","","","learningBlock1","","","","<div style=""font-size:60px;""> </div>","null","LF","learning/Slide7.JPG","This is a wug:","",""
"","html-keyboard-response","28","430730","0.0-6.0-0.7","LF","yjk8vlfumr","2560","1080","de","dt06as01","null","","","","learningBlock1","","","","This is a bim:","null","","","","",""
"","image-keyboard-response","29","431061","0.0-6.0-1.7","LF","yjk8vlfumr","2560","1080","de","dt06as01","null","","","","","","","","learning/Slide8.JPG","null","","","","",""
"","html-keyboard-response","30","432063","0.0-6.0-2.7","LF","yjk8vlfumr","2560","1080","de","dt06as01","null","","","","learningBlock1","","","","<div style=""font-size:60px;""> </div>","null","LF","learning/Slide8.JPG","This is a bim:","",""
"","html-keyboard-response","31","433066","0.0-6.0-0.8","LF","yjk8vlfumr","2560","1080","de","dt06as01","null","","","","learningBlock1","","","","This is a wug:","null","","","","",""
"","image-keyboard-response","32","433397","0.0-6.0-1.8","LF","yjk8vlfumr","2560","1080","de","dt06as01","null","","","","","","","","learning/Slide9.JPG","null","","","","",""
"","html-keyboard-response","33","434402","0.0-6.0-2.8","LF","yjk8vlfumr","2560","1080","de","dt06as01","null","","","","learningBlock1","","","","<div style=""font-size:60px;""> </div>","null","LF","learning/Slide9.JPG","This is a wug:","",""
"","html-keyboard-response","34","435406","0.0-6.0-0.9","LF","yjk8vlfumr","2560","1080","de","dt06as01","null","","","","learningBlock1","","","","This is a dep:","null","","","","",""
"","image-keyboard-response","35","435733","0.0-6.0-1.9","LF","yjk8vlfumr","2560","1080","de","dt06as01","null","","","","","","","","learning/Slide10.JPG","null","","","","",""
"","html-keyboard-response","36","436735","0.0-6.0-2.9","LF","yjk8vlfumr","2560","1080","de","dt06as01","null","","","","learningBlock1","","","","<div style=""font-size:60px;""> </div>","null","LF","learning/Slide10.JPG","This is a dep:","",""
"","html-keyboard-response","37","437738","0.0-6.0-0.10","LF","yjk8vlfumr","2560","1080","de","dt06as01","null","","","","learningBlock1","","","","This is a tob:","null","","","","",""
"","image-keyboard-response","38","438068","0.0-6.0-1.10","LF","yjk8vlfumr","2560","1080","de","dt06as01","null","","","","","","","","learning/Slide11.JPG","null","","","","",""
"","html-keyboard-response","39","439071","0.0-6.0-2.10","LF","yjk8vlfumr","2560","1080","de","dt06as01","null","","","","learningBlock1","","","","<div style=""font-size:60px;""> </div>","null","LF","learning/Slide11.JPG","This is a tob:","",""
"","html-keyboard-response","40","440074","0.0-6.0-0.11","LF","yjk8vlfumr","2560","1080","de","dt06as01","null","","","","learningBlock1","","","","This is a dep:","null","","","","",""
"","image-keyboard-response","41","440404","0.0-6.0-1.11","LF","yjk8vlfumr","2560","1080","de","dt06as01","null","","","","","","","","learning/Slide12.JPG","null","","","","",""
"","html-keyboard-response","42","441407","0.0-6.0-2.11","LF","yjk8vlfumr","2560","1080","de","dt06as01","null","","","","learningBlock1","","","","<div style=""font-size:60px;""> </div>","null","LF","learning/Slide12.JPG","This is a dep:","",""
"","html-keyboard-response","43","442410","0.0-6.0-0.12","LF","yjk8vlfumr","2560","1080","de","dt06as01","null","","","","learningBlock1","","","","This is a bim:","null","","","","",""
"","image-keyboard-response","44","442741","0.0-6.0-1.12","LF","yjk8vlfumr","2560","1080","de","dt06as01","null","","","","","","","","learning/Slide13.JPG","null","","","","",""
"","html-keyboard-response","45","443746","0.0-6.0-2.12","LF","yjk8vlfumr","2560","1080","de","dt06as01","null","","","","learningBlock1","","","","<div style=""font-size:60px;""> </div>","null","LF","learning/Slide13.JPG","This is a bim:","",""
"","html-keyboard-response","46","444752","0.0-6.0-0.13","LF","yjk8vlfumr","2560","1080","de","dt06as01","null","","","","learningBlock1","","","","This is a wug:","null","","","","",""
"","image-keyboard-response","47","445082","0.0-6.0-1.13","LF","yjk8vlfumr","2560","1080","de","dt06as01","null","","","","","","","","learning/Slide14.JPG","null","","","","",""
"","html-keyboard-response","48","446083","0.0-6.0-2.13","LF","yjk8vlfumr","2560","1080","de","dt06as01","null","","","","learningBlock1","","","","<div style=""font-size:60px;""> </div>","null","LF","learning/Slide14.JPG","This is a wug:","",""
"","html-keyboard-response","49","447087","0.0-6.0-0.14","LF","yjk8vlfumr","2560","1080","de","dt06as01","null","","","","learningBlock1","","","","This is a tob:","null","","","","",""
"","image-keyboard-response","50","447417","0.0-6.0-1.14","LF","yjk8vlfumr","2560","1080","de","dt06as01","null","","","","","","","","learning/Slide15.JPG","null","","","","",""
"","html-keyboard-response","51","448420","0.0-6.0-2.14","LF","yjk8vlfumr","2560","1080","de","dt06as01","null","","","","learningBlock1","","","","<div style=""font-size:60px;""> </div>","null","LF","learning/Slide15.JPG","This is a tob:","",""
"","html-keyboard-response","52","449422","0.0-6.0-0.15","LF","yjk8vlfumr","2560","1080","de","dt06as01","null","","","","learningBlock1","","","","This is a dep:","null","","","","",""
"","image-keyboard-response","53","449753","0.0-6.0-1.15","LF","yjk8vlfumr","2560","1080","de","dt06as01","null","","","","","","","","learning/Slide16.JPG","null","","","","",""
"","html-keyboard-response","54","450755","0.0-6.0-2.15","LF","yjk8vlfumr","2560","1080","de","dt06as01","null","","","","learningBlock1","","","","<div style=""font-size:60px;""> </div>","null","LF","learning/Slide16.JPG","This is a dep:","",""
"","html-keyboard-response","55","451759","0.0-6.0-0.16","LF","yjk8vlfumr","2560","1080","de","dt06as01","null","","","","learningBlock1","","","","This is a bim:","null","","","","",""
"","image-keyboard-response","56","452089","0.0-6.0-1.16","LF","yjk8vlfumr","2560","1080","de","dt06as01","null","","","","","","","","learning/Slide17.JPG","null","","","","",""
"","html-keyboard-response","57","453094","0.0-6.0-2.16","LF","yjk8vlfumr","2560","1080","de","dt06as01","null","","","","learningBlock1","","","","<div style=""font-size:60px;""> </div>","null","LF","learning/Slide17.JPG","This is a bim:","",""
"","html-keyboard-response","58","454100","0.0-6.0-0.17","LF","yjk8vlfumr","2560","1080","de","dt06as01","null","","","","learningBlock1","","","","This is a tob:","null","","","","",""
"","image-keyboard-response","59","454431","0.0-6.0-1.17","LF","yjk8vlfumr","2560","1080","de","dt06as01","null","","","","","","","","learning/Slide18.JPG","null","","","","",""
"","html-keyboard-response","60","455433","0.0-6.0-2.17","LF","yjk8vlfumr","2560","1080","de","dt06as01","null","","","","learningBlock1","","","","<div style=""font-size:60px;""> </div>","null","LF","learning/Slide18.JPG","This is a tob:","",""
"","html-keyboard-response","61","456436","0.0-6.0-0.18","LF","yjk8vlfumr","2560","1080","de","dt06as01","null","","","","learningBlock1","","","","This is a wug:","null","","","","",""
"","image-keyboard-response","62","456768","0.0-6.0-1.18","LF","yjk8vlfumr","2560","1080","de","dt06as01","null","","","","","","","","learning/Slide19.JPG","null","","","","",""
"","html-keyboard-response","63","457769","0.0-6.0-2.18","LF","yjk8vlfumr","2560","1080","de","dt06as01","null","","","","learningBlock1","","","","<div style=""font-size:60px;""> </div>","null","LF","learning/Slide19.JPG","This is a wug:","",""
"","html-keyboard-response","64","458772","0.0-6.0-0.19","LF","yjk8vlfumr","2560","1080","de","dt06as01","null","","","","learningBlock1","","","","This is a bim:","null","","","","",""
"","image-keyboard-response","65","459102","0.0-6.0-1.19","LF","yjk8vlfumr","2560","1080","de","dt06as01","null","","","","","","","","learning/Slide20.JPG","null","","","","",""
"","html-keyboard-response","66","460105","0.0-6.0-2.19","LF","yjk8vlfumr","2560","1080","de","dt06as01","null","","","","learningBlock1","","","","<div style=""font-size:60px;""> </div>","null","LF","learning/Slide20.JPG","This is a bim:","",""
"","html-keyboard-response","67","461108","0.0-6.0-0.20","LF","yjk8vlfumr","2560","1080","de","dt06as01","null","","","","learningBlock1","","","","This is a dep:","null","","","","",""
"","image-keyboard-response","68","461435","0.0-6.0-1.20","LF","yjk8vlfumr","2560","1080","de","dt06as01","null","","","","","","","","learning/Slide21.JPG","null","","","","",""
"","html-keyboard-response","69","462441","0.0-6.0-2.20","LF","yjk8vlfumr","2560","1080","de","dt06as01","null","","","","learningBlock1","","","","<div style=""font-size:60px;""> </div>","null","LF","learning/Slide21.JPG","This is a dep:","",""
"","html-keyboard-response","70","463443","0.0-6.0-0.21","LF","yjk8vlfumr","2560","1080","de","dt06as01","null","","","","learningBlock1","","","","This is a bim:","null","","","","",""
"","image-keyboard-response","71","463774","0.0-6.0-1.21","LF","yjk8vlfumr","2560","1080","de","dt06as01","null","","","","","","","","learning/Slide22.JPG","null","","","","",""
"","html-keyboard-response","72","464777","0.0-6.0-2.21","LF","yjk8vlfumr","2560","1080","de","dt06as01","null","","","","learningBlock1","","","","<div style=""font-size:60px;""> </div>","null","LF","learning/Slide22.JPG","This is a bim:","",""
"","html-keyboard-response","73","465779","0.0-6.0-0.22","LF","yjk8vlfumr","2560","1080","de","dt06as01","null","","","","learningBlock1","","","","This is a tob:","null","","","","",""
"","image-keyboard-response","74","466110","0.0-6.0-1.22","LF","yjk8vlfumr","2560","1080","de","dt06as01","null","","","","","","","","learning/Slide23.JPG","null","","","","",""
"","html-keyboard-response","75","467114","0.0-6.0-2.22","LF","yjk8vlfumr","2560","1080","de","dt06as01","null","","","","learningBlock1","","","","<div style=""font-size:60px;""> </div>","null","LF","learning/Slide23.JPG","This is a tob:","",""
"","html-keyboard-response","76","468115","0.0-6.0-0.23","LF","yjk8vlfumr","2560","1080","de","dt06as01","null","","","","learningBlock1","","","","This is a wug:","null","","","","",""
"","image-keyboard-response","77","468448","0.0-6.0-1.23","LF","yjk8vlfumr","2560","1080","de","dt06as01","null","","","","","","","","learning/Slide24.JPG","null","","","","",""
"","html-keyboard-response","78","469450","0.0-6.0-2.23","LF","yjk8vlfumr","2560","1080","de","dt06as01","null","","","","learningBlock1","","","","<div style=""font-size:60px;""> </div>","null","LF","learning/Slide24.JPG","This is a wug:","",""
"","html-keyboard-response","79","470451","0.0-6.0-0.24","LF","yjk8vlfumr","2560","1080","de","dt06as01","null","","","","learningBlock1","","","","This is a dep:","null","","","","",""
"","image-keyboard-response","80","470782","0.0-6.0-1.24","LF","yjk8vlfumr","2560","1080","de","dt06as01","null","","","","","","","","learning/Slide25.JPG","null","","","","",""
"","html-keyboard-response","81","471784","0.0-6.0-2.24","LF","yjk8vlfumr","2560","1080","de","dt06as01","null","","","","learningBlock1","","","","<div style=""font-size:60px;""> </div>","null","LF","learning/Slide25.JPG","This is a dep:","",""
"","html-keyboard-response","82","472787","0.0-6.0-0.25","LF","yjk8vlfumr","2560","1080","de","dt06as01","null","","","","learningBlock1","","","","This is a wug:","null","","","","",""
"","image-keyboard-response","83","473123","0.0-6.0-1.25","LF","yjk8vlfumr","2560","1080","de","dt06as01","null","","","","","","","","learning/Slide26.JPG","null","","","","",""
"","html-keyboard-response","84","474126","0.0-6.0-2.25","LF","yjk8vlfumr","2560","1080","de","dt06as01","null","","","","learningBlock1","","","","<div style=""font-size:60px;""> </div>","null","LF","learning/Slide26.JPG","This is a wug:","",""
"","html-keyboard-response","85","475128","0.0-6.0-0.26","LF","yjk8vlfumr","2560","1080","de","dt06as01","null","","","","learningBlock1","","","","This is a bim:","null","","","","",""
"","image-keyboard-response","86","475456","0.0-6.0-1.26","LF","yjk8vlfumr","2560","1080","de","dt06as01","null","","","","","","","","learning/Slide27.JPG","null","","","","",""
"","html-keyboard-response","87","476462","0.0-6.0-2.26","LF","yjk8vlfumr","2560","1080","de","dt06as01","null","","","","learningBlock1","","","","<div style=""font-size:60px;""> </div>","null","LF","learning/Slide27.JPG","This is a bim:","",""
"","html-keyboard-response","88","477464","0.0-6.0-0.27","LF","yjk8vlfumr","2560","1080","de","dt06as01","null","","","","learningBlock1","","","","This is a dep:","null","","","","",""
"","image-keyboard-response","89","477795","0.0-6.0-1.27","LF","yjk8vlfumr","2560","1080","de","dt06as01","null","","","","","","","","learning/Slide28.JPG","null","","","","",""
"","html-keyboard-response","90","478797","0.0-6.0-2.27","LF","yjk8vlfumr","2560","1080","de","dt06as01","null","","","","learningBlock1","","","","<div style=""font-size:60px;""> </div>","null","LF","learning/Slide28.JPG","This is a dep:","",""
"","html-keyboard-response","91","479800","0.0-6.0-0.28","LF","yjk8vlfumr","2560","1080","de","dt06as01","null","","","","learningBlock1","","","","This is a tob:","null","","","","",""
"","image-keyboard-response","92","480134","0.0-6.0-1.28","LF","yjk8vlfumr","2560","1080","de","dt06as01","null","","","","","","","","learning/Slide29.JPG","null","","","","",""
"","html-keyboard-response","93","481139","0.0-6.0-2.28","LF","yjk8vlfumr","2560","1080","de","dt06as01","null","","","","learningBlock1","","","","<div style=""font-size:60px;""> </div>","null","LF","learning/Slide29.JPG","This is a tob:","",""
"","html-keyboard-response","94","482145","0.0-6.0-0.29","LF","yjk8vlfumr","2560","1080","de","dt06as01","null","","","","learningBlock1","","","","This is a dep:","null","","","","",""
"","image-keyboard-response","95","482472","0.0-6.0-1.29","LF","yjk8vlfumr","2560","1080","de","dt06as01","null","","","","","","","","learning/Slide30.JPG","null","","","","",""
"","html-keyboard-response","96","483475","0.0-6.0-2.29","LF","yjk8vlfumr","2560","1080","de","dt06as01","null","","","","learningBlock1","","","","<div style=""font-size:60px;""> </div>","null","LF","learning/Slide30.JPG","This is a dep:","",""
"","html-keyboard-response","97","484477","0.0-6.0-0.30","LF","yjk8vlfumr","2560","1080","de","dt06as01","null","","","","learningBlock1","","","","This is a wug:","null","","","","",""
"","image-keyboard-response","98","484808","0.0-6.0-1.30","LF","yjk8vlfumr","2560","1080","de","dt06as01","null","","","","","","","","learning/Slide31.JPG","null","","","","",""
"","html-keyboard-response","99","485810","0.0-6.0-2.30","LF","yjk8vlfumr","2560","1080","de","dt06as01","null","","","","learningBlock1","","","","<div style=""font-size:60px;""> </div>","null","LF","learning/Slide31.JPG","This is a wug:","",""
"","html-keyboard-response","100","486813","0.0-6.0-0.31","LF","yjk8vlfumr","2560","1080","de","dt06as01","null","","","","learningBlock1","","","","This is a tob:","null","","","","",""
"","image-keyboard-response","101","487144","0.0-6.0-1.31","LF","yjk8vlfumr","2560","1080","de","dt06as01","null","","","","","","","","learning/Slide32.JPG","null","","","","",""
"","html-keyboard-response","102","488146","0.0-6.0-2.31","LF","yjk8vlfumr","2560","1080","de","dt06as01","null","","","","learningBlock1","","","","<div style=""font-size:60px;""> </div>","null","LF","learning/Slide32.JPG","This is a tob:","",""
"","html-keyboard-response","103","489149","0.0-6.0-0.32","LF","yjk8vlfumr","2560","1080","de","dt06as01","null","","","","learningBlock1","","","","This is a bim:","null","","","","",""
"","image-keyboard-response","104","489480","0.0-6.0-1.32","LF","yjk8vlfumr","2560","1080","de","dt06as01","null","","","","","","","","learning/Slide33.JPG","null","","","","",""
"","html-keyboard-response","105","490482","0.0-6.0-2.32","LF","yjk8vlfumr","2560","1080","de","dt06as01","null","","","","learningBlock1","","","","<div style=""font-size:60px;""> </div>","null","LF","learning/Slide33.JPG","This is a bim:","",""
"","html-keyboard-response","106","491485","0.0-6.0-0.33","LF","yjk8vlfumr","2560","1080","de","dt06as01","null","","","","learningBlock1","","","","This is a tob:","null","","","","",""
"","image-keyboard-response","107","491816","0.0-6.0-1.33","LF","yjk8vlfumr","2560","1080","de","dt06as01","null","","","","","","","","learning/Slide34.JPG","null","","","","",""
"","html-keyboard-response","108","492818","0.0-6.0-2.33","LF","yjk8vlfumr","2560","1080","de","dt06as01","null","","","","learningBlock1","","","","<div style=""font-size:60px;""> </div>","null","LF","learning/Slide34.JPG","This is a tob:","",""
"","html-keyboard-response","109","493821","0.0-6.0-0.34","LF","yjk8vlfumr","2560","1080","de","dt06as01","null","","","","learningBlock1","","","","This is a bim:","null","","","","",""
"","image-keyboard-response","110","494151","0.0-6.0-1.34","LF","yjk8vlfumr","2560","1080","de","dt06as01","null","","","","","","","","learning/Slide35.JPG","null","","","","",""
"","html-keyboard-response","111","495154","0.0-6.0-2.34","LF","yjk8vlfumr","2560","1080","de","dt06as01","null","","","","learningBlock1","","","","<div style=""font-size:60px;""> </div>","null","LF","learning/Slide35.JPG","This is a bim:","",""
"","html-keyboard-response","112","496157","0.0-6.0-0.35","LF","yjk8vlfumr","2560","1080","de","dt06as01","null","","","","learningBlock1","","","","This is a dep:","null","","","","",""
"","image-keyboard-response","113","496491","0.0-6.0-1.35","LF","yjk8vlfumr","2560","1080","de","dt06as01","null","","","","","","","","learning/Slide36.JPG","null","","","","",""
"","html-keyboard-response","114","497492","0.0-6.0-2.35","LF","yjk8vlfumr","2560","1080","de","dt06as01","null","","","","learningBlock1","","","","<div style=""font-size:60px;""> </div>","null","LF","learning/Slide36.JPG","This is a dep:","",""
"","html-keyboard-response","115","498498","0.0-6.0-0.36","LF","yjk8vlfumr","2560","1080","de","dt06as01","null","","","","learningBlock1","","","","This is a tob:","null","","","","",""
"","image-keyboard-response","116","498829","0.0-6.0-1.36","LF","yjk8vlfumr","2560","1080","de","dt06as01","null","","","","","","","","learning/Slide37.JPG","null","","","","",""
"","html-keyboard-response","117","499831","0.0-6.0-2.36","LF","yjk8vlfumr","2560","1080","de","dt06as01","null","","","","learningBlock1","","","","<div style=""font-size:60px;""> </div>","null","LF","learning/Slide37.JPG","This is a tob:","",""
"","html-keyboard-response","118","500834","0.0-6.0-0.37","LF","yjk8vlfumr","2560","1080","de","dt06as01","null","","","","learningBlock1","","","","This is a wug:","null","","","","",""
"","image-keyboard-response","119","501168","0.0-6.0-1.37","LF","yjk8vlfumr","2560","1080","de","dt06as01","null","","","","","","","","learning/Slide38.JPG","null","","","","",""
"","html-keyboard-response","120","502172","0.0-6.0-2.37","LF","yjk8vlfumr","2560","1080","de","dt06as01","null","","","","learningBlock1","","","","<div style=""font-size:60px;""> </div>","null","LF","learning/Slide38.JPG","This is a wug:","",""
"","html-keyboard-response","121","503174","0.0-6.0-0.38","LF","yjk8vlfumr","2560","1080","de","dt06as01","null","","","","learningBlock1","","","","This is a bim:","null","","","","",""
"","image-keyboard-response","122","503506","0.0-6.0-1.38","LF","yjk8vlfumr","2560","1080","de","dt06as01","null","","","","","","","","learning/Slide39.JPG","null","","","","",""
"","html-keyboard-response","123","504508","0.0-6.0-2.38","LF","yjk8vlfumr","2560","1080","de","dt06as01","null","","","","learningBlock1","","","","<div style=""font-size:60px;""> </div>","null","LF","learning/Slide39.JPG","This is a bim:","",""
"","html-keyboard-response","124","505511","0.0-6.0-0.39","LF","yjk8vlfumr","2560","1080","de","dt06as01","null","","","","learningBlock1","","","","This is a tob:","null","","","","",""
"","image-keyboard-response","125","505842","0.0-6.0-1.39","LF","yjk8vlfumr","2560","1080","de","dt06as01","null","","","","","","","","learning/Slide40.JPG","null","","","","",""
"","html-keyboard-response","126","506844","0.0-6.0-2.39","LF","yjk8vlfumr","2560","1080","de","dt06as01","null","","","","learningBlock1","","","","<div style=""font-size:60px;""> </div>","null","LF","learning/Slide40.JPG","This is a tob:","",""
"","html-keyboard-response","127","507847","0.0-6.0-0.40","LF","yjk8vlfumr","2560","1080","de","dt06as01","null","","","","learningBlock1","","","","This is a bim:","null","","","","",""
"","image-keyboard-response","128","508179","0.0-6.0-1.40","LF","yjk8vlfumr","2560","1080","de","dt06as01","null","","","","","","","","learning/Slide41.JPG","null","","","","",""
"","html-keyboard-response","129","509180","0.0-6.0-2.40","LF","yjk8vlfumr","2560","1080","de","dt06as01","null","","","","learningBlock1","","","","<div style=""font-size:60px;""> </div>","null","LF","learning/Slide41.JPG","This is a bim:","",""
"","html-keyboard-response","130","510185","0.0-6.0-0.41","LF","yjk8vlfumr","2560","1080","de","dt06as01","null","","","","learningBlock1","","","","This is a dep:","null","","","","",""
"","image-keyboard-response","131","510514","0.0-6.0-1.41","LF","yjk8vlfumr","2560","1080","de","dt06as01","null","","","","","","","","learning/Slide42.JPG","null","","","","",""
"","html-keyboard-response","132","511516","0.0-6.0-2.41","LF","yjk8vlfumr","2560","1080","de","dt06as01","null","","","","learningBlock1","","","","<div style=""font-size:60px;""> </div>","null","LF","learning/Slide42.JPG","This is a dep:","",""
"","html-keyboard-response","133","512519","0.0-6.0-0.42","LF","yjk8vlfumr","2560","1080","de","dt06as01","null","","","","learningBlock1","","","","This is a wug:","null","","","","",""
"","image-keyboard-response","134","512850","0.0-6.0-1.42","LF","yjk8vlfumr","2560","1080","de","dt06as01","null","","","","","","","","learning/Slide43.JPG","null","","","","",""
"","html-keyboard-response","135","513854","0.0-6.0-2.42","LF","yjk8vlfumr","2560","1080","de","dt06as01","null","","","","learningBlock1","","","","<div style=""font-size:60px;""> </div>","null","LF","learning/Slide43.JPG","This is a wug:","",""
"","html-keyboard-response","136","514855","0.0-6.0-0.43","LF","yjk8vlfumr","2560","1080","de","dt06as01","null","","","","learningBlock1","","","","This is a bim:","null","","","","",""
"","image-keyboard-response","137","515186","0.0-6.0-1.43","LF","yjk8vlfumr","2560","1080","de","dt06as01","null","","","","","","","","learning/Slide44.JPG","null","","","","",""
"","html-keyboard-response","138","516187","0.0-6.0-2.43","LF","yjk8vlfumr","2560","1080","de","dt06as01","null","","","","learningBlock1","","","","<div style=""font-size:60px;""> </div>","null","LF","learning/Slide44.JPG","This is a bim:","",""
"","html-keyboard-response","139","517188","0.0-6.0-0.44","LF","yjk8vlfumr","2560","1080","de","dt06as01","null","","","","learningBlock1","","","","This is a wug:","null","","","","",""
"","image-keyboard-response","140","517516","0.0-6.0-1.44","LF","yjk8vlfumr","2560","1080","de","dt06as01","null","","","","","","","","learning/Slide45.JPG","null","","","","",""
"","html-keyboard-response","141","518521","0.0-6.0-2.44","LF","yjk8vlfumr","2560","1080","de","dt06as01","null","","","","learningBlock1","","","","<div style=""font-size:60px;""> </div>","null","LF","learning/Slide45.JPG","This is a wug:","",""
"","html-keyboard-response","142","519523","0.0-6.0-0.45","LF","yjk8vlfumr","2560","1080","de","dt06as01","null","","","","learningBlock1","","","","This is a dep:","null","","","","",""
"","image-keyboard-response","143","519852","0.0-6.0-1.45","LF","yjk8vlfumr","2560","1080","de","dt06as01","null","","","","","","","","learning/Slide46.JPG","null","","","","",""
"","html-keyboard-response","144","520853","0.0-6.0-2.45","LF","yjk8vlfumr","2560","1080","de","dt06as01","null","","","","learningBlock1","","","","<div style=""font-size:60px;""> </div>","null","LF","learning/Slide46.JPG","This is a dep:","",""
"","html-keyboard-response","145","521857","0.0-6.0-0.46","LF","yjk8vlfumr","2560","1080","de","dt06as01","null","","","","learningBlock1","","","","This is a tob:","null","","","","",""
"","image-keyboard-response","146","522191","0.0-6.0-1.46","LF","yjk8vlfumr","2560","1080","de","dt06as01","null","","","","","","","","learning/Slide47.JPG","null","","","","",""
"","html-keyboard-response","147","523195","0.0-6.0-2.46","LF","yjk8vlfumr","2560","1080","de","dt06as01","null","","","","learningBlock1","","","","<div style=""font-size:60px;""> </div>","null","LF","learning/Slide47.JPG","This is a tob:","",""
"","html-keyboard-response","148","524198","0.0-6.0-0.47","LF","yjk8vlfumr","2560","1080","de","dt06as01","null","","","","learningBlock1","","","","This is a bim:","null","","","","",""
"","image-keyboard-response","149","524531","0.0-6.0-1.47","LF","yjk8vlfumr","2560","1080","de","dt06as01","null","","","","","","","","learning/Slide48.JPG","null","","","","",""
"","html-keyboard-response","150","525533","0.0-6.0-2.47","LF","yjk8vlfumr","2560","1080","de","dt06as01","null","","","","learningBlock1","","","","<div style=""font-size:60px;""> </div>","null","LF","learning/Slide48.JPG","This is a bim:","",""
"","html-keyboard-response","151","526534","0.0-6.0-0.48","LF","yjk8vlfumr","2560","1080","de","dt06as01","null","","","","learningBlock1","","","","This is a dep:","null","","","","",""
"","image-keyboard-response","152","526865","0.0-6.0-1.48","LF","yjk8vlfumr","2560","1080","de","dt06as01","null","","","","","","","","learning/Slide49.JPG","null","","","","",""
"","html-keyboard-response","153","527867","0.0-6.0-2.48","LF","yjk8vlfumr","2560","1080","de","dt06as01","null","","","","learningBlock1","","","","<div style=""font-size:60px;""> </div>","null","LF","learning/Slide49.JPG","This is a dep:","",""
"","html-keyboard-response","154","528870","0.0-6.0-0.49","LF","yjk8vlfumr","2560","1080","de","dt06as01","null","","","","learningBlock1","","","","This is a tob:","null","","","","",""
"","image-keyboard-response","155","529201","0.0-6.0-1.49","LF","yjk8vlfumr","2560","1080","de","dt06as01","null","","","","","","","","learning/Slide50.JPG","null","","","","",""
"","html-keyboard-response","156","530203","0.0-6.0-2.49","LF","yjk8vlfumr","2560","1080","de","dt06as01","null","","","","learningBlock1","","","","<div style=""font-size:60px;""> </div>","null","LF","learning/Slide50.JPG","This is a tob:","",""
"","html-keyboard-response","157","531206","0.0-6.0-0.50","LF","yjk8vlfumr","2560","1080","de","dt06as01","null","","","","learningBlock1","","","","This is a bim:","null","","","","",""
"","image-keyboard-response","158","531537","0.0-6.0-1.50","LF","yjk8vlfumr","2560","1080","de","dt06as01","null","","","","","","","","learning/Slide51.JPG","null","","","","",""
"","html-keyboard-response","159","532539","0.0-6.0-2.50","LF","yjk8vlfumr","2560","1080","de","dt06as01","null","","","","learningBlock1","","","","<div style=""font-size:60px;""> </div>","null","LF","learning/Slide51.JPG","This is a bim:","",""
"","html-keyboard-response","160","533541","0.0-6.0-0.51","LF","yjk8vlfumr","2560","1080","de","dt06as01","null","","","","learningBlock1","","","","This is a wug:","null","","","","",""
"","image-keyboard-response","161","533873","0.0-6.0-1.51","LF","yjk8vlfumr","2560","1080","de","dt06as01","null","","","","","","","","learning/Slide52.JPG","null","","","","",""
"","html-keyboard-response","162","534875","0.0-6.0-2.51","LF","yjk8vlfumr","2560","1080","de","dt06as01","null","","","","learningBlock1","","","","<div style=""font-size:60px;""> </div>","null","LF","learning/Slide52.JPG","This is a wug:","",""
"","html-keyboard-response","163","535878","0.0-6.0-0.52","LF","yjk8vlfumr","2560","1080","de","dt06as01","null","","","","learningBlock1","","","","This is a tob:","null","","","","",""
"","image-keyboard-response","164","536208","0.0-6.0-1.52","LF","yjk8vlfumr","2560","1080","de","dt06as01","null","","","","","","","","learning/Slide53.JPG","null","","","","",""
"","html-keyboard-response","165","537211","0.0-6.0-2.52","LF","yjk8vlfumr","2560","1080","de","dt06as01","null","","","","learningBlock1","","","","<div style=""font-size:60px;""> </div>","null","LF","learning/Slide53.JPG","This is a tob:","",""
"","html-keyboard-response","166","538215","0.0-6.0-0.53","LF","yjk8vlfumr","2560","1080","de","dt06as01","null","","","","learningBlock1","","","","This is a dep:","null","","","","",""
"","image-keyboard-response","167","538544","0.0-6.0-1.53","LF","yjk8vlfumr","2560","1080","de","dt06as01","null","","","","","","","","learning/Slide54.JPG","null","","","","",""
"","html-keyboard-response","168","539547","0.0-6.0-2.53","LF","yjk8vlfumr","2560","1080","de","dt06as01","null","","","","learningBlock1","","","","<div style=""font-size:60px;""> </div>","null","LF","learning/Slide54.JPG","This is a dep:","",""
"","html-keyboard-response","169","540550","0.0-6.0-0.54","LF","yjk8vlfumr","2560","1080","de","dt06as01","null","","","","learningBlock1","","","","This is a bim:","null","","","","",""
"","image-keyboard-response","170","540882","0.0-6.0-1.54","LF","yjk8vlfumr","2560","1080","de","dt06as01","null","","","","","","","","learning/Slide55.JPG","null","","","","",""
"","html-keyboard-response","171","541883","0.0-6.0-2.54","LF","yjk8vlfumr","2560","1080","de","dt06as01","null","","","","learningBlock1","","","","<div style=""font-size:60px;""> </div>","null","LF","learning/Slide55.JPG","This is a bim:","",""
"","html-keyboard-response","172","542886","0.0-6.0-0.55","LF","yjk8vlfumr","2560","1080","de","dt06as01","null","","","","learningBlock1","","","","This is a tob:","null","","","","",""
"","image-keyboard-response","173","543216","0.0-6.0-1.55","LF","yjk8vlfumr","2560","1080","de","dt06as01","null","","","","","","","","learning/Slide56.JPG","null","","","","",""
"","html-keyboard-response","174","544219","0.0-6.0-2.55","LF","yjk8vlfumr","2560","1080","de","dt06as01","null","","","","learningBlock1","","","","<div style=""font-size:60px;""> </div>","null","LF","learning/Slide56.JPG","This is a tob:","",""
"","html-keyboard-response","175","545221","0.0-6.0-0.56","LF","yjk8vlfumr","2560","1080","de","dt06as01","null","","","","learningBlock1","","","","This is a dep:","null","","","","",""
"","image-keyboard-response","176","545552","0.0-6.0-1.56","LF","yjk8vlfumr","2560","1080","de","dt06as01","null","","","","","","","","learning/Slide57.JPG","null","","","","",""
"","html-keyboard-response","177","546555","0.0-6.0-2.56","LF","yjk8vlfumr","2560","1080","de","dt06as01","null","","","","learningBlock1","","","","<div style=""font-size:60px;""> </div>","null","LF","learning/Slide57.JPG","This is a dep:","",""
"","html-keyboard-response","178","547557","0.0-6.0-0.57","LF","yjk8vlfumr","2560","1080","de","dt06as01","null","","","","learningBlock1","","","","This is a wug:","null","","","","",""
"","image-keyboard-response","179","547888","0.0-6.0-1.57","LF","yjk8vlfumr","2560","1080","de","dt06as01","null","","","","","","","","learning/Slide58.JPG","null","","","","",""
"","html-keyboard-response","180","548891","0.0-6.0-2.57","LF","yjk8vlfumr","2560","1080","de","dt06as01","null","","","","learningBlock1","","","","<div style=""font-size:60px;""> </div>","null","LF","learning/Slide58.JPG","This is a wug:","",""
"","html-keyboard-response","181","549893","0.0-6.0-0.58","LF","yjk8vlfumr","2560","1080","de","dt06as01","null","","","","learningBlock1","","","","This is a dep:","null","","","","",""
"","image-keyboard-response","182","550224","0.0-6.0-1.58","LF","yjk8vlfumr","2560","1080","de","dt06as01","null","","","","","","","","learning/Slide59.JPG","null","","","","",""
"","html-keyboard-response","183","551228","0.0-6.0-2.58","LF","yjk8vlfumr","2560","1080","de","dt06as01","null","","","","learningBlock1","","","","<div style=""font-size:60px;""> </div>","null","LF","learning/Slide59.JPG","This is a dep:","",""
"","html-keyboard-response","184","552233","0.0-6.0-0.59","LF","yjk8vlfumr","2560","1080","de","dt06as01","null","","","","learningBlock1","","","","This is a wug:","null","","","","",""
"","image-keyboard-response","185","552560","0.0-6.0-1.59","LF","yjk8vlfumr","2560","1080","de","dt06as01","null","","","","","","","","learning/Slide60.JPG","null","","","","",""
"","html-keyboard-response","186","553565","0.0-6.0-2.59","LF","yjk8vlfumr","2560","1080","de","dt06as01","null","","","","learningBlock1","","","","<div style=""font-size:60px;""> </div>","null","LF","learning/Slide60.JPG","This is a wug:","",""
"","html-keyboard-response","187","554570","0.0-6.0-0.60","LF","yjk8vlfumr","2560","1080","de","dt06as01","null","","","","learningBlock1","","","","This is a bim:","null","","","","",""
"","image-keyboard-response","188","554901","0.0-6.0-1.60","LF","yjk8vlfumr","2560","1080","de","dt06as01","null","","","","","","","","learning/Slide61.JPG","null","","","","",""
"","html-keyboard-response","189","555904","0.0-6.0-2.60","LF","yjk8vlfumr","2560","1080","de","dt06as01","null","","","","learningBlock1","","","","<div style=""font-size:60px;""> </div>","null","LF","learning/Slide61.JPG","This is a bim:","",""
"","html-keyboard-response","190","556906","0.0-6.0-0.61","LF","yjk8vlfumr","2560","1080","de","dt06as01","null","","","","learningBlock1","","","","This is a dep:","null","","","","",""
"","image-keyboard-response","191","557237","0.0-6.0-1.61","LF","yjk8vlfumr","2560","1080","de","dt06as01","null","","","","","","","","learning/Slide62.JPG","null","","","","",""
"","html-keyboard-response","192","558240","0.0-6.0-2.61","LF","yjk8vlfumr","2560","1080","de","dt06as01","null","","","","learningBlock1","","","","<div style=""font-size:60px;""> </div>","null","LF","learning/Slide62.JPG","This is a dep:","",""
"","html-keyboard-response","193","559242","0.0-6.0-0.62","LF","yjk8vlfumr","2560","1080","de","dt06as01","null","","","","learningBlock1","","","","This is a bim:","null","","","","",""
"","image-keyboard-response","194","559573","0.0-6.0-1.62","LF","yjk8vlfumr","2560","1080","de","dt06as01","null","","","","","","","","learning/Slide63.JPG","null","","","","",""
"","html-keyboard-response","195","560575","0.0-6.0-2.62","LF","yjk8vlfumr","2560","1080","de","dt06as01","null","","","","learningBlock1","","","","<div style=""font-size:60px;""> </div>","null","LF","learning/Slide63.JPG","This is a bim:","",""
"","html-keyboard-response","196","561575","0.0-6.0-0.63","LF","yjk8vlfumr","2560","1080","de","dt06as01","null","","","","learningBlock1","","","","This is a tob:","null","","","","",""
"","image-keyboard-response","197","561904","0.0-6.0-1.63","LF","yjk8vlfumr","2560","1080","de","dt06as01","null","","","","","","","","learning/Slide64.JPG","null","","","","",""
"","html-keyboard-response","198","562906","0.0-6.0-2.63","LF","yjk8vlfumr","2560","1080","de","dt06as01","null","","","","learningBlock1","","","","<div style=""font-size:60px;""> </div>","null","LF","learning/Slide64.JPG","This is a tob:","",""
"","html-keyboard-response","199","563909","0.0-6.0-0.64","LF","yjk8vlfumr","2560","1080","de","dt06as01","null","","","","learningBlock1","","","","This is a wug:","null","","","","",""
"","image-keyboard-response","200","564239","0.0-6.0-1.64","LF","yjk8vlfumr","2560","1080","de","dt06as01","null","","","","","","","","learning/Slide65.JPG","null","","","","",""
"","html-keyboard-response","201","565242","0.0-6.0-2.64","LF","yjk8vlfumr","2560","1080","de","dt06as01","null","","","","learningBlock1","","","","<div style=""font-size:60px;""> </div>","null","LF","learning/Slide65.JPG","This is a wug:","",""
"","html-keyboard-response","202","566244","0.0-6.0-0.65","LF","yjk8vlfumr","2560","1080","de","dt06as01","null","","","","learningBlock1","","","","This is a dep:","null","","","","",""
"","image-keyboard-response","203","566575","0.0-6.0-1.65","LF","yjk8vlfumr","2560","1080","de","dt06as01","null","","","","","","","","learning/Slide66.JPG","null","","","","",""
"","html-keyboard-response","204","567578","0.0-6.0-2.65","LF","yjk8vlfumr","2560","1080","de","dt06as01","null","","","","learningBlock1","","","","<div style=""font-size:60px;""> </div>","null","LF","learning/Slide66.JPG","This is a dep:","",""
"","html-keyboard-response","205","568581","0.0-6.0-0.66","LF","yjk8vlfumr","2560","1080","de","dt06as01","null","","","","learningBlock1","","","","This is a tob:","null","","","","",""
"","image-keyboard-response","206","568911","0.0-6.0-1.66","LF","yjk8vlfumr","2560","1080","de","dt06as01","null","","","","","","","","learning/Slide67.JPG","null","","","","",""
"","html-keyboard-response","207","569914","0.0-6.0-2.66","LF","yjk8vlfumr","2560","1080","de","dt06as01","null","","","","learningBlock1","","","","<div style=""font-size:60px;""> </div>","null","LF","learning/Slide67.JPG","This is a tob:","",""
"","html-keyboard-response","208","570916","0.0-6.0-0.67","LF","yjk8vlfumr","2560","1080","de","dt06as01","null","","","","learningBlock1","","","","This is a wug:","null","","","","",""
"","image-keyboard-response","209","571247","0.0-6.0-1.67","LF","yjk8vlfumr","2560","1080","de","dt06as01","null","","","","","","","","learning/Slide68.JPG","null","","","","",""
"","html-keyboard-response","210","572250","0.0-6.0-2.67","LF","yjk8vlfumr","2560","1080","de","dt06as01","null","","","","learningBlock1","","","","<div style=""font-size:60px;""> </div>","null","LF","learning/Slide68.JPG","This is a wug:","",""
"","html-keyboard-response","211","573252","0.0-6.0-0.68","LF","yjk8vlfumr","2560","1080","de","dt06as01","null","","","","learningBlock1","","","","This is a tob:","null","","","","",""
"","image-keyboard-response","212","573584","0.0-6.0-1.68","LF","yjk8vlfumr","2560","1080","de","dt06as01","null","","","","","","","","learning/Slide69.JPG","null","","","","",""
"","html-keyboard-response","213","574586","0.0-6.0-2.68","LF","yjk8vlfumr","2560","1080","de","dt06as01","null","","","","learningBlock1","","","","<div style=""font-size:60px;""> </div>","null","LF","learning/Slide69.JPG","This is a tob:","",""
"","html-keyboard-response","214","575588","0.0-6.0-0.69","LF","yjk8vlfumr","2560","1080","de","dt06as01","null","","","","learningBlock1","","","","This is a dep:","null","","","","",""
"","image-keyboard-response","215","575919","0.0-6.0-1.69","LF","yjk8vlfumr","2560","1080","de","dt06as01","null","","","","","","","","learning/Slide70.JPG","null","","","","",""
"","html-keyboard-response","216","576921","0.0-6.0-2.69","LF","yjk8vlfumr","2560","1080","de","dt06as01","null","","","","learningBlock1","","","","<div style=""font-size:60px;""> </div>","null","LF","learning/Slide70.JPG","This is a dep:","",""
"","html-keyboard-response","217","577927","0.0-6.0-0.70","LF","yjk8vlfumr","2560","1080","de","dt06as01","null","","","","learningBlock1","","","","This is a wug:","null","","","","",""
"","image-keyboard-response","218","578258","0.0-6.0-1.70","LF","yjk8vlfumr","2560","1080","de","dt06as01","null","","","","","","","","learning/Slide71.JPG","null","","","","",""
"","html-keyboard-response","219","579263","0.0-6.0-2.70","LF","yjk8vlfumr","2560","1080","de","dt06as01","null","","","","learningBlock1","","","","<div style=""font-size:60px;""> </div>","null","LF","learning/Slide71.JPG","This is a wug:","",""
"","html-keyboard-response","220","580265","0.0-6.0-0.71","LF","yjk8vlfumr","2560","1080","de","dt06as01","null","","","","learningBlock1","","","","This is a bim:","null","","","","",""
"","image-keyboard-response","221","580596","0.0-6.0-1.71","LF","yjk8vlfumr","2560","1080","de","dt06as01","null","","","","","","","","learning/Slide72.JPG","null","","","","",""
"","html-keyboard-response","222","581599","0.0-6.0-2.71","LF","yjk8vlfumr","2560","1080","de","dt06as01","null","","","","learningBlock1","","","","<div style=""font-size:60px;""> </div>","null","LF","learning/Slide72.JPG","This is a bim:","",""
"","html-keyboard-response","223","582600","0.0-6.0-0.72","LF","yjk8vlfumr","2560","1080","de","dt06as01","null","","","","learningBlock1","","","","This is a wug:","null","","","","",""
"","image-keyboard-response","224","582932","0.0-6.0-1.72","LF","yjk8vlfumr","2560","1080","de","dt06as01","null","","","","","","","","learning/Slide73.JPG","null","","","","",""
"","html-keyboard-response","225","583934","0.0-6.0-2.72","LF","yjk8vlfumr","2560","1080","de","dt06as01","null","","","","learningBlock1","","","","<div style=""font-size:60px;""> </div>","null","LF","learning/Slide73.JPG","This is a wug:","",""
"","html-keyboard-response","226","584937","0.0-6.0-0.73","LF","yjk8vlfumr","2560","1080","de","dt06as01","null","","","","learningBlock1","","","","This is a dep:","null","","","","",""
"","image-keyboard-response","227","585268","0.0-6.0-1.73","LF","yjk8vlfumr","2560","1080","de","dt06as01","null","","","","","","","","learning/Slide74.JPG","null","","","","",""
"","html-keyboard-response","228","586270","0.0-6.0-2.73","LF","yjk8vlfumr","2560","1080","de","dt06as01","null","","","","learningBlock1","","","","<div style=""font-size:60px;""> </div>","null","LF","learning/Slide74.JPG","This is a dep:","",""
"","html-keyboard-response","229","587273","0.0-6.0-0.74","LF","yjk8vlfumr","2560","1080","de","dt06as01","null","","","","learningBlock1","","","","This is a tob:","null","","","","",""
"","image-keyboard-response","230","587607","0.0-6.0-1.74","LF","yjk8vlfumr","2560","1080","de","dt06as01","null","","","","","","","","learning/Slide75.JPG","null","","","","",""
"","html-keyboard-response","231","588611","0.0-6.0-2.74","LF","yjk8vlfumr","2560","1080","de","dt06as01","null","","","","learningBlock1","","","","<div style=""font-size:60px;""> </div>","null","LF","learning/Slide75.JPG","This is a tob:","",""
"","html-keyboard-response","232","589613","0.0-6.0-0.75","LF","yjk8vlfumr","2560","1080","de","dt06as01","null","","","","learningBlock1","","","","This is a bim:","null","","","","",""
"","image-keyboard-response","233","589940","0.0-6.0-1.75","LF","yjk8vlfumr","2560","1080","de","dt06as01","null","","","","","","","","learning/Slide76.JPG","null","","","","",""
"","html-keyboard-response","234","590942","0.0-6.0-2.75","LF","yjk8vlfumr","2560","1080","de","dt06as01","null","","","","learningBlock1","","","","<div style=""font-size:60px;""> </div>","null","LF","learning/Slide76.JPG","This is a bim:","",""
"","html-keyboard-response","235","591945","0.0-6.0-0.76","LF","yjk8vlfumr","2560","1080","de","dt06as01","null","","","","learningBlock1","","","","This is a tob:","null","","","","",""
"","image-keyboard-response","236","592276","0.0-6.0-1.76","LF","yjk8vlfumr","2560","1080","de","dt06as01","null","","","","","","","","learning/Slide77.JPG","null","","","","",""
"","html-keyboard-response","237","593278","0.0-6.0-2.76","LF","yjk8vlfumr","2560","1080","de","dt06as01","null","","","","learningBlock1","","","","<div style=""font-size:60px;""> </div>","null","LF","learning/Slide77.JPG","This is a tob:","",""
"","html-keyboard-response","238","594281","0.0-6.0-0.77","LF","yjk8vlfumr","2560","1080","de","dt06as01","null","","","","learningBlock1","","","","This is a wug:","null","","","","",""
"","image-keyboard-response","239","594611","0.0-6.0-1.77","LF","yjk8vlfumr","2560","1080","de","dt06as01","null","","","","","","","","learning/Slide78.JPG","null","","","","",""
"","html-keyboard-response","240","595614","0.0-6.0-2.77","LF","yjk8vlfumr","2560","1080","de","dt06as01","null","","","","learningBlock1","","","","<div style=""font-size:60px;""> </div>","null","LF","learning/Slide78.JPG","This is a wug:","",""
"","html-keyboard-response","241","596617","0.0-6.0-0.78","LF","yjk8vlfumr","2560","1080","de","dt06as01","null","","","","learningBlock1","","","","This is a bim:","null","","","","",""
"","image-keyboard-response","242","596947","0.0-6.0-1.78","LF","yjk8vlfumr","2560","1080","de","dt06as01","null","","","","","","","","learning/Slide79.JPG","null","","","","",""
"","html-keyboard-response","243","597953","0.0-6.0-2.78","LF","yjk8vlfumr","2560","1080","de","dt06as01","null","","","","learningBlock1","","","","<div style=""font-size:60px;""> </div>","null","LF","learning/Slide79.JPG","This is a bim:","",""
"","html-keyboard-response","244","598958","0.0-6.0-0.79","LF","yjk8vlfumr","2560","1080","de","dt06as01","null","","","","learningBlock1","","","","This is a tob:","null","","","","",""
"","image-keyboard-response","245","599289","0.0-6.0-1.79","LF","yjk8vlfumr","2560","1080","de","dt06as01","null","","","","","","","","learning/Slide80.JPG","null","","","","",""
"","html-keyboard-response","246","600291","0.0-6.0-2.79","LF","yjk8vlfumr","2560","1080","de","dt06as01","null","","","","learningBlock1","","","","<div style=""font-size:60px;""> </div>","null","LF","learning/Slide80.JPG","This is a tob:","",""
"","instructions","247","625820","0.0-7.0","LF","yjk8vlfumr","2560","1080","de","dt06as01","NA","","","[{""page_index"":0,""viewing_time"":25528.289999987464}]","instructions","","","","","","","","","",""
"","html-keyboard-response","248","626823","0.0-8.0-0.0","LF","yjk8vlfumr","2560","1080","de","dt06as01","null","","","","learningBlock2","","","","This is a wug:","null","","","","",""
"","image-keyboard-response","249","627154","0.0-8.0-1.0","LF","yjk8vlfumr","2560","1080","de","dt06as01","null","","","","","","","","learning/Slide81.JPG","null","","","","",""
"","html-keyboard-response","250","628157","0.0-8.0-2.0","LF","yjk8vlfumr","2560","1080","de","dt06as01","null","","","","learningBlock2","","","","<div style=""font-size:60px;""> </div>","null","LF","learning/Slide81.JPG","This is a wug:","",""
"","html-keyboard-response","251","629159","0.0-8.0-0.1","LF","yjk8vlfumr","2560","1080","de","dt06as01","null","","","","learningBlock2","","","","This is a bim:","null","","","","",""
"","image-keyboard-response","252","629490","0.0-8.0-1.1","LF","yjk8vlfumr","2560","1080","de","dt06as01","null","","","","","","","","learning/Slide82.JPG","null","","","","",""
"","html-keyboard-response","253","630493","0.0-8.0-2.1","LF","yjk8vlfumr","2560","1080","de","dt06as01","null","","","","learningBlock2","","","","<div style=""font-size:60px;""> </div>","null","LF","learning/Slide82.JPG","This is a bim:","",""
"","html-keyboard-response","254","631495","0.0-8.0-0.2","LF","yjk8vlfumr","2560","1080","de","dt06as01","null","","","","learningBlock2","","","","This is a wug:","null","","","","",""
"","image-keyboard-response","255","631826","0.0-8.0-1.2","LF","yjk8vlfumr","2560","1080","de","dt06as01","null","","","","","","","","learning/Slide83.JPG","null","","","","",""
"","html-keyboard-response","256","632831","0.0-8.0-2.2","LF","yjk8vlfumr","2560","1080","de","dt06as01","null","","","","learningBlock2","","","","<div style=""font-size:60px;""> </div>","null","LF","learning/Slide83.JPG","This is a wug:","",""
"","html-keyboard-response","257","633832","0.0-8.0-0.3","LF","yjk8vlfumr","2560","1080","de","dt06as01","null","","","","learningBlock2","","","","This is a dep:","null","","","","",""
"","image-keyboard-response","258","634162","0.0-8.0-1.3","LF","yjk8vlfumr","2560","1080","de","dt06as01","null","","","","","","","","learning/Slide84.JPG","null","","","","",""
"","html-keyboard-response","259","635164","0.0-8.0-2.3","LF","yjk8vlfumr","2560","1080","de","dt06as01","null","","","","learningBlock2","","","","<div style=""font-size:60px;""> </div>","null","LF","learning/Slide84.JPG","This is a dep:","",""
"","html-keyboard-response","260","636167","0.0-8.0-0.4","LF","yjk8vlfumr","2560","1080","de","dt06as01","null","","","","learningBlock2","","","","This is a bim:","null","","","","",""
"","image-keyboard-response","261","636498","0.0-8.0-1.4","LF","yjk8vlfumr","2560","1080","de","dt06as01","null","","","","","","","","learning/Slide85.JPG","null","","","","",""
"","html-keyboard-response","262","637500","0.0-8.0-2.4","LF","yjk8vlfumr","2560","1080","de","dt06as01","null","","","","learningBlock2","","","","<div style=""font-size:60px;""> </div>","null","LF","learning/Slide85.JPG","This is a bim:","",""
"","html-keyboard-response","263","638503","0.0-8.0-0.5","LF","yjk8vlfumr","2560","1080","de","dt06as01","null","","","","learningBlock2","","","","This is a tob:","null","","","","",""
"","image-keyboard-response","264","638836","0.0-8.0-1.5","LF","yjk8vlfumr","2560","1080","de","dt06as01","null","","","","","","","","learning/Slide86.JPG","null","","","","",""
"","html-keyboard-response","265","639842","0.0-8.0-2.5","LF","yjk8vlfumr","2560","1080","de","dt06as01","null","","","","learningBlock2","","","","<div style=""font-size:60px;""> </div>","null","LF","learning/Slide86.JPG","This is a tob:","",""
"","html-keyboard-response","266","640844","0.0-8.0-0.6","LF","yjk8vlfumr","2560","1080","de","dt06as01","null","","","","learningBlock2","","","","This is a wug:","null","","","","",""
"","image-keyboard-response","267","641175","0.0-8.0-1.6","LF","yjk8vlfumr","2560","1080","de","dt06as01","null","","","","","","","","learning/Slide87.JPG","null","","","","",""
"","html-keyboard-response","268","642178","0.0-8.0-2.6","LF","yjk8vlfumr","2560","1080","de","dt06as01","null","","","","learningBlock2","","","","<div style=""font-size:60px;""> </div>","null","LF","learning/Slide87.JPG","This is a wug:","",""
"","html-keyboard-response","269","643180","0.0-8.0-0.7","LF","yjk8vlfumr","2560","1080","de","dt06as01","null","","","","learningBlock2","","","","This is a tob:","null","","","","",""
"","image-keyboard-response","270","643511","0.0-8.0-1.7","LF","yjk8vlfumr","2560","1080","de","dt06as01","null","","","","","","","","learning/Slide88.JPG","null","","","","",""
"","html-keyboard-response","271","644513","0.0-8.0-2.7","LF","yjk8vlfumr","2560","1080","de","dt06as01","null","","","","learningBlock2","","","","<div style=""font-size:60px;""> </div>","null","LF","learning/Slide88.JPG","This is a tob:","",""
"","html-keyboard-response","272","645516","0.0-8.0-0.8","LF","yjk8vlfumr","2560","1080","de","dt06as01","null","","","","learningBlock2","","","","This is a bim:","null","","","","",""
"","image-keyboard-response","273","645847","0.0-8.0-1.8","LF","yjk8vlfumr","2560","1080","de","dt06as01","null","","","","","","","","learning/Slide89.JPG","null","","","","",""
"","html-keyboard-response","274","646849","0.0-8.0-2.8","LF","yjk8vlfumr","2560","1080","de","dt06as01","null","","","","learningBlock2","","","","<div style=""font-size:60px;""> </div>","null","LF","learning/Slide89.JPG","This is a bim:","",""
"","html-keyboard-response","275","647852","0.0-8.0-0.9","LF","yjk8vlfumr","2560","1080","de","dt06as01","null","","","","learningBlock2","","","","This is a dep:","null","","","","",""
"","image-keyboard-response","276","648183","0.0-8.0-1.9","LF","yjk8vlfumr","2560","1080","de","dt06as01","null","","","","","","","","learning/Slide90.JPG","null","","","","",""
"","html-keyboard-response","277","649185","0.0-8.0-2.9","LF","yjk8vlfumr","2560","1080","de","dt06as01","null","","","","learningBlock2","","","","<div style=""font-size:60px;""> </div>","null","LF","learning/Slide90.JPG","This is a dep:","",""
"","html-keyboard-response","278","650188","0.0-8.0-0.10","LF","yjk8vlfumr","2560","1080","de","dt06as01","null","","","","learningBlock2","","","","This is a wug:","null","","","","",""
"","image-keyboard-response","279","650518","0.0-8.0-1.10","LF","yjk8vlfumr","2560","1080","de","dt06as01","null","","","","","","","","learning/Slide91.JPG","null","","","","",""
"","html-keyboard-response","280","651521","0.0-8.0-2.10","LF","yjk8vlfumr","2560","1080","de","dt06as01","null","","","","learningBlock2","","","","<div style=""font-size:60px;""> </div>","null","LF","learning/Slide91.JPG","This is a wug:","",""
"","html-keyboard-response","281","652524","0.0-8.0-0.11","LF","yjk8vlfumr","2560","1080","de","dt06as01","null","","","","learningBlock2","","","","This is a tob:","null","","","","",""
"","image-keyboard-response","282","652854","0.0-8.0-1.11","LF","yjk8vlfumr","2560","1080","de","dt06as01","null","","","","","","","","learning/Slide92.JPG","null","","","","",""
"","html-keyboard-response","283","653856","0.0-8.0-2.11","LF","yjk8vlfumr","2560","1080","de","dt06as01","null","","","","learningBlock2","","","","<div style=""font-size:60px;""> </div>","null","LF","learning/Slide92.JPG","This is a tob:","",""
"","html-keyboard-response","284","654860","0.0-8.0-0.12","LF","yjk8vlfumr","2560","1080","de","dt06as01","null","","","","learningBlock2","","","","This is a bim:","null","","","","",""
"","image-keyboard-response","285","655190","0.0-8.0-1.12","LF","yjk8vlfumr","2560","1080","de","dt06as01","null","","","","","","","","learning/Slide93.JPG","null","","","","",""
"","html-keyboard-response","286","656193","0.0-8.0-2.12","LF","yjk8vlfumr","2560","1080","de","dt06as01","null","","","","learningBlock2","","","","<div style=""font-size:60px;""> </div>","null","LF","learning/Slide93.JPG","This is a bim:","",""
"","html-keyboard-response","287","657196","0.0-8.0-0.13","LF","yjk8vlfumr","2560","1080","de","dt06as01","null","","","","learningBlock2","","","","This is a tob:","null","","","","",""
"","image-keyboard-response","288","657531","0.0-8.0-1.13","LF","yjk8vlfumr","2560","1080","de","dt06as01","null","","","","","","","","learning/Slide94.JPG","null","","","","",""
"","html-keyboard-response","289","658534","0.0-8.0-2.13","LF","yjk8vlfumr","2560","1080","de","dt06as01","null","","","","learningBlock2","","","","<div style=""font-size:60px;""> </div>","null","LF","learning/Slide94.JPG","This is a tob:","",""
"","html-keyboard-response","290","659537","0.0-8.0-0.14","LF","yjk8vlfumr","2560","1080","de","dt06as01","null","","","","learningBlock2","","","","This is a wug:","null","","","","",""
"","image-keyboard-response","291","659867","0.0-8.0-1.14","LF","yjk8vlfumr","2560","1080","de","dt06as01","null","","","","","","","","learning/Slide95.JPG","null","","","","",""
"","html-keyboard-response","292","660870","0.0-8.0-2.14","LF","yjk8vlfumr","2560","1080","de","dt06as01","null","","","","learningBlock2","","","","<div style=""font-size:60px;""> </div>","null","LF","learning/Slide95.JPG","This is a wug:","",""
"","html-keyboard-response","293","661872","0.0-8.0-0.15","LF","yjk8vlfumr","2560","1080","de","dt06as01","null","","","","learningBlock2","","","","This is a tob:","null","","","","",""
"","image-keyboard-response","294","662203","0.0-8.0-1.15","LF","yjk8vlfumr","2560","1080","de","dt06as01","null","","","","","","","","learning/Slide96.JPG","null","","","","",""
"","html-keyboard-response","295","663206","0.0-8.0-2.15","LF","yjk8vlfumr","2560","1080","de","dt06as01","null","","","","learningBlock2","","","","<div style=""font-size:60px;""> </div>","null","LF","learning/Slide96.JPG","This is a tob:","",""
"","html-keyboard-response","296","664209","0.0-8.0-0.16","LF","yjk8vlfumr","2560","1080","de","dt06as01","null","","","","learningBlock2","","","","This is a dep:","null","","","","",""
"","image-keyboard-response","297","664539","0.0-8.0-1.16","LF","yjk8vlfumr","2560","1080","de","dt06as01","null","","","","","","","","learning/Slide97.JPG","null","","","","",""
"","html-keyboard-response","298","665542","0.0-8.0-2.16","LF","yjk8vlfumr","2560","1080","de","dt06as01","null","","","","learningBlock2","","","","<div style=""font-size:60px;""> </div>","null","LF","learning/Slide97.JPG","This is a dep:","",""
"","html-keyboard-response","299","666545","0.0-8.0-0.17","LF","yjk8vlfumr","2560","1080","de","dt06as01","null","","","","learningBlock2","","","","This is a bim:","null","","","","",""
"","image-keyboard-response","300","666875","0.0-8.0-1.17","LF","yjk8vlfumr","2560","1080","de","dt06as01","null","","","","","","","","learning/Slide98.JPG","null","","","","",""
"","html-keyboard-response","301","667877","0.0-8.0-2.17","LF","yjk8vlfumr","2560","1080","de","dt06as01","null","","","","learningBlock2","","","","<div style=""font-size:60px;""> </div>","null","LF","learning/Slide98.JPG","This is a bim:","",""
"","html-keyboard-response","302","668881","0.0-8.0-0.18","LF","yjk8vlfumr","2560","1080","de","dt06as01","null","","","","learningBlock2","","","","This is a dep:","null","","","","",""
"","image-keyboard-response","303","669211","0.0-8.0-1.18","LF","yjk8vlfumr","2560","1080","de","dt06as01","null","","","","","","","","learning/Slide99.JPG","null","","","","",""
"","html-keyboard-response","304","670214","0.0-8.0-2.18","LF","yjk8vlfumr","2560","1080","de","dt06as01","null","","","","learningBlock2","","","","<div style=""font-size:60px;""> </div>","null","LF","learning/Slide99.JPG","This is a dep:","",""
"","html-keyboard-response","305","671216","0.0-8.0-0.19","LF","yjk8vlfumr","2560","1080","de","dt06as01","null","","","","learningBlock2","","","","This is a bim:","null","","","","",""
"","image-keyboard-response","306","671547","0.0-8.0-1.19","LF","yjk8vlfumr","2560","1080","de","dt06as01","null","","","","","","","","learning/Slide100.JPG","null","","","","",""
"","html-keyboard-response","307","672550","0.0-8.0-2.19","LF","yjk8vlfumr","2560","1080","de","dt06as01","null","","","","learningBlock2","","","","<div style=""font-size:60px;""> </div>","null","LF","learning/Slide100.JPG","This is a bim:","",""
"","html-keyboard-response","308","673552","0.0-8.0-0.20","LF","yjk8vlfumr","2560","1080","de","dt06as01","null","","","","learningBlock2","","","","This is a tob:","null","","","","",""
"","image-keyboard-response","309","673883","0.0-8.0-1.20","LF","yjk8vlfumr","2560","1080","de","dt06as01","null","","","","","","","","learning/Slide101.JPG","null","","","","",""
"","html-keyboard-response","310","674886","0.0-8.0-2.20","LF","yjk8vlfumr","2560","1080","de","dt06as01","null","","","","learningBlock2","","","","<div style=""font-size:60px;""> </div>","null","LF","learning/Slide101.JPG","This is a tob:","",""
"","html-keyboard-response","311","675888","0.0-8.0-0.21","LF","yjk8vlfumr","2560","1080","de","dt06as01","null","","","","learningBlock2","","","","This is a bim:","null","","","","",""
"","image-keyboard-response","312","676219","0.0-8.0-1.21","LF","yjk8vlfumr","2560","1080","de","dt06as01","null","","","","","","","","learning/Slide102.JPG","null","","","","",""
"","html-keyboard-response","313","677221","0.0-8.0-2.21","LF","yjk8vlfumr","2560","1080","de","dt06as01","null","","","","learningBlock2","","","","<div style=""font-size:60px;""> </div>","null","LF","learning/Slide102.JPG","This is a bim:","",""
"","html-keyboard-response","314","678224","0.0-8.0-0.22","LF","yjk8vlfumr","2560","1080","de","dt06as01","null","","","","learningBlock2","","","","This is a dep:","null","","","","",""
"","image-keyboard-response","315","678555","0.0-8.0-1.22","LF","yjk8vlfumr","2560","1080","de","dt06as01","null","","","","","","","","learning/Slide103.JPG","null","","","","",""
"","html-keyboard-response","316","679557","0.0-8.0-2.22","LF","yjk8vlfumr","2560","1080","de","dt06as01","null","","","","learningBlock2","","","","<div style=""font-size:60px;""> </div>","null","LF","learning/Slide103.JPG","This is a dep:","",""
"","html-keyboard-response","317","680560","0.0-8.0-0.23","LF","yjk8vlfumr","2560","1080","de","dt06as01","null","","","","learningBlock2","","","","This is a tob:","null","","","","",""
"","image-keyboard-response","318","680895","0.0-8.0-1.23","LF","yjk8vlfumr","2560","1080","de","dt06as01","null","","","","","","","","learning/Slide104.JPG","null","","","","",""
"","html-keyboard-response","319","681897","0.0-8.0-2.23","LF","yjk8vlfumr","2560","1080","de","dt06as01","null","","","","learningBlock2","","","","<div style=""font-size:60px;""> </div>","null","LF","learning/Slide104.JPG","This is a tob:","",""
"","html-keyboard-response","320","682901","0.0-8.0-0.24","LF","yjk8vlfumr","2560","1080","de","dt06as01","null","","","","learningBlock2","","","","This is a dep:","null","","","","",""
"","image-keyboard-response","321","683232","0.0-8.0-1.24","LF","yjk8vlfumr","2560","1080","de","dt06as01","null","","","","","","","","learning/Slide105.JPG","null","","","","",""
"","html-keyboard-response","322","684235","0.0-8.0-2.24","LF","yjk8vlfumr","2560","1080","de","dt06as01","null","","","","learningBlock2","","","","<div style=""font-size:60px;""> </div>","null","LF","learning/Slide105.JPG","This is a dep:","",""
"","html-keyboard-response","323","685237","0.0-8.0-0.25","LF","yjk8vlfumr","2560","1080","de","dt06as01","null","","","","learningBlock2","","","","This is a wug:","null","","","","",""
"","image-keyboard-response","324","685569","0.0-8.0-1.25","LF","yjk8vlfumr","2560","1080","de","dt06as01","null","","","","","","","","learning/Slide106.JPG","null","","","","",""
"","html-keyboard-response","325","686570","0.0-8.0-2.25","LF","yjk8vlfumr","2560","1080","de","dt06as01","null","","","","learningBlock2","","","","<div style=""font-size:60px;""> </div>","null","LF","learning/Slide106.JPG","This is a wug:","",""
"","html-keyboard-response","326","687573","0.0-8.0-0.26","LF","yjk8vlfumr","2560","1080","de","dt06as01","null","","","","learningBlock2","","","","This is a bim:","null","","","","",""
"","image-keyboard-response","327","687904","0.0-8.0-1.26","LF","yjk8vlfumr","2560","1080","de","dt06as01","null","","","","","","","","learning/Slide107.JPG","null","","","","",""
"","html-keyboard-response","328","688906","0.0-8.0-2.26","LF","yjk8vlfumr","2560","1080","de","dt06as01","null","","","","learningBlock2","","","","<div style=""font-size:60px;""> </div>","null","LF","learning/Slide107.JPG","This is a bim:","",""
"","html-keyboard-response","329","689908","0.0-8.0-0.27","LF","yjk8vlfumr","2560","1080","de","dt06as01","null","","","","learningBlock2","","","","This is a dep:","null","","","","",""
"","image-keyboard-response","330","690240","0.0-8.0-1.27","LF","yjk8vlfumr","2560","1080","de","dt06as01","null","","","","","","","","learning/Slide108.JPG","null","","","","",""
"","html-keyboard-response","331","691242","0.0-8.0-2.27","LF","yjk8vlfumr","2560","1080","de","dt06as01","null","","","","learningBlock2","","","","<div style=""font-size:60px;""> </div>","null","LF","learning/Slide108.JPG","This is a dep:","",""
"","html-keyboard-response","332","692245","0.0-8.0-0.28","LF","yjk8vlfumr","2560","1080","de","dt06as01","null","","","","learningBlock2","","","","This is a wug:","null","","","","",""
"","image-keyboard-response","333","692578","0.0-8.0-1.28","LF","yjk8vlfumr","2560","1080","de","dt06as01","null","","","","","","","","learning/Slide109.JPG","null","","","","",""
"","html-keyboard-response","334","693584","0.0-8.0-2.28","LF","yjk8vlfumr","2560","1080","de","dt06as01","null","","","","learningBlock2","","","","<div style=""font-size:60px;""> </div>","null","LF","learning/Slide109.JPG","This is a wug:","",""
"","html-keyboard-response","335","694586","0.0-8.0-0.29","LF","yjk8vlfumr","2560","1080","de","dt06as01","null","","","","learningBlock2","","","","This is a bim:","null","","","","",""
"","image-keyboard-response","336","694917","0.0-8.0-1.29","LF","yjk8vlfumr","2560","1080","de","dt06as01","null","","","","","","","","learning/Slide110.JPG","null","","","","",""
"","html-keyboard-response","337","695919","0.0-8.0-2.29","LF","yjk8vlfumr","2560","1080","de","dt06as01","null","","","","learningBlock2","","","","<div style=""font-size:60px;""> </div>","null","LF","learning/Slide110.JPG","This is a bim:","",""
"","html-keyboard-response","338","696921","0.0-8.0-0.30","LF","yjk8vlfumr","2560","1080","de","dt06as01","null","","","","learningBlock2","","","","This is a tob:","null","","","","",""
"","image-keyboard-response","339","697253","0.0-8.0-1.30","LF","yjk8vlfumr","2560","1080","de","dt06as01","null","","","","","","","","learning/Slide111.JPG","null","","","","",""
"","html-keyboard-response","340","698255","0.0-8.0-2.30","LF","yjk8vlfumr","2560","1080","de","dt06as01","null","","","","learningBlock2","","","","<div style=""font-size:60px;""> </div>","null","LF","learning/Slide111.JPG","This is a tob:","",""
"","html-keyboard-response","341","699258","0.0-8.0-0.31","LF","yjk8vlfumr","2560","1080","de","dt06as01","null","","","","learningBlock2","","","","This is a wug:","null","","","","",""
"","image-keyboard-response","342","699589","0.0-8.0-1.31","LF","yjk8vlfumr","2560","1080","de","dt06as01","null","","","","","","","","learning/Slide112.JPG","null","","","","",""
"","html-keyboard-response","343","700591","0.0-8.0-2.31","LF","yjk8vlfumr","2560","1080","de","dt06as01","null","","","","learningBlock2","","","","<div style=""font-size:60px;""> </div>","null","LF","learning/Slide112.JPG","This is a wug:","",""
"","html-keyboard-response","344","701594","0.0-8.0-0.32","LF","yjk8vlfumr","2560","1080","de","dt06as01","null","","","","learningBlock2","","","","This is a tob:","null","","","","",""
"","image-keyboard-response","345","701924","0.0-8.0-1.32","LF","yjk8vlfumr","2560","1080","de","dt06as01","null","","","","","","","","learning/Slide113.JPG","null","","","","",""
"","html-keyboard-response","346","702927","0.0-8.0-2.32","LF","yjk8vlfumr","2560","1080","de","dt06as01","null","","","","learningBlock2","","","","<div style=""font-size:60px;""> </div>","null","LF","learning/Slide113.JPG","This is a tob:","",""
"","html-keyboard-response","347","703930","0.0-8.0-0.33","LF","yjk8vlfumr","2560","1080","de","dt06as01","null","","","","learningBlock2","","","","This is a wug:","null","","","","",""
"","image-keyboard-response","348","704266","0.0-8.0-1.33","LF","yjk8vlfumr","2560","1080","de","dt06as01","null","","","","","","","","learning/Slide114.JPG","null","","","","",""
"","html-keyboard-response","349","705271","0.0-8.0-2.33","LF","yjk8vlfumr","2560","1080","de","dt06as01","null","","","","learningBlock2","","","","<div style=""font-size:60px;""> </div>","null","LF","learning/Slide114.JPG","This is a wug:","",""
"","html-keyboard-response","350","706276","0.0-8.0-0.34","LF","yjk8vlfumr","2560","1080","de","dt06as01","null","","","","learningBlock2","","","","This is a bim:","null","","","","",""
"","image-keyboard-response","351","706607","0.0-8.0-1.34","LF","yjk8vlfumr","2560","1080","de","dt06as01","null","","","","","","","","learning/Slide115.JPG","null","","","","",""
"","html-keyboard-response","352","707610","0.0-8.0-2.34","LF","yjk8vlfumr","2560","1080","de","dt06as01","null","","","","learningBlock2","","","","<div style=""font-size:60px;""> </div>","null","LF","learning/Slide115.JPG","This is a bim:","",""
"","html-keyboard-response","353","708612","0.0-8.0-0.35","LF","yjk8vlfumr","2560","1080","de","dt06as01","null","","","","learningBlock2","","","","This is a dep:","null","","","","",""
"","image-keyboard-response","354","708943","0.0-8.0-1.35","LF","yjk8vlfumr","2560","1080","de","dt06as01","null","","","","","","","","learning/Slide116.JPG","null","","","","",""
"","html-keyboard-response","355","709945","0.0-8.0-2.35","LF","yjk8vlfumr","2560","1080","de","dt06as01","null","","","","learningBlock2","","","","<div style=""font-size:60px;""> </div>","null","LF","learning/Slide116.JPG","This is a dep:","",""
"","html-keyboard-response","356","710948","0.0-8.0-0.36","LF","yjk8vlfumr","2560","1080","de","dt06as01","null","","","","learningBlock2","","","","This is a tob:","null","","","","",""
"","image-keyboard-response","357","711279","0.0-8.0-1.36","LF","yjk8vlfumr","2560","1080","de","dt06as01","null","","","","","","","","learning/Slide117.JPG","null","","","","",""
"","html-keyboard-response","358","712281","0.0-8.0-2.36","LF","yjk8vlfumr","2560","1080","de","dt06as01","null","","","","learningBlock2","","","","<div style=""font-size:60px;""> </div>","null","LF","learning/Slide117.JPG","This is a tob:","",""
"","html-keyboard-response","359","713284","0.0-8.0-0.37","LF","yjk8vlfumr","2560","1080","de","dt06as01","null","","","","learningBlock2","","","","This is a dep:","null","","","","",""
"","image-keyboard-response","360","713615","0.0-8.0-1.37","LF","yjk8vlfumr","2560","1080","de","dt06as01","null","","","","","","","","learning/Slide118.JPG","null","","","","",""
"","html-keyboard-response","361","714617","0.0-8.0-2.37","LF","yjk8vlfumr","2560","1080","de","dt06as01","null","","","","learningBlock2","","","","<div style=""font-size:60px;""> </div>","null","LF","learning/Slide118.JPG","This is a dep:","",""
"","html-keyboard-response","362","715620","0.0-8.0-0.38","LF","yjk8vlfumr","2560","1080","de","dt06as01","null","","","","learningBlock2","","","","This is a wug:","null","","","","",""
"","image-keyboard-response","363","715951","0.0-8.0-1.38","LF","yjk8vlfumr","2560","1080","de","dt06as01","null","","","","","","","","learning/Slide119.JPG","null","","","","",""
"","html-keyboard-response","364","716953","0.0-8.0-2.38","LF","yjk8vlfumr","2560","1080","de","dt06as01","null","","","","learningBlock2","","","","<div style=""font-size:60px;""> </div>","null","LF","learning/Slide119.JPG","This is a wug:","",""
"","html-keyboard-response","365","717956","0.0-8.0-0.39","LF","yjk8vlfumr","2560","1080","de","dt06as01","null","","","","learningBlock2","","","","This is a dep:","null","","","","",""
"","image-keyboard-response","366","718287","0.0-8.0-1.39","LF","yjk8vlfumr","2560","1080","de","dt06as01","null","","","","","","","","learning/Slide120.JPG","null","","","","",""
"","html-keyboard-response","367","719289","0.0-8.0-2.39","LF","yjk8vlfumr","2560","1080","de","dt06as01","null","","","","learningBlock2","","","","<div style=""font-size:60px;""> </div>","null","LF","learning/Slide120.JPG","This is a dep:","",""
"","html-keyboard-response","368","720292","0.0-8.0-0.40","LF","yjk8vlfumr","2560","1080","de","dt06as01","null","","","","learningBlock2","","","","This is a bim:","null","","","","",""
"","image-keyboard-response","369","720622","0.0-8.0-1.40","LF","yjk8vlfumr","2560","1080","de","dt06as01","null","","","","","","","","learning/Slide121.JPG","null","","","","",""
"","html-keyboard-response","370","721625","0.0-8.0-2.40","LF","yjk8vlfumr","2560","1080","de","dt06as01","null","","","","learningBlock2","","","","<div style=""font-size:60px;""> </div>","null","LF","learning/Slide121.JPG","This is a bim:","",""
"","html-keyboard-response","371","722628","0.0-8.0-0.41","LF","yjk8vlfumr","2560","1080","de","dt06as01","null","","","","learningBlock2","","","","This is a wug:","null","","","","",""
"","image-keyboard-response","372","722958","0.0-8.0-1.41","LF","yjk8vlfumr","2560","1080","de","dt06as01","null","","","","","","","","learning/Slide122.JPG","null","","","","",""
"","html-keyboard-response","373","723961","0.0-8.0-2.41","LF","yjk8vlfumr","2560","1080","de","dt06as01","null","","","","learningBlock2","","","","<div style=""font-size:60px;""> </div>","null","LF","learning/Slide122.JPG","This is a wug:","",""
"","html-keyboard-response","374","724964","0.0-8.0-0.42","LF","yjk8vlfumr","2560","1080","de","dt06as01","null","","","","learningBlock2","","","","This is a bim:","null","","","","",""
"","image-keyboard-response","375","725294","0.0-8.0-1.42","LF","yjk8vlfumr","2560","1080","de","dt06as01","null","","","","","","","","learning/Slide123.JPG","null","","","","",""
"","html-keyboard-response","376","726297","0.0-8.0-2.42","LF","yjk8vlfumr","2560","1080","de","dt06as01","null","","","","learningBlock2","","","","<div style=""font-size:60px;""> </div>","null","LF","learning/Slide123.JPG","This is a bim:","",""
"","html-keyboard-response","377","727299","0.0-8.0-0.43","LF","yjk8vlfumr","2560","1080","de","dt06as01","null","","","","learningBlock2","","","","This is a tob:","null","","","","",""
"","image-keyboard-response","378","727630","0.0-8.0-1.43","LF","yjk8vlfumr","2560","1080","de","dt06as01","null","","","","","","","","learning/Slide124.JPG","null","","","","",""
"","html-keyboard-response","379","728633","0.0-8.0-2.43","LF","yjk8vlfumr","2560","1080","de","dt06as01","null","","","","learningBlock2","","","","<div style=""font-size:60px;""> </div>","null","LF","learning/Slide124.JPG","This is a tob:","",""
"","html-keyboard-response","380","729635","0.0-8.0-0.44","LF","yjk8vlfumr","2560","1080","de","dt06as01","null","","","","learningBlock2","","","","This is a bim:","null","","","","",""
"","image-keyboard-response","381","729963","0.0-8.0-1.44","LF","yjk8vlfumr","2560","1080","de","dt06as01","null","","","","","","","","learning/Slide125.JPG","null","","","","",""
"","html-keyboard-response","382","730969","0.0-8.0-2.44","LF","yjk8vlfumr","2560","1080","de","dt06as01","null","","","","learningBlock2","","","","<div style=""font-size:60px;""> </div>","null","LF","learning/Slide125.JPG","This is a bim:","",""
"","html-keyboard-response","383","731971","0.0-8.0-0.45","LF","yjk8vlfumr","2560","1080","de","dt06as01","null","","","","learningBlock2","","","","This is a tob:","null","","","","",""
"","image-keyboard-response","384","732302","0.0-8.0-1.45","LF","yjk8vlfumr","2560","1080","de","dt06as01","null","","","","","","","","learning/Slide126.JPG","null","","","","",""
"","html-keyboard-response","385","733304","0.0-8.0-2.45","LF","yjk8vlfumr","2560","1080","de","dt06as01","null","","","","learningBlock2","","","","<div style=""font-size:60px;""> </div>","null","LF","learning/Slide126.JPG","This is a tob:","",""
"","html-keyboard-response","386","734307","0.0-8.0-0.46","LF","yjk8vlfumr","2560","1080","de","dt06as01","null","","","","learningBlock2","","","","This is a dep:","null","","","","",""
"","image-keyboard-response","387","734638","0.0-8.0-1.46","LF","yjk8vlfumr","2560","1080","de","dt06as01","null","","","","","","","","learning/Slide127.JPG","null","","","","",""
"","html-keyboard-response","388","735640","0.0-8.0-2.46","LF","yjk8vlfumr","2560","1080","de","dt06as01","null","","","","learningBlock2","","","","<div style=""font-size:60px;""> </div>","null","LF","learning/Slide127.JPG","This is a dep:","",""
"","html-keyboard-response","389","736643","0.0-8.0-0.47","LF","yjk8vlfumr","2560","1080","de","dt06as01","null","","","","learningBlock2","","","","This is a wug:","null","","","","",""
"","image-keyboard-response","390","736974","0.0-8.0-1.47","LF","yjk8vlfumr","2560","1080","de","dt06as01","null","","","","","","","","learning/Slide128.JPG","null","","","","",""
"","html-keyboard-response","391","737976","0.0-8.0-2.47","LF","yjk8vlfumr","2560","1080","de","dt06as01","null","","","","learningBlock2","","","","<div style=""font-size:60px;""> </div>","null","LF","learning/Slide128.JPG","This is a wug:","",""
"","html-keyboard-response","392","738979","0.0-8.0-0.48","LF","yjk8vlfumr","2560","1080","de","dt06as01","null","","","","learningBlock2","","","","This is a tob:","null","","","","",""
"","image-keyboard-response","393","739310","0.0-8.0-1.48","LF","yjk8vlfumr","2560","1080","de","dt06as01","null","","","","","","","","learning/Slide129.JPG","null","","","","",""
"","html-keyboard-response","394","740312","0.0-8.0-2.48","LF","yjk8vlfumr","2560","1080","de","dt06as01","null","","","","learningBlock2","","","","<div style=""font-size:60px;""> </div>","null","LF","learning/Slide129.JPG","This is a tob:","",""
"","html-keyboard-response","395","741315","0.0-8.0-0.49","LF","yjk8vlfumr","2560","1080","de","dt06as01","null","","","","learningBlock2","","","","This is a wug:","null","","","","",""
"","image-keyboard-response","396","741646","0.0-8.0-1.49","LF","yjk8vlfumr","2560","1080","de","dt06as01","null","","","","","","","","learning/Slide130.JPG","null","","","","",""
"","html-keyboard-response","397","742648","0.0-8.0-2.49","LF","yjk8vlfumr","2560","1080","de","dt06as01","null","","","","learningBlock2","","","","<div style=""font-size:60px;""> </div>","null","LF","learning/Slide130.JPG","This is a wug:","",""
"","html-keyboard-response","398","743651","0.0-8.0-0.50","LF","yjk8vlfumr","2560","1080","de","dt06as01","null","","","","learningBlock2","","","","This is a bim:","null","","","","",""
"","image-keyboard-response","399","743981","0.0-8.0-1.50","LF","yjk8vlfumr","2560","1080","de","dt06as01","null","","","","","","","","learning/Slide131.JPG","null","","","","",""
"","html-keyboard-response","400","744984","0.0-8.0-2.50","LF","yjk8vlfumr","2560","1080","de","dt06as01","null","","","","learningBlock2","","","","<div style=""font-size:60px;""> </div>","null","LF","learning/Slide131.JPG","This is a bim:","",""
"","html-keyboard-response","401","745986","0.0-8.0-0.51","LF","yjk8vlfumr","2560","1080","de","dt06as01","null","","","","learningBlock2","","","","This is a dep:","null","","","","",""
"","image-keyboard-response","402","746317","0.0-8.0-1.51","LF","yjk8vlfumr","2560","1080","de","dt06as01","null","","","","","","","","learning/Slide132.JPG","null","","","","",""
"","html-keyboard-response","403","747320","0.0-8.0-2.51","LF","yjk8vlfumr","2560","1080","de","dt06as01","null","","","","learningBlock2","","","","<div style=""font-size:60px;""> </div>","null","LF","learning/Slide132.JPG","This is a dep:","",""
"","html-keyboard-response","404","748323","0.0-8.0-0.52","LF","yjk8vlfumr","2560","1080","de","dt06as01","null","","","","learningBlock2","","","","This is a tob:","null","","","","",""
"","image-keyboard-response","405","748653","0.0-8.0-1.52","LF","yjk8vlfumr","2560","1080","de","dt06as01","null","","","","","","","","learning/Slide133.JPG","null","","","","",""
"","html-keyboard-response","406","749656","0.0-8.0-2.52","LF","yjk8vlfumr","2560","1080","de","dt06as01","null","","","","learningBlock2","","","","<div style=""font-size:60px;""> </div>","null","LF","learning/Slide133.JPG","This is a tob:","",""
"","html-keyboard-response","407","750659","0.0-8.0-0.53","LF","yjk8vlfumr","2560","1080","de","dt06as01","null","","","","learningBlock2","","","","This is a dep:","null","","","","",""
"","image-keyboard-response","408","750991","0.0-8.0-1.53","LF","yjk8vlfumr","2560","1080","de","dt06as01","null","","","","","","","","learning/Slide134.JPG","null","","","","",""
"","html-keyboard-response","409","751994","0.0-8.0-2.53","LF","yjk8vlfumr","2560","1080","de","dt06as01","null","","","","learningBlock2","","","","<div style=""font-size:60px;""> </div>","null","LF","learning/Slide134.JPG","This is a dep:","",""
"","html-keyboard-response","410","753000","0.0-8.0-0.54","LF","yjk8vlfumr","2560","1080","de","dt06as01","null","","","","learningBlock2","","","","This is a tob:","null","","","","",""
"","image-keyboard-response","411","753330","0.0-8.0-1.54","LF","yjk8vlfumr","2560","1080","de","dt06as01","null","","","","","","","","learning/Slide135.JPG","null","","","","",""
"","html-keyboard-response","412","754333","0.0-8.0-2.54","LF","yjk8vlfumr","2560","1080","de","dt06as01","null","","","","learningBlock2","","","","<div style=""font-size:60px;""> </div>","null","LF","learning/Slide135.JPG","This is a tob:","",""
"","html-keyboard-response","413","755336","0.0-8.0-0.55","LF","yjk8vlfumr","2560","1080","de","dt06as01","null","","","","learningBlock2","","","","This is a wug:","null","","","","",""
"","image-keyboard-response","414","755666","0.0-8.0-1.55","LF","yjk8vlfumr","2560","1080","de","dt06as01","null","","","","","","","","learning/Slide136.JPG","null","","","","",""
"","html-keyboard-response","415","756669","0.0-8.0-2.55","LF","yjk8vlfumr","2560","1080","de","dt06as01","null","","","","learningBlock2","","","","<div style=""font-size:60px;""> </div>","null","LF","learning/Slide136.JPG","This is a wug:","",""
"","html-keyboard-response","416","757672","0.0-8.0-0.56","LF","yjk8vlfumr","2560","1080","de","dt06as01","null","","","","learningBlock2","","","","This is a tob:","null","","","","",""
"","image-keyboard-response","417","758002","0.0-8.0-1.56","LF","yjk8vlfumr","2560","1080","de","dt06as01","null","","","","","","","","learning/Slide137.JPG","null","","","","",""
"","html-keyboard-response","418","759005","0.0-8.0-2.56","LF","yjk8vlfumr","2560","1080","de","dt06as01","null","","","","learningBlock2","","","","<div style=""font-size:60px;""> </div>","null","LF","learning/Slide137.JPG","This is a tob:","",""
"","html-keyboard-response","419","760008","0.0-8.0-0.57","LF","yjk8vlfumr","2560","1080","de","dt06as01","null","","","","learningBlock2","","","","This is a bim:","null","","","","",""
"","image-keyboard-response","420","760343","0.0-8.0-1.57","LF","yjk8vlfumr","2560","1080","de","dt06as01","null","","","","","","","","learning/Slide138.JPG","null","","","","",""
"","html-keyboard-response","421","761346","0.0-8.0-2.57","LF","yjk8vlfumr","2560","1080","de","dt06as01","null","","","","learningBlock2","","","","<div style=""font-size:60px;""> </div>","null","LF","learning/Slide138.JPG","This is a bim:","",""
"","html-keyboard-response","422","762349","0.0-8.0-0.58","LF","yjk8vlfumr","2560","1080","de","dt06as01","null","","","","learningBlock2","","","","This is a wug:","null","","","","",""
"","image-keyboard-response","423","762684","0.0-8.0-1.58","LF","yjk8vlfumr","2560","1080","de","dt06as01","null","","","","","","","","learning/Slide139.JPG","null","","","","",""
"","html-keyboard-response","424","763687","0.0-8.0-2.58","LF","yjk8vlfumr","2560","1080","de","dt06as01","null","","","","learningBlock2","","","","<div style=""font-size:60px;""> </div>","null","LF","learning/Slide139.JPG","This is a wug:","",""
"","html-keyboard-response","425","764690","0.0-8.0-0.59","LF","yjk8vlfumr","2560","1080","de","dt06as01","null","","","","learningBlock2","","","","This is a dep:","null","","","","",""
"","image-keyboard-response","426","765021","0.0-8.0-1.59","LF","yjk8vlfumr","2560","1080","de","dt06as01","null","","","","","","","","learning/Slide140.JPG","null","","","","",""
"","html-keyboard-response","427","766023","0.0-8.0-2.59","LF","yjk8vlfumr","2560","1080","de","dt06as01","null","","","","learningBlock2","","","","<div style=""font-size:60px;""> </div>","null","LF","learning/Slide140.JPG","This is a dep:","",""
"","html-keyboard-response","428","767026","0.0-8.0-0.60","LF","yjk8vlfumr","2560","1080","de","dt06as01","null","","","","learningBlock2","","","","This is a tob:","null","","","","",""
"","image-keyboard-response","429","767357","0.0-8.0-1.60","LF","yjk8vlfumr","2560","1080","de","dt06as01","null","","","","","","","","learning/Slide141.JPG","null","","","","",""
"","html-keyboard-response","430","768359","0.0-8.0-2.60","LF","yjk8vlfumr","2560","1080","de","dt06as01","null","","","","learningBlock2","","","","<div style=""font-size:60px;""> </div>","null","LF","learning/Slide141.JPG","This is a tob:","",""
"","html-keyboard-response","431","769362","0.0-8.0-0.61","LF","yjk8vlfumr","2560","1080","de","dt06as01","null","","","","learningBlock2","","","","This is a wug:","null","","","","",""
"","image-keyboard-response","432","769692","0.0-8.0-1.61","LF","yjk8vlfumr","2560","1080","de","dt06as01","null","","","","","","","","learning/Slide142.JPG","null","","","","",""
"","html-keyboard-response","433","770695","0.0-8.0-2.61","LF","yjk8vlfumr","2560","1080","de","dt06as01","null","","","","learningBlock2","","","","<div style=""font-size:60px;""> </div>","null","LF","learning/Slide142.JPG","This is a wug:","",""
"","html-keyboard-response","434","771698","0.0-8.0-0.62","LF","yjk8vlfumr","2560","1080","de","dt06as01","null","","","","learningBlock2","","","","This is a bim:","null","","","","",""
"","image-keyboard-response","435","772028","0.0-8.0-1.62","LF","yjk8vlfumr","2560","1080","de","dt06as01","null","","","","","","","","learning/Slide143.JPG","null","","","","",""
"","html-keyboard-response","436","773031","0.0-8.0-2.62","LF","yjk8vlfumr","2560","1080","de","dt06as01","null","","","","learningBlock2","","","","<div style=""font-size:60px;""> </div>","null","LF","learning/Slide143.JPG","This is a bim:","",""
"","html-keyboard-response","437","774034","0.0-8.0-0.63","LF","yjk8vlfumr","2560","1080","de","dt06as01","null","","","","learningBlock2","","","","This is a dep:","null","","","","",""
"","image-keyboard-response","438","774364","0.0-8.0-1.63","LF","yjk8vlfumr","2560","1080","de","dt06as01","null","","","","","","","","learning/Slide144.JPG","null","","","","",""
"","html-keyboard-response","439","775367","0.0-8.0-2.63","LF","yjk8vlfumr","2560","1080","de","dt06as01","null","","","","learningBlock2","","","","<div style=""font-size:60px;""> </div>","null","LF","learning/Slide144.JPG","This is a dep:","",""
"","html-keyboard-response","440","776369","0.0-8.0-0.64","LF","yjk8vlfumr","2560","1080","de","dt06as01","null","","","","learningBlock2","","","","This is a bim:","null","","","","",""
"","image-keyboard-response","441","776700","0.0-8.0-1.64","LF","yjk8vlfumr","2560","1080","de","dt06as01","null","","","","","","","","learning/Slide145.JPG","null","","","","",""
"","html-keyboard-response","442","777703","0.0-8.0-2.64","LF","yjk8vlfumr","2560","1080","de","dt06as01","null","","","","learningBlock2","","","","<div style=""font-size:60px;""> </div>","null","LF","learning/Slide145.JPG","This is a bim:","",""
"","html-keyboard-response","443","778705","0.0-8.0-0.65","LF","yjk8vlfumr","2560","1080","de","dt06as01","null","","","","learningBlock2","","","","This is a tob:","null","","","","",""
"","image-keyboard-response","444","779039","0.0-8.0-1.65","LF","yjk8vlfumr","2560","1080","de","dt06as01","null","","","","","","","","learning/Slide146.JPG","null","","","","",""
"","html-keyboard-response","445","780044","0.0-8.0-2.65","LF","yjk8vlfumr","2560","1080","de","dt06as01","null","","","","learningBlock2","","","","<div style=""font-size:60px;""> </div>","null","LF","learning/Slide146.JPG","This is a tob:","",""
"","html-keyboard-response","446","781049","0.0-8.0-0.66","LF","yjk8vlfumr","2560","1080","de","dt06as01","null","","","","learningBlock2","","","","This is a wug:","null","","","","",""
"","image-keyboard-response","447","781377","0.0-8.0-1.66","LF","yjk8vlfumr","2560","1080","de","dt06as01","null","","","","","","","","learning/Slide147.JPG","null","","","","",""
"","html-keyboard-response","448","782380","0.0-8.0-2.66","LF","yjk8vlfumr","2560","1080","de","dt06as01","null","","","","learningBlock2","","","","<div style=""font-size:60px;""> </div>","null","LF","learning/Slide147.JPG","This is a wug:","",""
"","html-keyboard-response","449","783383","0.0-8.0-0.67","LF","yjk8vlfumr","2560","1080","de","dt06as01","null","","","","learningBlock2","","","","This is a bim:","null","","","","",""
"","image-keyboard-response","450","783713","0.0-8.0-1.67","LF","yjk8vlfumr","2560","1080","de","dt06as01","null","","","","","","","","learning/Slide148.JPG","null","","","","",""
"","html-keyboard-response","451","784716","0.0-8.0-2.67","LF","yjk8vlfumr","2560","1080","de","dt06as01","null","","","","learningBlock2","","","","<div style=""font-size:60px;""> </div>","null","LF","learning/Slide148.JPG","This is a bim:","",""
"","html-keyboard-response","452","785718","0.0-8.0-0.68","LF","yjk8vlfumr","2560","1080","de","dt06as01","null","","","","learningBlock2","","","","This is a dep:","null","","","","",""
"","image-keyboard-response","453","786051","0.0-8.0-1.68","LF","yjk8vlfumr","2560","1080","de","dt06as01","null","","","","","","","","learning/Slide149.JPG","null","","","","",""
"","html-keyboard-response","454","787056","0.0-8.0-2.68","LF","yjk8vlfumr","2560","1080","de","dt06as01","null","","","","learningBlock2","","","","<div style=""font-size:60px;""> </div>","null","LF","learning/Slide149.JPG","This is a dep:","",""
"","html-keyboard-response","455","788060","0.0-8.0-0.69","LF","yjk8vlfumr","2560","1080","de","dt06as01","null","","","","learningBlock2","","","","This is a wug:","null","","","","",""
"","image-keyboard-response","456","788390","0.0-8.0-1.69","LF","yjk8vlfumr","2560","1080","de","dt06as01","null","","","","","","","","learning/Slide150.JPG","null","","","","",""
"","html-keyboard-response","457","789393","0.0-8.0-2.69","LF","yjk8vlfumr","2560","1080","de","dt06as01","null","","","","learningBlock2","","","","<div style=""font-size:60px;""> </div>","null","LF","learning/Slide150.JPG","This is a wug:","",""
"","html-keyboard-response","458","790396","0.0-8.0-0.70","LF","yjk8vlfumr","2560","1080","de","dt06as01","null","","","","learningBlock2","","","","This is a dep:","null","","","","",""
"","image-keyboard-response","459","790726","0.0-8.0-1.70","LF","yjk8vlfumr","2560","1080","de","dt06as01","null","","","","","","","","learning/Slide151.JPG","null","","","","",""
"","html-keyboard-response","460","791732","0.0-8.0-2.70","LF","yjk8vlfumr","2560","1080","de","dt06as01","null","","","","learningBlock2","","","","<div style=""font-size:60px;""> </div>","null","LF","learning/Slide151.JPG","This is a dep:","",""
"","html-keyboard-response","461","792737","0.0-8.0-0.71","LF","yjk8vlfumr","2560","1080","de","dt06as01","null","","","","learningBlock2","","","","This is a wug:","null","","","","",""
"","image-keyboard-response","462","793067","0.0-8.0-1.71","LF","yjk8vlfumr","2560","1080","de","dt06as01","null","","","","","","","","learning/Slide152.JPG","null","","","","",""
"","html-keyboard-response","463","794070","0.0-8.0-2.71","LF","yjk8vlfumr","2560","1080","de","dt06as01","null","","","","learningBlock2","","","","<div style=""font-size:60px;""> </div>","null","LF","learning/Slide152.JPG","This is a wug:","",""
"","html-keyboard-response","464","795073","0.0-8.0-0.72","LF","yjk8vlfumr","2560","1080","de","dt06as01","null","","","","learningBlock2","","","","This is a bim:","null","","","","",""
"","image-keyboard-response","465","795403","0.0-8.0-1.72","LF","yjk8vlfumr","2560","1080","de","dt06as01","null","","","","","","","","learning/Slide153.JPG","null","","","","",""
"","html-keyboard-response","466","796406","0.0-8.0-2.72","LF","yjk8vlfumr","2560","1080","de","dt06as01","null","","","","learningBlock2","","","","<div style=""font-size:60px;""> </div>","null","LF","learning/Slide153.JPG","This is a bim:","",""
"","html-keyboard-response","467","797409","0.0-8.0-0.73","LF","yjk8vlfumr","2560","1080","de","dt06as01","null","","","","learningBlock2","","","","This is a tob:","null","","","","",""
"","image-keyboard-response","468","797739","0.0-8.0-1.73","LF","yjk8vlfumr","2560","1080","de","dt06as01","null","","","","","","","","learning/Slide154.JPG","null","","","","",""
"","html-keyboard-response","469","798742","0.0-8.0-2.73","LF","yjk8vlfumr","2560","1080","de","dt06as01","null","","","","learningBlock2","","","","<div style=""font-size:60px;""> </div>","null","LF","learning/Slide154.JPG","This is a tob:","",""
"","html-keyboard-response","470","799745","0.0-8.0-0.74","LF","yjk8vlfumr","2560","1080","de","dt06as01","null","","","","learningBlock2","","","","This is a dep:","null","","","","",""
"","image-keyboard-response","471","800076","0.0-8.0-1.74","LF","yjk8vlfumr","2560","1080","de","dt06as01","null","","","","","","","","learning/Slide155.JPG","null","","","","",""
"","html-keyboard-response","472","801078","0.0-8.0-2.74","LF","yjk8vlfumr","2560","1080","de","dt06as01","null","","","","learningBlock2","","","","<div style=""font-size:60px;""> </div>","null","LF","learning/Slide155.JPG","This is a dep:","",""
"","html-keyboard-response","473","802080","0.0-8.0-0.75","LF","yjk8vlfumr","2560","1080","de","dt06as01","null","","","","learningBlock2","","","","This is a bim:","null","","","","",""
"","image-keyboard-response","474","802411","0.0-8.0-1.75","LF","yjk8vlfumr","2560","1080","de","dt06as01","null","","","","","","","","learning/Slide156.JPG","null","","","","",""
"","html-keyboard-response","475","803414","0.0-8.0-2.75","LF","yjk8vlfumr","2560","1080","de","dt06as01","null","","","","learningBlock2","","","","<div style=""font-size:60px;""> </div>","null","LF","learning/Slide156.JPG","This is a bim:","",""
"","html-keyboard-response","476","804416","0.0-8.0-0.76","LF","yjk8vlfumr","2560","1080","de","dt06as01","null","","","","learningBlock2","","","","This is a dep:","null","","","","",""
"","image-keyboard-response","477","804747","0.0-8.0-1.76","LF","yjk8vlfumr","2560","1080","de","dt06as01","null","","","","","","","","learning/Slide157.JPG","null","","","","",""
"","html-keyboard-response","478","805750","0.0-8.0-2.76","LF","yjk8vlfumr","2560","1080","de","dt06as01","null","","","","learningBlock2","","","","<div style=""font-size:60px;""> </div>","null","LF","learning/Slide157.JPG","This is a dep:","",""
"","html-keyboard-response","479","806752","0.0-8.0-0.77","LF","yjk8vlfumr","2560","1080","de","dt06as01","null","","","","learningBlock2","","","","This is a tob:","null","","","","",""
"","image-keyboard-response","480","807083","0.0-8.0-1.77","LF","yjk8vlfumr","2560","1080","de","dt06as01","null","","","","","","","","learning/Slide158.JPG","null","","","","",""
"","html-keyboard-response","481","808089","0.0-8.0-2.77","LF","yjk8vlfumr","2560","1080","de","dt06as01","null","","","","learningBlock2","","","","<div style=""font-size:60px;""> </div>","null","LF","learning/Slide158.JPG","This is a tob:","",""
"","html-keyboard-response","482","809092","0.0-8.0-0.78","LF","yjk8vlfumr","2560","1080","de","dt06as01","null","","","","learningBlock2","","","","This is a dep:","null","","","","",""
"","image-keyboard-response","483","809419","0.0-8.0-1.78","LF","yjk8vlfumr","2560","1080","de","dt06as01","null","","","","","","","","learning/Slide159.JPG","null","","","","",""
"","html-keyboard-response","484","810421","0.0-8.0-2.78","LF","yjk8vlfumr","2560","1080","de","dt06as01","null","","","","learningBlock2","","","","<div style=""font-size:60px;""> </div>","null","LF","learning/Slide159.JPG","This is a dep:","",""
"","html-keyboard-response","485","811424","0.0-8.0-0.79","LF","yjk8vlfumr","2560","1080","de","dt06as01","null","","","","learningBlock2","","","","This is a wug:","null","","","","",""
"","image-keyboard-response","486","811755","0.0-8.0-1.79","LF","yjk8vlfumr","2560","1080","de","dt06as01","null","","","","","","","","learning/Slide160.JPG","null","","","","",""
