"success","trial_type","trial_index","time_elapsed","internal_node_id","condition","subject","screen_width","screen_height","language","codeword","rt","responses","url","view_history","test_part","final_height_px","final_width_px","scale_factor","stimulus","key_press","learningType","presentedImage","presentedLabel","button_pressed","response"
"true","fullscreen","0","13371","0.0-0.0","LF","1x4fxyrk6x","1366","768","en","de05nk26","","","","","","","","","","","","","","",""
"","survey-html-form","1","29041","0.0-1.0","LF","1x4fxyrk6x","1366","768","en","de05nk26","15661","{""language"":""en""}","","","","","","","","","","","","",""
"","external-html","2","81006","0.0-3.0-0.0","LF","1x4fxyrk6x","1366","768","en","de05nk26","51835","","text/information_english.html","","","","","","","","","","","",""
"","external-html","3","131595","0.0-3.0-1.0","LF","1x4fxyrk6x","1366","768","en","de05nk26","50500","","text/consent_english.html","","","","","","","","","","","",""
"","survey-html-form","4","284021","0.0-3.0-2.0","LF","1x4fxyrk6x","1366","768","en","de05nk26","152418","{""codeword_enter"":""de05nk26""}","","","","","","","","","","","","",""
"","instructions","5","311596","0.0-4.0","LF","1x4fxyrk6x","1366","768","en","de05nk26","NA","","","[{""page_index"":0,""viewing_time"":4900},{""page_index"":1,""viewing_time"":21167}]","instructions","","","","","","","","","",""
"","resize","6","403202","0.0-5.0","LF","1x4fxyrk6x","1366","768","en","de05nk26","","","","","","","338","2.146031746031746","","","","","","",""
"","html-keyboard-response","7","404207","0.0-6.0-0.0","LF","1x4fxyrk6x","1366","768","en","de05nk26","null","","","","learningBlock1","","","","This is a tob:","null","","","","",""
"","image-keyboard-response","8","404534","0.0-6.0-1.0","LF","1x4fxyrk6x","1366","768","en","de05nk26","null","","","","","","","","learning/Slide1.JPG","null","","","","",""
"","html-keyboard-response","9","405537","0.0-6.0-2.0","LF","1x4fxyrk6x","1366","768","en","de05nk26","null","","","","learningBlock1","","","","<div style=""font-size:60px;""> </div>","null","LF","learning/Slide1.JPG","This is a tob:","",""
"","html-keyboard-response","10","406539","0.0-6.0-0.1","LF","1x4fxyrk6x","1366","768","en","de05nk26","null","","","","learningBlock1","","","","This is a wug:","null","","","","",""
"","image-keyboard-response","11","406868","0.0-6.0-1.1","LF","1x4fxyrk6x","1366","768","en","de05nk26","null","","","","","","","","learning/Slide2.JPG","null","","","","",""
"","html-keyboard-response","12","407870","0.0-6.0-2.1","LF","1x4fxyrk6x","1366","768","en","de05nk26","null","","","","learningBlock1","","","","<div style=""font-size:60px;""> </div>","null","LF","learning/Slide2.JPG","This is a wug:","",""
"","html-keyboard-response","13","408872","0.0-6.0-0.2","LF","1x4fxyrk6x","1366","768","en","de05nk26","null","","","","learningBlock1","","","","This is a bim:","null","","","","",""
"","image-keyboard-response","14","409200","0.0-6.0-1.2","LF","1x4fxyrk6x","1366","768","en","de05nk26","null","","","","","","","","learning/Slide3.JPG","null","","","","",""
"","html-keyboard-response","15","410202","0.0-6.0-2.2","LF","1x4fxyrk6x","1366","768","en","de05nk26","null","","","","learningBlock1","","","","<div style=""font-size:60px;""> </div>","null","LF","learning/Slide3.JPG","This is a bim:","",""
"","html-keyboard-response","16","411205","0.0-6.0-0.3","LF","1x4fxyrk6x","1366","768","en","de05nk26","null","","","","learningBlock1","","","","This is a dep:","null","","","","",""
"","image-keyboard-response","17","411532","0.0-6.0-1.3","LF","1x4fxyrk6x","1366","768","en","de05nk26","null","","","","","","","","learning/Slide4.JPG","null","","","","",""
"","html-keyboard-response","18","412534","0.0-6.0-2.3","LF","1x4fxyrk6x","1366","768","en","de05nk26","null","","","","learningBlock1","","","","<div style=""font-size:60px;""> </div>","null","LF","learning/Slide4.JPG","This is a dep:","",""
"","html-keyboard-response","19","413535","0.0-6.0-0.4","LF","1x4fxyrk6x","1366","768","en","de05nk26","null","","","","learningBlock1","","","","This is a wug:","null","","","","",""
"","image-keyboard-response","20","413863","0.0-6.0-1.4","LF","1x4fxyrk6x","1366","768","en","de05nk26","null","","","","","","","","learning/Slide5.JPG","null","","","","",""
"","html-keyboard-response","21","414865","0.0-6.0-2.4","LF","1x4fxyrk6x","1366","768","en","de05nk26","null","","","","learningBlock1","","","","<div style=""font-size:60px;""> </div>","null","LF","learning/Slide5.JPG","This is a wug:","",""
"","html-keyboard-response","22","415869","0.0-6.0-0.5","LF","1x4fxyrk6x","1366","768","en","de05nk26","null","","","","learningBlock1","","","","This is a dep:","null","","","","",""
"","image-keyboard-response","23","416197","0.0-6.0-1.5","LF","1x4fxyrk6x","1366","768","en","de05nk26","null","","","","","","","","learning/Slide6.JPG","null","","","","",""
"","html-keyboard-response","24","417199","0.0-6.0-2.5","LF","1x4fxyrk6x","1366","768","en","de05nk26","null","","","","learningBlock1","","","","<div style=""font-size:60px;""> </div>","null","LF","learning/Slide6.JPG","This is a dep:","",""
"","html-keyboard-response","25","418201","0.0-6.0-0.6","LF","1x4fxyrk6x","1366","768","en","de05nk26","null","","","","learningBlock1","","","","This is a wug:","null","","","","",""
"","image-keyboard-response","26","418529","0.0-6.0-1.6","LF","1x4fxyrk6x","1366","768","en","de05nk26","null","","","","","","","","learning/Slide7.JPG","null","","","","",""
"","html-keyboard-response","27","419531","0.0-6.0-2.6","LF","1x4fxyrk6x","1366","768","en","de05nk26","null","","","","learningBlock1","","","","<div style=""font-size:60px;""> </div>","null","LF","learning/Slide7.JPG","This is a wug:","",""
"","html-keyboard-response","28","420532","0.0-6.0-0.7","LF","1x4fxyrk6x","1366","768","en","de05nk26","null","","","","learningBlock1","","","","This is a bim:","null","","","","",""
"","image-keyboard-response","29","420860","0.0-6.0-1.7","LF","1x4fxyrk6x","1366","768","en","de05nk26","null","","","","","","","","learning/Slide8.JPG","null","","","","",""
"","html-keyboard-response","30","421861","0.0-6.0-2.7","LF","1x4fxyrk6x","1366","768","en","de05nk26","null","","","","learningBlock1","","","","<div style=""font-size:60px;""> </div>","null","LF","learning/Slide8.JPG","This is a bim:","",""
"","html-keyboard-response","31","422863","0.0-6.0-0.8","LF","1x4fxyrk6x","1366","768","en","de05nk26","null","","","","learningBlock1","","","","This is a wug:","null","","","","",""
"","image-keyboard-response","32","423191","0.0-6.0-1.8","LF","1x4fxyrk6x","1366","768","en","de05nk26","null","","","","","","","","learning/Slide9.JPG","null","","","","",""
"","html-keyboard-response","33","424193","0.0-6.0-2.8","LF","1x4fxyrk6x","1366","768","en","de05nk26","null","","","","learningBlock1","","","","<div style=""font-size:60px;""> </div>","null","LF","learning/Slide9.JPG","This is a wug:","",""
"","html-keyboard-response","34","425195","0.0-6.0-0.9","LF","1x4fxyrk6x","1366","768","en","de05nk26","null","","","","learningBlock1","","","","This is a dep:","null","","","","",""
"","image-keyboard-response","35","425523","0.0-6.0-1.9","LF","1x4fxyrk6x","1366","768","en","de05nk26","null","","","","","","","","learning/Slide10.JPG","null","","","","",""
"","html-keyboard-response","36","426525","0.0-6.0-2.9","LF","1x4fxyrk6x","1366","768","en","de05nk26","null","","","","learningBlock1","","","","<div style=""font-size:60px;""> </div>","null","LF","learning/Slide10.JPG","This is a dep:","",""
"","html-keyboard-response","37","427526","0.0-6.0-0.10","LF","1x4fxyrk6x","1366","768","en","de05nk26","null","","","","learningBlock1","","","","This is a tob:","null","","","","",""
"","image-keyboard-response","38","427853","0.0-6.0-1.10","LF","1x4fxyrk6x","1366","768","en","de05nk26","null","","","","","","","","learning/Slide11.JPG","null","","","","",""
"","html-keyboard-response","39","428855","0.0-6.0-2.10","LF","1x4fxyrk6x","1366","768","en","de05nk26","null","","","","learningBlock1","","","","<div style=""font-size:60px;""> </div>","null","LF","learning/Slide11.JPG","This is a tob:","",""
"","html-keyboard-response","40","429857","0.0-6.0-0.11","LF","1x4fxyrk6x","1366","768","en","de05nk26","null","","","","learningBlock1","","","","This is a dep:","null","","","","",""
"","image-keyboard-response","41","430184","0.0-6.0-1.11","LF","1x4fxyrk6x","1366","768","en","de05nk26","null","","","","","","","","learning/Slide12.JPG","null","","","","",""
"","html-keyboard-response","42","431186","0.0-6.0-2.11","LF","1x4fxyrk6x","1366","768","en","de05nk26","null","","","","learningBlock1","","","","<div style=""font-size:60px;""> </div>","null","LF","learning/Slide12.JPG","This is a dep:","",""
"","html-keyboard-response","43","432187","0.0-6.0-0.12","LF","1x4fxyrk6x","1366","768","en","de05nk26","null","","","","learningBlock1","","","","This is a bim:","null","","","","",""
"","image-keyboard-response","44","432515","0.0-6.0-1.12","LF","1x4fxyrk6x","1366","768","en","de05nk26","null","","","","","","","","learning/Slide13.JPG","null","","","","",""
"","html-keyboard-response","45","433516","0.0-6.0-2.12","LF","1x4fxyrk6x","1366","768","en","de05nk26","null","","","","learningBlock1","","","","<div style=""font-size:60px;""> </div>","null","LF","learning/Slide13.JPG","This is a bim:","",""
"","html-keyboard-response","46","434519","0.0-6.0-0.13","LF","1x4fxyrk6x","1366","768","en","de05nk26","null","","","","learningBlock1","","","","This is a wug:","null","","","","",""
"","image-keyboard-response","47","434848","0.0-6.0-1.13","LF","1x4fxyrk6x","1366","768","en","de05nk26","null","","","","","","","","learning/Slide14.JPG","null","","","","",""
"","html-keyboard-response","48","435849","0.0-6.0-2.13","LF","1x4fxyrk6x","1366","768","en","de05nk26","null","","","","learningBlock1","","","","<div style=""font-size:60px;""> </div>","null","LF","learning/Slide14.JPG","This is a wug:","",""
"","html-keyboard-response","49","436851","0.0-6.0-0.14","LF","1x4fxyrk6x","1366","768","en","de05nk26","null","","","","learningBlock1","","","","This is a tob:","null","","","","",""
"","image-keyboard-response","50","437178","0.0-6.0-1.14","LF","1x4fxyrk6x","1366","768","en","de05nk26","null","","","","","","","","learning/Slide15.JPG","null","","","","",""
"","html-keyboard-response","51","438179","0.0-6.0-2.14","LF","1x4fxyrk6x","1366","768","en","de05nk26","null","","","","learningBlock1","","","","<div style=""font-size:60px;""> </div>","null","LF","learning/Slide15.JPG","This is a tob:","",""
"","html-keyboard-response","52","439181","0.0-6.0-0.15","LF","1x4fxyrk6x","1366","768","en","de05nk26","null","","","","learningBlock1","","","","This is a dep:","null","","","","",""
"","image-keyboard-response","53","439509","0.0-6.0-1.15","LF","1x4fxyrk6x","1366","768","en","de05nk26","null","","","","","","","","learning/Slide16.JPG","null","","","","",""
"","html-keyboard-response","54","440510","0.0-6.0-2.15","LF","1x4fxyrk6x","1366","768","en","de05nk26","null","","","","learningBlock1","","","","<div style=""font-size:60px;""> </div>","null","LF","learning/Slide16.JPG","This is a dep:","",""
"","html-keyboard-response","55","441511","0.0-6.0-0.16","LF","1x4fxyrk6x","1366","768","en","de05nk26","null","","","","learningBlock1","","","","This is a bim:","null","","","","",""
"","image-keyboard-response","56","441839","0.0-6.0-1.16","LF","1x4fxyrk6x","1366","768","en","de05nk26","null","","","","","","","","learning/Slide17.JPG","null","","","","",""
"","html-keyboard-response","57","442840","0.0-6.0-2.16","LF","1x4fxyrk6x","1366","768","en","de05nk26","null","","","","learningBlock1","","","","<div style=""font-size:60px;""> </div>","null","LF","learning/Slide17.JPG","This is a bim:","",""
"","html-keyboard-response","58","443841","0.0-6.0-0.17","LF","1x4fxyrk6x","1366","768","en","de05nk26","null","","","","learningBlock1","","","","This is a tob:","null","","","","",""
"","image-keyboard-response","59","444168","0.0-6.0-1.17","LF","1x4fxyrk6x","1366","768","en","de05nk26","null","","","","","","","","learning/Slide18.JPG","null","","","","",""
"","html-keyboard-response","60","445169","0.0-6.0-2.17","LF","1x4fxyrk6x","1366","768","en","de05nk26","null","","","","learningBlock1","","","","<div style=""font-size:60px;""> </div>","null","LF","learning/Slide18.JPG","This is a tob:","",""
"","html-keyboard-response","61","446172","0.0-6.0-0.18","LF","1x4fxyrk6x","1366","768","en","de05nk26","null","","","","learningBlock1","","","","This is a wug:","null","","","","",""
"","image-keyboard-response","62","446499","0.0-6.0-1.18","LF","1x4fxyrk6x","1366","768","en","de05nk26","null","","","","","","","","learning/Slide19.JPG","null","","","","",""
"","html-keyboard-response","63","447500","0.0-6.0-2.18","LF","1x4fxyrk6x","1366","768","en","de05nk26","null","","","","learningBlock1","","","","<div style=""font-size:60px;""> </div>","null","LF","learning/Slide19.JPG","This is a wug:","",""
"","html-keyboard-response","64","448502","0.0-6.0-0.19","LF","1x4fxyrk6x","1366","768","en","de05nk26","null","","","","learningBlock1","","","","This is a bim:","null","","","","",""
"","image-keyboard-response","65","448829","0.0-6.0-1.19","LF","1x4fxyrk6x","1366","768","en","de05nk26","null","","","","","","","","learning/Slide20.JPG","null","","","","",""
"","html-keyboard-response","66","449831","0.0-6.0-2.19","LF","1x4fxyrk6x","1366","768","en","de05nk26","null","","","","learningBlock1","","","","<div style=""font-size:60px;""> </div>","null","LF","learning/Slide20.JPG","This is a bim:","",""
"","html-keyboard-response","67","450832","0.0-6.0-0.20","LF","1x4fxyrk6x","1366","768","en","de05nk26","null","","","","learningBlock1","","","","This is a dep:","null","","","","",""
"","image-keyboard-response","68","451160","0.0-6.0-1.20","LF","1x4fxyrk6x","1366","768","en","de05nk26","null","","","","","","","","learning/Slide21.JPG","null","","","","",""
"","html-keyboard-response","69","452161","0.0-6.0-2.20","LF","1x4fxyrk6x","1366","768","en","de05nk26","null","","","","learningBlock1","","","","<div style=""font-size:60px;""> </div>","null","LF","learning/Slide21.JPG","This is a dep:","",""
"","html-keyboard-response","70","453162","0.0-6.0-0.21","LF","1x4fxyrk6x","1366","768","en","de05nk26","null","","","","learningBlock1","","","","This is a bim:","null","","","","",""
"","image-keyboard-response","71","453489","0.0-6.0-1.21","LF","1x4fxyrk6x","1366","768","en","de05nk26","null","","","","","","","","learning/Slide22.JPG","null","","","","",""
"","html-keyboard-response","72","454491","0.0-6.0-2.21","LF","1x4fxyrk6x","1366","768","en","de05nk26","null","","","","learningBlock1","","","","<div style=""font-size:60px;""> </div>","null","LF","learning/Slide22.JPG","This is a bim:","",""
"","html-keyboard-response","73","455492","0.0-6.0-0.22","LF","1x4fxyrk6x","1366","768","en","de05nk26","null","","","","learningBlock1","","","","This is a tob:","null","","","","",""
"","image-keyboard-response","74","455821","0.0-6.0-1.22","LF","1x4fxyrk6x","1366","768","en","de05nk26","null","","","","","","","","learning/Slide23.JPG","null","","","","",""
"","html-keyboard-response","75","456822","0.0-6.0-2.22","LF","1x4fxyrk6x","1366","768","en","de05nk26","null","","","","learningBlock1","","","","<div style=""font-size:60px;""> </div>","null","LF","learning/Slide23.JPG","This is a tob:","",""
"","html-keyboard-response","76","457823","0.0-6.0-0.23","LF","1x4fxyrk6x","1366","768","en","de05nk26","null","","","","learningBlock1","","","","This is a wug:","null","","","","",""
"","image-keyboard-response","77","458151","0.0-6.0-1.23","LF","1x4fxyrk6x","1366","768","en","de05nk26","null","","","","","","","","learning/Slide24.JPG","null","","","","",""
"","html-keyboard-response","78","459152","0.0-6.0-2.23","LF","1x4fxyrk6x","1366","768","en","de05nk26","null","","","","learningBlock1","","","","<div style=""font-size:60px;""> </div>","null","LF","learning/Slide24.JPG","This is a wug:","",""
"","html-keyboard-response","79","460153","0.0-6.0-0.24","LF","1x4fxyrk6x","1366","768","en","de05nk26","null","","","","learningBlock1","","","","This is a dep:","null","","","","",""
"","image-keyboard-response","80","460481","0.0-6.0-1.24","LF","1x4fxyrk6x","1366","768","en","de05nk26","null","","","","","","","","learning/Slide25.JPG","null","","","","",""
"","html-keyboard-response","81","461482","0.0-6.0-2.24","LF","1x4fxyrk6x","1366","768","en","de05nk26","null","","","","learningBlock1","","","","<div style=""font-size:60px;""> </div>","null","LF","learning/Slide25.JPG","This is a dep:","",""
"","html-keyboard-response","82","462484","0.0-6.0-0.25","LF","1x4fxyrk6x","1366","768","en","de05nk26","null","","","","learningBlock1","","","","This is a wug:","null","","","","",""
"","image-keyboard-response","83","462810","0.0-6.0-1.25","LF","1x4fxyrk6x","1366","768","en","de05nk26","null","","","","","","","","learning/Slide26.JPG","null","","","","",""
"","html-keyboard-response","84","463812","0.0-6.0-2.25","LF","1x4fxyrk6x","1366","768","en","de05nk26","null","","","","learningBlock1","","","","<div style=""font-size:60px;""> </div>","null","LF","learning/Slide26.JPG","This is a wug:","",""
"","html-keyboard-response","85","464813","0.0-6.0-0.26","LF","1x4fxyrk6x","1366","768","en","de05nk26","null","","","","learningBlock1","","","","This is a bim:","null","","","","",""
"","image-keyboard-response","86","465141","0.0-6.0-1.26","LF","1x4fxyrk6x","1366","768","en","de05nk26","null","","","","","","","","learning/Slide27.JPG","null","","","","",""
"","html-keyboard-response","87","466142","0.0-6.0-2.26","LF","1x4fxyrk6x","1366","768","en","de05nk26","null","","","","learningBlock1","","","","<div style=""font-size:60px;""> </div>","null","LF","learning/Slide27.JPG","This is a bim:","",""
"","html-keyboard-response","88","467144","0.0-6.0-0.27","LF","1x4fxyrk6x","1366","768","en","de05nk26","null","","","","learningBlock1","","","","This is a dep:","null","","","","",""
"","image-keyboard-response","89","467471","0.0-6.0-1.27","LF","1x4fxyrk6x","1366","768","en","de05nk26","null","","","","","","","","learning/Slide28.JPG","null","","","","",""
"","html-keyboard-response","90","468473","0.0-6.0-2.27","LF","1x4fxyrk6x","1366","768","en","de05nk26","null","","","","learningBlock1","","","","<div style=""font-size:60px;""> </div>","null","LF","learning/Slide28.JPG","This is a dep:","",""
"","html-keyboard-response","91","469474","0.0-6.0-0.28","LF","1x4fxyrk6x","1366","768","en","de05nk26","null","","","","learningBlock1","","","","This is a tob:","null","","","","",""
"","image-keyboard-response","92","469802","0.0-6.0-1.28","LF","1x4fxyrk6x","1366","768","en","de05nk26","null","","","","","","","","learning/Slide29.JPG","null","","","","",""
"","html-keyboard-response","93","470803","0.0-6.0-2.28","LF","1x4fxyrk6x","1366","768","en","de05nk26","null","","","","learningBlock1","","","","<div style=""font-size:60px;""> </div>","null","LF","learning/Slide29.JPG","This is a tob:","",""
"","html-keyboard-response","94","471804","0.0-6.0-0.29","LF","1x4fxyrk6x","1366","768","en","de05nk26","null","","","","learningBlock1","","","","This is a dep:","null","","","","",""
"","image-keyboard-response","95","472132","0.0-6.0-1.29","LF","1x4fxyrk6x","1366","768","en","de05nk26","null","","","","","","","","learning/Slide30.JPG","null","","","","",""
"","html-keyboard-response","96","473133","0.0-6.0-2.29","LF","1x4fxyrk6x","1366","768","en","de05nk26","null","","","","learningBlock1","","","","<div style=""font-size:60px;""> </div>","null","LF","learning/Slide30.JPG","This is a dep:","",""
"","html-keyboard-response","97","474134","0.0-6.0-0.30","LF","1x4fxyrk6x","1366","768","en","de05nk26","null","","","","learningBlock1","","","","This is a wug:","null","","","","",""
"","image-keyboard-response","98","474461","0.0-6.0-1.30","LF","1x4fxyrk6x","1366","768","en","de05nk26","null","","","","","","","","learning/Slide31.JPG","null","","","","",""
"","html-keyboard-response","99","475464","0.0-6.0-2.30","LF","1x4fxyrk6x","1366","768","en","de05nk26","null","","","","learningBlock1","","","","<div style=""font-size:60px;""> </div>","null","LF","learning/Slide31.JPG","This is a wug:","",""
"","html-keyboard-response","100","476465","0.0-6.0-0.31","LF","1x4fxyrk6x","1366","768","en","de05nk26","null","","","","learningBlock1","","","","This is a tob:","null","","","","",""
"","image-keyboard-response","101","476793","0.0-6.0-1.31","LF","1x4fxyrk6x","1366","768","en","de05nk26","null","","","","","","","","learning/Slide32.JPG","null","","","","",""
"","html-keyboard-response","102","477795","0.0-6.0-2.31","LF","1x4fxyrk6x","1366","768","en","de05nk26","null","","","","learningBlock1","","","","<div style=""font-size:60px;""> </div>","null","LF","learning/Slide32.JPG","This is a tob:","",""
"","html-keyboard-response","103","478797","0.0-6.0-0.32","LF","1x4fxyrk6x","1366","768","en","de05nk26","null","","","","learningBlock1","","","","This is a bim:","null","","","","",""
"","image-keyboard-response","104","479126","0.0-6.0-1.32","LF","1x4fxyrk6x","1366","768","en","de05nk26","null","","","","","","","","learning/Slide33.JPG","null","","","","",""
"","html-keyboard-response","105","480127","0.0-6.0-2.32","LF","1x4fxyrk6x","1366","768","en","de05nk26","null","","","","learningBlock1","","","","<div style=""font-size:60px;""> </div>","null","LF","learning/Slide33.JPG","This is a bim:","",""
"","html-keyboard-response","106","481129","0.0-6.0-0.33","LF","1x4fxyrk6x","1366","768","en","de05nk26","null","","","","learningBlock1","","","","This is a tob:","null","","","","",""
"","image-keyboard-response","107","481457","0.0-6.0-1.33","LF","1x4fxyrk6x","1366","768","en","de05nk26","null","","","","","","","","learning/Slide34.JPG","null","","","","",""
"","html-keyboard-response","108","482458","0.0-6.0-2.33","LF","1x4fxyrk6x","1366","768","en","de05nk26","null","","","","learningBlock1","","","","<div style=""font-size:60px;""> </div>","null","LF","learning/Slide34.JPG","This is a tob:","",""
"","html-keyboard-response","109","483460","0.0-6.0-0.34","LF","1x4fxyrk6x","1366","768","en","de05nk26","null","","","","learningBlock1","","","","This is a bim:","null","","","","",""
"","image-keyboard-response","110","483788","0.0-6.0-1.34","LF","1x4fxyrk6x","1366","768","en","de05nk26","null","","","","","","","","learning/Slide35.JPG","null","","","","",""
"","html-keyboard-response","111","484789","0.0-6.0-2.34","LF","1x4fxyrk6x","1366","768","en","de05nk26","null","","","","learningBlock1","","","","<div style=""font-size:60px;""> </div>","null","LF","learning/Slide35.JPG","This is a bim:","",""
"","html-keyboard-response","112","485790","0.0-6.0-0.35","LF","1x4fxyrk6x","1366","768","en","de05nk26","null","","","","learningBlock1","","","","This is a dep:","null","","","","",""
"","image-keyboard-response","113","486117","0.0-6.0-1.35","LF","1x4fxyrk6x","1366","768","en","de05nk26","null","","","","","","","","learning/Slide36.JPG","null","","","","",""
"","html-keyboard-response","114","487120","0.0-6.0-2.35","LF","1x4fxyrk6x","1366","768","en","de05nk26","null","","","","learningBlock1","","","","<div style=""font-size:60px;""> </div>","null","LF","learning/Slide36.JPG","This is a dep:","",""
"","html-keyboard-response","115","488121","0.0-6.0-0.36","LF","1x4fxyrk6x","1366","768","en","de05nk26","null","","","","learningBlock1","","","","This is a tob:","null","","","","",""
"","image-keyboard-response","116","488449","0.0-6.0-1.36","LF","1x4fxyrk6x","1366","768","en","de05nk26","null","","","","","","","","learning/Slide37.JPG","null","","","","",""
"","html-keyboard-response","117","489450","0.0-6.0-2.36","LF","1x4fxyrk6x","1366","768","en","de05nk26","null","","","","learningBlock1","","","","<div style=""font-size:60px;""> </div>","null","LF","learning/Slide37.JPG","This is a tob:","",""
"","html-keyboard-response","118","490451","0.0-6.0-0.37","LF","1x4fxyrk6x","1366","768","en","de05nk26","null","","","","learningBlock1","","","","This is a wug:","null","","","","",""
"","image-keyboard-response","119","490780","0.0-6.0-1.37","LF","1x4fxyrk6x","1366","768","en","de05nk26","null","","","","","","","","learning/Slide38.JPG","null","","","","",""
"","html-keyboard-response","120","491782","0.0-6.0-2.37","LF","1x4fxyrk6x","1366","768","en","de05nk26","null","","","","learningBlock1","","","","<div style=""font-size:60px;""> </div>","null","LF","learning/Slide38.JPG","This is a wug:","",""
"","html-keyboard-response","121","492783","0.0-6.0-0.38","LF","1x4fxyrk6x","1366","768","en","de05nk26","null","","","","learningBlock1","","","","This is a bim:","null","","","","",""
"","image-keyboard-response","122","493110","0.0-6.0-1.38","LF","1x4fxyrk6x","1366","768","en","de05nk26","null","","","","","","","","learning/Slide39.JPG","null","","","","",""
"","html-keyboard-response","123","494112","0.0-6.0-2.38","LF","1x4fxyrk6x","1366","768","en","de05nk26","null","","","","learningBlock1","","","","<div style=""font-size:60px;""> </div>","null","LF","learning/Slide39.JPG","This is a bim:","",""
"","html-keyboard-response","124","495114","0.0-6.0-0.39","LF","1x4fxyrk6x","1366","768","en","de05nk26","null","","","","learningBlock1","","","","This is a tob:","null","","","","",""
"","image-keyboard-response","125","495442","0.0-6.0-1.39","LF","1x4fxyrk6x","1366","768","en","de05nk26","null","","","","","","","","learning/Slide40.JPG","null","","","","",""
"","html-keyboard-response","126","496443","0.0-6.0-2.39","LF","1x4fxyrk6x","1366","768","en","de05nk26","null","","","","learningBlock1","","","","<div style=""font-size:60px;""> </div>","null","LF","learning/Slide40.JPG","This is a tob:","",""
"","html-keyboard-response","127","497445","0.0-6.0-0.40","LF","1x4fxyrk6x","1366","768","en","de05nk26","null","","","","learningBlock1","","","","This is a bim:","null","","","","",""
"","image-keyboard-response","128","497772","0.0-6.0-1.40","LF","1x4fxyrk6x","1366","768","en","de05nk26","null","","","","","","","","learning/Slide41.JPG","null","","","","",""
"","html-keyboard-response","129","498773","0.0-6.0-2.40","LF","1x4fxyrk6x","1366","768","en","de05nk26","null","","","","learningBlock1","","","","<div style=""font-size:60px;""> </div>","null","LF","learning/Slide41.JPG","This is a bim:","",""
"","html-keyboard-response","130","499774","0.0-6.0-0.41","LF","1x4fxyrk6x","1366","768","en","de05nk26","null","","","","learningBlock1","","","","This is a dep:","null","","","","",""
"","image-keyboard-response","131","500101","0.0-6.0-1.41","LF","1x4fxyrk6x","1366","768","en","de05nk26","null","","","","","","","","learning/Slide42.JPG","null","","","","",""
"","html-keyboard-response","132","501102","0.0-6.0-2.41","LF","1x4fxyrk6x","1366","768","en","de05nk26","null","","","","learningBlock1","","","","<div style=""font-size:60px;""> </div>","null","LF","learning/Slide42.JPG","This is a dep:","",""
"","html-keyboard-response","133","502104","0.0-6.0-0.42","LF","1x4fxyrk6x","1366","768","en","de05nk26","null","","","","learningBlock1","","","","This is a wug:","null","","","","",""
"","image-keyboard-response","134","502432","0.0-6.0-1.42","LF","1x4fxyrk6x","1366","768","en","de05nk26","null","","","","","","","","learning/Slide43.JPG","null","","","","",""
"","html-keyboard-response","135","503434","0.0-6.0-2.42","LF","1x4fxyrk6x","1366","768","en","de05nk26","null","","","","learningBlock1","","","","<div style=""font-size:60px;""> </div>","null","LF","learning/Slide43.JPG","This is a wug:","",""
"","html-keyboard-response","136","504435","0.0-6.0-0.43","LF","1x4fxyrk6x","1366","768","en","de05nk26","null","","","","learningBlock1","","","","This is a bim:","null","","","","",""
"","image-keyboard-response","137","504762","0.0-6.0-1.43","LF","1x4fxyrk6x","1366","768","en","de05nk26","null","","","","","","","","learning/Slide44.JPG","null","","","","",""
"","html-keyboard-response","138","505765","0.0-6.0-2.43","LF","1x4fxyrk6x","1366","768","en","de05nk26","null","","","","learningBlock1","","","","<div style=""font-size:60px;""> </div>","null","LF","learning/Slide44.JPG","This is a bim:","",""
"","html-keyboard-response","139","506766","0.0-6.0-0.44","LF","1x4fxyrk6x","1366","768","en","de05nk26","null","","","","learningBlock1","","","","This is a wug:","null","","","","",""
"","image-keyboard-response","140","507094","0.0-6.0-1.44","LF","1x4fxyrk6x","1366","768","en","de05nk26","null","","","","","","","","learning/Slide45.JPG","null","","","","",""
"","html-keyboard-response","141","508096","0.0-6.0-2.44","LF","1x4fxyrk6x","1366","768","en","de05nk26","null","","","","learningBlock1","","","","<div style=""font-size:60px;""> </div>","null","LF","learning/Slide45.JPG","This is a wug:","",""
"","html-keyboard-response","142","509098","0.0-6.0-0.45","LF","1x4fxyrk6x","1366","768","en","de05nk26","null","","","","learningBlock1","","","","This is a dep:","null","","","","",""
"","image-keyboard-response","143","509424","0.0-6.0-1.45","LF","1x4fxyrk6x","1366","768","en","de05nk26","null","","","","","","","","learning/Slide46.JPG","null","","","","",""
"","html-keyboard-response","144","510426","0.0-6.0-2.45","LF","1x4fxyrk6x","1366","768","en","de05nk26","null","","","","learningBlock1","","","","<div style=""font-size:60px;""> </div>","null","LF","learning/Slide46.JPG","This is a dep:","",""
"","html-keyboard-response","145","511428","0.0-6.0-0.46","LF","1x4fxyrk6x","1366","768","en","de05nk26","null","","","","learningBlock1","","","","This is a tob:","null","","","","",""
"","image-keyboard-response","146","511755","0.0-6.0-1.46","LF","1x4fxyrk6x","1366","768","en","de05nk26","null","","","","","","","","learning/Slide47.JPG","null","","","","",""
"","html-keyboard-response","147","512756","0.0-6.0-2.46","LF","1x4fxyrk6x","1366","768","en","de05nk26","null","","","","learningBlock1","","","","<div style=""font-size:60px;""> </div>","null","LF","learning/Slide47.JPG","This is a tob:","",""
"","html-keyboard-response","148","513758","0.0-6.0-0.47","LF","1x4fxyrk6x","1366","768","en","de05nk26","null","","","","learningBlock1","","","","This is a bim:","null","","","","",""
"","image-keyboard-response","149","514086","0.0-6.0-1.47","LF","1x4fxyrk6x","1366","768","en","de05nk26","null","","","","","","","","learning/Slide48.JPG","null","","","","",""
"","html-keyboard-response","150","515087","0.0-6.0-2.47","LF","1x4fxyrk6x","1366","768","en","de05nk26","null","","","","learningBlock1","","","","<div style=""font-size:60px;""> </div>","null","LF","learning/Slide48.JPG","This is a bim:","",""
"","html-keyboard-response","151","516089","0.0-6.0-0.48","LF","1x4fxyrk6x","1366","768","en","de05nk26","null","","","","learningBlock1","","","","This is a dep:","null","","","","",""
"","image-keyboard-response","152","516416","0.0-6.0-1.48","LF","1x4fxyrk6x","1366","768","en","de05nk26","null","","","","","","","","learning/Slide49.JPG","null","","","","",""
"","html-keyboard-response","153","517418","0.0-6.0-2.48","LF","1x4fxyrk6x","1366","768","en","de05nk26","null","","","","learningBlock1","","","","<div style=""font-size:60px;""> </div>","null","LF","learning/Slide49.JPG","This is a dep:","",""
"","html-keyboard-response","154","518419","0.0-6.0-0.49","LF","1x4fxyrk6x","1366","768","en","de05nk26","null","","","","learningBlock1","","","","This is a tob:","null","","","","",""
"","image-keyboard-response","155","518747","0.0-6.0-1.49","LF","1x4fxyrk6x","1366","768","en","de05nk26","null","","","","","","","","learning/Slide50.JPG","null","","","","",""
"","html-keyboard-response","156","519748","0.0-6.0-2.49","LF","1x4fxyrk6x","1366","768","en","de05nk26","null","","","","learningBlock1","","","","<div style=""font-size:60px;""> </div>","null","LF","learning/Slide50.JPG","This is a tob:","",""
"","html-keyboard-response","157","520750","0.0-6.0-0.50","LF","1x4fxyrk6x","1366","768","en","de05nk26","null","","","","learningBlock1","","","","This is a bim:","null","","","","",""
"","image-keyboard-response","158","521078","0.0-6.0-1.50","LF","1x4fxyrk6x","1366","768","en","de05nk26","null","","","","","","","","learning/Slide51.JPG","null","","","","",""
"","html-keyboard-response","159","522080","0.0-6.0-2.50","LF","1x4fxyrk6x","1366","768","en","de05nk26","null","","","","learningBlock1","","","","<div style=""font-size:60px;""> </div>","null","LF","learning/Slide51.JPG","This is a bim:","",""
"","html-keyboard-response","160","523082","0.0-6.0-0.51","LF","1x4fxyrk6x","1366","768","en","de05nk26","null","","","","learningBlock1","","","","This is a wug:","null","","","","",""
"","image-keyboard-response","161","523409","0.0-6.0-1.51","LF","1x4fxyrk6x","1366","768","en","de05nk26","null","","","","","","","","learning/Slide52.JPG","null","","","","",""
"","html-keyboard-response","162","524410","0.0-6.0-2.51","LF","1x4fxyrk6x","1366","768","en","de05nk26","null","","","","learningBlock1","","","","<div style=""font-size:60px;""> </div>","null","LF","learning/Slide52.JPG","This is a wug:","",""
"","html-keyboard-response","163","525412","0.0-6.0-0.52","LF","1x4fxyrk6x","1366","768","en","de05nk26","null","","","","learningBlock1","","","","This is a tob:","null","","","","",""
"","image-keyboard-response","164","525740","0.0-6.0-1.52","LF","1x4fxyrk6x","1366","768","en","de05nk26","null","","","","","","","","learning/Slide53.JPG","null","","","","",""
"","html-keyboard-response","165","526742","0.0-6.0-2.52","LF","1x4fxyrk6x","1366","768","en","de05nk26","null","","","","learningBlock1","","","","<div style=""font-size:60px;""> </div>","null","LF","learning/Slide53.JPG","This is a tob:","",""
"","html-keyboard-response","166","527744","0.0-6.0-0.53","LF","1x4fxyrk6x","1366","768","en","de05nk26","null","","","","learningBlock1","","","","This is a dep:","null","","","","",""
"","image-keyboard-response","167","528070","0.0-6.0-1.53","LF","1x4fxyrk6x","1366","768","en","de05nk26","null","","","","","","","","learning/Slide54.JPG","null","","","","",""
"","html-keyboard-response","168","529073","0.0-6.0-2.53","LF","1x4fxyrk6x","1366","768","en","de05nk26","null","","","","learningBlock1","","","","<div style=""font-size:60px;""> </div>","null","LF","learning/Slide54.JPG","This is a dep:","",""
"","html-keyboard-response","169","530075","0.0-6.0-0.54","LF","1x4fxyrk6x","1366","768","en","de05nk26","null","","","","learningBlock1","","","","This is a bim:","null","","","","",""
"","image-keyboard-response","170","530402","0.0-6.0-1.54","LF","1x4fxyrk6x","1366","768","en","de05nk26","null","","","","","","","","learning/Slide55.JPG","null","","","","",""
"","html-keyboard-response","171","531403","0.0-6.0-2.54","LF","1x4fxyrk6x","1366","768","en","de05nk26","null","","","","learningBlock1","","","","<div style=""font-size:60px;""> </div>","null","LF","learning/Slide55.JPG","This is a bim:","",""
"","html-keyboard-response","172","532405","0.0-6.0-0.55","LF","1x4fxyrk6x","1366","768","en","de05nk26","null","","","","learningBlock1","","","","This is a tob:","null","","","","",""
"","image-keyboard-response","173","532732","0.0-6.0-1.55","LF","1x4fxyrk6x","1366","768","en","de05nk26","null","","","","","","","","learning/Slide56.JPG","null","","","","",""
"","html-keyboard-response","174","533734","0.0-6.0-2.55","LF","1x4fxyrk6x","1366","768","en","de05nk26","null","","","","learningBlock1","","","","<div style=""font-size:60px;""> </div>","null","LF","learning/Slide56.JPG","This is a tob:","",""
"","html-keyboard-response","175","534735","0.0-6.0-0.56","LF","1x4fxyrk6x","1366","768","en","de05nk26","null","","","","learningBlock1","","","","This is a dep:","null","","","","",""
"","image-keyboard-response","176","535063","0.0-6.0-1.56","LF","1x4fxyrk6x","1366","768","en","de05nk26","null","","","","","","","","learning/Slide57.JPG","null","","","","",""
"","html-keyboard-response","177","536065","0.0-6.0-2.56","LF","1x4fxyrk6x","1366","768","en","de05nk26","null","","","","learningBlock1","","","","<div style=""font-size:60px;""> </div>","null","LF","learning/Slide57.JPG","This is a dep:","",""
"","html-keyboard-response","178","537066","0.0-6.0-0.57","LF","1x4fxyrk6x","1366","768","en","de05nk26","null","","","","learningBlock1","","","","This is a wug:","null","","","","",""
"","image-keyboard-response","179","537393","0.0-6.0-1.57","LF","1x4fxyrk6x","1366","768","en","de05nk26","null","","","","","","","","learning/Slide58.JPG","null","","","","",""
"","html-keyboard-response","180","538395","0.0-6.0-2.57","LF","1x4fxyrk6x","1366","768","en","de05nk26","null","","","","learningBlock1","","","","<div style=""font-size:60px;""> </div>","null","LF","learning/Slide58.JPG","This is a wug:","",""
"","html-keyboard-response","181","539396","0.0-6.0-0.58","LF","1x4fxyrk6x","1366","768","en","de05nk26","null","","","","learningBlock1","","","","This is a dep:","null","","","","",""
"","image-keyboard-response","182","539724","0.0-6.0-1.58","LF","1x4fxyrk6x","1366","768","en","de05nk26","null","","","","","","","","learning/Slide59.JPG","null","","","","",""
"","html-keyboard-response","183","540726","0.0-6.0-2.58","LF","1x4fxyrk6x","1366","768","en","de05nk26","null","","","","learningBlock1","","","","<div style=""font-size:60px;""> </div>","null","LF","learning/Slide59.JPG","This is a dep:","",""
"","html-keyboard-response","184","541727","0.0-6.0-0.59","LF","1x4fxyrk6x","1366","768","en","de05nk26","null","","","","learningBlock1","","","","This is a wug:","null","","","","",""
"","image-keyboard-response","185","542054","0.0-6.0-1.59","LF","1x4fxyrk6x","1366","768","en","de05nk26","null","","","","","","","","learning/Slide60.JPG","null","","","","",""
"","html-keyboard-response","186","543056","0.0-6.0-2.59","LF","1x4fxyrk6x","1366","768","en","de05nk26","null","","","","learningBlock1","","","","<div style=""font-size:60px;""> </div>","null","LF","learning/Slide60.JPG","This is a wug:","",""
"","html-keyboard-response","187","544057","0.0-6.0-0.60","LF","1x4fxyrk6x","1366","768","en","de05nk26","null","","","","learningBlock1","","","","This is a bim:","null","","","","",""
"","image-keyboard-response","188","544384","0.0-6.0-1.60","LF","1x4fxyrk6x","1366","768","en","de05nk26","null","","","","","","","","learning/Slide61.JPG","null","","","","",""
"","html-keyboard-response","189","545386","0.0-6.0-2.60","LF","1x4fxyrk6x","1366","768","en","de05nk26","null","","","","learningBlock1","","","","<div style=""font-size:60px;""> </div>","null","LF","learning/Slide61.JPG","This is a bim:","",""
"","html-keyboard-response","190","546388","0.0-6.0-0.61","LF","1x4fxyrk6x","1366","768","en","de05nk26","null","","","","learningBlock1","","","","This is a dep:","null","","","","",""
"","image-keyboard-response","191","546714","0.0-6.0-1.61","LF","1x4fxyrk6x","1366","768","en","de05nk26","null","","","","","","","","learning/Slide62.JPG","null","","","","",""
"","html-keyboard-response","192","547716","0.0-6.0-2.61","LF","1x4fxyrk6x","1366","768","en","de05nk26","null","","","","learningBlock1","","","","<div style=""font-size:60px;""> </div>","null","LF","learning/Slide62.JPG","This is a dep:","",""
"","html-keyboard-response","193","548718","0.0-6.0-0.62","LF","1x4fxyrk6x","1366","768","en","de05nk26","null","","","","learningBlock1","","","","This is a bim:","null","","","","",""
"","image-keyboard-response","194","549045","0.0-6.0-1.62","LF","1x4fxyrk6x","1366","768","en","de05nk26","null","","","","","","","","learning/Slide63.JPG","null","","","","",""
"","html-keyboard-response","195","550047","0.0-6.0-2.62","LF","1x4fxyrk6x","1366","768","en","de05nk26","null","","","","learningBlock1","","","","<div style=""font-size:60px;""> </div>","null","LF","learning/Slide63.JPG","This is a bim:","",""
"","html-keyboard-response","196","551048","0.0-6.0-0.63","LF","1x4fxyrk6x","1366","768","en","de05nk26","null","","","","learningBlock1","","","","This is a tob:","null","","","","",""
"","image-keyboard-response","197","551376","0.0-6.0-1.63","LF","1x4fxyrk6x","1366","768","en","de05nk26","null","","","","","","","","learning/Slide64.JPG","null","","","","",""
"","html-keyboard-response","198","552377","0.0-6.0-2.63","LF","1x4fxyrk6x","1366","768","en","de05nk26","null","","","","learningBlock1","","","","<div style=""font-size:60px;""> </div>","null","LF","learning/Slide64.JPG","This is a tob:","",""
"","html-keyboard-response","199","553378","0.0-6.0-0.64","LF","1x4fxyrk6x","1366","768","en","de05nk26","null","","","","learningBlock1","","","","This is a wug:","null","","","","",""
"","image-keyboard-response","200","553707","0.0-6.0-1.64","LF","1x4fxyrk6x","1366","768","en","de05nk26","null","","","","","","","","learning/Slide65.JPG","null","","","","",""
"","html-keyboard-response","201","554711","0.0-6.0-2.64","LF","1x4fxyrk6x","1366","768","en","de05nk26","null","","","","learningBlock1","","","","<div style=""font-size:60px;""> </div>","null","LF","learning/Slide65.JPG","This is a wug:","",""
"","html-keyboard-response","202","555714","0.0-6.0-0.65","LF","1x4fxyrk6x","1366","768","en","de05nk26","null","","","","learningBlock1","","","","This is a dep:","null","","","","",""
"","image-keyboard-response","203","556042","0.0-6.0-1.65","LF","1x4fxyrk6x","1366","768","en","de05nk26","null","","","","","","","","learning/Slide66.JPG","null","","","","",""
"","html-keyboard-response","204","557043","0.0-6.0-2.65","LF","1x4fxyrk6x","1366","768","en","de05nk26","null","","","","learningBlock1","","","","<div style=""font-size:60px;""> </div>","null","LF","learning/Slide66.JPG","This is a dep:","",""
"","html-keyboard-response","205","558045","0.0-6.0-0.66","LF","1x4fxyrk6x","1366","768","en","de05nk26","null","","","","learningBlock1","","","","This is a tob:","null","","","","",""
"","image-keyboard-response","206","558373","0.0-6.0-1.66","LF","1x4fxyrk6x","1366","768","en","de05nk26","null","","","","","","","","learning/Slide67.JPG","null","","","","",""
"","html-keyboard-response","207","559374","0.0-6.0-2.66","LF","1x4fxyrk6x","1366","768","en","de05nk26","null","","","","learningBlock1","","","","<div style=""font-size:60px;""> </div>","null","LF","learning/Slide67.JPG","This is a tob:","",""
"","html-keyboard-response","208","560376","0.0-6.0-0.67","LF","1x4fxyrk6x","1366","768","en","de05nk26","null","","","","learningBlock1","","","","This is a wug:","null","","","","",""
"","image-keyboard-response","209","560703","0.0-6.0-1.67","LF","1x4fxyrk6x","1366","768","en","de05nk26","null","","","","","","","","learning/Slide68.JPG","null","","","","",""
"","html-keyboard-response","210","561705","0.0-6.0-2.67","LF","1x4fxyrk6x","1366","768","en","de05nk26","null","","","","learningBlock1","","","","<div style=""font-size:60px;""> </div>","null","LF","learning/Slide68.JPG","This is a wug:","",""
"","html-keyboard-response","211","562706","0.0-6.0-0.68","LF","1x4fxyrk6x","1366","768","en","de05nk26","null","","","","learningBlock1","","","","This is a tob:","null","","","","",""
"","image-keyboard-response","212","563033","0.0-6.0-1.68","LF","1x4fxyrk6x","1366","768","en","de05nk26","null","","","","","","","","learning/Slide69.JPG","null","","","","",""
"","html-keyboard-response","213","564035","0.0-6.0-2.68","LF","1x4fxyrk6x","1366","768","en","de05nk26","null","","","","learningBlock1","","","","<div style=""font-size:60px;""> </div>","null","LF","learning/Slide69.JPG","This is a tob:","",""
"","html-keyboard-response","214","565036","0.0-6.0-0.69","LF","1x4fxyrk6x","1366","768","en","de05nk26","null","","","","learningBlock1","","","","This is a dep:","null","","","","",""
"","image-keyboard-response","215","565365","0.0-6.0-1.69","LF","1x4fxyrk6x","1366","768","en","de05nk26","null","","","","","","","","learning/Slide70.JPG","null","","","","",""
"","html-keyboard-response","216","566368","0.0-6.0-2.69","LF","1x4fxyrk6x","1366","768","en","de05nk26","null","","","","learningBlock1","","","","<div style=""font-size:60px;""> </div>","null","LF","learning/Slide70.JPG","This is a dep:","",""
"","html-keyboard-response","217","567371","0.0-6.0-0.70","LF","1x4fxyrk6x","1366","768","en","de05nk26","null","","","","learningBlock1","","","","This is a wug:","null","","","","",""
"","image-keyboard-response","218","567698","0.0-6.0-1.70","LF","1x4fxyrk6x","1366","768","en","de05nk26","null","","","","","","","","learning/Slide71.JPG","null","","","","",""
"","html-keyboard-response","219","568700","0.0-6.0-2.70","LF","1x4fxyrk6x","1366","768","en","de05nk26","null","","","","learningBlock1","","","","<div style=""font-size:60px;""> </div>","null","LF","learning/Slide71.JPG","This is a wug:","",""
"","html-keyboard-response","220","569701","0.0-6.0-0.71","LF","1x4fxyrk6x","1366","768","en","de05nk26","null","","","","learningBlock1","","","","This is a bim:","null","","","","",""
"","image-keyboard-response","221","570029","0.0-6.0-1.71","LF","1x4fxyrk6x","1366","768","en","de05nk26","null","","","","","","","","learning/Slide72.JPG","null","","","","",""
"","html-keyboard-response","222","571030","0.0-6.0-2.71","LF","1x4fxyrk6x","1366","768","en","de05nk26","null","","","","learningBlock1","","","","<div style=""font-size:60px;""> </div>","null","LF","learning/Slide72.JPG","This is a bim:","",""
"","html-keyboard-response","223","572031","0.0-6.0-0.72","LF","1x4fxyrk6x","1366","768","en","de05nk26","null","","","","learningBlock1","","","","This is a wug:","null","","","","",""
"","image-keyboard-response","224","572360","0.0-6.0-1.72","LF","1x4fxyrk6x","1366","768","en","de05nk26","null","","","","","","","","learning/Slide73.JPG","null","","","","",""
"","html-keyboard-response","225","573362","0.0-6.0-2.72","LF","1x4fxyrk6x","1366","768","en","de05nk26","null","","","","learningBlock1","","","","<div style=""font-size:60px;""> </div>","null","LF","learning/Slide73.JPG","This is a wug:","",""
"","html-keyboard-response","226","574364","0.0-6.0-0.73","LF","1x4fxyrk6x","1366","768","en","de05nk26","null","","","","learningBlock1","","","","This is a dep:","null","","","","",""
"","image-keyboard-response","227","574691","0.0-6.0-1.73","LF","1x4fxyrk6x","1366","768","en","de05nk26","null","","","","","","","","learning/Slide74.JPG","null","","","","",""
"","html-keyboard-response","228","575693","0.0-6.0-2.73","LF","1x4fxyrk6x","1366","768","en","de05nk26","null","","","","learningBlock1","","","","<div style=""font-size:60px;""> </div>","null","LF","learning/Slide74.JPG","This is a dep:","",""
"","html-keyboard-response","229","576695","0.0-6.0-0.74","LF","1x4fxyrk6x","1366","768","en","de05nk26","null","","","","learningBlock1","","","","This is a tob:","null","","","","",""
"","image-keyboard-response","230","577022","0.0-6.0-1.74","LF","1x4fxyrk6x","1366","768","en","de05nk26","null","","","","","","","","learning/Slide75.JPG","null","","","","",""
"","html-keyboard-response","231","578023","0.0-6.0-2.74","LF","1x4fxyrk6x","1366","768","en","de05nk26","null","","","","learningBlock1","","","","<div style=""font-size:60px;""> </div>","null","LF","learning/Slide75.JPG","This is a tob:","",""
"","html-keyboard-response","232","579025","0.0-6.0-0.75","LF","1x4fxyrk6x","1366","768","en","de05nk26","null","","","","learningBlock1","","","","This is a bim:","null","","","","",""
"","image-keyboard-response","233","579352","0.0-6.0-1.75","LF","1x4fxyrk6x","1366","768","en","de05nk26","null","","","","","","","","learning/Slide76.JPG","null","","","","",""
"","html-keyboard-response","234","580354","0.0-6.0-2.75","LF","1x4fxyrk6x","1366","768","en","de05nk26","null","","","","learningBlock1","","","","<div style=""font-size:60px;""> </div>","null","LF","learning/Slide76.JPG","This is a bim:","",""
"","html-keyboard-response","235","581355","0.0-6.0-0.76","LF","1x4fxyrk6x","1366","768","en","de05nk26","null","","","","learningBlock1","","","","This is a tob:","null","","","","",""
"","image-keyboard-response","236","581683","0.0-6.0-1.76","LF","1x4fxyrk6x","1366","768","en","de05nk26","null","","","","","","","","learning/Slide77.JPG","null","","","","",""
"","html-keyboard-response","237","582684","0.0-6.0-2.76","LF","1x4fxyrk6x","1366","768","en","de05nk26","null","","","","learningBlock1","","","","<div style=""font-size:60px;""> </div>","null","LF","learning/Slide77.JPG","This is a tob:","",""
"","html-keyboard-response","238","583686","0.0-6.0-0.77","LF","1x4fxyrk6x","1366","768","en","de05nk26","null","","","","learningBlock1","","","","This is a wug:","null","","","","",""
"","image-keyboard-response","239","584013","0.0-6.0-1.77","LF","1x4fxyrk6x","1366","768","en","de05nk26","null","","","","","","","","learning/Slide78.JPG","null","","","","",""
"","html-keyboard-response","240","585015","0.0-6.0-2.77","LF","1x4fxyrk6x","1366","768","en","de05nk26","null","","","","learningBlock1","","","","<div style=""font-size:60px;""> </div>","null","LF","learning/Slide78.JPG","This is a wug:","",""
"","html-keyboard-response","241","586016","0.0-6.0-0.78","LF","1x4fxyrk6x","1366","768","en","de05nk26","null","","","","learningBlock1","","","","This is a bim:","null","","","","",""
"","image-keyboard-response","242","586344","0.0-6.0-1.78","LF","1x4fxyrk6x","1366","768","en","de05nk26","null","","","","","","","","learning/Slide79.JPG","null","","","","",""
"","html-keyboard-response","243","587345","0.0-6.0-2.78","LF","1x4fxyrk6x","1366","768","en","de05nk26","null","","","","learningBlock1","","","","<div style=""font-size:60px;""> </div>","null","LF","learning/Slide79.JPG","This is a bim:","",""
"","html-keyboard-response","244","588347","0.0-6.0-0.79","LF","1x4fxyrk6x","1366","768","en","de05nk26","null","","","","learningBlock1","","","","This is a tob:","null","","","","",""
"","image-keyboard-response","245","588675","0.0-6.0-1.79","LF","1x4fxyrk6x","1366","768","en","de05nk26","null","","","","","","","","learning/Slide80.JPG","null","","","","",""
"","html-keyboard-response","246","589676","0.0-6.0-2.79","LF","1x4fxyrk6x","1366","768","en","de05nk26","null","","","","learningBlock1","","","","<div style=""font-size:60px;""> </div>","null","LF","learning/Slide80.JPG","This is a tob:","",""
"","instructions","247","624131","0.0-7.0","LF","1x4fxyrk6x","1366","768","en","de05nk26","NA","","","[{""page_index"":0,""viewing_time"":34453}]","instructions","","","","","","","","","",""
"","html-keyboard-response","248","625135","0.0-8.0-0.0","LF","1x4fxyrk6x","1366","768","en","de05nk26","null","","","","learningBlock2","","","","This is a wug:","null","","","","",""
"","image-keyboard-response","249","625464","0.0-8.0-1.0","LF","1x4fxyrk6x","1366","768","en","de05nk26","null","","","","","","","","learning/Slide81.JPG","null","","","","",""
"","html-keyboard-response","250","626465","0.0-8.0-2.0","LF","1x4fxyrk6x","1366","768","en","de05nk26","null","","","","learningBlock2","","","","<div style=""font-size:60px;""> </div>","null","LF","learning/Slide81.JPG","This is a wug:","",""
"","html-keyboard-response","251","627467","0.0-8.0-0.1","LF","1x4fxyrk6x","1366","768","en","de05nk26","null","","","","learningBlock2","","","","This is a bim:","null","","","","",""
"","image-keyboard-response","252","627795","0.0-8.0-1.1","LF","1x4fxyrk6x","1366","768","en","de05nk26","null","","","","","","","","learning/Slide82.JPG","null","","","","",""
"","html-keyboard-response","253","628795","0.0-8.0-2.1","LF","1x4fxyrk6x","1366","768","en","de05nk26","null","","","","learningBlock2","","","","<div style=""font-size:60px;""> </div>","null","LF","learning/Slide82.JPG","This is a bim:","",""
"","html-keyboard-response","254","629797","0.0-8.0-0.2","LF","1x4fxyrk6x","1366","768","en","de05nk26","null","","","","learningBlock2","","","","This is a wug:","null","","","","",""
"","image-keyboard-response","255","630124","0.0-8.0-1.2","LF","1x4fxyrk6x","1366","768","en","de05nk26","null","","","","","","","","learning/Slide83.JPG","null","","","","",""
"","html-keyboard-response","256","631127","0.0-8.0-2.2","LF","1x4fxyrk6x","1366","768","en","de05nk26","null","","","","learningBlock2","","","","<div style=""font-size:60px;""> </div>","null","LF","learning/Slide83.JPG","This is a wug:","",""
"","html-keyboard-response","257","632128","0.0-8.0-0.3","LF","1x4fxyrk6x","1366","768","en","de05nk26","null","","","","learningBlock2","","","","This is a dep:","null","","","","",""
"","image-keyboard-response","258","632457","0.0-8.0-1.3","LF","1x4fxyrk6x","1366","768","en","de05nk26","null","","","","","","","","learning/Slide84.JPG","null","","","","",""
"","html-keyboard-response","259","633457","0.0-8.0-2.3","LF","1x4fxyrk6x","1366","768","en","de05nk26","null","","","","learningBlock2","","","","<div style=""font-size:60px;""> </div>","null","LF","learning/Slide84.JPG","This is a dep:","",""
"","html-keyboard-response","260","634459","0.0-8.0-0.4","LF","1x4fxyrk6x","1366","768","en","de05nk26","null","","","","learningBlock2","","","","This is a bim:","null","","","","",""
"","image-keyboard-response","261","634787","0.0-8.0-1.4","LF","1x4fxyrk6x","1366","768","en","de05nk26","null","","","","","","","","learning/Slide85.JPG","null","","","","",""
"","html-keyboard-response","262","635789","0.0-8.0-2.4","LF","1x4fxyrk6x","1366","768","en","de05nk26","null","","","","learningBlock2","","","","<div style=""font-size:60px;""> </div>","null","LF","learning/Slide85.JPG","This is a bim:","",""
"","html-keyboard-response","263","636791","0.0-8.0-0.5","LF","1x4fxyrk6x","1366","768","en","de05nk26","null","","","","learningBlock2","","","","This is a tob:","null","","","","",""
"","image-keyboard-response","264","637118","0.0-8.0-1.5","LF","1x4fxyrk6x","1366","768","en","de05nk26","null","","","","","","","","learning/Slide86.JPG","null","","","","",""
"","html-keyboard-response","265","638119","0.0-8.0-2.5","LF","1x4fxyrk6x","1366","768","en","de05nk26","null","","","","learningBlock2","","","","<div style=""font-size:60px;""> </div>","null","LF","learning/Slide86.JPG","This is a tob:","",""
"","html-keyboard-response","266","639120","0.0-8.0-0.6","LF","1x4fxyrk6x","1366","768","en","de05nk26","null","","","","learningBlock2","","","","This is a wug:","null","","","","",""
"","image-keyboard-response","267","639448","0.0-8.0-1.6","LF","1x4fxyrk6x","1366","768","en","de05nk26","null","","","","","","","","learning/Slide87.JPG","null","","","","",""
"","html-keyboard-response","268","640449","0.0-8.0-2.6","LF","1x4fxyrk6x","1366","768","en","de05nk26","null","","","","learningBlock2","","","","<div style=""font-size:60px;""> </div>","null","LF","learning/Slide87.JPG","This is a wug:","",""
"","html-keyboard-response","269","641451","0.0-8.0-0.7","LF","1x4fxyrk6x","1366","768","en","de05nk26","null","","","","learningBlock2","","","","This is a tob:","null","","","","",""
"","image-keyboard-response","270","641778","0.0-8.0-1.7","LF","1x4fxyrk6x","1366","768","en","de05nk26","null","","","","","","","","learning/Slide88.JPG","null","","","","",""
"","html-keyboard-response","271","642780","0.0-8.0-2.7","LF","1x4fxyrk6x","1366","768","en","de05nk26","null","","","","learningBlock2","","","","<div style=""font-size:60px;""> </div>","null","LF","learning/Slide88.JPG","This is a tob:","",""
"","html-keyboard-response","272","643781","0.0-8.0-0.8","LF","1x4fxyrk6x","1366","768","en","de05nk26","null","","","","learningBlock2","","","","This is a bim:","null","","","","",""
"","image-keyboard-response","273","644109","0.0-8.0-1.8","LF","1x4fxyrk6x","1366","768","en","de05nk26","null","","","","","","","","learning/Slide89.JPG","null","","","","",""
"","html-keyboard-response","274","645111","0.0-8.0-2.8","LF","1x4fxyrk6x","1366","768","en","de05nk26","null","","","","learningBlock2","","","","<div style=""font-size:60px;""> </div>","null","LF","learning/Slide89.JPG","This is a bim:","",""
"","html-keyboard-response","275","646113","0.0-8.0-0.9","LF","1x4fxyrk6x","1366","768","en","de05nk26","null","","","","learningBlock2","","","","This is a dep:","null","","","","",""
"","image-keyboard-response","276","646440","0.0-8.0-1.9","LF","1x4fxyrk6x","1366","768","en","de05nk26","null","","","","","","","","learning/Slide90.JPG","null","","","","",""
"","html-keyboard-response","277","647441","0.0-8.0-2.9","LF","1x4fxyrk6x","1366","768","en","de05nk26","null","","","","learningBlock2","","","","<div style=""font-size:60px;""> </div>","null","LF","learning/Slide90.JPG","This is a dep:","",""
"","html-keyboard-response","278","648443","0.0-8.0-0.10","LF","1x4fxyrk6x","1366","768","en","de05nk26","null","","","","learningBlock2","","","","This is a wug:","null","","","","",""
"","image-keyboard-response","279","648770","0.0-8.0-1.10","LF","1x4fxyrk6x","1366","768","en","de05nk26","null","","","","","","","","learning/Slide91.JPG","null","","","","",""
"","html-keyboard-response","280","649772","0.0-8.0-2.10","LF","1x4fxyrk6x","1366","768","en","de05nk26","null","","","","learningBlock2","","","","<div style=""font-size:60px;""> </div>","null","LF","learning/Slide91.JPG","This is a wug:","",""
"","html-keyboard-response","281","650774","0.0-8.0-0.11","LF","1x4fxyrk6x","1366","768","en","de05nk26","null","","","","learningBlock2","","","","This is a tob:","null","","","","",""
"","image-keyboard-response","282","651102","0.0-8.0-1.11","LF","1x4fxyrk6x","1366","768","en","de05nk26","null","","","","","","","","learning/Slide92.JPG","null","","","","",""
"","html-keyboard-response","283","652104","0.0-8.0-2.11","LF","1x4fxyrk6x","1366","768","en","de05nk26","null","","","","learningBlock2","","","","<div style=""font-size:60px;""> </div>","null","LF","learning/Slide92.JPG","This is a tob:","",""
"","html-keyboard-response","284","653105","0.0-8.0-0.12","LF","1x4fxyrk6x","1366","768","en","de05nk26","null","","","","learningBlock2","","","","This is a bim:","null","","","","",""
"","image-keyboard-response","285","653433","0.0-8.0-1.12","LF","1x4fxyrk6x","1366","768","en","de05nk26","null","","","","","","","","learning/Slide93.JPG","null","","","","",""
"","html-keyboard-response","286","654434","0.0-8.0-2.12","LF","1x4fxyrk6x","1366","768","en","de05nk26","null","","","","learningBlock2","","","","<div style=""font-size:60px;""> </div>","null","LF","learning/Slide93.JPG","This is a bim:","",""
"","html-keyboard-response","287","655436","0.0-8.0-0.13","LF","1x4fxyrk6x","1366","768","en","de05nk26","null","","","","learningBlock2","","","","This is a tob:","null","","","","",""
"","image-keyboard-response","288","655763","0.0-8.0-1.13","LF","1x4fxyrk6x","1366","768","en","de05nk26","null","","","","","","","","learning/Slide94.JPG","null","","","","",""
"","html-keyboard-response","289","656765","0.0-8.0-2.13","LF","1x4fxyrk6x","1366","768","en","de05nk26","null","","","","learningBlock2","","","","<div style=""font-size:60px;""> </div>","null","LF","learning/Slide94.JPG","This is a tob:","",""
"","html-keyboard-response","290","657766","0.0-8.0-0.14","LF","1x4fxyrk6x","1366","768","en","de05nk26","null","","","","learningBlock2","","","","This is a wug:","null","","","","",""
"","image-keyboard-response","291","658096","0.0-8.0-1.14","LF","1x4fxyrk6x","1366","768","en","de05nk26","null","","","","","","","","learning/Slide95.JPG","null","","","","",""
"","html-keyboard-response","292","659098","0.0-8.0-2.14","LF","1x4fxyrk6x","1366","768","en","de05nk26","null","","","","learningBlock2","","","","<div style=""font-size:60px;""> </div>","null","LF","learning/Slide95.JPG","This is a wug:","",""
"","html-keyboard-response","293","660100","0.0-8.0-0.15","LF","1x4fxyrk6x","1366","768","en","de05nk26","null","","","","learningBlock2","","","","This is a tob:","null","","","","",""
"","image-keyboard-response","294","660427","0.0-8.0-1.15","LF","1x4fxyrk6x","1366","768","en","de05nk26","null","","","","","","","","learning/Slide96.JPG","null","","","","",""
"","html-keyboard-response","295","661427","0.0-8.0-2.15","LF","1x4fxyrk6x","1366","768","en","de05nk26","null","","","","learningBlock2","","","","<div style=""font-size:60px;""> </div>","null","LF","learning/Slide96.JPG","This is a tob:","",""
"","html-keyboard-response","296","662429","0.0-8.0-0.16","LF","1x4fxyrk6x","1366","768","en","de05nk26","null","","","","learningBlock2","","","","This is a dep:","null","","","","",""
"","image-keyboard-response","297","662756","0.0-8.0-1.16","LF","1x4fxyrk6x","1366","768","en","de05nk26","null","","","","","","","","learning/Slide97.JPG","null","","","","",""
"","html-keyboard-response","298","663758","0.0-8.0-2.16","LF","1x4fxyrk6x","1366","768","en","de05nk26","null","","","","learningBlock2","","","","<div style=""font-size:60px;""> </div>","null","LF","learning/Slide97.JPG","This is a dep:","",""
"","html-keyboard-response","299","664760","0.0-8.0-0.17","LF","1x4fxyrk6x","1366","768","en","de05nk26","null","","","","learningBlock2","","","","This is a bim:","null","","","","",""
"","image-keyboard-response","300","665088","0.0-8.0-1.17","LF","1x4fxyrk6x","1366","768","en","de05nk26","null","","","","","","","","learning/Slide98.JPG","null","","","","",""
"","html-keyboard-response","301","666089","0.0-8.0-2.17","LF","1x4fxyrk6x","1366","768","en","de05nk26","null","","","","learningBlock2","","","","<div style=""font-size:60px;""> </div>","null","LF","learning/Slide98.JPG","This is a bim:","",""
"","html-keyboard-response","302","667091","0.0-8.0-0.18","LF","1x4fxyrk6x","1366","768","en","de05nk26","null","","","","learningBlock2","","","","This is a dep:","null","","","","",""
"","image-keyboard-response","303","667418","0.0-8.0-1.18","LF","1x4fxyrk6x","1366","768","en","de05nk26","null","","","","","","","","learning/Slide99.JPG","null","","","","",""
"","html-keyboard-response","304","668420","0.0-8.0-2.18","LF","1x4fxyrk6x","1366","768","en","de05nk26","null","","","","learningBlock2","","","","<div style=""font-size:60px;""> </div>","null","LF","learning/Slide99.JPG","This is a dep:","",""
"","html-keyboard-response","305","669422","0.0-8.0-0.19","LF","1x4fxyrk6x","1366","768","en","de05nk26","null","","","","learningBlock2","","","","This is a bim:","null","","","","",""
"","image-keyboard-response","306","669749","0.0-8.0-1.19","LF","1x4fxyrk6x","1366","768","en","de05nk26","null","","","","","","","","learning/Slide100.JPG","null","","","","",""
"","html-keyboard-response","307","670752","0.0-8.0-2.19","LF","1x4fxyrk6x","1366","768","en","de05nk26","null","","","","learningBlock2","","","","<div style=""font-size:60px;""> </div>","null","LF","learning/Slide100.JPG","This is a bim:","",""
"","html-keyboard-response","308","671754","0.0-8.0-0.20","LF","1x4fxyrk6x","1366","768","en","de05nk26","null","","","","learningBlock2","","","","This is a tob:","null","","","","",""
"","image-keyboard-response","309","672080","0.0-8.0-1.20","LF","1x4fxyrk6x","1366","768","en","de05nk26","null","","","","","","","","learning/Slide101.JPG","null","","","","",""
"","html-keyboard-response","310","673082","0.0-8.0-2.20","LF","1x4fxyrk6x","1366","768","en","de05nk26","null","","","","learningBlock2","","","","<div style=""font-size:60px;""> </div>","null","LF","learning/Slide101.JPG","This is a tob:","",""
"","html-keyboard-response","311","674084","0.0-8.0-0.21","LF","1x4fxyrk6x","1366","768","en","de05nk26","null","","","","learningBlock2","","","","This is a bim:","null","","","","",""
"","image-keyboard-response","312","674411","0.0-8.0-1.21","LF","1x4fxyrk6x","1366","768","en","de05nk26","null","","","","","","","","learning/Slide102.JPG","null","","","","",""
"","html-keyboard-response","313","675413","0.0-8.0-2.21","LF","1x4fxyrk6x","1366","768","en","de05nk26","null","","","","learningBlock2","","","","<div style=""font-size:60px;""> </div>","null","LF","learning/Slide102.JPG","This is a bim:","",""
"","html-keyboard-response","314","676415","0.0-8.0-0.22","LF","1x4fxyrk6x","1366","768","en","de05nk26","null","","","","learningBlock2","","","","This is a dep:","null","","","","",""
"","image-keyboard-response","315","676742","0.0-8.0-1.22","LF","1x4fxyrk6x","1366","768","en","de05nk26","null","","","","","","","","learning/Slide103.JPG","null","","","","",""
"","html-keyboard-response","316","677744","0.0-8.0-2.22","LF","1x4fxyrk6x","1366","768","en","de05nk26","null","","","","learningBlock2","","","","<div style=""font-size:60px;""> </div>","null","LF","learning/Slide103.JPG","This is a dep:","",""
"","html-keyboard-response","317","678745","0.0-8.0-0.23","LF","1x4fxyrk6x","1366","768","en","de05nk26","null","","","","learningBlock2","","","","This is a tob:","null","","","","",""
"","image-keyboard-response","318","679073","0.0-8.0-1.23","LF","1x4fxyrk6x","1366","768","en","de05nk26","null","","","","","","","","learning/Slide104.JPG","null","","","","",""
"","html-keyboard-response","319","680077","0.0-8.0-2.23","LF","1x4fxyrk6x","1366","768","en","de05nk26","null","","","","learningBlock2","","","","<div style=""font-size:60px;""> </div>","null","LF","learning/Slide104.JPG","This is a tob:","",""
"","html-keyboard-response","320","681081","0.0-8.0-0.24","LF","1x4fxyrk6x","1366","768","en","de05nk26","null","","","","learningBlock2","","","","This is a dep:","null","","","","",""
"","image-keyboard-response","321","681409","0.0-8.0-1.24","LF","1x4fxyrk6x","1366","768","en","de05nk26","null","","","","","","","","learning/Slide105.JPG","null","","","","",""
"","html-keyboard-response","322","682410","0.0-8.0-2.24","LF","1x4fxyrk6x","1366","768","en","de05nk26","null","","","","learningBlock2","","","","<div style=""font-size:60px;""> </div>","null","LF","learning/Slide105.JPG","This is a dep:","",""
"","html-keyboard-response","323","683412","0.0-8.0-0.25","LF","1x4fxyrk6x","1366","768","en","de05nk26","null","","","","learningBlock2","","","","This is a wug:","null","","","","",""
"","image-keyboard-response","324","683739","0.0-8.0-1.25","LF","1x4fxyrk6x","1366","768","en","de05nk26","null","","","","","","","","learning/Slide106.JPG","null","","","","",""
"","html-keyboard-response","325","684740","0.0-8.0-2.25","LF","1x4fxyrk6x","1366","768","en","de05nk26","null","","","","learningBlock2","","","","<div style=""font-size:60px;""> </div>","null","LF","learning/Slide106.JPG","This is a wug:","",""
"","html-keyboard-response","326","685742","0.0-8.0-0.26","LF","1x4fxyrk6x","1366","768","en","de05nk26","null","","","","learningBlock2","","","","This is a bim:","null","","","","",""
"","image-keyboard-response","327","686069","0.0-8.0-1.26","LF","1x4fxyrk6x","1366","768","en","de05nk26","null","","","","","","","","learning/Slide107.JPG","null","","","","",""
"","html-keyboard-response","328","687071","0.0-8.0-2.26","LF","1x4fxyrk6x","1366","768","en","de05nk26","null","","","","learningBlock2","","","","<div style=""font-size:60px;""> </div>","null","LF","learning/Slide107.JPG","This is a bim:","",""
"","html-keyboard-response","329","688072","0.0-8.0-0.27","LF","1x4fxyrk6x","1366","768","en","de05nk26","null","","","","learningBlock2","","","","This is a dep:","null","","","","",""
"","image-keyboard-response","330","688400","0.0-8.0-1.27","LF","1x4fxyrk6x","1366","768","en","de05nk26","null","","","","","","","","learning/Slide108.JPG","null","","","","",""
"","html-keyboard-response","331","689402","0.0-8.0-2.27","LF","1x4fxyrk6x","1366","768","en","de05nk26","null","","","","learningBlock2","","","","<div style=""font-size:60px;""> </div>","null","LF","learning/Slide108.JPG","This is a dep:","",""
"","html-keyboard-response","332","690404","0.0-8.0-0.28","LF","1x4fxyrk6x","1366","768","en","de05nk26","null","","","","learningBlock2","","","","This is a wug:","null","","","","",""
"","image-keyboard-response","333","690731","0.0-8.0-1.28","LF","1x4fxyrk6x","1366","768","en","de05nk26","null","","","","","","","","learning/Slide109.JPG","null","","","","",""
"","html-keyboard-response","334","691732","0.0-8.0-2.28","LF","1x4fxyrk6x","1366","768","en","de05nk26","null","","","","learningBlock2","","","","<div style=""font-size:60px;""> </div>","null","LF","learning/Slide109.JPG","This is a wug:","",""
"","html-keyboard-response","335","692735","0.0-8.0-0.29","LF","1x4fxyrk6x","1366","768","en","de05nk26","null","","","","learningBlock2","","","","This is a bim:","null","","","","",""
"","image-keyboard-response","336","693063","0.0-8.0-1.29","LF","1x4fxyrk6x","1366","768","en","de05nk26","null","","","","","","","","learning/Slide110.JPG","null","","","","",""
"","html-keyboard-response","337","694064","0.0-8.0-2.29","LF","1x4fxyrk6x","1366","768","en","de05nk26","null","","","","learningBlock2","","","","<div style=""font-size:60px;""> </div>","null","LF","learning/Slide110.JPG","This is a bim:","",""
"","html-keyboard-response","338","695065","0.0-8.0-0.30","LF","1x4fxyrk6x","1366","768","en","de05nk26","null","","","","learningBlock2","","","","This is a tob:","null","","","","",""
"","image-keyboard-response","339","695393","0.0-8.0-1.30","LF","1x4fxyrk6x","1366","768","en","de05nk26","null","","","","","","","","learning/Slide111.JPG","null","","","","",""
"","html-keyboard-response","340","696395","0.0-8.0-2.30","LF","1x4fxyrk6x","1366","768","en","de05nk26","null","","","","learningBlock2","","","","<div style=""font-size:60px;""> </div>","null","LF","learning/Slide111.JPG","This is a tob:","",""
"","html-keyboard-response","341","697397","0.0-8.0-0.31","LF","1x4fxyrk6x","1366","768","en","de05nk26","null","","","","learningBlock2","","","","This is a wug:","null","","","","",""
"","image-keyboard-response","342","697724","0.0-8.0-1.31","LF","1x4fxyrk6x","1366","768","en","de05nk26","null","","","","","","","","learning/Slide112.JPG","null","","","","",""
"","html-keyboard-response","343","698726","0.0-8.0-2.31","LF","1x4fxyrk6x","1366","768","en","de05nk26","null","","","","learningBlock2","","","","<div style=""font-size:60px;""> </div>","null","LF","learning/Slide112.JPG","This is a wug:","",""
"","html-keyboard-response","344","699729","0.0-8.0-0.32","LF","1x4fxyrk6x","1366","768","en","de05nk26","null","","","","learningBlock2","","","","This is a tob:","null","","","","",""
"","image-keyboard-response","345","700057","0.0-8.0-1.32","LF","1x4fxyrk6x","1366","768","en","de05nk26","null","","","","","","","","learning/Slide113.JPG","null","","","","",""
"","html-keyboard-response","346","701058","0.0-8.0-2.32","LF","1x4fxyrk6x","1366","768","en","de05nk26","null","","","","learningBlock2","","","","<div style=""font-size:60px;""> </div>","null","LF","learning/Slide113.JPG","This is a tob:","",""
"","html-keyboard-response","347","702060","0.0-8.0-0.33","LF","1x4fxyrk6x","1366","768","en","de05nk26","null","","","","learningBlock2","","","","This is a wug:","null","","","","",""
"","image-keyboard-response","348","702387","0.0-8.0-1.33","LF","1x4fxyrk6x","1366","768","en","de05nk26","null","","","","","","","","learning/Slide114.JPG","null","","","","",""
"","html-keyboard-response","349","703389","0.0-8.0-2.33","LF","1x4fxyrk6x","1366","768","en","de05nk26","null","","","","learningBlock2","","","","<div style=""font-size:60px;""> </div>","null","LF","learning/Slide114.JPG","This is a wug:","",""
"","html-keyboard-response","350","704391","0.0-8.0-0.34","LF","1x4fxyrk6x","1366","768","en","de05nk26","null","","","","learningBlock2","","","","This is a bim:","null","","","","",""
"","image-keyboard-response","351","704718","0.0-8.0-1.34","LF","1x4fxyrk6x","1366","768","en","de05nk26","null","","","","","","","","learning/Slide115.JPG","null","","","","",""
"","html-keyboard-response","352","705719","0.0-8.0-2.34","LF","1x4fxyrk6x","1366","768","en","de05nk26","null","","","","learningBlock2","","","","<div style=""font-size:60px;""> </div>","null","LF","learning/Slide115.JPG","This is a bim:","",""
"","html-keyboard-response","353","706722","0.0-8.0-0.35","LF","1x4fxyrk6x","1366","768","en","de05nk26","null","","","","learningBlock2","","","","This is a dep:","null","","","","",""
"","image-keyboard-response","354","707049","0.0-8.0-1.35","LF","1x4fxyrk6x","1366","768","en","de05nk26","null","","","","","","","","learning/Slide116.JPG","null","","","","",""
"","html-keyboard-response","355","708051","0.0-8.0-2.35","LF","1x4fxyrk6x","1366","768","en","de05nk26","null","","","","learningBlock2","","","","<div style=""font-size:60px;""> </div>","null","LF","learning/Slide116.JPG","This is a dep:","",""
"","html-keyboard-response","356","709051","0.0-8.0-0.36","LF","1x4fxyrk6x","1366","768","en","de05nk26","null","","","","learningBlock2","","","","This is a tob:","null","","","","",""
"","image-keyboard-response","357","709379","0.0-8.0-1.36","LF","1x4fxyrk6x","1366","768","en","de05nk26","null","","","","","","","","learning/Slide117.JPG","null","","","","",""
"","html-keyboard-response","358","710381","0.0-8.0-2.36","LF","1x4fxyrk6x","1366","768","en","de05nk26","null","","","","learningBlock2","","","","<div style=""font-size:60px;""> </div>","null","LF","learning/Slide117.JPG","This is a tob:","",""
"","html-keyboard-response","359","711382","0.0-8.0-0.37","LF","1x4fxyrk6x","1366","768","en","de05nk26","null","","","","learningBlock2","","","","This is a dep:","null","","","","",""
"","image-keyboard-response","360","711710","0.0-8.0-1.37","LF","1x4fxyrk6x","1366","768","en","de05nk26","null","","","","","","","","learning/Slide118.JPG","null","","","","",""
"","html-keyboard-response","361","712712","0.0-8.0-2.37","LF","1x4fxyrk6x","1366","768","en","de05nk26","null","","","","learningBlock2","","","","<div style=""font-size:60px;""> </div>","null","LF","learning/Slide118.JPG","This is a dep:","",""
"","html-keyboard-response","362","713713","0.0-8.0-0.38","LF","1x4fxyrk6x","1366","768","en","de05nk26","null","","","","learningBlock2","","","","This is a wug:","null","","","","",""
"","image-keyboard-response","363","714040","0.0-8.0-1.38","LF","1x4fxyrk6x","1366","768","en","de05nk26","null","","","","","","","","learning/Slide119.JPG","null","","","","",""
"","html-keyboard-response","364","715042","0.0-8.0-2.38","LF","1x4fxyrk6x","1366","768","en","de05nk26","null","","","","learningBlock2","","","","<div style=""font-size:60px;""> </div>","null","LF","learning/Slide119.JPG","This is a wug:","",""
"","html-keyboard-response","365","716044","0.0-8.0-0.39","LF","1x4fxyrk6x","1366","768","en","de05nk26","null","","","","learningBlock2","","","","This is a dep:","null","","","","",""
"","image-keyboard-response","366","716372","0.0-8.0-1.39","LF","1x4fxyrk6x","1366","768","en","de05nk26","null","","","","","","","","learning/Slide120.JPG","null","","","","",""
"","html-keyboard-response","367","717373","0.0-8.0-2.39","LF","1x4fxyrk6x","1366","768","en","de05nk26","null","","","","learningBlock2","","","","<div style=""font-size:60px;""> </div>","null","LF","learning/Slide120.JPG","This is a dep:","",""
"","html-keyboard-response","368","718375","0.0-8.0-0.40","LF","1x4fxyrk6x","1366","768","en","de05nk26","null","","","","learningBlock2","","","","This is a bim:","null","","","","",""
"","image-keyboard-response","369","718703","0.0-8.0-1.40","LF","1x4fxyrk6x","1366","768","en","de05nk26","null","","","","","","","","learning/Slide121.JPG","null","","","","",""
"","html-keyboard-response","370","719704","0.0-8.0-2.40","LF","1x4fxyrk6x","1366","768","en","de05nk26","null","","","","learningBlock2","","","","<div style=""font-size:60px;""> </div>","null","LF","learning/Slide121.JPG","This is a bim:","",""
"","html-keyboard-response","371","720706","0.0-8.0-0.41","LF","1x4fxyrk6x","1366","768","en","de05nk26","null","","","","learningBlock2","","","","This is a wug:","null","","","","",""
"","image-keyboard-response","372","721033","0.0-8.0-1.41","LF","1x4fxyrk6x","1366","768","en","de05nk26","null","","","","","","","","learning/Slide122.JPG","null","","","","",""
"","html-keyboard-response","373","722035","0.0-8.0-2.41","LF","1x4fxyrk6x","1366","768","en","de05nk26","null","","","","learningBlock2","","","","<div style=""font-size:60px;""> </div>","null","LF","learning/Slide122.JPG","This is a wug:","",""
"","html-keyboard-response","374","723037","0.0-8.0-0.42","LF","1x4fxyrk6x","1366","768","en","de05nk26","null","","","","learningBlock2","","","","This is a bim:","null","","","","",""
"","image-keyboard-response","375","723364","0.0-8.0-1.42","LF","1x4fxyrk6x","1366","768","en","de05nk26","null","","","","","","","","learning/Slide123.JPG","null","","","","",""
"","html-keyboard-response","376","724365","0.0-8.0-2.42","LF","1x4fxyrk6x","1366","768","en","de05nk26","null","","","","learningBlock2","","","","<div style=""font-size:60px;""> </div>","null","LF","learning/Slide123.JPG","This is a bim:","",""
"","html-keyboard-response","377","725366","0.0-8.0-0.43","LF","1x4fxyrk6x","1366","768","en","de05nk26","null","","","","learningBlock2","","","","This is a tob:","null","","","","",""
"","image-keyboard-response","378","725694","0.0-8.0-1.43","LF","1x4fxyrk6x","1366","768","en","de05nk26","null","","","","","","","","learning/Slide124.JPG","null","","","","",""
"","html-keyboard-response","379","726696","0.0-8.0-2.43","LF","1x4fxyrk6x","1366","768","en","de05nk26","null","","","","learningBlock2","","","","<div style=""font-size:60px;""> </div>","null","LF","learning/Slide124.JPG","This is a tob:","",""
"","html-keyboard-response","380","727698","0.0-8.0-0.44","LF","1x4fxyrk6x","1366","768","en","de05nk26","null","","","","learningBlock2","","","","This is a bim:","null","","","","",""
"","image-keyboard-response","381","728025","0.0-8.0-1.44","LF","1x4fxyrk6x","1366","768","en","de05nk26","null","","","","","","","","learning/Slide125.JPG","null","","","","",""
"","html-keyboard-response","382","729027","0.0-8.0-2.44","LF","1x4fxyrk6x","1366","768","en","de05nk26","null","","","","learningBlock2","","","","<div style=""font-size:60px;""> </div>","null","LF","learning/Slide125.JPG","This is a bim:","",""
"","html-keyboard-response","383","730029","0.0-8.0-0.45","LF","1x4fxyrk6x","1366","768","en","de05nk26","null","","","","learningBlock2","","","","This is a tob:","null","","","","",""
"","image-keyboard-response","384","730356","0.0-8.0-1.45","LF","1x4fxyrk6x","1366","768","en","de05nk26","null","","","","","","","","learning/Slide126.JPG","null","","","","",""
"","html-keyboard-response","385","731358","0.0-8.0-2.45","LF","1x4fxyrk6x","1366","768","en","de05nk26","null","","","","learningBlock2","","","","<div style=""font-size:60px;""> </div>","null","LF","learning/Slide126.JPG","This is a tob:","",""
"","html-keyboard-response","386","732360","0.0-8.0-0.46","LF","1x4fxyrk6x","1366","768","en","de05nk26","null","","","","learningBlock2","","","","This is a dep:","null","","","","",""
"","image-keyboard-response","387","732688","0.0-8.0-1.46","LF","1x4fxyrk6x","1366","768","en","de05nk26","null","","","","","","","","learning/Slide127.JPG","null","","","","",""
"","html-keyboard-response","388","733689","0.0-8.0-2.46","LF","1x4fxyrk6x","1366","768","en","de05nk26","null","","","","learningBlock2","","","","<div style=""font-size:60px;""> </div>","null","LF","learning/Slide127.JPG","This is a dep:","",""
"","html-keyboard-response","389","734691","0.0-8.0-0.47","LF","1x4fxyrk6x","1366","768","en","de05nk26","null","","","","learningBlock2","","","","This is a wug:","null","","","","",""
"","image-keyboard-response","390","735018","0.0-8.0-1.47","LF","1x4fxyrk6x","1366","768","en","de05nk26","null","","","","","","","","learning/Slide128.JPG","null","","","","",""
"","html-keyboard-response","391","736019","0.0-8.0-2.47","LF","1x4fxyrk6x","1366","768","en","de05nk26","null","","","","learningBlock2","","","","<div style=""font-size:60px;""> </div>","null","LF","learning/Slide128.JPG","This is a wug:","",""
"","html-keyboard-response","392","737022","0.0-8.0-0.48","LF","1x4fxyrk6x","1366","768","en","de05nk26","null","","","","learningBlock2","","","","This is a tob:","null","","","","",""
"","image-keyboard-response","393","737348","0.0-8.0-1.48","LF","1x4fxyrk6x","1366","768","en","de05nk26","null","","","","","","","","learning/Slide129.JPG","null","","","","",""
"","html-keyboard-response","394","738351","0.0-8.0-2.48","LF","1x4fxyrk6x","1366","768","en","de05nk26","null","","","","learningBlock2","","","","<div style=""font-size:60px;""> </div>","null","LF","learning/Slide129.JPG","This is a tob:","",""
"","html-keyboard-response","395","739352","0.0-8.0-0.49","LF","1x4fxyrk6x","1366","768","en","de05nk26","null","","","","learningBlock2","","","","This is a wug:","null","","","","",""
"","image-keyboard-response","396","739681","0.0-8.0-1.49","LF","1x4fxyrk6x","1366","768","en","de05nk26","null","","","","","","","","learning/Slide130.JPG","null","","","","",""
"","html-keyboard-response","397","740683","0.0-8.0-2.49","LF","1x4fxyrk6x","1366","768","en","de05nk26","null","","","","learningBlock2","","","","<div style=""font-size:60px;""> </div>","null","LF","learning/Slide130.JPG","This is a wug:","",""
"","html-keyboard-response","398","741684","0.0-8.0-0.50","LF","1x4fxyrk6x","1366","768","en","de05nk26","null","","","","learningBlock2","","","","This is a bim:","null","","","","",""
"","image-keyboard-response","399","742012","0.0-8.0-1.50","LF","1x4fxyrk6x","1366","768","en","de05nk26","null","","","","","","","","learning/Slide131.JPG","null","","","","",""
"","html-keyboard-response","400","743014","0.0-8.0-2.50","LF","1x4fxyrk6x","1366","768","en","de05nk26","null","","","","learningBlock2","","","","<div style=""font-size:60px;""> </div>","null","LF","learning/Slide131.JPG","This is a bim:","",""
"","html-keyboard-response","401","744016","0.0-8.0-0.51","LF","1x4fxyrk6x","1366","768","en","de05nk26","null","","","","learningBlock2","","","","This is a dep:","null","","","","",""
"","image-keyboard-response","402","744343","0.0-8.0-1.51","LF","1x4fxyrk6x","1366","768","en","de05nk26","null","","","","","","","","learning/Slide132.JPG","null","","","","",""
"","html-keyboard-response","403","745344","0.0-8.0-2.51","LF","1x4fxyrk6x","1366","768","en","de05nk26","null","","","","learningBlock2","","","","<div style=""font-size:60px;""> </div>","null","LF","learning/Slide132.JPG","This is a dep:","",""
"","html-keyboard-response","404","746346","0.0-8.0-0.52","LF","1x4fxyrk6x","1366","768","en","de05nk26","null","","","","learningBlock2","","","","This is a tob:","null","","","","",""
"","image-keyboard-response","405","746674","0.0-8.0-1.52","LF","1x4fxyrk6x","1366","768","en","de05nk26","null","","","","","","","","learning/Slide133.JPG","null","","","","",""
"","html-keyboard-response","406","747675","0.0-8.0-2.52","LF","1x4fxyrk6x","1366","768","en","de05nk26","null","","","","learningBlock2","","","","<div style=""font-size:60px;""> </div>","null","LF","learning/Slide133.JPG","This is a tob:","",""
"","html-keyboard-response","407","748676","0.0-8.0-0.53","LF","1x4fxyrk6x","1366","768","en","de05nk26","null","","","","learningBlock2","","","","This is a dep:","null","","","","",""
"","image-keyboard-response","408","749004","0.0-8.0-1.53","LF","1x4fxyrk6x","1366","768","en","de05nk26","null","","","","","","","","learning/Slide134.JPG","null","","","","",""
"","html-keyboard-response","409","750005","0.0-8.0-2.53","LF","1x4fxyrk6x","1366","768","en","de05nk26","null","","","","learningBlock2","","","","<div style=""font-size:60px;""> </div>","null","LF","learning/Slide134.JPG","This is a dep:","",""
"","html-keyboard-response","410","751007","0.0-8.0-0.54","LF","1x4fxyrk6x","1366","768","en","de05nk26","null","","","","learningBlock2","","","","This is a tob:","null","","","","",""
"","image-keyboard-response","411","751335","0.0-8.0-1.54","LF","1x4fxyrk6x","1366","768","en","de05nk26","null","","","","","","","","learning/Slide135.JPG","null","","","","",""
"","html-keyboard-response","412","752336","0.0-8.0-2.54","LF","1x4fxyrk6x","1366","768","en","de05nk26","null","","","","learningBlock2","","","","<div style=""font-size:60px;""> </div>","null","LF","learning/Slide135.JPG","This is a tob:","",""
"","html-keyboard-response","413","753338","0.0-8.0-0.55","LF","1x4fxyrk6x","1366","768","en","de05nk26","null","","","","learningBlock2","","","","This is a wug:","null","","","","",""
"","image-keyboard-response","414","753665","0.0-8.0-1.55","LF","1x4fxyrk6x","1366","768","en","de05nk26","null","","","","","","","","learning/Slide136.JPG","null","","","","",""
"","html-keyboard-response","415","754667","0.0-8.0-2.55","LF","1x4fxyrk6x","1366","768","en","de05nk26","null","","","","learningBlock2","","","","<div style=""font-size:60px;""> </div>","null","LF","learning/Slide136.JPG","This is a wug:","",""
"","html-keyboard-response","416","755668","0.0-8.0-0.56","LF","1x4fxyrk6x","1366","768","en","de05nk26","null","","","","learningBlock2","","","","This is a tob:","null","","","","",""
"","image-keyboard-response","417","755996","0.0-8.0-1.56","LF","1x4fxyrk6x","1366","768","en","de05nk26","null","","","","","","","","learning/Slide137.JPG","null","","","","",""
"","html-keyboard-response","418","756998","0.0-8.0-2.56","LF","1x4fxyrk6x","1366","768","en","de05nk26","null","","","","learningBlock2","","","","<div style=""font-size:60px;""> </div>","null","LF","learning/Slide137.JPG","This is a tob:","",""
"","html-keyboard-response","419","757999","0.0-8.0-0.57","LF","1x4fxyrk6x","1366","768","en","de05nk26","null","","","","learningBlock2","","","","This is a bim:","null","","","","",""
"","image-keyboard-response","420","758327","0.0-8.0-1.57","LF","1x4fxyrk6x","1366","768","en","de05nk26","null","","","","","","","","learning/Slide138.JPG","null","","","","",""
"","html-keyboard-response","421","759329","0.0-8.0-2.57","LF","1x4fxyrk6x","1366","768","en","de05nk26","null","","","","learningBlock2","","","","<div style=""font-size:60px;""> </div>","null","LF","learning/Slide138.JPG","This is a bim:","",""
"","html-keyboard-response","422","760330","0.0-8.0-0.58","LF","1x4fxyrk6x","1366","768","en","de05nk26","null","","","","learningBlock2","","","","This is a wug:","null","","","","",""
"","image-keyboard-response","423","760657","0.0-8.0-1.58","LF","1x4fxyrk6x","1366","768","en","de05nk26","null","","","","","","","","learning/Slide139.JPG","null","","","","",""
"","html-keyboard-response","424","761659","0.0-8.0-2.58","LF","1x4fxyrk6x","1366","768","en","de05nk26","null","","","","learningBlock2","","","","<div style=""font-size:60px;""> </div>","null","LF","learning/Slide139.JPG","This is a wug:","",""
"","html-keyboard-response","425","762660","0.0-8.0-0.59","LF","1x4fxyrk6x","1366","768","en","de05nk26","null","","","","learningBlock2","","","","This is a dep:","null","","","","",""
"","image-keyboard-response","426","762988","0.0-8.0-1.59","LF","1x4fxyrk6x","1366","768","en","de05nk26","null","","","","","","","","learning/Slide140.JPG","null","","","","",""
"","html-keyboard-response","427","763989","0.0-8.0-2.59","LF","1x4fxyrk6x","1366","768","en","de05nk26","null","","","","learningBlock2","","","","<div style=""font-size:60px;""> </div>","null","LF","learning/Slide140.JPG","This is a dep:","",""
"","html-keyboard-response","428","764991","0.0-8.0-0.60","LF","1x4fxyrk6x","1366","768","en","de05nk26","null","","","","learningBlock2","","","","This is a tob:","null","","","","",""
"","image-keyboard-response","429","765318","0.0-8.0-1.60","LF","1x4fxyrk6x","1366","768","en","de05nk26","null","","","","","","","","learning/Slide141.JPG","null","","","","",""
"","html-keyboard-response","430","766321","0.0-8.0-2.60","LF","1x4fxyrk6x","1366","768","en","de05nk26","null","","","","learningBlock2","","","","<div style=""font-size:60px;""> </div>","null","LF","learning/Slide141.JPG","This is a tob:","",""
"","html-keyboard-response","431","767322","0.0-8.0-0.61","LF","1x4fxyrk6x","1366","768","en","de05nk26","null","","","","learningBlock2","","","","This is a wug:","null","","","","",""
"","image-keyboard-response","432","767650","0.0-8.0-1.61","LF","1x4fxyrk6x","1366","768","en","de05nk26","null","","","","","","","","learning/Slide142.JPG","null","","","","",""
"","html-keyboard-response","433","768651","0.0-8.0-2.61","LF","1x4fxyrk6x","1366","768","en","de05nk26","null","","","","learningBlock2","","","","<div style=""font-size:60px;""> </div>","null","LF","learning/Slide142.JPG","This is a wug:","",""
"","html-keyboard-response","434","769653","0.0-8.0-0.62","LF","1x4fxyrk6x","1366","768","en","de05nk26","null","","","","learningBlock2","","","","This is a bim:","null","","","","",""
"","image-keyboard-response","435","769981","0.0-8.0-1.62","LF","1x4fxyrk6x","1366","768","en","de05nk26","null","","","","","","","","learning/Slide143.JPG","null","","","","",""
"","html-keyboard-response","436","770983","0.0-8.0-2.62","LF","1x4fxyrk6x","1366","768","en","de05nk26","null","","","","learningBlock2","","","","<div style=""font-size:60px;""> </div>","null","LF","learning/Slide143.JPG","This is a bim:","",""
"","html-keyboard-response","437","771985","0.0-8.0-0.63","LF","1x4fxyrk6x","1366","768","en","de05nk26","null","","","","learningBlock2","","","","This is a dep:","null","","","","",""
"","image-keyboard-response","438","772312","0.0-8.0-1.63","LF","1x4fxyrk6x","1366","768","en","de05nk26","null","","","","","","","","learning/Slide144.JPG","null","","","","",""
"","html-keyboard-response","439","773314","0.0-8.0-2.63","LF","1x4fxyrk6x","1366","768","en","de05nk26","null","","","","learningBlock2","","","","<div style=""font-size:60px;""> </div>","null","LF","learning/Slide144.JPG","This is a dep:","",""
"","html-keyboard-response","440","774315","0.0-8.0-0.64","LF","1x4fxyrk6x","1366","768","en","de05nk26","null","","","","learningBlock2","","","","This is a bim:","null","","","","",""
"","image-keyboard-response","441","774643","0.0-8.0-1.64","LF","1x4fxyrk6x","1366","768","en","de05nk26","null","","","","","","","","learning/Slide145.JPG","null","","","","",""
"","html-keyboard-response","442","775645","0.0-8.0-2.64","LF","1x4fxyrk6x","1366","768","en","de05nk26","null","","","","learningBlock2","","","","<div style=""font-size:60px;""> </div>","null","LF","learning/Slide145.JPG","This is a bim:","",""
"","html-keyboard-response","443","776646","0.0-8.0-0.65","LF","1x4fxyrk6x","1366","768","en","de05nk26","null","","","","learningBlock2","","","","This is a tob:","null","","","","",""
"","image-keyboard-response","444","776974","0.0-8.0-1.65","LF","1x4fxyrk6x","1366","768","en","de05nk26","null","","","","","","","","learning/Slide146.JPG","null","","","","",""
"","html-keyboard-response","445","777976","0.0-8.0-2.65","LF","1x4fxyrk6x","1366","768","en","de05nk26","null","","","","learningBlock2","","","","<div style=""font-size:60px;""> </div>","null","LF","learning/Slide146.JPG","This is a tob:","",""
"","html-keyboard-response","446","778977","0.0-8.0-0.66","LF","1x4fxyrk6x","1366","768","en","de05nk26","null","","","","learningBlock2","","","","This is a wug:","null","","","","",""
"","image-keyboard-response","447","779305","0.0-8.0-1.66","LF","1x4fxyrk6x","1366","768","en","de05nk26","null","","","","","","","","learning/Slide147.JPG","null","","","","",""
"","html-keyboard-response","448","780307","0.0-8.0-2.66","LF","1x4fxyrk6x","1366","768","en","de05nk26","null","","","","learningBlock2","","","","<div style=""font-size:60px;""> </div>","null","LF","learning/Slide147.JPG","This is a wug:","",""
"","html-keyboard-response","449","781308","0.0-8.0-0.67","LF","1x4fxyrk6x","1366","768","en","de05nk26","null","","","","learningBlock2","","","","This is a bim:","null","","","","",""
"","image-keyboard-response","450","781636","0.0-8.0-1.67","LF","1x4fxyrk6x","1366","768","en","de05nk26","null","","","","","","","","learning/Slide148.JPG","null","","","","",""
"","html-keyboard-response","451","782638","0.0-8.0-2.67","LF","1x4fxyrk6x","1366","768","en","de05nk26","null","","","","learningBlock2","","","","<div style=""font-size:60px;""> </div>","null","LF","learning/Slide148.JPG","This is a bim:","",""
"","html-keyboard-response","452","783639","0.0-8.0-0.68","LF","1x4fxyrk6x","1366","768","en","de05nk26","null","","","","learningBlock2","","","","This is a dep:","null","","","","",""
"","image-keyboard-response","453","783967","0.0-8.0-1.68","LF","1x4fxyrk6x","1366","768","en","de05nk26","null","","","","","","","","learning/Slide149.JPG","null","","","","",""
"","html-keyboard-response","454","784969","0.0-8.0-2.68","LF","1x4fxyrk6x","1366","768","en","de05nk26","null","","","","learningBlock2","","","","<div style=""font-size:60px;""> </div>","null","LF","learning/Slide149.JPG","This is a dep:","",""
"","html-keyboard-response","455","785971","0.0-8.0-0.69","LF","1x4fxyrk6x","1366","768","en","de05nk26","null","","","","learningBlock2","","","","This is a wug:","null","","","","",""
"","image-keyboard-response","456","786298","0.0-8.0-1.69","LF","1x4fxyrk6x","1366","768","en","de05nk26","null","","","","","","","","learning/Slide150.JPG","null","","","","",""
"","html-keyboard-response","457","787300","0.0-8.0-2.69","LF","1x4fxyrk6x","1366","768","en","de05nk26","null","","","","learningBlock2","","","","<div style=""font-size:60px;""> </div>","null","LF","learning/Slide150.JPG","This is a wug:","",""
"","html-keyboard-response","458","788301","0.0-8.0-0.70","LF","1x4fxyrk6x","1366","768","en","de05nk26","null","","","","learningBlock2","","","","This is a dep:","null","","","","",""
"","image-keyboard-response","459","788629","0.0-8.0-1.70","LF","1x4fxyrk6x","1366","768","en","de05nk26","null","","","","","","","","learning/Slide151.JPG","null","","","","",""
"","html-keyboard-response","460","789630","0.0-8.0-2.70","LF","1x4fxyrk6x","1366","768","en","de05nk26","null","","","","learningBlock2","","","","<div style=""font-size:60px;""> </div>","null","LF","learning/Slide151.JPG","This is a dep:","",""
"","html-keyboard-response","461","790631","0.0-8.0-0.71","LF","1x4fxyrk6x","1366","768","en","de05nk26","null","","","","learningBlock2","","","","This is a wug:","null","","","","",""
"","image-keyboard-response","462","790960","0.0-8.0-1.71","LF","1x4fxyrk6x","1366","768","en","de05nk26","null","","","","","","","","learning/Slide152.JPG","null","","","","",""
"","html-keyboard-response","463","791961","0.0-8.0-2.71","LF","1x4fxyrk6x","1366","768","en","de05nk26","null","","","","learningBlock2","","","","<div style=""font-size:60px;""> </div>","null","LF","learning/Slide152.JPG","This is a wug:","",""
"","html-keyboard-response","464","792962","0.0-8.0-0.72","LF","1x4fxyrk6x","1366","768","en","de05nk26","null","","","","learningBlock2","","","","This is a bim:","null","","","","",""
"","image-keyboard-response","465","793290","0.0-8.0-1.72","LF","1x4fxyrk6x","1366","768","en","de05nk26","null","","","","","","","","learning/Slide153.JPG","null","","","","",""
"","html-keyboard-response","466","794291","0.0-8.0-2.72","LF","1x4fxyrk6x","1366","768","en","de05nk26","null","","","","learningBlock2","","","","<div style=""font-size:60px;""> </div>","null","LF","learning/Slide153.JPG","This is a bim:","",""
"","html-keyboard-response","467","795293","0.0-8.0-0.73","LF","1x4fxyrk6x","1366","768","en","de05nk26","null","","","","learningBlock2","","","","This is a tob:","null","","","","",""
"","image-keyboard-response","468","795620","0.0-8.0-1.73","LF","1x4fxyrk6x","1366","768","en","de05nk26","null","","","","","","","","learning/Slide154.JPG","null","","","","",""
"","html-keyboard-response","469","796622","0.0-8.0-2.73","LF","1x4fxyrk6x","1366","768","en","de05nk26","null","","","","learningBlock2","","","","<div style=""font-size:60px;""> </div>","null","LF","learning/Slide154.JPG","This is a tob:","",""
"","html-keyboard-response","470","797624","0.0-8.0-0.74","LF","1x4fxyrk6x","1366","768","en","de05nk26","null","","","","learningBlock2","","","","This is a dep:","null","","","","",""
"","image-keyboard-response","471","797952","0.0-8.0-1.74","LF","1x4fxyrk6x","1366","768","en","de05nk26","null","","","","","","","","learning/Slide155.JPG","null","","","","",""
"","html-keyboard-response","472","798954","0.0-8.0-2.74","LF","1x4fxyrk6x","1366","768","en","de05nk26","null","","","","learningBlock2","","","","<div style=""font-size:60px;""> </div>","null","LF","learning/Slide155.JPG","This is a dep:","",""
"","html-keyboard-response","473","799956","0.0-8.0-0.75","LF","1x4fxyrk6x","1366","768","en","de05nk26","null","","","","learningBlock2","","","","This is a bim:","null","","","","",""
"","image-keyboard-response","474","800283","0.0-8.0-1.75","LF","1x4fxyrk6x","1366","768","en","de05nk26","null","","","","","","","","learning/Slide156.JPG","null","","","","",""
"","html-keyboard-response","475","801284","0.0-8.0-2.75","LF","1x4fxyrk6x","1366","768","en","de05nk26","null","","","","learningBlock2","","","","<div style=""font-size:60px;""> </div>","null","LF","learning/Slide156.JPG","This is a bim:","",""
"","html-keyboard-response","476","802286","0.0-8.0-0.76","LF","1x4fxyrk6x","1366","768","en","de05nk26","null","","","","learningBlock2","","","","This is a dep:","null","","","","",""
"","image-keyboard-response","477","802614","0.0-8.0-1.76","LF","1x4fxyrk6x","1366","768","en","de05nk26","null","","","","","","","","learning/Slide157.JPG","null","","","","",""
"","html-keyboard-response","478","803615","0.0-8.0-2.76","LF","1x4fxyrk6x","1366","768","en","de05nk26","null","","","","learningBlock2","","","","<div style=""font-size:60px;""> </div>","null","LF","learning/Slide157.JPG","This is a dep:","",""
"","html-keyboard-response","479","804617","0.0-8.0-0.77","LF","1x4fxyrk6x","1366","768","en","de05nk26","null","","","","learningBlock2","","","","This is a tob:","null","","","","",""
"","image-keyboard-response","480","804945","0.0-8.0-1.77","LF","1x4fxyrk6x","1366","768","en","de05nk26","null","","","","","","","","learning/Slide158.JPG","null","","","","",""
"","html-keyboard-response","481","805946","0.0-8.0-2.77","LF","1x4fxyrk6x","1366","768","en","de05nk26","null","","","","learningBlock2","","","","<div style=""font-size:60px;""> </div>","null","LF","learning/Slide158.JPG","This is a tob:","",""
"","html-keyboard-response","482","806948","0.0-8.0-0.78","LF","1x4fxyrk6x","1366","768","en","de05nk26","null","","","","learningBlock2","","","","This is a dep:","null","","","","",""
"","image-keyboard-response","483","807276","0.0-8.0-1.78","LF","1x4fxyrk6x","1366","768","en","de05nk26","null","","","","","","","","learning/Slide159.JPG","null","","","","",""
"","html-keyboard-response","484","808278","0.0-8.0-2.78","LF","1x4fxyrk6x","1366","768","en","de05nk26","null","","","","learningBlock2","","","","<div style=""font-size:60px;""> </div>","null","LF","learning/Slide159.JPG","This is a dep:","",""
"","html-keyboard-response","485","809279","0.0-8.0-0.79","LF","1x4fxyrk6x","1366","768","en","de05nk26","null","","","","learningBlock2","","","","This is a wug:","null","","","","",""
"","image-keyboard-response","486","809606","0.0-8.0-1.79","LF","1x4fxyrk6x","1366","768","en","de05nk26","null","","","","","","","","learning/Slide160.JPG","null","","","","",""
"","html-keyboard-response","487","810608","0.0-8.0-2.79","LF","1x4fxyrk6x","1366","768","en","de05nk26","null","","","","learningBlock2","","","","<div style=""font-size:60px;""> </div>","null","LF","learning/Slide160.JPG","This is a wug:","",""
"","resize2","488","815658","0.0-9.0","LF","1x4fxyrk6x","1366","768","en","de05nk26","","","","","","","104","1.04","","","","","","",""
"","instructions","489","826731","0.0-10.0","LF","1x4fxyrk6x","1366","768","en","de05nk26","NA","","","[{""page_index"":0,""viewing_time"":11070}]","instructions","","","","","","","","","",""
"","html-keyboard-response","490","827737","0.0-11.0-0.0","LF","1x4fxyrk6x","1366","768","en","de05nk26","null","","","","","","","","<div style=""font-size:60px;"">+</div>","null","","","","",""
