"success","trial_type","trial_index","time_elapsed","internal_node_id","condition","subject","screen_width","screen_height","language","codeword","rt","responses","url","view_history","test_part","final_height_px","final_width_px","scale_factor","stimulus","key_press","learningType","presentedImage","presentedLabel","button_pressed","response"
"true","fullscreen","0","64391372","0.0-0.0","FL","7ksbngduvy","1280","800","en","ng09ei12","","","","","","","","","","","","","","",""
"","survey-html-form","1","65397258","0.0-1.0","FL","7ksbngduvy","1280","800","en","ng09ei12","1005834","{""language"":""en""}","","","","","","","","","","","","",""
"","external-html","2","65481771","0.0-3.0-0.0","FL","7ksbngduvy","1280","800","en","ng09ei12","84198","","text/information_english.html","","","","","","","","","","","",""
"","external-html","3","65493230","0.0-3.0-1.0","FL","7ksbngduvy","1280","800","en","ng09ei12","11240","","text/consent_english.html","","","","","","","","","","","",""
"","survey-html-form","4","65532360","0.0-3.0-2.0","FL","7ksbngduvy","1280","800","en","ng09ei12","39112","{""codeword_enter"":""ng09ei12""}","","","","","","","","","","","","",""
"","instructions","5","65549371","0.0-4.0","FL","7ksbngduvy","1280","800","en","ng09ei12","NA","","","[{""page_index"":0,""viewing_time"":3774},{""page_index"":1,""viewing_time"":11725}]","instructions","","","","","","","","","",""
"","resize","6","65659537","0.0-5.0","FL","7ksbngduvy","1280","800","en","ng09ei12","","","","","","","387","2.4571428571428573","","","","","","",""
"","image-keyboard-response","7","65659718","0.0-6.0-0.0","FL","7ksbngduvy","1280","800","en","ng09ei12","null","","","","","","","","learning/Slide1.JPG","null","","","","",""
"","html-keyboard-response","8","65660871","0.0-6.0-1.0","FL","7ksbngduvy","1280","800","en","ng09ei12","null","","","","learningBlock1","","","","That was a tob.","null","","","","",""
"","html-keyboard-response","9","65661873","0.0-6.0-2.0","FL","7ksbngduvy","1280","800","en","ng09ei12","null","","","","learningBlock1","","","","<div style=""font-size:60px;""> </div>","null","FL","learning/Slide1.JPG","That was a tob.","",""
"","image-keyboard-response","10","65662052","0.0-6.0-0.1","FL","7ksbngduvy","1280","800","en","ng09ei12","null","","","","","","","","learning/Slide2.JPG","null","","","","",""
"","html-keyboard-response","11","65663204","0.0-6.0-1.1","FL","7ksbngduvy","1280","800","en","ng09ei12","null","","","","learningBlock1","","","","That was a wug.","null","","","","",""
"","html-keyboard-response","12","65664205","0.0-6.0-2.1","FL","7ksbngduvy","1280","800","en","ng09ei12","null","","","","learningBlock1","","","","<div style=""font-size:60px;""> </div>","null","FL","learning/Slide2.JPG","That was a wug.","",""
"","image-keyboard-response","13","65664383","0.0-6.0-0.2","FL","7ksbngduvy","1280","800","en","ng09ei12","null","","","","","","","","learning/Slide3.JPG","null","","","","",""
"","html-keyboard-response","14","65665537","0.0-6.0-1.2","FL","7ksbngduvy","1280","800","en","ng09ei12","null","","","","learningBlock1","","","","That was a bim.","null","","","","",""
"","html-keyboard-response","15","65666539","0.0-6.0-2.2","FL","7ksbngduvy","1280","800","en","ng09ei12","null","","","","learningBlock1","","","","<div style=""font-size:60px;""> </div>","null","FL","learning/Slide3.JPG","That was a bim.","",""
"","image-keyboard-response","16","65666718","0.0-6.0-0.3","FL","7ksbngduvy","1280","800","en","ng09ei12","null","","","","","","","","learning/Slide4.JPG","null","","","","",""
"","html-keyboard-response","17","65667873","0.0-6.0-1.3","FL","7ksbngduvy","1280","800","en","ng09ei12","null","","","","learningBlock1","","","","That was a dep.","null","","","","",""
"","html-keyboard-response","18","65668874","0.0-6.0-2.3","FL","7ksbngduvy","1280","800","en","ng09ei12","null","","","","learningBlock1","","","","<div style=""font-size:60px;""> </div>","null","FL","learning/Slide4.JPG","That was a dep.","",""
"","image-keyboard-response","19","65669051","0.0-6.0-0.4","FL","7ksbngduvy","1280","800","en","ng09ei12","null","","","","","","","","learning/Slide5.JPG","null","","","","",""
"","html-keyboard-response","20","65670204","0.0-6.0-1.4","FL","7ksbngduvy","1280","800","en","ng09ei12","null","","","","learningBlock1","","","","That was a wug.","null","","","","",""
"","html-keyboard-response","21","65671207","0.0-6.0-2.4","FL","7ksbngduvy","1280","800","en","ng09ei12","null","","","","learningBlock1","","","","<div style=""font-size:60px;""> </div>","null","FL","learning/Slide5.JPG","That was a wug.","",""
"","image-keyboard-response","22","65671383","0.0-6.0-0.5","FL","7ksbngduvy","1280","800","en","ng09ei12","null","","","","","","","","learning/Slide6.JPG","null","","","","",""
"","html-keyboard-response","23","65672540","0.0-6.0-1.5","FL","7ksbngduvy","1280","800","en","ng09ei12","null","","","","learningBlock1","","","","That was a dep.","null","","","","",""
"","html-keyboard-response","24","65673541","0.0-6.0-2.5","FL","7ksbngduvy","1280","800","en","ng09ei12","null","","","","learningBlock1","","","","<div style=""font-size:60px;""> </div>","null","FL","learning/Slide6.JPG","That was a dep.","",""
"","image-keyboard-response","25","65673720","0.0-6.0-0.6","FL","7ksbngduvy","1280","800","en","ng09ei12","null","","","","","","","","learning/Slide7.JPG","null","","","","",""
"","html-keyboard-response","26","65674875","0.0-6.0-1.6","FL","7ksbngduvy","1280","800","en","ng09ei12","null","","","","learningBlock1","","","","That was a wug.","null","","","","",""
"","html-keyboard-response","27","65675878","0.0-6.0-2.6","FL","7ksbngduvy","1280","800","en","ng09ei12","null","","","","learningBlock1","","","","<div style=""font-size:60px;""> </div>","null","FL","learning/Slide7.JPG","That was a wug.","",""
"","image-keyboard-response","28","65676053","0.0-6.0-0.7","FL","7ksbngduvy","1280","800","en","ng09ei12","null","","","","","","","","learning/Slide8.JPG","null","","","","",""
"","html-keyboard-response","29","65677206","0.0-6.0-1.7","FL","7ksbngduvy","1280","800","en","ng09ei12","null","","","","learningBlock1","","","","That was a bim.","null","","","","",""
"","html-keyboard-response","30","65678210","0.0-6.0-2.7","FL","7ksbngduvy","1280","800","en","ng09ei12","null","","","","learningBlock1","","","","<div style=""font-size:60px;""> </div>","null","FL","learning/Slide8.JPG","That was a bim.","",""
"","image-keyboard-response","31","65678386","0.0-6.0-0.8","FL","7ksbngduvy","1280","800","en","ng09ei12","null","","","","","","","","learning/Slide9.JPG","null","","","","",""
"","html-keyboard-response","32","65679538","0.0-6.0-1.8","FL","7ksbngduvy","1280","800","en","ng09ei12","null","","","","learningBlock1","","","","That was a wug.","null","","","","",""
"","html-keyboard-response","33","65680538","0.0-6.0-2.8","FL","7ksbngduvy","1280","800","en","ng09ei12","null","","","","learningBlock1","","","","<div style=""font-size:60px;""> </div>","null","FL","learning/Slide9.JPG","That was a wug.","",""
"","image-keyboard-response","34","65680717","0.0-6.0-0.9","FL","7ksbngduvy","1280","800","en","ng09ei12","null","","","","","","","","learning/Slide10.JPG","null","","","","",""
"","html-keyboard-response","35","65681871","0.0-6.0-1.9","FL","7ksbngduvy","1280","800","en","ng09ei12","null","","","","learningBlock1","","","","That was a dep.","null","","","","",""
"","html-keyboard-response","36","65682873","0.0-6.0-2.9","FL","7ksbngduvy","1280","800","en","ng09ei12","null","","","","learningBlock1","","","","<div style=""font-size:60px;""> </div>","null","FL","learning/Slide10.JPG","That was a dep.","",""
"","image-keyboard-response","37","65683050","0.0-6.0-0.10","FL","7ksbngduvy","1280","800","en","ng09ei12","null","","","","","","","","learning/Slide11.JPG","null","","","","",""
"","html-keyboard-response","38","65684203","0.0-6.0-1.10","FL","7ksbngduvy","1280","800","en","ng09ei12","null","","","","learningBlock1","","","","That was a tob.","null","","","","",""
"","html-keyboard-response","39","65685204","0.0-6.0-2.10","FL","7ksbngduvy","1280","800","en","ng09ei12","null","","","","learningBlock1","","","","<div style=""font-size:60px;""> </div>","null","FL","learning/Slide11.JPG","That was a tob.","",""
"","image-keyboard-response","40","65685384","0.0-6.0-0.11","FL","7ksbngduvy","1280","800","en","ng09ei12","null","","","","","","","","learning/Slide12.JPG","null","","","","",""
"","html-keyboard-response","41","65686540","0.0-6.0-1.11","FL","7ksbngduvy","1280","800","en","ng09ei12","null","","","","learningBlock1","","","","That was a dep.","null","","","","",""
"","html-keyboard-response","42","65687541","0.0-6.0-2.11","FL","7ksbngduvy","1280","800","en","ng09ei12","null","","","","learningBlock1","","","","<div style=""font-size:60px;""> </div>","null","FL","learning/Slide12.JPG","That was a dep.","",""
"","image-keyboard-response","43","65687720","0.0-6.0-0.12","FL","7ksbngduvy","1280","800","en","ng09ei12","null","","","","","","","","learning/Slide13.JPG","null","","","","",""
"","html-keyboard-response","44","65688876","0.0-6.0-1.12","FL","7ksbngduvy","1280","800","en","ng09ei12","null","","","","learningBlock1","","","","That was a bim.","null","","","","",""
"","html-keyboard-response","45","65689877","0.0-6.0-2.12","FL","7ksbngduvy","1280","800","en","ng09ei12","null","","","","learningBlock1","","","","<div style=""font-size:60px;""> </div>","null","FL","learning/Slide13.JPG","That was a bim.","",""
"","image-keyboard-response","46","65690054","0.0-6.0-0.13","FL","7ksbngduvy","1280","800","en","ng09ei12","null","","","","","","","","learning/Slide14.JPG","null","","","","",""
"","html-keyboard-response","47","65691204","0.0-6.0-1.13","FL","7ksbngduvy","1280","800","en","ng09ei12","null","","","","learningBlock1","","","","That was a wug.","null","","","","",""
"","html-keyboard-response","48","65692205","0.0-6.0-2.13","FL","7ksbngduvy","1280","800","en","ng09ei12","null","","","","learningBlock1","","","","<div style=""font-size:60px;""> </div>","null","FL","learning/Slide14.JPG","That was a wug.","",""
"","image-keyboard-response","49","65692385","0.0-6.0-0.14","FL","7ksbngduvy","1280","800","en","ng09ei12","null","","","","","","","","learning/Slide15.JPG","null","","","","",""
"","html-keyboard-response","50","65693537","0.0-6.0-1.14","FL","7ksbngduvy","1280","800","en","ng09ei12","null","","","","learningBlock1","","","","That was a tob.","null","","","","",""
"","html-keyboard-response","51","65694537","0.0-6.0-2.14","FL","7ksbngduvy","1280","800","en","ng09ei12","null","","","","learningBlock1","","","","<div style=""font-size:60px;""> </div>","null","FL","learning/Slide15.JPG","That was a tob.","",""
"","image-keyboard-response","52","65694714","0.0-6.0-0.15","FL","7ksbngduvy","1280","800","en","ng09ei12","null","","","","","","","","learning/Slide16.JPG","null","","","","",""
"","html-keyboard-response","53","65695867","0.0-6.0-1.15","FL","7ksbngduvy","1280","800","en","ng09ei12","null","","","","learningBlock1","","","","That was a dep.","null","","","","",""
"","html-keyboard-response","54","65696868","0.0-6.0-2.15","FL","7ksbngduvy","1280","800","en","ng09ei12","null","","","","learningBlock1","","","","<div style=""font-size:60px;""> </div>","null","FL","learning/Slide16.JPG","That was a dep.","",""
"","image-keyboard-response","55","65697049","0.0-6.0-0.16","FL","7ksbngduvy","1280","800","en","ng09ei12","null","","","","","","","","learning/Slide17.JPG","null","","","","",""
"","html-keyboard-response","56","65698205","0.0-6.0-1.16","FL","7ksbngduvy","1280","800","en","ng09ei12","null","","","","learningBlock1","","","","That was a bim.","null","","","","",""
"","html-keyboard-response","57","65699206","0.0-6.0-2.16","FL","7ksbngduvy","1280","800","en","ng09ei12","null","","","","learningBlock1","","","","<div style=""font-size:60px;""> </div>","null","FL","learning/Slide17.JPG","That was a bim.","",""
"","image-keyboard-response","58","65699384","0.0-6.0-0.17","FL","7ksbngduvy","1280","800","en","ng09ei12","null","","","","","","","","learning/Slide18.JPG","null","","","","",""
"","html-keyboard-response","59","65700539","0.0-6.0-1.17","FL","7ksbngduvy","1280","800","en","ng09ei12","null","","","","learningBlock1","","","","That was a tob.","null","","","","",""
"","html-keyboard-response","60","65701541","0.0-6.0-2.17","FL","7ksbngduvy","1280","800","en","ng09ei12","null","","","","learningBlock1","","","","<div style=""font-size:60px;""> </div>","null","FL","learning/Slide18.JPG","That was a tob.","",""
"","image-keyboard-response","61","65701720","0.0-6.0-0.18","FL","7ksbngduvy","1280","800","en","ng09ei12","null","","","","","","","","learning/Slide19.JPG","null","","","","",""
"","html-keyboard-response","62","65702879","0.0-6.0-1.18","FL","7ksbngduvy","1280","800","en","ng09ei12","null","","","","learningBlock1","","","","That was a wug.","null","","","","",""
"","html-keyboard-response","63","65703884","0.0-6.0-2.18","FL","7ksbngduvy","1280","800","en","ng09ei12","null","","","","learningBlock1","","","","<div style=""font-size:60px;""> </div>","null","FL","learning/Slide19.JPG","That was a wug.","",""
"","image-keyboard-response","64","65704061","0.0-6.0-0.19","FL","7ksbngduvy","1280","800","en","ng09ei12","null","","","","","","","","learning/Slide20.JPG","null","","","","",""
"","html-keyboard-response","65","65705214","0.0-6.0-1.19","FL","7ksbngduvy","1280","800","en","ng09ei12","null","","","","learningBlock1","","","","That was a bim.","null","","","","",""
"","html-keyboard-response","66","65706215","0.0-6.0-2.19","FL","7ksbngduvy","1280","800","en","ng09ei12","null","","","","learningBlock1","","","","<div style=""font-size:60px;""> </div>","null","FL","learning/Slide20.JPG","That was a bim.","",""
"","image-keyboard-response","67","65706392","0.0-6.0-0.20","FL","7ksbngduvy","1280","800","en","ng09ei12","null","","","","","","","","learning/Slide21.JPG","null","","","","",""
"","html-keyboard-response","68","65707547","0.0-6.0-1.20","FL","7ksbngduvy","1280","800","en","ng09ei12","null","","","","learningBlock1","","","","That was a dep.","null","","","","",""
"","html-keyboard-response","69","65708549","0.0-6.0-2.20","FL","7ksbngduvy","1280","800","en","ng09ei12","null","","","","learningBlock1","","","","<div style=""font-size:60px;""> </div>","null","FL","learning/Slide21.JPG","That was a dep.","",""
"","image-keyboard-response","70","65708724","0.0-6.0-0.21","FL","7ksbngduvy","1280","800","en","ng09ei12","null","","","","","","","","learning/Slide22.JPG","null","","","","",""
"","html-keyboard-response","71","65709881","0.0-6.0-1.21","FL","7ksbngduvy","1280","800","en","ng09ei12","null","","","","learningBlock1","","","","That was a bim.","null","","","","",""
"","html-keyboard-response","72","65710885","0.0-6.0-2.21","FL","7ksbngduvy","1280","800","en","ng09ei12","null","","","","learningBlock1","","","","<div style=""font-size:60px;""> </div>","null","FL","learning/Slide22.JPG","That was a bim.","",""
"","image-keyboard-response","73","65711060","0.0-6.0-0.22","FL","7ksbngduvy","1280","800","en","ng09ei12","null","","","","","","","","learning/Slide23.JPG","null","","","","",""
"","html-keyboard-response","74","65712216","0.0-6.0-1.22","FL","7ksbngduvy","1280","800","en","ng09ei12","null","","","","learningBlock1","","","","That was a tob.","null","","","","",""
"","html-keyboard-response","75","65713217","0.0-6.0-2.22","FL","7ksbngduvy","1280","800","en","ng09ei12","null","","","","learningBlock1","","","","<div style=""font-size:60px;""> </div>","null","FL","learning/Slide23.JPG","That was a tob.","",""
"","image-keyboard-response","76","65713392","0.0-6.0-0.23","FL","7ksbngduvy","1280","800","en","ng09ei12","null","","","","","","","","learning/Slide24.JPG","null","","","","",""
"","html-keyboard-response","77","65714548","0.0-6.0-1.23","FL","7ksbngduvy","1280","800","en","ng09ei12","null","","","","learningBlock1","","","","That was a wug.","null","","","","",""
"","html-keyboard-response","78","65715548","0.0-6.0-2.23","FL","7ksbngduvy","1280","800","en","ng09ei12","null","","","","learningBlock1","","","","<div style=""font-size:60px;""> </div>","null","FL","learning/Slide24.JPG","That was a wug.","",""
"","image-keyboard-response","79","65715726","0.0-6.0-0.24","FL","7ksbngduvy","1280","800","en","ng09ei12","null","","","","","","","","learning/Slide25.JPG","null","","","","",""
"","html-keyboard-response","80","65716880","0.0-6.0-1.24","FL","7ksbngduvy","1280","800","en","ng09ei12","null","","","","learningBlock1","","","","That was a dep.","null","","","","",""
"","html-keyboard-response","81","65717884","0.0-6.0-2.24","FL","7ksbngduvy","1280","800","en","ng09ei12","null","","","","learningBlock1","","","","<div style=""font-size:60px;""> </div>","null","FL","learning/Slide25.JPG","That was a dep.","",""
"","image-keyboard-response","82","65718063","0.0-6.0-0.25","FL","7ksbngduvy","1280","800","en","ng09ei12","null","","","","","","","","learning/Slide26.JPG","null","","","","",""
"","html-keyboard-response","83","65719220","0.0-6.0-1.25","FL","7ksbngduvy","1280","800","en","ng09ei12","null","","","","learningBlock1","","","","That was a wug.","null","","","","",""
"","html-keyboard-response","84","65720221","0.0-6.0-2.25","FL","7ksbngduvy","1280","800","en","ng09ei12","null","","","","learningBlock1","","","","<div style=""font-size:60px;""> </div>","null","FL","learning/Slide26.JPG","That was a wug.","",""
"","image-keyboard-response","85","65720399","0.0-6.0-0.26","FL","7ksbngduvy","1280","800","en","ng09ei12","null","","","","","","","","learning/Slide27.JPG","null","","","","",""
"","html-keyboard-response","86","65721556","0.0-6.0-1.26","FL","7ksbngduvy","1280","800","en","ng09ei12","null","","","","learningBlock1","","","","That was a bim.","null","","","","",""
"","html-keyboard-response","87","65722557","0.0-6.0-2.26","FL","7ksbngduvy","1280","800","en","ng09ei12","null","","","","learningBlock1","","","","<div style=""font-size:60px;""> </div>","null","FL","learning/Slide27.JPG","That was a bim.","",""
"","image-keyboard-response","88","65722737","0.0-6.0-0.27","FL","7ksbngduvy","1280","800","en","ng09ei12","null","","","","","","","","learning/Slide28.JPG","null","","","","",""
"","html-keyboard-response","89","65723889","0.0-6.0-1.27","FL","7ksbngduvy","1280","800","en","ng09ei12","null","","","","learningBlock1","","","","That was a dep.","null","","","","",""
"","html-keyboard-response","90","65724889","0.0-6.0-2.27","FL","7ksbngduvy","1280","800","en","ng09ei12","null","","","","learningBlock1","","","","<div style=""font-size:60px;""> </div>","null","FL","learning/Slide28.JPG","That was a dep.","",""
"","image-keyboard-response","91","65725066","0.0-6.0-0.28","FL","7ksbngduvy","1280","800","en","ng09ei12","null","","","","","","","","learning/Slide29.JPG","null","","","","",""
"","html-keyboard-response","92","65726219","0.0-6.0-1.28","FL","7ksbngduvy","1280","800","en","ng09ei12","null","","","","learningBlock1","","","","That was a tob.","null","","","","",""
"","html-keyboard-response","93","65727221","0.0-6.0-2.28","FL","7ksbngduvy","1280","800","en","ng09ei12","null","","","","learningBlock1","","","","<div style=""font-size:60px;""> </div>","null","FL","learning/Slide29.JPG","That was a tob.","",""
"","image-keyboard-response","94","65727397","0.0-6.0-0.29","FL","7ksbngduvy","1280","800","en","ng09ei12","null","","","","","","","","learning/Slide30.JPG","null","","","","",""
"","html-keyboard-response","95","65728549","0.0-6.0-1.29","FL","7ksbngduvy","1280","800","en","ng09ei12","null","","","","learningBlock1","","","","That was a dep.","null","","","","",""
"","html-keyboard-response","96","65729550","0.0-6.0-2.29","FL","7ksbngduvy","1280","800","en","ng09ei12","null","","","","learningBlock1","","","","<div style=""font-size:60px;""> </div>","null","FL","learning/Slide30.JPG","That was a dep.","",""
"","image-keyboard-response","97","65729728","0.0-6.0-0.30","FL","7ksbngduvy","1280","800","en","ng09ei12","null","","","","","","","","learning/Slide31.JPG","null","","","","",""
"","html-keyboard-response","98","65730881","0.0-6.0-1.30","FL","7ksbngduvy","1280","800","en","ng09ei12","null","","","","learningBlock1","","","","That was a wug.","null","","","","",""
"","html-keyboard-response","99","65731884","0.0-6.0-2.30","FL","7ksbngduvy","1280","800","en","ng09ei12","null","","","","learningBlock1","","","","<div style=""font-size:60px;""> </div>","null","FL","learning/Slide31.JPG","That was a wug.","",""
"","image-keyboard-response","100","65732064","0.0-6.0-0.31","FL","7ksbngduvy","1280","800","en","ng09ei12","null","","","","","","","","learning/Slide32.JPG","null","","","","",""
"","html-keyboard-response","101","65733219","0.0-6.0-1.31","FL","7ksbngduvy","1280","800","en","ng09ei12","null","","","","learningBlock1","","","","That was a tob.","null","","","","",""
"","html-keyboard-response","102","65734221","0.0-6.0-2.31","FL","7ksbngduvy","1280","800","en","ng09ei12","null","","","","learningBlock1","","","","<div style=""font-size:60px;""> </div>","null","FL","learning/Slide32.JPG","That was a tob.","",""
"","image-keyboard-response","103","65734399","0.0-6.0-0.32","FL","7ksbngduvy","1280","800","en","ng09ei12","null","","","","","","","","learning/Slide33.JPG","null","","","","",""
"","html-keyboard-response","104","65735550","0.0-6.0-1.32","FL","7ksbngduvy","1280","800","en","ng09ei12","null","","","","learningBlock1","","","","That was a bim.","null","","","","",""
"","html-keyboard-response","105","65736574","0.0-6.0-2.32","FL","7ksbngduvy","1280","800","en","ng09ei12","null","","","","learningBlock1","","","","<div style=""font-size:60px;""> </div>","null","FL","learning/Slide33.JPG","That was a bim.","",""
"","image-keyboard-response","106","65736750","0.0-6.0-0.33","FL","7ksbngduvy","1280","800","en","ng09ei12","null","","","","","","","","learning/Slide34.JPG","null","","","","",""
"","html-keyboard-response","107","65737905","0.0-6.0-1.33","FL","7ksbngduvy","1280","800","en","ng09ei12","null","","","","learningBlock1","","","","That was a tob.","null","","","","",""
"","html-keyboard-response","108","65738908","0.0-6.0-2.33","FL","7ksbngduvy","1280","800","en","ng09ei12","null","","","","learningBlock1","","","","<div style=""font-size:60px;""> </div>","null","FL","learning/Slide34.JPG","That was a tob.","",""
"","image-keyboard-response","109","65739088","0.0-6.0-0.34","FL","7ksbngduvy","1280","800","en","ng09ei12","null","","","","","","","","learning/Slide35.JPG","null","","","","",""
"","html-keyboard-response","110","65740242","0.0-6.0-1.34","FL","7ksbngduvy","1280","800","en","ng09ei12","null","","","","learningBlock1","","","","That was a bim.","null","","","","",""
"","html-keyboard-response","111","65741243","0.0-6.0-2.34","FL","7ksbngduvy","1280","800","en","ng09ei12","null","","","","learningBlock1","","","","<div style=""font-size:60px;""> </div>","null","FL","learning/Slide35.JPG","That was a bim.","",""
"","image-keyboard-response","112","65741419","0.0-6.0-0.35","FL","7ksbngduvy","1280","800","en","ng09ei12","null","","","","","","","","learning/Slide36.JPG","null","","","","",""
"","html-keyboard-response","113","65742570","0.0-6.0-1.35","FL","7ksbngduvy","1280","800","en","ng09ei12","null","","","","learningBlock1","","","","That was a dep.","null","","","","",""
"","html-keyboard-response","114","65743572","0.0-6.0-2.35","FL","7ksbngduvy","1280","800","en","ng09ei12","null","","","","learningBlock1","","","","<div style=""font-size:60px;""> </div>","null","FL","learning/Slide36.JPG","That was a dep.","",""
"","image-keyboard-response","115","65743749","0.0-6.0-0.36","FL","7ksbngduvy","1280","800","en","ng09ei12","null","","","","","","","","learning/Slide37.JPG","null","","","","",""
"","html-keyboard-response","116","65744900","0.0-6.0-1.36","FL","7ksbngduvy","1280","800","en","ng09ei12","null","","","","learningBlock1","","","","That was a tob.","null","","","","",""
"","html-keyboard-response","117","65745900","0.0-6.0-2.36","FL","7ksbngduvy","1280","800","en","ng09ei12","null","","","","learningBlock1","","","","<div style=""font-size:60px;""> </div>","null","FL","learning/Slide37.JPG","That was a tob.","",""
"","image-keyboard-response","118","65746081","0.0-6.0-0.37","FL","7ksbngduvy","1280","800","en","ng09ei12","null","","","","","","","","learning/Slide38.JPG","null","","","","",""
"","html-keyboard-response","119","65747238","0.0-6.0-1.37","FL","7ksbngduvy","1280","800","en","ng09ei12","null","","","","learningBlock1","","","","That was a wug.","null","","","","",""
"","html-keyboard-response","120","65748238","0.0-6.0-2.37","FL","7ksbngduvy","1280","800","en","ng09ei12","null","","","","learningBlock1","","","","<div style=""font-size:60px;""> </div>","null","FL","learning/Slide38.JPG","That was a wug.","",""
"","image-keyboard-response","121","65748418","0.0-6.0-0.38","FL","7ksbngduvy","1280","800","en","ng09ei12","null","","","","","","","","learning/Slide39.JPG","null","","","","",""
"","html-keyboard-response","122","65749568","0.0-6.0-1.38","FL","7ksbngduvy","1280","800","en","ng09ei12","null","","","","learningBlock1","","","","That was a bim.","null","","","","",""
"","html-keyboard-response","123","65750570","0.0-6.0-2.38","FL","7ksbngduvy","1280","800","en","ng09ei12","null","","","","learningBlock1","","","","<div style=""font-size:60px;""> </div>","null","FL","learning/Slide39.JPG","That was a bim.","",""
"","image-keyboard-response","124","65750746","0.0-6.0-0.39","FL","7ksbngduvy","1280","800","en","ng09ei12","null","","","","","","","","learning/Slide40.JPG","null","","","","",""
"","html-keyboard-response","125","65751898","0.0-6.0-1.39","FL","7ksbngduvy","1280","800","en","ng09ei12","null","","","","learningBlock1","","","","That was a tob.","null","","","","",""
"","html-keyboard-response","126","65752899","0.0-6.0-2.39","FL","7ksbngduvy","1280","800","en","ng09ei12","null","","","","learningBlock1","","","","<div style=""font-size:60px;""> </div>","null","FL","learning/Slide40.JPG","That was a tob.","",""
"","image-keyboard-response","127","65753075","0.0-6.0-0.40","FL","7ksbngduvy","1280","800","en","ng09ei12","null","","","","","","","","learning/Slide41.JPG","null","","","","",""
"","html-keyboard-response","128","65754226","0.0-6.0-1.40","FL","7ksbngduvy","1280","800","en","ng09ei12","null","","","","learningBlock1","","","","That was a bim.","null","","","","",""
"","html-keyboard-response","129","65755228","0.0-6.0-2.40","FL","7ksbngduvy","1280","800","en","ng09ei12","null","","","","learningBlock1","","","","<div style=""font-size:60px;""> </div>","null","FL","learning/Slide41.JPG","That was a bim.","",""
"","image-keyboard-response","130","65755407","0.0-6.0-0.41","FL","7ksbngduvy","1280","800","en","ng09ei12","null","","","","","","","","learning/Slide42.JPG","null","","","","",""
"","html-keyboard-response","131","65756557","0.0-6.0-1.41","FL","7ksbngduvy","1280","800","en","ng09ei12","null","","","","learningBlock1","","","","That was a dep.","null","","","","",""
"","html-keyboard-response","132","65757563","0.0-6.0-2.41","FL","7ksbngduvy","1280","800","en","ng09ei12","null","","","","learningBlock1","","","","<div style=""font-size:60px;""> </div>","null","FL","learning/Slide42.JPG","That was a dep.","",""
"","image-keyboard-response","133","65757742","0.0-6.0-0.42","FL","7ksbngduvy","1280","800","en","ng09ei12","null","","","","","","","","learning/Slide43.JPG","null","","","","",""
"","html-keyboard-response","134","65758893","0.0-6.0-1.42","FL","7ksbngduvy","1280","800","en","ng09ei12","null","","","","learningBlock1","","","","That was a wug.","null","","","","",""
"","html-keyboard-response","135","65759893","0.0-6.0-2.42","FL","7ksbngduvy","1280","800","en","ng09ei12","null","","","","learningBlock1","","","","<div style=""font-size:60px;""> </div>","null","FL","learning/Slide43.JPG","That was a wug.","",""
"","image-keyboard-response","136","65760070","0.0-6.0-0.43","FL","7ksbngduvy","1280","800","en","ng09ei12","null","","","","","","","","learning/Slide44.JPG","null","","","","",""
"","html-keyboard-response","137","65761223","0.0-6.0-1.43","FL","7ksbngduvy","1280","800","en","ng09ei12","null","","","","learningBlock1","","","","That was a bim.","null","","","","",""
"","html-keyboard-response","138","65762223","0.0-6.0-2.43","FL","7ksbngduvy","1280","800","en","ng09ei12","null","","","","learningBlock1","","","","<div style=""font-size:60px;""> </div>","null","FL","learning/Slide44.JPG","That was a bim.","",""
"","image-keyboard-response","139","65762402","0.0-6.0-0.44","FL","7ksbngduvy","1280","800","en","ng09ei12","null","","","","","","","","learning/Slide45.JPG","null","","","","",""
"","html-keyboard-response","140","65763554","0.0-6.0-1.44","FL","7ksbngduvy","1280","800","en","ng09ei12","null","","","","learningBlock1","","","","That was a wug.","null","","","","",""
"","html-keyboard-response","141","65764556","0.0-6.0-2.44","FL","7ksbngduvy","1280","800","en","ng09ei12","null","","","","learningBlock1","","","","<div style=""font-size:60px;""> </div>","null","FL","learning/Slide45.JPG","That was a wug.","",""
"","image-keyboard-response","142","65764733","0.0-6.0-0.45","FL","7ksbngduvy","1280","800","en","ng09ei12","null","","","","","","","","learning/Slide46.JPG","null","","","","",""
"","html-keyboard-response","143","65765886","0.0-6.0-1.45","FL","7ksbngduvy","1280","800","en","ng09ei12","null","","","","learningBlock1","","","","That was a dep.","null","","","","",""
"","html-keyboard-response","144","65766887","0.0-6.0-2.45","FL","7ksbngduvy","1280","800","en","ng09ei12","null","","","","learningBlock1","","","","<div style=""font-size:60px;""> </div>","null","FL","learning/Slide46.JPG","That was a dep.","",""
"","image-keyboard-response","145","65767065","0.0-6.0-0.46","FL","7ksbngduvy","1280","800","en","ng09ei12","null","","","","","","","","learning/Slide47.JPG","null","","","","",""
"","html-keyboard-response","146","65768222","0.0-6.0-1.46","FL","7ksbngduvy","1280","800","en","ng09ei12","null","","","","learningBlock1","","","","That was a tob.","null","","","","",""
"","html-keyboard-response","147","65769223","0.0-6.0-2.46","FL","7ksbngduvy","1280","800","en","ng09ei12","null","","","","learningBlock1","","","","<div style=""font-size:60px;""> </div>","null","FL","learning/Slide47.JPG","That was a tob.","",""
"","image-keyboard-response","148","65769399","0.0-6.0-0.47","FL","7ksbngduvy","1280","800","en","ng09ei12","null","","","","","","","","learning/Slide48.JPG","null","","","","",""
"","html-keyboard-response","149","65770556","0.0-6.0-1.47","FL","7ksbngduvy","1280","800","en","ng09ei12","null","","","","learningBlock1","","","","That was a bim.","null","","","","",""
"","html-keyboard-response","150","65771556","0.0-6.0-2.47","FL","7ksbngduvy","1280","800","en","ng09ei12","null","","","","learningBlock1","","","","<div style=""font-size:60px;""> </div>","null","FL","learning/Slide48.JPG","That was a bim.","",""
"","image-keyboard-response","151","65771736","0.0-6.0-0.48","FL","7ksbngduvy","1280","800","en","ng09ei12","null","","","","","","","","learning/Slide49.JPG","null","","","","",""
"","html-keyboard-response","152","65772891","0.0-6.0-1.48","FL","7ksbngduvy","1280","800","en","ng09ei12","null","","","","learningBlock1","","","","That was a dep.","null","","","","",""
"","html-keyboard-response","153","65773893","0.0-6.0-2.48","FL","7ksbngduvy","1280","800","en","ng09ei12","null","","","","learningBlock1","","","","<div style=""font-size:60px;""> </div>","null","FL","learning/Slide49.JPG","That was a dep.","",""
"","image-keyboard-response","154","65774073","0.0-6.0-0.49","FL","7ksbngduvy","1280","800","en","ng09ei12","null","","","","","","","","learning/Slide50.JPG","null","","","","",""
"","html-keyboard-response","155","65775223","0.0-6.0-1.49","FL","7ksbngduvy","1280","800","en","ng09ei12","null","","","","learningBlock1","","","","That was a tob.","null","","","","",""
"","html-keyboard-response","156","65776228","0.0-6.0-2.49","FL","7ksbngduvy","1280","800","en","ng09ei12","null","","","","learningBlock1","","","","<div style=""font-size:60px;""> </div>","null","FL","learning/Slide50.JPG","That was a tob.","",""
"","image-keyboard-response","157","65776405","0.0-6.0-0.50","FL","7ksbngduvy","1280","800","en","ng09ei12","null","","","","","","","","learning/Slide51.JPG","null","","","","",""
"","html-keyboard-response","158","65777560","0.0-6.0-1.50","FL","7ksbngduvy","1280","800","en","ng09ei12","null","","","","learningBlock1","","","","That was a bim.","null","","","","",""
"","html-keyboard-response","159","65778561","0.0-6.0-2.50","FL","7ksbngduvy","1280","800","en","ng09ei12","null","","","","learningBlock1","","","","<div style=""font-size:60px;""> </div>","null","FL","learning/Slide51.JPG","That was a bim.","",""
"","image-keyboard-response","160","65778736","0.0-6.0-0.51","FL","7ksbngduvy","1280","800","en","ng09ei12","null","","","","","","","","learning/Slide52.JPG","null","","","","",""
"","html-keyboard-response","161","65779888","0.0-6.0-1.51","FL","7ksbngduvy","1280","800","en","ng09ei12","null","","","","learningBlock1","","","","That was a wug.","null","","","","",""
"","html-keyboard-response","162","65780889","0.0-6.0-2.51","FL","7ksbngduvy","1280","800","en","ng09ei12","null","","","","learningBlock1","","","","<div style=""font-size:60px;""> </div>","null","FL","learning/Slide52.JPG","That was a wug.","",""
"","image-keyboard-response","163","65781065","0.0-6.0-0.52","FL","7ksbngduvy","1280","800","en","ng09ei12","null","","","","","","","","learning/Slide53.JPG","null","","","","",""
"","html-keyboard-response","164","65782217","0.0-6.0-1.52","FL","7ksbngduvy","1280","800","en","ng09ei12","null","","","","learningBlock1","","","","That was a tob.","null","","","","",""
"","html-keyboard-response","165","65783217","0.0-6.0-2.52","FL","7ksbngduvy","1280","800","en","ng09ei12","null","","","","learningBlock1","","","","<div style=""font-size:60px;""> </div>","null","FL","learning/Slide53.JPG","That was a tob.","",""
"","image-keyboard-response","166","65783393","0.0-6.0-0.53","FL","7ksbngduvy","1280","800","en","ng09ei12","null","","","","","","","","learning/Slide54.JPG","null","","","","",""
"","html-keyboard-response","167","65784550","0.0-6.0-1.53","FL","7ksbngduvy","1280","800","en","ng09ei12","null","","","","learningBlock1","","","","That was a dep.","null","","","","",""
"","html-keyboard-response","168","65785551","0.0-6.0-2.53","FL","7ksbngduvy","1280","800","en","ng09ei12","null","","","","learningBlock1","","","","<div style=""font-size:60px;""> </div>","null","FL","learning/Slide54.JPG","That was a dep.","",""
"","image-keyboard-response","169","65785727","0.0-6.0-0.54","FL","7ksbngduvy","1280","800","en","ng09ei12","null","","","","","","","","learning/Slide55.JPG","null","","","","",""
"","html-keyboard-response","170","65786881","0.0-6.0-1.54","FL","7ksbngduvy","1280","800","en","ng09ei12","null","","","","learningBlock1","","","","That was a bim.","null","","","","",""
"","html-keyboard-response","171","65787883","0.0-6.0-2.54","FL","7ksbngduvy","1280","800","en","ng09ei12","null","","","","learningBlock1","","","","<div style=""font-size:60px;""> </div>","null","FL","learning/Slide55.JPG","That was a bim.","",""
"","image-keyboard-response","172","65788059","0.0-6.0-0.55","FL","7ksbngduvy","1280","800","en","ng09ei12","null","","","","","","","","learning/Slide56.JPG","null","","","","",""
"","html-keyboard-response","173","65789212","0.0-6.0-1.55","FL","7ksbngduvy","1280","800","en","ng09ei12","null","","","","learningBlock1","","","","That was a tob.","null","","","","",""
"","html-keyboard-response","174","65790215","0.0-6.0-2.55","FL","7ksbngduvy","1280","800","en","ng09ei12","null","","","","learningBlock1","","","","<div style=""font-size:60px;""> </div>","null","FL","learning/Slide56.JPG","That was a tob.","",""
"","image-keyboard-response","175","65790394","0.0-6.0-0.56","FL","7ksbngduvy","1280","800","en","ng09ei12","null","","","","","","","","learning/Slide57.JPG","null","","","","",""
"","html-keyboard-response","176","65791551","0.0-6.0-1.56","FL","7ksbngduvy","1280","800","en","ng09ei12","null","","","","learningBlock1","","","","That was a dep.","null","","","","",""
"","html-keyboard-response","177","65792557","0.0-6.0-2.56","FL","7ksbngduvy","1280","800","en","ng09ei12","null","","","","learningBlock1","","","","<div style=""font-size:60px;""> </div>","null","FL","learning/Slide57.JPG","That was a dep.","",""
"","image-keyboard-response","178","65792733","0.0-6.0-0.57","FL","7ksbngduvy","1280","800","en","ng09ei12","null","","","","","","","","learning/Slide58.JPG","null","","","","",""
"","html-keyboard-response","179","65793886","0.0-6.0-1.57","FL","7ksbngduvy","1280","800","en","ng09ei12","null","","","","learningBlock1","","","","That was a wug.","null","","","","",""
"","html-keyboard-response","180","65794887","0.0-6.0-2.57","FL","7ksbngduvy","1280","800","en","ng09ei12","null","","","","learningBlock1","","","","<div style=""font-size:60px;""> </div>","null","FL","learning/Slide58.JPG","That was a wug.","",""
"","image-keyboard-response","181","65795063","0.0-6.0-0.58","FL","7ksbngduvy","1280","800","en","ng09ei12","null","","","","","","","","learning/Slide59.JPG","null","","","","",""
"","html-keyboard-response","182","65796216","0.0-6.0-1.58","FL","7ksbngduvy","1280","800","en","ng09ei12","null","","","","learningBlock1","","","","That was a dep.","null","","","","",""
"","html-keyboard-response","183","65797249","0.0-6.0-2.58","FL","7ksbngduvy","1280","800","en","ng09ei12","null","","","","learningBlock1","","","","<div style=""font-size:60px;""> </div>","null","FL","learning/Slide59.JPG","That was a dep.","",""
"","image-keyboard-response","184","65797431","0.0-6.0-0.59","FL","7ksbngduvy","1280","800","en","ng09ei12","null","","","","","","","","learning/Slide60.JPG","null","","","","",""
"","html-keyboard-response","185","65798586","0.0-6.0-1.59","FL","7ksbngduvy","1280","800","en","ng09ei12","null","","","","learningBlock1","","","","That was a wug.","null","","","","",""
"","html-keyboard-response","186","65799589","0.0-6.0-2.59","FL","7ksbngduvy","1280","800","en","ng09ei12","null","","","","learningBlock1","","","","<div style=""font-size:60px;""> </div>","null","FL","learning/Slide60.JPG","That was a wug.","",""
"","image-keyboard-response","187","65799768","0.0-6.0-0.60","FL","7ksbngduvy","1280","800","en","ng09ei12","null","","","","","","","","learning/Slide61.JPG","null","","","","",""
"","html-keyboard-response","188","65800923","0.0-6.0-1.60","FL","7ksbngduvy","1280","800","en","ng09ei12","null","","","","learningBlock1","","","","That was a bim.","null","","","","",""
"","html-keyboard-response","189","65801927","0.0-6.0-2.60","FL","7ksbngduvy","1280","800","en","ng09ei12","null","","","","learningBlock1","","","","<div style=""font-size:60px;""> </div>","null","FL","learning/Slide61.JPG","That was a bim.","",""
"","image-keyboard-response","190","65802103","0.0-6.0-0.61","FL","7ksbngduvy","1280","800","en","ng09ei12","null","","","","","","","","learning/Slide62.JPG","null","","","","",""
"","html-keyboard-response","191","65803258","0.0-6.0-1.61","FL","7ksbngduvy","1280","800","en","ng09ei12","null","","","","learningBlock1","","","","That was a dep.","null","","","","",""
"","html-keyboard-response","192","65804262","0.0-6.0-2.61","FL","7ksbngduvy","1280","800","en","ng09ei12","null","","","","learningBlock1","","","","<div style=""font-size:60px;""> </div>","null","FL","learning/Slide62.JPG","That was a dep.","",""
"","image-keyboard-response","193","65804441","0.0-6.0-0.62","FL","7ksbngduvy","1280","800","en","ng09ei12","null","","","","","","","","learning/Slide63.JPG","null","","","","",""
"","html-keyboard-response","194","65805595","0.0-6.0-1.62","FL","7ksbngduvy","1280","800","en","ng09ei12","null","","","","learningBlock1","","","","That was a bim.","null","","","","",""
"","html-keyboard-response","195","65806598","0.0-6.0-2.62","FL","7ksbngduvy","1280","800","en","ng09ei12","null","","","","learningBlock1","","","","<div style=""font-size:60px;""> </div>","null","FL","learning/Slide63.JPG","That was a bim.","",""
"","image-keyboard-response","196","65806778","0.0-6.0-0.63","FL","7ksbngduvy","1280","800","en","ng09ei12","null","","","","","","","","learning/Slide64.JPG","null","","","","",""
"","html-keyboard-response","197","65807933","0.0-6.0-1.63","FL","7ksbngduvy","1280","800","en","ng09ei12","null","","","","learningBlock1","","","","That was a tob.","null","","","","",""
"","html-keyboard-response","198","65808936","0.0-6.0-2.63","FL","7ksbngduvy","1280","800","en","ng09ei12","null","","","","learningBlock1","","","","<div style=""font-size:60px;""> </div>","null","FL","learning/Slide64.JPG","That was a tob.","",""
"","image-keyboard-response","199","65809116","0.0-6.0-0.64","FL","7ksbngduvy","1280","800","en","ng09ei12","null","","","","","","","","learning/Slide65.JPG","null","","","","",""
"","html-keyboard-response","200","65810268","0.0-6.0-1.64","FL","7ksbngduvy","1280","800","en","ng09ei12","null","","","","learningBlock1","","","","That was a wug.","null","","","","",""
"","html-keyboard-response","201","65811269","0.0-6.0-2.64","FL","7ksbngduvy","1280","800","en","ng09ei12","null","","","","learningBlock1","","","","<div style=""font-size:60px;""> </div>","null","FL","learning/Slide65.JPG","That was a wug.","",""
"","image-keyboard-response","202","65811449","0.0-6.0-0.65","FL","7ksbngduvy","1280","800","en","ng09ei12","null","","","","","","","","learning/Slide66.JPG","null","","","","",""
"","html-keyboard-response","203","65812600","0.0-6.0-1.65","FL","7ksbngduvy","1280","800","en","ng09ei12","null","","","","learningBlock1","","","","That was a dep.","null","","","","",""
"","html-keyboard-response","204","65813600","0.0-6.0-2.65","FL","7ksbngduvy","1280","800","en","ng09ei12","null","","","","learningBlock1","","","","<div style=""font-size:60px;""> </div>","null","FL","learning/Slide66.JPG","That was a dep.","",""
"","image-keyboard-response","205","65813782","0.0-6.0-0.66","FL","7ksbngduvy","1280","800","en","ng09ei12","null","","","","","","","","learning/Slide67.JPG","null","","","","",""
"","html-keyboard-response","206","65814938","0.0-6.0-1.66","FL","7ksbngduvy","1280","800","en","ng09ei12","null","","","","learningBlock1","","","","That was a tob.","null","","","","",""
"","html-keyboard-response","207","65815938","0.0-6.0-2.66","FL","7ksbngduvy","1280","800","en","ng09ei12","null","","","","learningBlock1","","","","<div style=""font-size:60px;""> </div>","null","FL","learning/Slide67.JPG","That was a tob.","",""
"","image-keyboard-response","208","65816116","0.0-6.0-0.67","FL","7ksbngduvy","1280","800","en","ng09ei12","null","","","","","","","","learning/Slide68.JPG","null","","","","",""
"","html-keyboard-response","209","65817266","0.0-6.0-1.67","FL","7ksbngduvy","1280","800","en","ng09ei12","null","","","","learningBlock1","","","","That was a wug.","null","","","","",""
"","html-keyboard-response","210","65818269","0.0-6.0-2.67","FL","7ksbngduvy","1280","800","en","ng09ei12","null","","","","learningBlock1","","","","<div style=""font-size:60px;""> </div>","null","FL","learning/Slide68.JPG","That was a wug.","",""
"","image-keyboard-response","211","65818447","0.0-6.0-0.68","FL","7ksbngduvy","1280","800","en","ng09ei12","null","","","","","","","","learning/Slide69.JPG","null","","","","",""
"","html-keyboard-response","212","65819599","0.0-6.0-1.68","FL","7ksbngduvy","1280","800","en","ng09ei12","null","","","","learningBlock1","","","","That was a tob.","null","","","","",""
"","html-keyboard-response","213","65820600","0.0-6.0-2.68","FL","7ksbngduvy","1280","800","en","ng09ei12","null","","","","learningBlock1","","","","<div style=""font-size:60px;""> </div>","null","FL","learning/Slide69.JPG","That was a tob.","",""
"","image-keyboard-response","214","65820780","0.0-6.0-0.69","FL","7ksbngduvy","1280","800","en","ng09ei12","null","","","","","","","","learning/Slide70.JPG","null","","","","",""
"","html-keyboard-response","215","65821933","0.0-6.0-1.69","FL","7ksbngduvy","1280","800","en","ng09ei12","null","","","","learningBlock1","","","","That was a dep.","null","","","","",""
"","html-keyboard-response","216","65822934","0.0-6.0-2.69","FL","7ksbngduvy","1280","800","en","ng09ei12","null","","","","learningBlock1","","","","<div style=""font-size:60px;""> </div>","null","FL","learning/Slide70.JPG","That was a dep.","",""
"","image-keyboard-response","217","65823110","0.0-6.0-0.70","FL","7ksbngduvy","1280","800","en","ng09ei12","null","","","","","","","","learning/Slide71.JPG","null","","","","",""
"","html-keyboard-response","218","65824260","0.0-6.0-1.70","FL","7ksbngduvy","1280","800","en","ng09ei12","null","","","","learningBlock1","","","","That was a wug.","null","","","","",""
"","html-keyboard-response","219","65825265","0.0-6.0-2.70","FL","7ksbngduvy","1280","800","en","ng09ei12","null","","","","learningBlock1","","","","<div style=""font-size:60px;""> </div>","null","FL","learning/Slide71.JPG","That was a wug.","",""
"","image-keyboard-response","220","65825444","0.0-6.0-0.71","FL","7ksbngduvy","1280","800","en","ng09ei12","null","","","","","","","","learning/Slide72.JPG","null","","","","",""
"","html-keyboard-response","221","65826599","0.0-6.0-1.71","FL","7ksbngduvy","1280","800","en","ng09ei12","null","","","","learningBlock1","","","","That was a bim.","null","","","","",""
"","html-keyboard-response","222","65827601","0.0-6.0-2.71","FL","7ksbngduvy","1280","800","en","ng09ei12","null","","","","learningBlock1","","","","<div style=""font-size:60px;""> </div>","null","FL","learning/Slide72.JPG","That was a bim.","",""
"","image-keyboard-response","223","65827782","0.0-6.0-0.72","FL","7ksbngduvy","1280","800","en","ng09ei12","null","","","","","","","","learning/Slide73.JPG","null","","","","",""
"","html-keyboard-response","224","65828933","0.0-6.0-1.72","FL","7ksbngduvy","1280","800","en","ng09ei12","null","","","","learningBlock1","","","","That was a wug.","null","","","","",""
"","html-keyboard-response","225","65829937","0.0-6.0-2.72","FL","7ksbngduvy","1280","800","en","ng09ei12","null","","","","learningBlock1","","","","<div style=""font-size:60px;""> </div>","null","FL","learning/Slide73.JPG","That was a wug.","",""
"","image-keyboard-response","226","65830113","0.0-6.0-0.73","FL","7ksbngduvy","1280","800","en","ng09ei12","null","","","","","","","","learning/Slide74.JPG","null","","","","",""
"","html-keyboard-response","227","65831267","0.0-6.0-1.73","FL","7ksbngduvy","1280","800","en","ng09ei12","null","","","","learningBlock1","","","","That was a dep.","null","","","","",""
"","html-keyboard-response","228","65832268","0.0-6.0-2.73","FL","7ksbngduvy","1280","800","en","ng09ei12","null","","","","learningBlock1","","","","<div style=""font-size:60px;""> </div>","null","FL","learning/Slide74.JPG","That was a dep.","",""
"","image-keyboard-response","229","65832443","0.0-6.0-0.74","FL","7ksbngduvy","1280","800","en","ng09ei12","null","","","","","","","","learning/Slide75.JPG","null","","","","",""
"","html-keyboard-response","230","65833596","0.0-6.0-1.74","FL","7ksbngduvy","1280","800","en","ng09ei12","null","","","","learningBlock1","","","","That was a tob.","null","","","","",""
"","html-keyboard-response","231","65834599","0.0-6.0-2.74","FL","7ksbngduvy","1280","800","en","ng09ei12","null","","","","learningBlock1","","","","<div style=""font-size:60px;""> </div>","null","FL","learning/Slide75.JPG","That was a tob.","",""
"","image-keyboard-response","232","65834777","0.0-6.0-0.75","FL","7ksbngduvy","1280","800","en","ng09ei12","null","","","","","","","","learning/Slide76.JPG","null","","","","",""
"","html-keyboard-response","233","65835931","0.0-6.0-1.75","FL","7ksbngduvy","1280","800","en","ng09ei12","null","","","","learningBlock1","","","","That was a bim.","null","","","","",""
"","html-keyboard-response","234","65836936","0.0-6.0-2.75","FL","7ksbngduvy","1280","800","en","ng09ei12","null","","","","learningBlock1","","","","<div style=""font-size:60px;""> </div>","null","FL","learning/Slide76.JPG","That was a bim.","",""
"","image-keyboard-response","235","65837116","0.0-6.0-0.76","FL","7ksbngduvy","1280","800","en","ng09ei12","null","","","","","","","","learning/Slide77.JPG","null","","","","",""
"","html-keyboard-response","236","65838271","0.0-6.0-1.76","FL","7ksbngduvy","1280","800","en","ng09ei12","null","","","","learningBlock1","","","","That was a tob.","null","","","","",""
"","html-keyboard-response","237","65839271","0.0-6.0-2.76","FL","7ksbngduvy","1280","800","en","ng09ei12","null","","","","learningBlock1","","","","<div style=""font-size:60px;""> </div>","null","FL","learning/Slide77.JPG","That was a tob.","",""
"","image-keyboard-response","238","65839449","0.0-6.0-0.77","FL","7ksbngduvy","1280","800","en","ng09ei12","null","","","","","","","","learning/Slide78.JPG","null","","","","",""
"","html-keyboard-response","239","65840603","0.0-6.0-1.77","FL","7ksbngduvy","1280","800","en","ng09ei12","null","","","","learningBlock1","","","","That was a wug.","null","","","","",""
"","html-keyboard-response","240","65841604","0.0-6.0-2.77","FL","7ksbngduvy","1280","800","en","ng09ei12","null","","","","learningBlock1","","","","<div style=""font-size:60px;""> </div>","null","FL","learning/Slide78.JPG","That was a wug.","",""
"","image-keyboard-response","241","65841782","0.0-6.0-0.78","FL","7ksbngduvy","1280","800","en","ng09ei12","null","","","","","","","","learning/Slide79.JPG","null","","","","",""
"","html-keyboard-response","242","65842941","0.0-6.0-1.78","FL","7ksbngduvy","1280","800","en","ng09ei12","null","","","","learningBlock1","","","","That was a bim.","null","","","","",""
"","html-keyboard-response","243","65843941","0.0-6.0-2.78","FL","7ksbngduvy","1280","800","en","ng09ei12","null","","","","learningBlock1","","","","<div style=""font-size:60px;""> </div>","null","FL","learning/Slide79.JPG","That was a bim.","",""
"","image-keyboard-response","244","65844119","0.0-6.0-0.79","FL","7ksbngduvy","1280","800","en","ng09ei12","null","","","","","","","","learning/Slide80.JPG","null","","","","",""
"","html-keyboard-response","245","65845279","0.0-6.0-1.79","FL","7ksbngduvy","1280","800","en","ng09ei12","null","","","","learningBlock1","","","","That was a tob.","null","","","","",""
"","html-keyboard-response","246","65846281","0.0-6.0-2.79","FL","7ksbngduvy","1280","800","en","ng09ei12","null","","","","learningBlock1","","","","<div style=""font-size:60px;""> </div>","null","FL","learning/Slide80.JPG","That was a tob.","",""
"","instructions","247","66034185","0.0-7.0","FL","7ksbngduvy","1280","800","en","ng09ei12","NA","","","[{""page_index"":0,""viewing_time"":187898}]","instructions","","","","","","","","","",""
"","image-keyboard-response","248","66034361","0.0-8.0-0.0","FL","7ksbngduvy","1280","800","en","ng09ei12","null","","","","","","","","learning/Slide81.JPG","null","","","","",""
"","html-keyboard-response","249","66035511","0.0-8.0-1.0","FL","7ksbngduvy","1280","800","en","ng09ei12","null","","","","learningBlock2","","","","That was a wug.","null","","","","",""
"","html-keyboard-response","250","66036512","0.0-8.0-2.0","FL","7ksbngduvy","1280","800","en","ng09ei12","null","","","","learningBlock2","","","","<div style=""font-size:60px;""> </div>","null","FL","learning/Slide81.JPG","That was a wug.","",""
"","image-keyboard-response","251","66036693","0.0-8.0-0.1","FL","7ksbngduvy","1280","800","en","ng09ei12","null","","","","","","","","learning/Slide82.JPG","null","","","","",""
"","html-keyboard-response","252","66037849","0.0-8.0-1.1","FL","7ksbngduvy","1280","800","en","ng09ei12","null","","","","learningBlock2","","","","That was a bim.","null","","","","",""
"","html-keyboard-response","253","66038853","0.0-8.0-2.1","FL","7ksbngduvy","1280","800","en","ng09ei12","null","","","","learningBlock2","","","","<div style=""font-size:60px;""> </div>","null","FL","learning/Slide82.JPG","That was a bim.","",""
"","image-keyboard-response","254","66039034","0.0-8.0-0.2","FL","7ksbngduvy","1280","800","en","ng09ei12","null","","","","","","","","learning/Slide83.JPG","null","","","","",""
"","html-keyboard-response","255","66040185","0.0-8.0-1.2","FL","7ksbngduvy","1280","800","en","ng09ei12","null","","","","learningBlock2","","","","That was a wug.","null","","","","",""
"","html-keyboard-response","256","66041185","0.0-8.0-2.2","FL","7ksbngduvy","1280","800","en","ng09ei12","null","","","","learningBlock2","","","","<div style=""font-size:60px;""> </div>","null","FL","learning/Slide83.JPG","That was a wug.","",""
"","image-keyboard-response","257","66041365","0.0-8.0-0.3","FL","7ksbngduvy","1280","800","en","ng09ei12","null","","","","","","","","learning/Slide84.JPG","null","","","","",""
"","html-keyboard-response","258","66042517","0.0-8.0-1.3","FL","7ksbngduvy","1280","800","en","ng09ei12","null","","","","learningBlock2","","","","That was a dep.","null","","","","",""
"","html-keyboard-response","259","66043517","0.0-8.0-2.3","FL","7ksbngduvy","1280","800","en","ng09ei12","null","","","","learningBlock2","","","","<div style=""font-size:60px;""> </div>","null","FL","learning/Slide84.JPG","That was a dep.","",""
"","image-keyboard-response","260","66043693","0.0-8.0-0.4","FL","7ksbngduvy","1280","800","en","ng09ei12","null","","","","","","","","learning/Slide85.JPG","null","","","","",""
"","html-keyboard-response","261","66044850","0.0-8.0-1.4","FL","7ksbngduvy","1280","800","en","ng09ei12","null","","","","learningBlock2","","","","That was a bim.","null","","","","",""
"","html-keyboard-response","262","66045851","0.0-8.0-2.4","FL","7ksbngduvy","1280","800","en","ng09ei12","null","","","","learningBlock2","","","","<div style=""font-size:60px;""> </div>","null","FL","learning/Slide85.JPG","That was a bim.","",""
"","image-keyboard-response","263","66046028","0.0-8.0-0.5","FL","7ksbngduvy","1280","800","en","ng09ei12","null","","","","","","","","learning/Slide86.JPG","null","","","","",""
"","html-keyboard-response","264","66047181","0.0-8.0-1.5","FL","7ksbngduvy","1280","800","en","ng09ei12","null","","","","learningBlock2","","","","That was a tob.","null","","","","",""
"","html-keyboard-response","265","66048182","0.0-8.0-2.5","FL","7ksbngduvy","1280","800","en","ng09ei12","null","","","","learningBlock2","","","","<div style=""font-size:60px;""> </div>","null","FL","learning/Slide86.JPG","That was a tob.","",""
"","image-keyboard-response","266","66048360","0.0-8.0-0.6","FL","7ksbngduvy","1280","800","en","ng09ei12","null","","","","","","","","learning/Slide87.JPG","null","","","","",""
"","html-keyboard-response","267","66049515","0.0-8.0-1.6","FL","7ksbngduvy","1280","800","en","ng09ei12","null","","","","learningBlock2","","","","That was a wug.","null","","","","",""
"","html-keyboard-response","268","66050515","0.0-8.0-2.6","FL","7ksbngduvy","1280","800","en","ng09ei12","null","","","","learningBlock2","","","","<div style=""font-size:60px;""> </div>","null","FL","learning/Slide87.JPG","That was a wug.","",""
"","image-keyboard-response","269","66050693","0.0-8.0-0.7","FL","7ksbngduvy","1280","800","en","ng09ei12","null","","","","","","","","learning/Slide88.JPG","null","","","","",""
"","html-keyboard-response","270","66051847","0.0-8.0-1.7","FL","7ksbngduvy","1280","800","en","ng09ei12","null","","","","learningBlock2","","","","That was a tob.","null","","","","",""
"","html-keyboard-response","271","66052847","0.0-8.0-2.7","FL","7ksbngduvy","1280","800","en","ng09ei12","null","","","","learningBlock2","","","","<div style=""font-size:60px;""> </div>","null","FL","learning/Slide88.JPG","That was a tob.","",""
"","image-keyboard-response","272","66053027","0.0-8.0-0.8","FL","7ksbngduvy","1280","800","en","ng09ei12","null","","","","","","","","learning/Slide89.JPG","null","","","","",""
"","html-keyboard-response","273","66054186","0.0-8.0-1.8","FL","7ksbngduvy","1280","800","en","ng09ei12","null","","","","learningBlock2","","","","That was a bim.","null","","","","",""
"","html-keyboard-response","274","66055188","0.0-8.0-2.8","FL","7ksbngduvy","1280","800","en","ng09ei12","null","","","","learningBlock2","","","","<div style=""font-size:60px;""> </div>","null","FL","learning/Slide89.JPG","That was a bim.","",""
"","image-keyboard-response","275","66055364","0.0-8.0-0.9","FL","7ksbngduvy","1280","800","en","ng09ei12","null","","","","","","","","learning/Slide90.JPG","null","","","","",""
"","html-keyboard-response","276","66056514","0.0-8.0-1.9","FL","7ksbngduvy","1280","800","en","ng09ei12","null","","","","learningBlock2","","","","That was a dep.","null","","","","",""
"","html-keyboard-response","277","66057515","0.0-8.0-2.9","FL","7ksbngduvy","1280","800","en","ng09ei12","null","","","","learningBlock2","","","","<div style=""font-size:60px;""> </div>","null","FL","learning/Slide90.JPG","That was a dep.","",""
"","image-keyboard-response","278","66057693","0.0-8.0-0.10","FL","7ksbngduvy","1280","800","en","ng09ei12","null","","","","","","","","learning/Slide91.JPG","null","","","","",""
"","html-keyboard-response","279","66058849","0.0-8.0-1.10","FL","7ksbngduvy","1280","800","en","ng09ei12","null","","","","learningBlock2","","","","That was a wug.","null","","","","",""
"","html-keyboard-response","280","66059849","0.0-8.0-2.10","FL","7ksbngduvy","1280","800","en","ng09ei12","null","","","","learningBlock2","","","","<div style=""font-size:60px;""> </div>","null","FL","learning/Slide91.JPG","That was a wug.","",""
"","image-keyboard-response","281","66060025","0.0-8.0-0.11","FL","7ksbngduvy","1280","800","en","ng09ei12","null","","","","","","","","learning/Slide92.JPG","null","","","","",""
"","html-keyboard-response","282","66061178","0.0-8.0-1.11","FL","7ksbngduvy","1280","800","en","ng09ei12","null","","","","learningBlock2","","","","That was a tob.","null","","","","",""
"","html-keyboard-response","283","66062179","0.0-8.0-2.11","FL","7ksbngduvy","1280","800","en","ng09ei12","null","","","","learningBlock2","","","","<div style=""font-size:60px;""> </div>","null","FL","learning/Slide92.JPG","That was a tob.","",""
"","image-keyboard-response","284","66062355","0.0-8.0-0.12","FL","7ksbngduvy","1280","800","en","ng09ei12","null","","","","","","","","learning/Slide93.JPG","null","","","","",""
"","html-keyboard-response","285","66063508","0.0-8.0-1.12","FL","7ksbngduvy","1280","800","en","ng09ei12","null","","","","learningBlock2","","","","That was a bim.","null","","","","",""
"","html-keyboard-response","286","66064509","0.0-8.0-2.12","FL","7ksbngduvy","1280","800","en","ng09ei12","null","","","","learningBlock2","","","","<div style=""font-size:60px;""> </div>","null","FL","learning/Slide93.JPG","That was a bim.","",""
"","image-keyboard-response","287","66064685","0.0-8.0-0.13","FL","7ksbngduvy","1280","800","en","ng09ei12","null","","","","","","","","learning/Slide94.JPG","null","","","","",""
"","html-keyboard-response","288","66065843","0.0-8.0-1.13","FL","7ksbngduvy","1280","800","en","ng09ei12","null","","","","learningBlock2","","","","That was a tob.","null","","","","",""
"","html-keyboard-response","289","66066844","0.0-8.0-2.13","FL","7ksbngduvy","1280","800","en","ng09ei12","null","","","","learningBlock2","","","","<div style=""font-size:60px;""> </div>","null","FL","learning/Slide94.JPG","That was a tob.","",""
"","image-keyboard-response","290","66067023","0.0-8.0-0.14","FL","7ksbngduvy","1280","800","en","ng09ei12","null","","","","","","","","learning/Slide95.JPG","null","","","","",""
"","html-keyboard-response","291","66068175","0.0-8.0-1.14","FL","7ksbngduvy","1280","800","en","ng09ei12","null","","","","learningBlock2","","","","That was a wug.","null","","","","",""
"","html-keyboard-response","292","66069179","0.0-8.0-2.14","FL","7ksbngduvy","1280","800","en","ng09ei12","null","","","","learningBlock2","","","","<div style=""font-size:60px;""> </div>","null","FL","learning/Slide95.JPG","That was a wug.","",""
"","image-keyboard-response","293","66069356","0.0-8.0-0.15","FL","7ksbngduvy","1280","800","en","ng09ei12","null","","","","","","","","learning/Slide96.JPG","null","","","","",""
"","html-keyboard-response","294","66070507","0.0-8.0-1.15","FL","7ksbngduvy","1280","800","en","ng09ei12","null","","","","learningBlock2","","","","That was a tob.","null","","","","",""
"","html-keyboard-response","295","66071510","0.0-8.0-2.15","FL","7ksbngduvy","1280","800","en","ng09ei12","null","","","","learningBlock2","","","","<div style=""font-size:60px;""> </div>","null","FL","learning/Slide96.JPG","That was a tob.","",""
"","image-keyboard-response","296","66071686","0.0-8.0-0.16","FL","7ksbngduvy","1280","800","en","ng09ei12","null","","","","","","","","learning/Slide97.JPG","null","","","","",""
"","html-keyboard-response","297","66072843","0.0-8.0-1.16","FL","7ksbngduvy","1280","800","en","ng09ei12","null","","","","learningBlock2","","","","That was a dep.","null","","","","",""
"","html-keyboard-response","298","66073844","0.0-8.0-2.16","FL","7ksbngduvy","1280","800","en","ng09ei12","null","","","","learningBlock2","","","","<div style=""font-size:60px;""> </div>","null","FL","learning/Slide97.JPG","That was a dep.","",""
"","image-keyboard-response","299","66074022","0.0-8.0-0.17","FL","7ksbngduvy","1280","800","en","ng09ei12","null","","","","","","","","learning/Slide98.JPG","null","","","","",""
"","html-keyboard-response","300","66075176","0.0-8.0-1.17","FL","7ksbngduvy","1280","800","en","ng09ei12","null","","","","learningBlock2","","","","That was a bim.","null","","","","",""
"","html-keyboard-response","301","66076177","0.0-8.0-2.17","FL","7ksbngduvy","1280","800","en","ng09ei12","null","","","","learningBlock2","","","","<div style=""font-size:60px;""> </div>","null","FL","learning/Slide98.JPG","That was a bim.","",""
"","image-keyboard-response","302","66076357","0.0-8.0-0.18","FL","7ksbngduvy","1280","800","en","ng09ei12","null","","","","","","","","learning/Slide99.JPG","null","","","","",""
"","html-keyboard-response","303","66077511","0.0-8.0-1.18","FL","7ksbngduvy","1280","800","en","ng09ei12","null","","","","learningBlock2","","","","That was a dep.","null","","","","",""
"","html-keyboard-response","304","66078511","0.0-8.0-2.18","FL","7ksbngduvy","1280","800","en","ng09ei12","null","","","","learningBlock2","","","","<div style=""font-size:60px;""> </div>","null","FL","learning/Slide99.JPG","That was a dep.","",""
"","image-keyboard-response","305","66078687","0.0-8.0-0.19","FL","7ksbngduvy","1280","800","en","ng09ei12","null","","","","","","","","learning/Slide100.JPG","null","","","","",""
"","html-keyboard-response","306","66079843","0.0-8.0-1.19","FL","7ksbngduvy","1280","800","en","ng09ei12","null","","","","learningBlock2","","","","That was a bim.","null","","","","",""
"","html-keyboard-response","307","66080847","0.0-8.0-2.19","FL","7ksbngduvy","1280","800","en","ng09ei12","null","","","","learningBlock2","","","","<div style=""font-size:60px;""> </div>","null","FL","learning/Slide100.JPG","That was a bim.","",""
"","image-keyboard-response","308","66081022","0.0-8.0-0.20","FL","7ksbngduvy","1280","800","en","ng09ei12","null","","","","","","","","learning/Slide101.JPG","null","","","","",""
"","html-keyboard-response","309","66082174","0.0-8.0-1.20","FL","7ksbngduvy","1280","800","en","ng09ei12","null","","","","learningBlock2","","","","That was a tob.","null","","","","",""
"","html-keyboard-response","310","66083175","0.0-8.0-2.20","FL","7ksbngduvy","1280","800","en","ng09ei12","null","","","","learningBlock2","","","","<div style=""font-size:60px;""> </div>","null","FL","learning/Slide101.JPG","That was a tob.","",""
"","image-keyboard-response","311","66083353","0.0-8.0-0.21","FL","7ksbngduvy","1280","800","en","ng09ei12","null","","","","","","","","learning/Slide102.JPG","null","","","","",""
"","html-keyboard-response","312","66084508","0.0-8.0-1.21","FL","7ksbngduvy","1280","800","en","ng09ei12","null","","","","learningBlock2","","","","That was a bim.","null","","","","",""
"","html-keyboard-response","313","66085508","0.0-8.0-2.21","FL","7ksbngduvy","1280","800","en","ng09ei12","null","","","","learningBlock2","","","","<div style=""font-size:60px;""> </div>","null","FL","learning/Slide102.JPG","That was a bim.","",""
"","image-keyboard-response","314","66085685","0.0-8.0-0.22","FL","7ksbngduvy","1280","800","en","ng09ei12","null","","","","","","","","learning/Slide103.JPG","null","","","","",""
"","html-keyboard-response","315","66086841","0.0-8.0-1.22","FL","7ksbngduvy","1280","800","en","ng09ei12","null","","","","learningBlock2","","","","That was a dep.","null","","","","",""
"","html-keyboard-response","316","66087845","0.0-8.0-2.22","FL","7ksbngduvy","1280","800","en","ng09ei12","null","","","","learningBlock2","","","","<div style=""font-size:60px;""> </div>","null","FL","learning/Slide103.JPG","That was a dep.","",""
"","image-keyboard-response","317","66088024","0.0-8.0-0.23","FL","7ksbngduvy","1280","800","en","ng09ei12","null","","","","","","","","learning/Slide104.JPG","null","","","","",""
"","html-keyboard-response","318","66089176","0.0-8.0-1.23","FL","7ksbngduvy","1280","800","en","ng09ei12","null","","","","learningBlock2","","","","That was a tob.","null","","","","",""
"","html-keyboard-response","319","66090180","0.0-8.0-2.23","FL","7ksbngduvy","1280","800","en","ng09ei12","null","","","","learningBlock2","","","","<div style=""font-size:60px;""> </div>","null","FL","learning/Slide104.JPG","That was a tob.","",""
"","image-keyboard-response","320","66090356","0.0-8.0-0.24","FL","7ksbngduvy","1280","800","en","ng09ei12","null","","","","","","","","learning/Slide105.JPG","null","","","","",""
"","html-keyboard-response","321","66091509","0.0-8.0-1.24","FL","7ksbngduvy","1280","800","en","ng09ei12","null","","","","learningBlock2","","","","That was a dep.","null","","","","",""
"","html-keyboard-response","322","66092509","0.0-8.0-2.24","FL","7ksbngduvy","1280","800","en","ng09ei12","null","","","","learningBlock2","","","","<div style=""font-size:60px;""> </div>","null","FL","learning/Slide105.JPG","That was a dep.","",""
"","image-keyboard-response","323","66092686","0.0-8.0-0.25","FL","7ksbngduvy","1280","800","en","ng09ei12","null","","","","","","","","learning/Slide106.JPG","null","","","","",""
"","html-keyboard-response","324","66093838","0.0-8.0-1.25","FL","7ksbngduvy","1280","800","en","ng09ei12","null","","","","learningBlock2","","","","That was a wug.","null","","","","",""
"","html-keyboard-response","325","66094840","0.0-8.0-2.25","FL","7ksbngduvy","1280","800","en","ng09ei12","null","","","","learningBlock2","","","","<div style=""font-size:60px;""> </div>","null","FL","learning/Slide106.JPG","That was a wug.","",""
"","image-keyboard-response","326","66095016","0.0-8.0-0.26","FL","7ksbngduvy","1280","800","en","ng09ei12","null","","","","","","","","learning/Slide107.JPG","null","","","","",""
"","html-keyboard-response","327","66096167","0.0-8.0-1.26","FL","7ksbngduvy","1280","800","en","ng09ei12","null","","","","learningBlock2","","","","That was a bim.","null","","","","",""
"","html-keyboard-response","328","66097167","0.0-8.0-2.26","FL","7ksbngduvy","1280","800","en","ng09ei12","null","","","","learningBlock2","","","","<div style=""font-size:60px;""> </div>","null","FL","learning/Slide107.JPG","That was a bim.","",""
"","image-keyboard-response","329","66097349","0.0-8.0-0.27","FL","7ksbngduvy","1280","800","en","ng09ei12","null","","","","","","","","learning/Slide108.JPG","null","","","","",""
"","html-keyboard-response","330","66098500","0.0-8.0-1.27","FL","7ksbngduvy","1280","800","en","ng09ei12","null","","","","learningBlock2","","","","That was a dep.","null","","","","",""
"","html-keyboard-response","331","66099502","0.0-8.0-2.27","FL","7ksbngduvy","1280","800","en","ng09ei12","null","","","","learningBlock2","","","","<div style=""font-size:60px;""> </div>","null","FL","learning/Slide108.JPG","That was a dep.","",""
"","image-keyboard-response","332","66099683","0.0-8.0-0.28","FL","7ksbngduvy","1280","800","en","ng09ei12","null","","","","","","","","learning/Slide109.JPG","null","","","","",""
"","html-keyboard-response","333","66100836","0.0-8.0-1.28","FL","7ksbngduvy","1280","800","en","ng09ei12","null","","","","learningBlock2","","","","That was a wug.","null","","","","",""
"","html-keyboard-response","334","66101837","0.0-8.0-2.28","FL","7ksbngduvy","1280","800","en","ng09ei12","null","","","","learningBlock2","","","","<div style=""font-size:60px;""> </div>","null","FL","learning/Slide109.JPG","That was a wug.","",""
"","image-keyboard-response","335","66102013","0.0-8.0-0.29","FL","7ksbngduvy","1280","800","en","ng09ei12","null","","","","","","","","learning/Slide110.JPG","null","","","","",""
"","html-keyboard-response","336","66103164","0.0-8.0-1.29","FL","7ksbngduvy","1280","800","en","ng09ei12","null","","","","learningBlock2","","","","That was a bim.","null","","","","",""
"","html-keyboard-response","337","66104165","0.0-8.0-2.29","FL","7ksbngduvy","1280","800","en","ng09ei12","null","","","","learningBlock2","","","","<div style=""font-size:60px;""> </div>","null","FL","learning/Slide110.JPG","That was a bim.","",""
"","image-keyboard-response","338","66104345","0.0-8.0-0.30","FL","7ksbngduvy","1280","800","en","ng09ei12","null","","","","","","","","learning/Slide111.JPG","null","","","","",""
"","html-keyboard-response","339","66105497","0.0-8.0-1.30","FL","7ksbngduvy","1280","800","en","ng09ei12","null","","","","learningBlock2","","","","That was a tob.","null","","","","",""
"","html-keyboard-response","340","66106498","0.0-8.0-2.30","FL","7ksbngduvy","1280","800","en","ng09ei12","null","","","","learningBlock2","","","","<div style=""font-size:60px;""> </div>","null","FL","learning/Slide111.JPG","That was a tob.","",""
"","image-keyboard-response","341","66106676","0.0-8.0-0.31","FL","7ksbngduvy","1280","800","en","ng09ei12","null","","","","","","","","learning/Slide112.JPG","null","","","","",""
"","html-keyboard-response","342","66107832","0.0-8.0-1.31","FL","7ksbngduvy","1280","800","en","ng09ei12","null","","","","learningBlock2","","","","That was a wug.","null","","","","",""
"","html-keyboard-response","343","66108833","0.0-8.0-2.31","FL","7ksbngduvy","1280","800","en","ng09ei12","null","","","","learningBlock2","","","","<div style=""font-size:60px;""> </div>","null","FL","learning/Slide112.JPG","That was a wug.","",""
"","image-keyboard-response","344","66109009","0.0-8.0-0.32","FL","7ksbngduvy","1280","800","en","ng09ei12","null","","","","","","","","learning/Slide113.JPG","null","","","","",""
"","html-keyboard-response","345","66110162","0.0-8.0-1.32","FL","7ksbngduvy","1280","800","en","ng09ei12","null","","","","learningBlock2","","","","That was a tob.","null","","","","",""
"","html-keyboard-response","346","66111166","0.0-8.0-2.32","FL","7ksbngduvy","1280","800","en","ng09ei12","null","","","","learningBlock2","","","","<div style=""font-size:60px;""> </div>","null","FL","learning/Slide113.JPG","That was a tob.","",""
"","image-keyboard-response","347","66111344","0.0-8.0-0.33","FL","7ksbngduvy","1280","800","en","ng09ei12","null","","","","","","","","learning/Slide114.JPG","null","","","","",""
"","html-keyboard-response","348","66112499","0.0-8.0-1.33","FL","7ksbngduvy","1280","800","en","ng09ei12","null","","","","learningBlock2","","","","That was a wug.","null","","","","",""
"","html-keyboard-response","349","66113502","0.0-8.0-2.33","FL","7ksbngduvy","1280","800","en","ng09ei12","null","","","","learningBlock2","","","","<div style=""font-size:60px;""> </div>","null","FL","learning/Slide114.JPG","That was a wug.","",""
"","image-keyboard-response","350","66113680","0.0-8.0-0.34","FL","7ksbngduvy","1280","800","en","ng09ei12","null","","","","","","","","learning/Slide115.JPG","null","","","","",""
"","html-keyboard-response","351","66114837","0.0-8.0-1.34","FL","7ksbngduvy","1280","800","en","ng09ei12","null","","","","learningBlock2","","","","That was a bim.","null","","","","",""
"","html-keyboard-response","352","66115837","0.0-8.0-2.34","FL","7ksbngduvy","1280","800","en","ng09ei12","null","","","","learningBlock2","","","","<div style=""font-size:60px;""> </div>","null","FL","learning/Slide115.JPG","That was a bim.","",""
"","image-keyboard-response","353","66116016","0.0-8.0-0.35","FL","7ksbngduvy","1280","800","en","ng09ei12","null","","","","","","","","learning/Slide116.JPG","null","","","","",""
"","html-keyboard-response","354","66117167","0.0-8.0-1.35","FL","7ksbngduvy","1280","800","en","ng09ei12","null","","","","learningBlock2","","","","That was a dep.","null","","","","",""
"","html-keyboard-response","355","66118167","0.0-8.0-2.35","FL","7ksbngduvy","1280","800","en","ng09ei12","null","","","","learningBlock2","","","","<div style=""font-size:60px;""> </div>","null","FL","learning/Slide116.JPG","That was a dep.","",""
"","image-keyboard-response","356","66118343","0.0-8.0-0.36","FL","7ksbngduvy","1280","800","en","ng09ei12","null","","","","","","","","learning/Slide117.JPG","null","","","","",""
"","html-keyboard-response","357","66119495","0.0-8.0-1.36","FL","7ksbngduvy","1280","800","en","ng09ei12","null","","","","learningBlock2","","","","That was a tob.","null","","","","",""
"","html-keyboard-response","358","66120496","0.0-8.0-2.36","FL","7ksbngduvy","1280","800","en","ng09ei12","null","","","","learningBlock2","","","","<div style=""font-size:60px;""> </div>","null","FL","learning/Slide117.JPG","That was a tob.","",""
"","image-keyboard-response","359","66120672","0.0-8.0-0.37","FL","7ksbngduvy","1280","800","en","ng09ei12","null","","","","","","","","learning/Slide118.JPG","null","","","","",""
"","html-keyboard-response","360","66121828","0.0-8.0-1.37","FL","7ksbngduvy","1280","800","en","ng09ei12","null","","","","learningBlock2","","","","That was a dep.","null","","","","",""
"","html-keyboard-response","361","66122833","0.0-8.0-2.37","FL","7ksbngduvy","1280","800","en","ng09ei12","null","","","","learningBlock2","","","","<div style=""font-size:60px;""> </div>","null","FL","learning/Slide118.JPG","That was a dep.","",""
"","image-keyboard-response","362","66123009","0.0-8.0-0.38","FL","7ksbngduvy","1280","800","en","ng09ei12","null","","","","","","","","learning/Slide119.JPG","null","","","","",""
"","html-keyboard-response","363","66124160","0.0-8.0-1.38","FL","7ksbngduvy","1280","800","en","ng09ei12","null","","","","learningBlock2","","","","That was a wug.","null","","","","",""
"","html-keyboard-response","364","66125161","0.0-8.0-2.38","FL","7ksbngduvy","1280","800","en","ng09ei12","null","","","","learningBlock2","","","","<div style=""font-size:60px;""> </div>","null","FL","learning/Slide119.JPG","That was a wug.","",""
"","image-keyboard-response","365","66125337","0.0-8.0-0.39","FL","7ksbngduvy","1280","800","en","ng09ei12","null","","","","","","","","learning/Slide120.JPG","null","","","","",""
"","html-keyboard-response","366","66126491","0.0-8.0-1.39","FL","7ksbngduvy","1280","800","en","ng09ei12","null","","","","learningBlock2","","","","That was a dep.","null","","","","",""
"","html-keyboard-response","367","66127495","0.0-8.0-2.39","FL","7ksbngduvy","1280","800","en","ng09ei12","null","","","","learningBlock2","","","","<div style=""font-size:60px;""> </div>","null","FL","learning/Slide120.JPG","That was a dep.","",""
"","image-keyboard-response","368","66127671","0.0-8.0-0.40","FL","7ksbngduvy","1280","800","en","ng09ei12","null","","","","","","","","learning/Slide121.JPG","null","","","","",""
"","html-keyboard-response","369","66128829","0.0-8.0-1.40","FL","7ksbngduvy","1280","800","en","ng09ei12","null","","","","learningBlock2","","","","That was a bim.","null","","","","",""
"","html-keyboard-response","370","66129830","0.0-8.0-2.40","FL","7ksbngduvy","1280","800","en","ng09ei12","null","","","","learningBlock2","","","","<div style=""font-size:60px;""> </div>","null","FL","learning/Slide121.JPG","That was a bim.","",""
"","image-keyboard-response","371","66130008","0.0-8.0-0.41","FL","7ksbngduvy","1280","800","en","ng09ei12","null","","","","","","","","learning/Slide122.JPG","null","","","","",""
"","html-keyboard-response","372","66131160","0.0-8.0-1.41","FL","7ksbngduvy","1280","800","en","ng09ei12","null","","","","learningBlock2","","","","That was a wug.","null","","","","",""
"","html-keyboard-response","373","66132161","0.0-8.0-2.41","FL","7ksbngduvy","1280","800","en","ng09ei12","null","","","","learningBlock2","","","","<div style=""font-size:60px;""> </div>","null","FL","learning/Slide122.JPG","That was a wug.","",""
"","image-keyboard-response","374","66132337","0.0-8.0-0.42","FL","7ksbngduvy","1280","800","en","ng09ei12","null","","","","","","","","learning/Slide123.JPG","null","","","","",""
"","html-keyboard-response","375","66133495","0.0-8.0-1.42","FL","7ksbngduvy","1280","800","en","ng09ei12","null","","","","learningBlock2","","","","That was a bim.","null","","","","",""
"","html-keyboard-response","376","66134500","0.0-8.0-2.42","FL","7ksbngduvy","1280","800","en","ng09ei12","null","","","","learningBlock2","","","","<div style=""font-size:60px;""> </div>","null","FL","learning/Slide123.JPG","That was a bim.","",""
"","image-keyboard-response","377","66134676","0.0-8.0-0.43","FL","7ksbngduvy","1280","800","en","ng09ei12","null","","","","","","","","learning/Slide124.JPG","null","","","","",""
"","html-keyboard-response","378","66135827","0.0-8.0-1.43","FL","7ksbngduvy","1280","800","en","ng09ei12","null","","","","learningBlock2","","","","That was a tob.","null","","","","",""
"","html-keyboard-response","379","66136832","0.0-8.0-2.43","FL","7ksbngduvy","1280","800","en","ng09ei12","null","","","","learningBlock2","","","","<div style=""font-size:60px;""> </div>","null","FL","learning/Slide124.JPG","That was a tob.","",""
"","image-keyboard-response","380","66137008","0.0-8.0-0.44","FL","7ksbngduvy","1280","800","en","ng09ei12","null","","","","","","","","learning/Slide125.JPG","null","","","","",""
"","html-keyboard-response","381","66138161","0.0-8.0-1.44","FL","7ksbngduvy","1280","800","en","ng09ei12","null","","","","learningBlock2","","","","That was a bim.","null","","","","",""
"","html-keyboard-response","382","66139162","0.0-8.0-2.44","FL","7ksbngduvy","1280","800","en","ng09ei12","null","","","","learningBlock2","","","","<div style=""font-size:60px;""> </div>","null","FL","learning/Slide125.JPG","That was a bim.","",""
"","image-keyboard-response","383","66139338","0.0-8.0-0.45","FL","7ksbngduvy","1280","800","en","ng09ei12","null","","","","","","","","learning/Slide126.JPG","null","","","","",""
"","html-keyboard-response","384","66140495","0.0-8.0-1.45","FL","7ksbngduvy","1280","800","en","ng09ei12","null","","","","learningBlock2","","","","That was a tob.","null","","","","",""
"","html-keyboard-response","385","66141496","0.0-8.0-2.45","FL","7ksbngduvy","1280","800","en","ng09ei12","null","","","","learningBlock2","","","","<div style=""font-size:60px;""> </div>","null","FL","learning/Slide126.JPG","That was a tob.","",""
"","image-keyboard-response","386","66141675","0.0-8.0-0.46","FL","7ksbngduvy","1280","800","en","ng09ei12","null","","","","","","","","learning/Slide127.JPG","null","","","","",""
"","html-keyboard-response","387","66142830","0.0-8.0-1.46","FL","7ksbngduvy","1280","800","en","ng09ei12","null","","","","learningBlock2","","","","That was a dep.","null","","","","",""
"","html-keyboard-response","388","66143834","0.0-8.0-2.46","FL","7ksbngduvy","1280","800","en","ng09ei12","null","","","","learningBlock2","","","","<div style=""font-size:60px;""> </div>","null","FL","learning/Slide127.JPG","That was a dep.","",""
"","image-keyboard-response","389","66144010","0.0-8.0-0.47","FL","7ksbngduvy","1280","800","en","ng09ei12","null","","","","","","","","learning/Slide128.JPG","null","","","","",""
"","html-keyboard-response","390","66145167","0.0-8.0-1.47","FL","7ksbngduvy","1280","800","en","ng09ei12","null","","","","learningBlock2","","","","That was a wug.","null","","","","",""
"","html-keyboard-response","391","66146167","0.0-8.0-2.47","FL","7ksbngduvy","1280","800","en","ng09ei12","null","","","","learningBlock2","","","","<div style=""font-size:60px;""> </div>","null","FL","learning/Slide128.JPG","That was a wug.","",""
"","image-keyboard-response","392","66146346","0.0-8.0-0.48","FL","7ksbngduvy","1280","800","en","ng09ei12","null","","","","","","","","learning/Slide129.JPG","null","","","","",""
"","html-keyboard-response","393","66147500","0.0-8.0-1.48","FL","7ksbngduvy","1280","800","en","ng09ei12","null","","","","learningBlock2","","","","That was a tob.","null","","","","",""
"","html-keyboard-response","394","66148501","0.0-8.0-2.48","FL","7ksbngduvy","1280","800","en","ng09ei12","null","","","","learningBlock2","","","","<div style=""font-size:60px;""> </div>","null","FL","learning/Slide129.JPG","That was a tob.","",""
"","image-keyboard-response","395","66148678","0.0-8.0-0.49","FL","7ksbngduvy","1280","800","en","ng09ei12","null","","","","","","","","learning/Slide130.JPG","null","","","","",""
"","html-keyboard-response","396","66149833","0.0-8.0-1.49","FL","7ksbngduvy","1280","800","en","ng09ei12","null","","","","learningBlock2","","","","That was a wug.","null","","","","",""
"","html-keyboard-response","397","66150837","0.0-8.0-2.49","FL","7ksbngduvy","1280","800","en","ng09ei12","null","","","","learningBlock2","","","","<div style=""font-size:60px;""> </div>","null","FL","learning/Slide130.JPG","That was a wug.","",""
"","image-keyboard-response","398","66151015","0.0-8.0-0.50","FL","7ksbngduvy","1280","800","en","ng09ei12","null","","","","","","","","learning/Slide131.JPG","null","","","","",""
"","html-keyboard-response","399","66152166","0.0-8.0-1.50","FL","7ksbngduvy","1280","800","en","ng09ei12","null","","","","learningBlock2","","","","That was a bim.","null","","","","",""
"","html-keyboard-response","400","66153167","0.0-8.0-2.50","FL","7ksbngduvy","1280","800","en","ng09ei12","null","","","","learningBlock2","","","","<div style=""font-size:60px;""> </div>","null","FL","learning/Slide131.JPG","That was a bim.","",""
"","image-keyboard-response","401","66153347","0.0-8.0-0.51","FL","7ksbngduvy","1280","800","en","ng09ei12","null","","","","","","","","learning/Slide132.JPG","null","","","","",""
"","html-keyboard-response","402","66154501","0.0-8.0-1.51","FL","7ksbngduvy","1280","800","en","ng09ei12","null","","","","learningBlock2","","","","That was a dep.","null","","","","",""
"","html-keyboard-response","403","66155502","0.0-8.0-2.51","FL","7ksbngduvy","1280","800","en","ng09ei12","null","","","","learningBlock2","","","","<div style=""font-size:60px;""> </div>","null","FL","learning/Slide132.JPG","That was a dep.","",""
"","image-keyboard-response","404","66155682","0.0-8.0-0.52","FL","7ksbngduvy","1280","800","en","ng09ei12","null","","","","","","","","learning/Slide133.JPG","null","","","","",""
"","html-keyboard-response","405","66156837","0.0-8.0-1.52","FL","7ksbngduvy","1280","800","en","ng09ei12","null","","","","learningBlock2","","","","That was a tob.","null","","","","",""
"","html-keyboard-response","406","66157838","0.0-8.0-2.52","FL","7ksbngduvy","1280","800","en","ng09ei12","null","","","","learningBlock2","","","","<div style=""font-size:60px;""> </div>","null","FL","learning/Slide133.JPG","That was a tob.","",""
"","image-keyboard-response","407","66158017","0.0-8.0-0.53","FL","7ksbngduvy","1280","800","en","ng09ei12","null","","","","","","","","learning/Slide134.JPG","null","","","","",""
"","html-keyboard-response","408","66159167","0.0-8.0-1.53","FL","7ksbngduvy","1280","800","en","ng09ei12","null","","","","learningBlock2","","","","That was a dep.","null","","","","",""
"","html-keyboard-response","409","66160168","0.0-8.0-2.53","FL","7ksbngduvy","1280","800","en","ng09ei12","null","","","","learningBlock2","","","","<div style=""font-size:60px;""> </div>","null","FL","learning/Slide134.JPG","That was a dep.","",""
"","image-keyboard-response","410","66160348","0.0-8.0-0.54","FL","7ksbngduvy","1280","800","en","ng09ei12","null","","","","","","","","learning/Slide135.JPG","null","","","","",""
"","html-keyboard-response","411","66161503","0.0-8.0-1.54","FL","7ksbngduvy","1280","800","en","ng09ei12","null","","","","learningBlock2","","","","That was a tob.","null","","","","",""
"","html-keyboard-response","412","66162506","0.0-8.0-2.54","FL","7ksbngduvy","1280","800","en","ng09ei12","null","","","","learningBlock2","","","","<div style=""font-size:60px;""> </div>","null","FL","learning/Slide135.JPG","That was a tob.","",""
"","image-keyboard-response","413","66162682","0.0-8.0-0.55","FL","7ksbngduvy","1280","800","en","ng09ei12","null","","","","","","","","learning/Slide136.JPG","null","","","","",""
"","html-keyboard-response","414","66163837","0.0-8.0-1.55","FL","7ksbngduvy","1280","800","en","ng09ei12","null","","","","learningBlock2","","","","That was a wug.","null","","","","",""
"","html-keyboard-response","415","66164839","0.0-8.0-2.55","FL","7ksbngduvy","1280","800","en","ng09ei12","null","","","","learningBlock2","","","","<div style=""font-size:60px;""> </div>","null","FL","learning/Slide136.JPG","That was a wug.","",""
"","image-keyboard-response","416","66165015","0.0-8.0-0.56","FL","7ksbngduvy","1280","800","en","ng09ei12","null","","","","","","","","learning/Slide137.JPG","null","","","","",""
"","html-keyboard-response","417","66166166","0.0-8.0-1.56","FL","7ksbngduvy","1280","800","en","ng09ei12","null","","","","learningBlock2","","","","That was a tob.","null","","","","",""
"","html-keyboard-response","418","66167167","0.0-8.0-2.56","FL","7ksbngduvy","1280","800","en","ng09ei12","null","","","","learningBlock2","","","","<div style=""font-size:60px;""> </div>","null","FL","learning/Slide137.JPG","That was a tob.","",""
"","image-keyboard-response","419","66167345","0.0-8.0-0.57","FL","7ksbngduvy","1280","800","en","ng09ei12","null","","","","","","","","learning/Slide138.JPG","null","","","","",""
"","html-keyboard-response","420","66168503","0.0-8.0-1.57","FL","7ksbngduvy","1280","800","en","ng09ei12","null","","","","learningBlock2","","","","That was a bim.","null","","","","",""
"","html-keyboard-response","421","66169504","0.0-8.0-2.57","FL","7ksbngduvy","1280","800","en","ng09ei12","null","","","","learningBlock2","","","","<div style=""font-size:60px;""> </div>","null","FL","learning/Slide138.JPG","That was a bim.","",""
"","image-keyboard-response","422","66169685","0.0-8.0-0.58","FL","7ksbngduvy","1280","800","en","ng09ei12","null","","","","","","","","learning/Slide139.JPG","null","","","","",""
"","html-keyboard-response","423","66170837","0.0-8.0-1.58","FL","7ksbngduvy","1280","800","en","ng09ei12","null","","","","learningBlock2","","","","That was a wug.","null","","","","",""
"","html-keyboard-response","424","66171839","0.0-8.0-2.58","FL","7ksbngduvy","1280","800","en","ng09ei12","null","","","","learningBlock2","","","","<div style=""font-size:60px;""> </div>","null","FL","learning/Slide139.JPG","That was a wug.","",""
"","image-keyboard-response","425","66172019","0.0-8.0-0.59","FL","7ksbngduvy","1280","800","en","ng09ei12","null","","","","","","","","learning/Slide140.JPG","null","","","","",""
"","html-keyboard-response","426","66173170","0.0-8.0-1.59","FL","7ksbngduvy","1280","800","en","ng09ei12","null","","","","learningBlock2","","","","That was a dep.","null","","","","",""
"","html-keyboard-response","427","66174171","0.0-8.0-2.59","FL","7ksbngduvy","1280","800","en","ng09ei12","null","","","","learningBlock2","","","","<div style=""font-size:60px;""> </div>","null","FL","learning/Slide140.JPG","That was a dep.","",""
"","image-keyboard-response","428","66174350","0.0-8.0-0.60","FL","7ksbngduvy","1280","800","en","ng09ei12","null","","","","","","","","learning/Slide141.JPG","null","","","","",""
"","html-keyboard-response","429","66175509","0.0-8.0-1.60","FL","7ksbngduvy","1280","800","en","ng09ei12","null","","","","learningBlock2","","","","That was a tob.","null","","","","",""
"","html-keyboard-response","430","66176510","0.0-8.0-2.60","FL","7ksbngduvy","1280","800","en","ng09ei12","null","","","","learningBlock2","","","","<div style=""font-size:60px;""> </div>","null","FL","learning/Slide141.JPG","That was a tob.","",""
"","image-keyboard-response","431","66176690","0.0-8.0-0.61","FL","7ksbngduvy","1280","800","en","ng09ei12","null","","","","","","","","learning/Slide142.JPG","null","","","","",""
"","html-keyboard-response","432","66177842","0.0-8.0-1.61","FL","7ksbngduvy","1280","800","en","ng09ei12","null","","","","learningBlock2","","","","That was a wug.","null","","","","",""
"","html-keyboard-response","433","66178843","0.0-8.0-2.61","FL","7ksbngduvy","1280","800","en","ng09ei12","null","","","","learningBlock2","","","","<div style=""font-size:60px;""> </div>","null","FL","learning/Slide142.JPG","That was a wug.","",""
"","image-keyboard-response","434","66179020","0.0-8.0-0.62","FL","7ksbngduvy","1280","800","en","ng09ei12","null","","","","","","","","learning/Slide143.JPG","null","","","","",""
"","html-keyboard-response","435","66180170","0.0-8.0-1.62","FL","7ksbngduvy","1280","800","en","ng09ei12","null","","","","learningBlock2","","","","That was a bim.","null","","","","",""
"","html-keyboard-response","436","66181171","0.0-8.0-2.62","FL","7ksbngduvy","1280","800","en","ng09ei12","null","","","","learningBlock2","","","","<div style=""font-size:60px;""> </div>","null","FL","learning/Slide143.JPG","That was a bim.","",""
"","image-keyboard-response","437","66181351","0.0-8.0-0.63","FL","7ksbngduvy","1280","800","en","ng09ei12","null","","","","","","","","learning/Slide144.JPG","null","","","","",""
"","html-keyboard-response","438","66182502","0.0-8.0-1.63","FL","7ksbngduvy","1280","800","en","ng09ei12","null","","","","learningBlock2","","","","That was a dep.","null","","","","",""
"","html-keyboard-response","439","66183502","0.0-8.0-2.63","FL","7ksbngduvy","1280","800","en","ng09ei12","null","","","","learningBlock2","","","","<div style=""font-size:60px;""> </div>","null","FL","learning/Slide144.JPG","That was a dep.","",""
"","image-keyboard-response","440","66183680","0.0-8.0-0.64","FL","7ksbngduvy","1280","800","en","ng09ei12","null","","","","","","","","learning/Slide145.JPG","null","","","","",""
"","html-keyboard-response","441","66184839","0.0-8.0-1.64","FL","7ksbngduvy","1280","800","en","ng09ei12","null","","","","learningBlock2","","","","That was a bim.","null","","","","",""
"","html-keyboard-response","442","66185844","0.0-8.0-2.64","FL","7ksbngduvy","1280","800","en","ng09ei12","null","","","","learningBlock2","","","","<div style=""font-size:60px;""> </div>","null","FL","learning/Slide145.JPG","That was a bim.","",""
"","image-keyboard-response","443","66186019","0.0-8.0-0.65","FL","7ksbngduvy","1280","800","en","ng09ei12","null","","","","","","","","learning/Slide146.JPG","null","","","","",""
"","html-keyboard-response","444","66187171","0.0-8.0-1.65","FL","7ksbngduvy","1280","800","en","ng09ei12","null","","","","learningBlock2","","","","That was a tob.","null","","","","",""
"","html-keyboard-response","445","66188172","0.0-8.0-2.65","FL","7ksbngduvy","1280","800","en","ng09ei12","null","","","","learningBlock2","","","","<div style=""font-size:60px;""> </div>","null","FL","learning/Slide146.JPG","That was a tob.","",""
"","image-keyboard-response","446","66188348","0.0-8.0-0.66","FL","7ksbngduvy","1280","800","en","ng09ei12","null","","","","","","","","learning/Slide147.JPG","null","","","","",""
"","html-keyboard-response","447","66189498","0.0-8.0-1.66","FL","7ksbngduvy","1280","800","en","ng09ei12","null","","","","learningBlock2","","","","That was a wug.","null","","","","",""
"","html-keyboard-response","448","66190500","0.0-8.0-2.66","FL","7ksbngduvy","1280","800","en","ng09ei12","null","","","","learningBlock2","","","","<div style=""font-size:60px;""> </div>","null","FL","learning/Slide147.JPG","That was a wug.","",""
"","image-keyboard-response","449","66190676","0.0-8.0-0.67","FL","7ksbngduvy","1280","800","en","ng09ei12","null","","","","","","","","learning/Slide148.JPG","null","","","","",""
"","html-keyboard-response","450","66191829","0.0-8.0-1.67","FL","7ksbngduvy","1280","800","en","ng09ei12","null","","","","learningBlock2","","","","That was a bim.","null","","","","",""
"","html-keyboard-response","451","66192832","0.0-8.0-2.67","FL","7ksbngduvy","1280","800","en","ng09ei12","null","","","","learningBlock2","","","","<div style=""font-size:60px;""> </div>","null","FL","learning/Slide148.JPG","That was a bim.","",""
"","image-keyboard-response","452","66193010","0.0-8.0-0.68","FL","7ksbngduvy","1280","800","en","ng09ei12","null","","","","","","","","learning/Slide149.JPG","null","","","","",""
"","html-keyboard-response","453","66194162","0.0-8.0-1.68","FL","7ksbngduvy","1280","800","en","ng09ei12","null","","","","learningBlock2","","","","That was a dep.","null","","","","",""
"","html-keyboard-response","454","66195163","0.0-8.0-2.68","FL","7ksbngduvy","1280","800","en","ng09ei12","null","","","","learningBlock2","","","","<div style=""font-size:60px;""> </div>","null","FL","learning/Slide149.JPG","That was a dep.","",""
"","image-keyboard-response","455","66195340","0.0-8.0-0.69","FL","7ksbngduvy","1280","800","en","ng09ei12","null","","","","","","","","learning/Slide150.JPG","null","","","","",""
"","html-keyboard-response","456","66196497","0.0-8.0-1.69","FL","7ksbngduvy","1280","800","en","ng09ei12","null","","","","learningBlock2","","","","That was a wug.","null","","","","",""
"","html-keyboard-response","457","66197497","0.0-8.0-2.69","FL","7ksbngduvy","1280","800","en","ng09ei12","null","","","","learningBlock2","","","","<div style=""font-size:60px;""> </div>","null","FL","learning/Slide150.JPG","That was a wug.","",""
"","image-keyboard-response","458","66197676","0.0-8.0-0.70","FL","7ksbngduvy","1280","800","en","ng09ei12","null","","","","","","","","learning/Slide151.JPG","null","","","","",""
"","html-keyboard-response","459","66198828","0.0-8.0-1.70","FL","7ksbngduvy","1280","800","en","ng09ei12","null","","","","learningBlock2","","","","That was a dep.","null","","","","",""
"","html-keyboard-response","460","66199831","0.0-8.0-2.70","FL","7ksbngduvy","1280","800","en","ng09ei12","null","","","","learningBlock2","","","","<div style=""font-size:60px;""> </div>","null","FL","learning/Slide151.JPG","That was a dep.","",""
"","image-keyboard-response","461","66200008","0.0-8.0-0.71","FL","7ksbngduvy","1280","800","en","ng09ei12","null","","","","","","","","learning/Slide152.JPG","null","","","","",""
"","html-keyboard-response","462","66201159","0.0-8.0-1.71","FL","7ksbngduvy","1280","800","en","ng09ei12","null","","","","learningBlock2","","","","That was a wug.","null","","","","",""
"","html-keyboard-response","463","66202160","0.0-8.0-2.71","FL","7ksbngduvy","1280","800","en","ng09ei12","null","","","","learningBlock2","","","","<div style=""font-size:60px;""> </div>","null","FL","learning/Slide152.JPG","That was a wug.","",""
"","image-keyboard-response","464","66202337","0.0-8.0-0.72","FL","7ksbngduvy","1280","800","en","ng09ei12","null","","","","","","","","learning/Slide153.JPG","null","","","","",""
"","html-keyboard-response","465","66203494","0.0-8.0-1.72","FL","7ksbngduvy","1280","800","en","ng09ei12","null","","","","learningBlock2","","","","That was a bim.","null","","","","",""
"","html-keyboard-response","466","66204498","0.0-8.0-2.72","FL","7ksbngduvy","1280","800","en","ng09ei12","null","","","","learningBlock2","","","","<div style=""font-size:60px;""> </div>","null","FL","learning/Slide153.JPG","That was a bim.","",""
"","image-keyboard-response","467","66204674","0.0-8.0-0.73","FL","7ksbngduvy","1280","800","en","ng09ei12","null","","","","","","","","learning/Slide154.JPG","null","","","","",""
"","html-keyboard-response","468","66205830","0.0-8.0-1.73","FL","7ksbngduvy","1280","800","en","ng09ei12","null","","","","learningBlock2","","","","That was a tob.","null","","","","",""
"","html-keyboard-response","469","66206830","0.0-8.0-2.73","FL","7ksbngduvy","1280","800","en","ng09ei12","null","","","","learningBlock2","","","","<div style=""font-size:60px;""> </div>","null","FL","learning/Slide154.JPG","That was a tob.","",""
"","image-keyboard-response","470","66207006","0.0-8.0-0.74","FL","7ksbngduvy","1280","800","en","ng09ei12","null","","","","","","","","learning/Slide155.JPG","null","","","","",""
"","html-keyboard-response","471","66208163","0.0-8.0-1.74","FL","7ksbngduvy","1280","800","en","ng09ei12","null","","","","learningBlock2","","","","That was a dep.","null","","","","",""
"","html-keyboard-response","472","66209163","0.0-8.0-2.74","FL","7ksbngduvy","1280","800","en","ng09ei12","null","","","","learningBlock2","","","","<div style=""font-size:60px;""> </div>","null","FL","learning/Slide155.JPG","That was a dep.","",""
"","image-keyboard-response","473","66209340","0.0-8.0-0.75","FL","7ksbngduvy","1280","800","en","ng09ei12","null","","","","","","","","learning/Slide156.JPG","null","","","","",""
"","html-keyboard-response","474","66210496","0.0-8.0-1.75","FL","7ksbngduvy","1280","800","en","ng09ei12","null","","","","learningBlock2","","","","That was a bim.","null","","","","",""
"","html-keyboard-response","475","66211500","0.0-8.0-2.75","FL","7ksbngduvy","1280","800","en","ng09ei12","null","","","","learningBlock2","","","","<div style=""font-size:60px;""> </div>","null","FL","learning/Slide156.JPG","That was a bim.","",""
"","image-keyboard-response","476","66211675","0.0-8.0-0.76","FL","7ksbngduvy","1280","800","en","ng09ei12","null","","","","","","","","learning/Slide157.JPG","null","","","","",""
"","html-keyboard-response","477","66212830","0.0-8.0-1.76","FL","7ksbngduvy","1280","800","en","ng09ei12","null","","","","learningBlock2","","","","That was a dep.","null","","","","",""
"","html-keyboard-response","478","66213834","0.0-8.0-2.76","FL","7ksbngduvy","1280","800","en","ng09ei12","null","","","","learningBlock2","","","","<div style=""font-size:60px;""> </div>","null","FL","learning/Slide157.JPG","That was a dep.","",""
"","image-keyboard-response","479","66214010","0.0-8.0-0.77","FL","7ksbngduvy","1280","800","en","ng09ei12","null","","","","","","","","learning/Slide158.JPG","null","","","","",""
"","html-keyboard-response","480","66215161","0.0-8.0-1.77","FL","7ksbngduvy","1280","800","en","ng09ei12","null","","","","learningBlock2","","","","That was a tob.","null","","","","",""
"","html-keyboard-response","481","66216162","0.0-8.0-2.77","FL","7ksbngduvy","1280","800","en","ng09ei12","null","","","","learningBlock2","","","","<div style=""font-size:60px;""> </div>","null","FL","learning/Slide158.JPG","That was a tob.","",""
"","image-keyboard-response","482","66216338","0.0-8.0-0.78","FL","7ksbngduvy","1280","800","en","ng09ei12","null","","","","","","","","learning/Slide159.JPG","null","","","","",""
"","html-keyboard-response","483","66217494","0.0-8.0-1.78","FL","7ksbngduvy","1280","800","en","ng09ei12","null","","","","learningBlock2","","","","That was a dep.","null","","","","",""
