"success","trial_type","trial_index","time_elapsed","internal_node_id","condition","subject","screen_width","screen_height","language","codeword","rt","responses","url","view_history","test_part","final_height_px","final_width_px","scale_factor","stimulus","key_press","learningType","presentedImage","presentedLabel","button_pressed","response"
"true","fullscreen","0","2052","0.0-0.0","LF","p0ob2fsrsp","1920","1080","de","lu04rk02","","","","","","","","","","","","","","",""
"","survey-html-form","1","4952","0.0-1.0","LF","p0ob2fsrsp","1920","1080","de","lu04rk02","2898","{""language"":""de""}","","","","","","","","","","","","",""
"","external-html","2","7568","0.0-2.0-0.0","LF","p0ob2fsrsp","1920","1080","de","lu04rk02","2607","","text/information.html","","","","","","","","","","","",""
"","external-html","3","57376","0.0-2.0-1.0","LF","p0ob2fsrsp","1920","1080","de","lu04rk02","49771","","text/consent.html","","","","","","","","","","","",""
"","survey-html-form","4","168272","0.0-2.0-2.0","LF","p0ob2fsrsp","1920","1080","de","lu04rk02","110895","{""codeword_enter"":""lu04rk02""}","","","","","","","","","","","","",""
"","instructions","5","207465","0.0-4.0","LF","p0ob2fsrsp","1920","1080","de","lu04rk02","NA","","","[{""page_index"":0,""viewing_time"":2224},{""page_index"":1,""viewing_time"":35465}]","instructions","","","","","","","","","",""
"","resize","6","814101","0.0-5.0","LF","p0ob2fsrsp","1920","1080","de","lu04rk02","","","","","","","315","2","","","","","","",""
"","html-keyboard-response","7","815104","0.0-6.0-0.0","LF","p0ob2fsrsp","1920","1080","de","lu04rk02","null","","","","learningBlock1","","","","This is a tob:","null","","","","",""
"","image-keyboard-response","8","815432","0.0-6.0-1.0","LF","p0ob2fsrsp","1920","1080","de","lu04rk02","null","","","","","","","","learning/Slide1.JPG","null","","","","",""
"","html-keyboard-response","9","816434","0.0-6.0-2.0","LF","p0ob2fsrsp","1920","1080","de","lu04rk02","null","","","","learningBlock1","","","","<div style=""font-size:60px;""> </div>","null","LF","learning/Slide1.JPG","This is a tob:","",""
"","html-keyboard-response","10","817435","0.0-6.0-0.1","LF","p0ob2fsrsp","1920","1080","de","lu04rk02","null","","","","learningBlock1","","","","This is a wug:","null","","","","",""
"","image-keyboard-response","11","817763","0.0-6.0-1.1","LF","p0ob2fsrsp","1920","1080","de","lu04rk02","null","","","","","","","","learning/Slide2.JPG","null","","","","",""
"","html-keyboard-response","12","818764","0.0-6.0-2.1","LF","p0ob2fsrsp","1920","1080","de","lu04rk02","null","","","","learningBlock1","","","","<div style=""font-size:60px;""> </div>","null","LF","learning/Slide2.JPG","This is a wug:","",""
"","html-keyboard-response","13","819764","0.0-6.0-0.2","LF","p0ob2fsrsp","1920","1080","de","lu04rk02","null","","","","learningBlock1","","","","This is a bim:","null","","","","",""
"","image-keyboard-response","14","820091","0.0-6.0-1.2","LF","p0ob2fsrsp","1920","1080","de","lu04rk02","null","","","","","","","","learning/Slide3.JPG","null","","","","",""
"","html-keyboard-response","15","821092","0.0-6.0-2.2","LF","p0ob2fsrsp","1920","1080","de","lu04rk02","null","","","","learningBlock1","","","","<div style=""font-size:60px;""> </div>","null","LF","learning/Slide3.JPG","This is a bim:","",""
"","html-keyboard-response","16","822092","0.0-6.0-0.3","LF","p0ob2fsrsp","1920","1080","de","lu04rk02","null","","","","learningBlock1","","","","This is a dep:","null","","","","",""
"","image-keyboard-response","17","822419","0.0-6.0-1.3","LF","p0ob2fsrsp","1920","1080","de","lu04rk02","null","","","","","","","","learning/Slide4.JPG","null","","","","",""
"","html-keyboard-response","18","823419","0.0-6.0-2.3","LF","p0ob2fsrsp","1920","1080","de","lu04rk02","null","","","","learningBlock1","","","","<div style=""font-size:60px;""> </div>","null","LF","learning/Slide4.JPG","This is a dep:","",""
"","html-keyboard-response","19","824421","0.0-6.0-0.4","LF","p0ob2fsrsp","1920","1080","de","lu04rk02","null","","","","learningBlock1","","","","This is a wug:","null","","","","",""
"","image-keyboard-response","20","824747","0.0-6.0-1.4","LF","p0ob2fsrsp","1920","1080","de","lu04rk02","null","","","","","","","","learning/Slide5.JPG","null","","","","",""
"","html-keyboard-response","21","825748","0.0-6.0-2.4","LF","p0ob2fsrsp","1920","1080","de","lu04rk02","null","","","","learningBlock1","","","","<div style=""font-size:60px;""> </div>","null","LF","learning/Slide5.JPG","This is a wug:","",""
"","html-keyboard-response","22","826749","0.0-6.0-0.5","LF","p0ob2fsrsp","1920","1080","de","lu04rk02","null","","","","learningBlock1","","","","This is a dep:","null","","","","",""
"","image-keyboard-response","23","827076","0.0-6.0-1.5","LF","p0ob2fsrsp","1920","1080","de","lu04rk02","null","","","","","","","","learning/Slide6.JPG","null","","","","",""
"","html-keyboard-response","24","828076","0.0-6.0-2.5","LF","p0ob2fsrsp","1920","1080","de","lu04rk02","null","","","","learningBlock1","","","","<div style=""font-size:60px;""> </div>","null","LF","learning/Slide6.JPG","This is a dep:","",""
"","html-keyboard-response","25","829076","0.0-6.0-0.6","LF","p0ob2fsrsp","1920","1080","de","lu04rk02","null","","","","learningBlock1","","","","This is a wug:","null","","","","",""
"","image-keyboard-response","26","829404","0.0-6.0-1.6","LF","p0ob2fsrsp","1920","1080","de","lu04rk02","null","","","","","","","","learning/Slide7.JPG","null","","","","",""
"","html-keyboard-response","27","830404","0.0-6.0-2.6","LF","p0ob2fsrsp","1920","1080","de","lu04rk02","null","","","","learningBlock1","","","","<div style=""font-size:60px;""> </div>","null","LF","learning/Slide7.JPG","This is a wug:","",""
"","html-keyboard-response","28","831406","0.0-6.0-0.7","LF","p0ob2fsrsp","1920","1080","de","lu04rk02","null","","","","learningBlock1","","","","This is a bim:","null","","","","",""
"","image-keyboard-response","29","831733","0.0-6.0-1.7","LF","p0ob2fsrsp","1920","1080","de","lu04rk02","null","","","","","","","","learning/Slide8.JPG","null","","","","",""
"","html-keyboard-response","30","832734","0.0-6.0-2.7","LF","p0ob2fsrsp","1920","1080","de","lu04rk02","null","","","","learningBlock1","","","","<div style=""font-size:60px;""> </div>","null","LF","learning/Slide8.JPG","This is a bim:","",""
"","html-keyboard-response","31","833736","0.0-6.0-0.8","LF","p0ob2fsrsp","1920","1080","de","lu04rk02","null","","","","learningBlock1","","","","This is a wug:","null","","","","",""
"","image-keyboard-response","32","834063","0.0-6.0-1.8","LF","p0ob2fsrsp","1920","1080","de","lu04rk02","null","","","","","","","","learning/Slide9.JPG","null","","","","",""
"","html-keyboard-response","33","835063","0.0-6.0-2.8","LF","p0ob2fsrsp","1920","1080","de","lu04rk02","null","","","","learningBlock1","","","","<div style=""font-size:60px;""> </div>","null","LF","learning/Slide9.JPG","This is a wug:","",""
"","html-keyboard-response","34","836064","0.0-6.0-0.9","LF","p0ob2fsrsp","1920","1080","de","lu04rk02","null","","","","learningBlock1","","","","This is a dep:","null","","","","",""
"","image-keyboard-response","35","836390","0.0-6.0-1.9","LF","p0ob2fsrsp","1920","1080","de","lu04rk02","null","","","","","","","","learning/Slide10.JPG","null","","","","",""
"","html-keyboard-response","36","837392","0.0-6.0-2.9","LF","p0ob2fsrsp","1920","1080","de","lu04rk02","null","","","","learningBlock1","","","","<div style=""font-size:60px;""> </div>","null","LF","learning/Slide10.JPG","This is a dep:","",""
"","html-keyboard-response","37","838392","0.0-6.0-0.10","LF","p0ob2fsrsp","1920","1080","de","lu04rk02","null","","","","learningBlock1","","","","This is a tob:","null","","","","",""
"","image-keyboard-response","38","838718","0.0-6.0-1.10","LF","p0ob2fsrsp","1920","1080","de","lu04rk02","null","","","","","","","","learning/Slide11.JPG","null","","","","",""
"","html-keyboard-response","39","839719","0.0-6.0-2.10","LF","p0ob2fsrsp","1920","1080","de","lu04rk02","null","","","","learningBlock1","","","","<div style=""font-size:60px;""> </div>","null","LF","learning/Slide11.JPG","This is a tob:","",""
"","html-keyboard-response","40","840720","0.0-6.0-0.11","LF","p0ob2fsrsp","1920","1080","de","lu04rk02","null","","","","learningBlock1","","","","This is a dep:","null","","","","",""
"","image-keyboard-response","41","841048","0.0-6.0-1.11","LF","p0ob2fsrsp","1920","1080","de","lu04rk02","null","","","","","","","","learning/Slide12.JPG","null","","","","",""
"","html-keyboard-response","42","842048","0.0-6.0-2.11","LF","p0ob2fsrsp","1920","1080","de","lu04rk02","null","","","","learningBlock1","","","","<div style=""font-size:60px;""> </div>","null","LF","learning/Slide12.JPG","This is a dep:","",""
"","html-keyboard-response","43","843048","0.0-6.0-0.12","LF","p0ob2fsrsp","1920","1080","de","lu04rk02","null","","","","learningBlock1","","","","This is a bim:","null","","","","",""
"","image-keyboard-response","44","843375","0.0-6.0-1.12","LF","p0ob2fsrsp","1920","1080","de","lu04rk02","null","","","","","","","","learning/Slide13.JPG","null","","","","",""
"","html-keyboard-response","45","844376","0.0-6.0-2.12","LF","p0ob2fsrsp","1920","1080","de","lu04rk02","null","","","","learningBlock1","","","","<div style=""font-size:60px;""> </div>","null","LF","learning/Slide13.JPG","This is a bim:","",""
"","html-keyboard-response","46","845377","0.0-6.0-0.13","LF","p0ob2fsrsp","1920","1080","de","lu04rk02","null","","","","learningBlock1","","","","This is a wug:","null","","","","",""
"","image-keyboard-response","47","845704","0.0-6.0-1.13","LF","p0ob2fsrsp","1920","1080","de","lu04rk02","null","","","","","","","","learning/Slide14.JPG","null","","","","",""
"","html-keyboard-response","48","846705","0.0-6.0-2.13","LF","p0ob2fsrsp","1920","1080","de","lu04rk02","null","","","","learningBlock1","","","","<div style=""font-size:60px;""> </div>","null","LF","learning/Slide14.JPG","This is a wug:","",""
"","html-keyboard-response","49","847705","0.0-6.0-0.14","LF","p0ob2fsrsp","1920","1080","de","lu04rk02","null","","","","learningBlock1","","","","This is a tob:","null","","","","",""
"","image-keyboard-response","50","848032","0.0-6.0-1.14","LF","p0ob2fsrsp","1920","1080","de","lu04rk02","null","","","","","","","","learning/Slide15.JPG","null","","","","",""
"","html-keyboard-response","51","849032","0.0-6.0-2.14","LF","p0ob2fsrsp","1920","1080","de","lu04rk02","null","","","","learningBlock1","","","","<div style=""font-size:60px;""> </div>","null","LF","learning/Slide15.JPG","This is a tob:","",""
"","html-keyboard-response","52","850034","0.0-6.0-0.15","LF","p0ob2fsrsp","1920","1080","de","lu04rk02","null","","","","learningBlock1","","","","This is a dep:","null","","","","",""
"","image-keyboard-response","53","850360","0.0-6.0-1.15","LF","p0ob2fsrsp","1920","1080","de","lu04rk02","null","","","","","","","","learning/Slide16.JPG","null","","","","",""
"","html-keyboard-response","54","851361","0.0-6.0-2.15","LF","p0ob2fsrsp","1920","1080","de","lu04rk02","null","","","","learningBlock1","","","","<div style=""font-size:60px;""> </div>","null","LF","learning/Slide16.JPG","This is a dep:","",""
"","html-keyboard-response","55","852361","0.0-6.0-0.16","LF","p0ob2fsrsp","1920","1080","de","lu04rk02","null","","","","learningBlock1","","","","This is a bim:","null","","","","",""
"","image-keyboard-response","56","852687","0.0-6.0-1.16","LF","p0ob2fsrsp","1920","1080","de","lu04rk02","null","","","","","","","","learning/Slide17.JPG","null","","","","",""
"","html-keyboard-response","57","853689","0.0-6.0-2.16","LF","p0ob2fsrsp","1920","1080","de","lu04rk02","null","","","","learningBlock1","","","","<div style=""font-size:60px;""> </div>","null","LF","learning/Slide17.JPG","This is a bim:","",""
"","html-keyboard-response","58","854690","0.0-6.0-0.17","LF","p0ob2fsrsp","1920","1080","de","lu04rk02","null","","","","learningBlock1","","","","This is a tob:","null","","","","",""
"","image-keyboard-response","59","855016","0.0-6.0-1.17","LF","p0ob2fsrsp","1920","1080","de","lu04rk02","null","","","","","","","","learning/Slide18.JPG","null","","","","",""
"","html-keyboard-response","60","856017","0.0-6.0-2.17","LF","p0ob2fsrsp","1920","1080","de","lu04rk02","null","","","","learningBlock1","","","","<div style=""font-size:60px;""> </div>","null","LF","learning/Slide18.JPG","This is a tob:","",""
"","html-keyboard-response","61","857019","0.0-6.0-0.18","LF","p0ob2fsrsp","1920","1080","de","lu04rk02","null","","","","learningBlock1","","","","This is a wug:","null","","","","",""
"","image-keyboard-response","62","857345","0.0-6.0-1.18","LF","p0ob2fsrsp","1920","1080","de","lu04rk02","null","","","","","","","","learning/Slide19.JPG","null","","","","",""
"","html-keyboard-response","63","858347","0.0-6.0-2.18","LF","p0ob2fsrsp","1920","1080","de","lu04rk02","null","","","","learningBlock1","","","","<div style=""font-size:60px;""> </div>","null","LF","learning/Slide19.JPG","This is a wug:","",""
"","html-keyboard-response","64","859347","0.0-6.0-0.19","LF","p0ob2fsrsp","1920","1080","de","lu04rk02","null","","","","learningBlock1","","","","This is a bim:","null","","","","",""
"","image-keyboard-response","65","859672","0.0-6.0-1.19","LF","p0ob2fsrsp","1920","1080","de","lu04rk02","null","","","","","","","","learning/Slide20.JPG","null","","","","",""
"","html-keyboard-response","66","860673","0.0-6.0-2.19","LF","p0ob2fsrsp","1920","1080","de","lu04rk02","null","","","","learningBlock1","","","","<div style=""font-size:60px;""> </div>","null","LF","learning/Slide20.JPG","This is a bim:","",""
"","html-keyboard-response","67","861674","0.0-6.0-0.20","LF","p0ob2fsrsp","1920","1080","de","lu04rk02","null","","","","learningBlock1","","","","This is a dep:","null","","","","",""
"","image-keyboard-response","68","862000","0.0-6.0-1.20","LF","p0ob2fsrsp","1920","1080","de","lu04rk02","null","","","","","","","","learning/Slide21.JPG","null","","","","",""
"","html-keyboard-response","69","863001","0.0-6.0-2.20","LF","p0ob2fsrsp","1920","1080","de","lu04rk02","null","","","","learningBlock1","","","","<div style=""font-size:60px;""> </div>","null","LF","learning/Slide21.JPG","This is a dep:","",""
"","html-keyboard-response","70","864003","0.0-6.0-0.21","LF","p0ob2fsrsp","1920","1080","de","lu04rk02","null","","","","learningBlock1","","","","This is a bim:","null","","","","",""
"","image-keyboard-response","71","864329","0.0-6.0-1.21","LF","p0ob2fsrsp","1920","1080","de","lu04rk02","null","","","","","","","","learning/Slide22.JPG","null","","","","",""
"","html-keyboard-response","72","865329","0.0-6.0-2.21","LF","p0ob2fsrsp","1920","1080","de","lu04rk02","null","","","","learningBlock1","","","","<div style=""font-size:60px;""> </div>","null","LF","learning/Slide22.JPG","This is a bim:","",""
"","html-keyboard-response","73","866329","0.0-6.0-0.22","LF","p0ob2fsrsp","1920","1080","de","lu04rk02","null","","","","learningBlock1","","","","This is a tob:","null","","","","",""
"","image-keyboard-response","74","866656","0.0-6.0-1.22","LF","p0ob2fsrsp","1920","1080","de","lu04rk02","null","","","","","","","","learning/Slide23.JPG","null","","","","",""
"","html-keyboard-response","75","867657","0.0-6.0-2.22","LF","p0ob2fsrsp","1920","1080","de","lu04rk02","null","","","","learningBlock1","","","","<div style=""font-size:60px;""> </div>","null","LF","learning/Slide23.JPG","This is a tob:","",""
"","html-keyboard-response","76","868659","0.0-6.0-0.23","LF","p0ob2fsrsp","1920","1080","de","lu04rk02","null","","","","learningBlock1","","","","This is a wug:","null","","","","",""
"","image-keyboard-response","77","868988","0.0-6.0-1.23","LF","p0ob2fsrsp","1920","1080","de","lu04rk02","null","","","","","","","","learning/Slide24.JPG","null","","","","",""
"","html-keyboard-response","78","869989","0.0-6.0-2.23","LF","p0ob2fsrsp","1920","1080","de","lu04rk02","null","","","","learningBlock1","","","","<div style=""font-size:60px;""> </div>","null","LF","learning/Slide24.JPG","This is a wug:","",""
"","html-keyboard-response","79","870989","0.0-6.0-0.24","LF","p0ob2fsrsp","1920","1080","de","lu04rk02","null","","","","learningBlock1","","","","This is a dep:","null","","","","",""
"","image-keyboard-response","80","871318","0.0-6.0-1.24","LF","p0ob2fsrsp","1920","1080","de","lu04rk02","null","","","","","","","","learning/Slide25.JPG","null","","","","",""
"","html-keyboard-response","81","872318","0.0-6.0-2.24","LF","p0ob2fsrsp","1920","1080","de","lu04rk02","null","","","","learningBlock1","","","","<div style=""font-size:60px;""> </div>","null","LF","learning/Slide25.JPG","This is a dep:","",""
"","html-keyboard-response","82","873318","0.0-6.0-0.25","LF","p0ob2fsrsp","1920","1080","de","lu04rk02","null","","","","learningBlock1","","","","This is a wug:","null","","","","",""
"","image-keyboard-response","83","873645","0.0-6.0-1.25","LF","p0ob2fsrsp","1920","1080","de","lu04rk02","null","","","","","","","","learning/Slide26.JPG","null","","","","",""
"","html-keyboard-response","84","874646","0.0-6.0-2.25","LF","p0ob2fsrsp","1920","1080","de","lu04rk02","null","","","","learningBlock1","","","","<div style=""font-size:60px;""> </div>","null","LF","learning/Slide26.JPG","This is a wug:","",""
"","html-keyboard-response","85","875646","0.0-6.0-0.26","LF","p0ob2fsrsp","1920","1080","de","lu04rk02","null","","","","learningBlock1","","","","This is a bim:","null","","","","",""
"","image-keyboard-response","86","875973","0.0-6.0-1.26","LF","p0ob2fsrsp","1920","1080","de","lu04rk02","null","","","","","","","","learning/Slide27.JPG","null","","","","",""
"","html-keyboard-response","87","876973","0.0-6.0-2.26","LF","p0ob2fsrsp","1920","1080","de","lu04rk02","null","","","","learningBlock1","","","","<div style=""font-size:60px;""> </div>","null","LF","learning/Slide27.JPG","This is a bim:","",""
"","html-keyboard-response","88","877973","0.0-6.0-0.27","LF","p0ob2fsrsp","1920","1080","de","lu04rk02","null","","","","learningBlock1","","","","This is a dep:","null","","","","",""
"","image-keyboard-response","89","878302","0.0-6.0-1.27","LF","p0ob2fsrsp","1920","1080","de","lu04rk02","null","","","","","","","","learning/Slide28.JPG","null","","","","",""
"","html-keyboard-response","90","879304","0.0-6.0-2.27","LF","p0ob2fsrsp","1920","1080","de","lu04rk02","null","","","","learningBlock1","","","","<div style=""font-size:60px;""> </div>","null","LF","learning/Slide28.JPG","This is a dep:","",""
"","html-keyboard-response","91","880306","0.0-6.0-0.28","LF","p0ob2fsrsp","1920","1080","de","lu04rk02","null","","","","learningBlock1","","","","This is a tob:","null","","","","",""
"","image-keyboard-response","92","880634","0.0-6.0-1.28","LF","p0ob2fsrsp","1920","1080","de","lu04rk02","null","","","","","","","","learning/Slide29.JPG","null","","","","",""
"","html-keyboard-response","93","881634","0.0-6.0-2.28","LF","p0ob2fsrsp","1920","1080","de","lu04rk02","null","","","","learningBlock1","","","","<div style=""font-size:60px;""> </div>","null","LF","learning/Slide29.JPG","This is a tob:","",""
"","html-keyboard-response","94","882635","0.0-6.0-0.29","LF","p0ob2fsrsp","1920","1080","de","lu04rk02","null","","","","learningBlock1","","","","This is a dep:","null","","","","",""
"","image-keyboard-response","95","882961","0.0-6.0-1.29","LF","p0ob2fsrsp","1920","1080","de","lu04rk02","null","","","","","","","","learning/Slide30.JPG","null","","","","",""
"","html-keyboard-response","96","883961","0.0-6.0-2.29","LF","p0ob2fsrsp","1920","1080","de","lu04rk02","null","","","","learningBlock1","","","","<div style=""font-size:60px;""> </div>","null","LF","learning/Slide30.JPG","This is a dep:","",""
"","html-keyboard-response","97","884962","0.0-6.0-0.30","LF","p0ob2fsrsp","1920","1080","de","lu04rk02","null","","","","learningBlock1","","","","This is a wug:","null","","","","",""
"","image-keyboard-response","98","885288","0.0-6.0-1.30","LF","p0ob2fsrsp","1920","1080","de","lu04rk02","null","","","","","","","","learning/Slide31.JPG","null","","","","",""
"","html-keyboard-response","99","886289","0.0-6.0-2.30","LF","p0ob2fsrsp","1920","1080","de","lu04rk02","null","","","","learningBlock1","","","","<div style=""font-size:60px;""> </div>","null","LF","learning/Slide31.JPG","This is a wug:","",""
"","html-keyboard-response","100","887290","0.0-6.0-0.31","LF","p0ob2fsrsp","1920","1080","de","lu04rk02","null","","","","learningBlock1","","","","This is a tob:","null","","","","",""
"","image-keyboard-response","101","887618","0.0-6.0-1.31","LF","p0ob2fsrsp","1920","1080","de","lu04rk02","null","","","","","","","","learning/Slide32.JPG","null","","","","",""
"","html-keyboard-response","102","888618","0.0-6.0-2.31","LF","p0ob2fsrsp","1920","1080","de","lu04rk02","null","","","","learningBlock1","","","","<div style=""font-size:60px;""> </div>","null","LF","learning/Slide32.JPG","This is a tob:","",""
"","html-keyboard-response","103","889619","0.0-6.0-0.32","LF","p0ob2fsrsp","1920","1080","de","lu04rk02","null","","","","learningBlock1","","","","This is a bim:","null","","","","",""
"","image-keyboard-response","104","889946","0.0-6.0-1.32","LF","p0ob2fsrsp","1920","1080","de","lu04rk02","null","","","","","","","","learning/Slide33.JPG","null","","","","",""
"","html-keyboard-response","105","890948","0.0-6.0-2.32","LF","p0ob2fsrsp","1920","1080","de","lu04rk02","null","","","","learningBlock1","","","","<div style=""font-size:60px;""> </div>","null","LF","learning/Slide33.JPG","This is a bim:","",""
"","html-keyboard-response","106","891948","0.0-6.0-0.33","LF","p0ob2fsrsp","1920","1080","de","lu04rk02","null","","","","learningBlock1","","","","This is a tob:","null","","","","",""
"","image-keyboard-response","107","892274","0.0-6.0-1.33","LF","p0ob2fsrsp","1920","1080","de","lu04rk02","null","","","","","","","","learning/Slide34.JPG","null","","","","",""
"","html-keyboard-response","108","893275","0.0-6.0-2.33","LF","p0ob2fsrsp","1920","1080","de","lu04rk02","null","","","","learningBlock1","","","","<div style=""font-size:60px;""> </div>","null","LF","learning/Slide34.JPG","This is a tob:","",""
"","html-keyboard-response","109","894276","0.0-6.0-0.34","LF","p0ob2fsrsp","1920","1080","de","lu04rk02","null","","","","learningBlock1","","","","This is a bim:","null","","","","",""
"","image-keyboard-response","110","894604","0.0-6.0-1.34","LF","p0ob2fsrsp","1920","1080","de","lu04rk02","null","","","","","","","","learning/Slide35.JPG","null","","","","",""
"","html-keyboard-response","111","895605","0.0-6.0-2.34","LF","p0ob2fsrsp","1920","1080","de","lu04rk02","null","","","","learningBlock1","","","","<div style=""font-size:60px;""> </div>","null","LF","learning/Slide35.JPG","This is a bim:","",""
"","html-keyboard-response","112","896605","0.0-6.0-0.35","LF","p0ob2fsrsp","1920","1080","de","lu04rk02","null","","","","learningBlock1","","","","This is a dep:","null","","","","",""
"","image-keyboard-response","113","896932","0.0-6.0-1.35","LF","p0ob2fsrsp","1920","1080","de","lu04rk02","null","","","","","","","","learning/Slide36.JPG","null","","","","",""
"","html-keyboard-response","114","897932","0.0-6.0-2.35","LF","p0ob2fsrsp","1920","1080","de","lu04rk02","null","","","","learningBlock1","","","","<div style=""font-size:60px;""> </div>","null","LF","learning/Slide36.JPG","This is a dep:","",""
"","html-keyboard-response","115","898933","0.0-6.0-0.36","LF","p0ob2fsrsp","1920","1080","de","lu04rk02","null","","","","learningBlock1","","","","This is a tob:","null","","","","",""
"","image-keyboard-response","116","899259","0.0-6.0-1.36","LF","p0ob2fsrsp","1920","1080","de","lu04rk02","null","","","","","","","","learning/Slide37.JPG","null","","","","",""
"","html-keyboard-response","117","900260","0.0-6.0-2.36","LF","p0ob2fsrsp","1920","1080","de","lu04rk02","null","","","","learningBlock1","","","","<div style=""font-size:60px;""> </div>","null","LF","learning/Slide37.JPG","This is a tob:","",""
"","html-keyboard-response","118","901260","0.0-6.0-0.37","LF","p0ob2fsrsp","1920","1080","de","lu04rk02","null","","","","learningBlock1","","","","This is a wug:","null","","","","",""
"","image-keyboard-response","119","901587","0.0-6.0-1.37","LF","p0ob2fsrsp","1920","1080","de","lu04rk02","null","","","","","","","","learning/Slide38.JPG","null","","","","",""
"","html-keyboard-response","120","902587","0.0-6.0-2.37","LF","p0ob2fsrsp","1920","1080","de","lu04rk02","null","","","","learningBlock1","","","","<div style=""font-size:60px;""> </div>","null","LF","learning/Slide38.JPG","This is a wug:","",""
"","html-keyboard-response","121","903587","0.0-6.0-0.38","LF","p0ob2fsrsp","1920","1080","de","lu04rk02","null","","","","learningBlock1","","","","This is a bim:","null","","","","",""
"","image-keyboard-response","122","903913","0.0-6.0-1.38","LF","p0ob2fsrsp","1920","1080","de","lu04rk02","null","","","","","","","","learning/Slide39.JPG","null","","","","",""
"","html-keyboard-response","123","904913","0.0-6.0-2.38","LF","p0ob2fsrsp","1920","1080","de","lu04rk02","null","","","","learningBlock1","","","","<div style=""font-size:60px;""> </div>","null","LF","learning/Slide39.JPG","This is a bim:","",""
"","html-keyboard-response","124","905915","0.0-6.0-0.39","LF","p0ob2fsrsp","1920","1080","de","lu04rk02","null","","","","learningBlock1","","","","This is a tob:","null","","","","",""
"","image-keyboard-response","125","906242","0.0-6.0-1.39","LF","p0ob2fsrsp","1920","1080","de","lu04rk02","null","","","","","","","","learning/Slide40.JPG","null","","","","",""
"","html-keyboard-response","126","907244","0.0-6.0-2.39","LF","p0ob2fsrsp","1920","1080","de","lu04rk02","null","","","","learningBlock1","","","","<div style=""font-size:60px;""> </div>","null","LF","learning/Slide40.JPG","This is a tob:","",""
"","html-keyboard-response","127","908246","0.0-6.0-0.40","LF","p0ob2fsrsp","1920","1080","de","lu04rk02","null","","","","learningBlock1","","","","This is a bim:","null","","","","",""
"","image-keyboard-response","128","908572","0.0-6.0-1.40","LF","p0ob2fsrsp","1920","1080","de","lu04rk02","null","","","","","","","","learning/Slide41.JPG","null","","","","",""
"","html-keyboard-response","129","909572","0.0-6.0-2.40","LF","p0ob2fsrsp","1920","1080","de","lu04rk02","null","","","","learningBlock1","","","","<div style=""font-size:60px;""> </div>","null","LF","learning/Slide41.JPG","This is a bim:","",""
"","html-keyboard-response","130","910574","0.0-6.0-0.41","LF","p0ob2fsrsp","1920","1080","de","lu04rk02","null","","","","learningBlock1","","","","This is a dep:","null","","","","",""
"","image-keyboard-response","131","910900","0.0-6.0-1.41","LF","p0ob2fsrsp","1920","1080","de","lu04rk02","null","","","","","","","","learning/Slide42.JPG","null","","","","",""
"","html-keyboard-response","132","911900","0.0-6.0-2.41","LF","p0ob2fsrsp","1920","1080","de","lu04rk02","null","","","","learningBlock1","","","","<div style=""font-size:60px;""> </div>","null","LF","learning/Slide42.JPG","This is a dep:","",""
"","html-keyboard-response","133","912901","0.0-6.0-0.42","LF","p0ob2fsrsp","1920","1080","de","lu04rk02","null","","","","learningBlock1","","","","This is a wug:","null","","","","",""
"","image-keyboard-response","134","913229","0.0-6.0-1.42","LF","p0ob2fsrsp","1920","1080","de","lu04rk02","null","","","","","","","","learning/Slide43.JPG","null","","","","",""
"","html-keyboard-response","135","914230","0.0-6.0-2.42","LF","p0ob2fsrsp","1920","1080","de","lu04rk02","null","","","","learningBlock1","","","","<div style=""font-size:60px;""> </div>","null","LF","learning/Slide43.JPG","This is a wug:","",""
"","html-keyboard-response","136","915230","0.0-6.0-0.43","LF","p0ob2fsrsp","1920","1080","de","lu04rk02","null","","","","learningBlock1","","","","This is a bim:","null","","","","",""
"","image-keyboard-response","137","915556","0.0-6.0-1.43","LF","p0ob2fsrsp","1920","1080","de","lu04rk02","null","","","","","","","","learning/Slide44.JPG","null","","","","",""
"","html-keyboard-response","138","916559","0.0-6.0-2.43","LF","p0ob2fsrsp","1920","1080","de","lu04rk02","null","","","","learningBlock1","","","","<div style=""font-size:60px;""> </div>","null","LF","learning/Slide44.JPG","This is a bim:","",""
"","html-keyboard-response","139","917558","0.0-6.0-0.44","LF","p0ob2fsrsp","1920","1080","de","lu04rk02","null","","","","learningBlock1","","","","This is a wug:","null","","","","",""
"","image-keyboard-response","140","917887","0.0-6.0-1.44","LF","p0ob2fsrsp","1920","1080","de","lu04rk02","null","","","","","","","","learning/Slide45.JPG","null","","","","",""
"","html-keyboard-response","141","918888","0.0-6.0-2.44","LF","p0ob2fsrsp","1920","1080","de","lu04rk02","null","","","","learningBlock1","","","","<div style=""font-size:60px;""> </div>","null","LF","learning/Slide45.JPG","This is a wug:","",""
"","html-keyboard-response","142","919889","0.0-6.0-0.45","LF","p0ob2fsrsp","1920","1080","de","lu04rk02","null","","","","learningBlock1","","","","This is a dep:","null","","","","",""
"","image-keyboard-response","143","920216","0.0-6.0-1.45","LF","p0ob2fsrsp","1920","1080","de","lu04rk02","null","","","","","","","","learning/Slide46.JPG","null","","","","",""
"","html-keyboard-response","144","921217","0.0-6.0-2.45","LF","p0ob2fsrsp","1920","1080","de","lu04rk02","null","","","","learningBlock1","","","","<div style=""font-size:60px;""> </div>","null","LF","learning/Slide46.JPG","This is a dep:","",""
"","html-keyboard-response","145","922217","0.0-6.0-0.46","LF","p0ob2fsrsp","1920","1080","de","lu04rk02","null","","","","learningBlock1","","","","This is a tob:","null","","","","",""
"","image-keyboard-response","146","922544","0.0-6.0-1.46","LF","p0ob2fsrsp","1920","1080","de","lu04rk02","null","","","","","","","","learning/Slide47.JPG","null","","","","",""
"","html-keyboard-response","147","923545","0.0-6.0-2.46","LF","p0ob2fsrsp","1920","1080","de","lu04rk02","null","","","","learningBlock1","","","","<div style=""font-size:60px;""> </div>","null","LF","learning/Slide47.JPG","This is a tob:","",""
"","html-keyboard-response","148","924545","0.0-6.0-0.47","LF","p0ob2fsrsp","1920","1080","de","lu04rk02","null","","","","learningBlock1","","","","This is a bim:","null","","","","",""
"","image-keyboard-response","149","924872","0.0-6.0-1.47","LF","p0ob2fsrsp","1920","1080","de","lu04rk02","null","","","","","","","","learning/Slide48.JPG","null","","","","",""
"","html-keyboard-response","150","925872","0.0-6.0-2.47","LF","p0ob2fsrsp","1920","1080","de","lu04rk02","null","","","","learningBlock1","","","","<div style=""font-size:60px;""> </div>","null","LF","learning/Slide48.JPG","This is a bim:","",""
"","html-keyboard-response","151","926872","0.0-6.0-0.48","LF","p0ob2fsrsp","1920","1080","de","lu04rk02","null","","","","learningBlock1","","","","This is a dep:","null","","","","",""
"","image-keyboard-response","152","927198","0.0-6.0-1.48","LF","p0ob2fsrsp","1920","1080","de","lu04rk02","null","","","","","","","","learning/Slide49.JPG","null","","","","",""
"","html-keyboard-response","153","928199","0.0-6.0-2.48","LF","p0ob2fsrsp","1920","1080","de","lu04rk02","null","","","","learningBlock1","","","","<div style=""font-size:60px;""> </div>","null","LF","learning/Slide49.JPG","This is a dep:","",""
"","html-keyboard-response","154","929201","0.0-6.0-0.49","LF","p0ob2fsrsp","1920","1080","de","lu04rk02","null","","","","learningBlock1","","","","This is a tob:","null","","","","",""
"","image-keyboard-response","155","929527","0.0-6.0-1.49","LF","p0ob2fsrsp","1920","1080","de","lu04rk02","null","","","","","","","","learning/Slide50.JPG","null","","","","",""
"","html-keyboard-response","156","930529","0.0-6.0-2.49","LF","p0ob2fsrsp","1920","1080","de","lu04rk02","null","","","","learningBlock1","","","","<div style=""font-size:60px;""> </div>","null","LF","learning/Slide50.JPG","This is a tob:","",""
"","html-keyboard-response","157","931530","0.0-6.0-0.50","LF","p0ob2fsrsp","1920","1080","de","lu04rk02","null","","","","learningBlock1","","","","This is a bim:","null","","","","",""
"","image-keyboard-response","158","931858","0.0-6.0-1.50","LF","p0ob2fsrsp","1920","1080","de","lu04rk02","null","","","","","","","","learning/Slide51.JPG","null","","","","",""
"","html-keyboard-response","159","932859","0.0-6.0-2.50","LF","p0ob2fsrsp","1920","1080","de","lu04rk02","null","","","","learningBlock1","","","","<div style=""font-size:60px;""> </div>","null","LF","learning/Slide51.JPG","This is a bim:","",""
"","html-keyboard-response","160","933860","0.0-6.0-0.51","LF","p0ob2fsrsp","1920","1080","de","lu04rk02","null","","","","learningBlock1","","","","This is a wug:","null","","","","",""
"","image-keyboard-response","161","934187","0.0-6.0-1.51","LF","p0ob2fsrsp","1920","1080","de","lu04rk02","null","","","","","","","","learning/Slide52.JPG","null","","","","",""
"","html-keyboard-response","162","935188","0.0-6.0-2.51","LF","p0ob2fsrsp","1920","1080","de","lu04rk02","null","","","","learningBlock1","","","","<div style=""font-size:60px;""> </div>","null","LF","learning/Slide52.JPG","This is a wug:","",""
"","html-keyboard-response","163","936189","0.0-6.0-0.52","LF","p0ob2fsrsp","1920","1080","de","lu04rk02","null","","","","learningBlock1","","","","This is a tob:","null","","","","",""
"","image-keyboard-response","164","936515","0.0-6.0-1.52","LF","p0ob2fsrsp","1920","1080","de","lu04rk02","null","","","","","","","","learning/Slide53.JPG","null","","","","",""
"","html-keyboard-response","165","937516","0.0-6.0-2.52","LF","p0ob2fsrsp","1920","1080","de","lu04rk02","null","","","","learningBlock1","","","","<div style=""font-size:60px;""> </div>","null","LF","learning/Slide53.JPG","This is a tob:","",""
"","html-keyboard-response","166","938517","0.0-6.0-0.53","LF","p0ob2fsrsp","1920","1080","de","lu04rk02","null","","","","learningBlock1","","","","This is a dep:","null","","","","",""
"","image-keyboard-response","167","938845","0.0-6.0-1.53","LF","p0ob2fsrsp","1920","1080","de","lu04rk02","null","","","","","","","","learning/Slide54.JPG","null","","","","",""
"","html-keyboard-response","168","939845","0.0-6.0-2.53","LF","p0ob2fsrsp","1920","1080","de","lu04rk02","null","","","","learningBlock1","","","","<div style=""font-size:60px;""> </div>","null","LF","learning/Slide54.JPG","This is a dep:","",""
"","html-keyboard-response","169","940846","0.0-6.0-0.54","LF","p0ob2fsrsp","1920","1080","de","lu04rk02","null","","","","learningBlock1","","","","This is a bim:","null","","","","",""
"","image-keyboard-response","170","941174","0.0-6.0-1.54","LF","p0ob2fsrsp","1920","1080","de","lu04rk02","null","","","","","","","","learning/Slide55.JPG","null","","","","",""
"","html-keyboard-response","171","942175","0.0-6.0-2.54","LF","p0ob2fsrsp","1920","1080","de","lu04rk02","null","","","","learningBlock1","","","","<div style=""font-size:60px;""> </div>","null","LF","learning/Slide55.JPG","This is a bim:","",""
"","html-keyboard-response","172","943175","0.0-6.0-0.55","LF","p0ob2fsrsp","1920","1080","de","lu04rk02","null","","","","learningBlock1","","","","This is a tob:","null","","","","",""
"","image-keyboard-response","173","943503","0.0-6.0-1.55","LF","p0ob2fsrsp","1920","1080","de","lu04rk02","null","","","","","","","","learning/Slide56.JPG","null","","","","",""
"","html-keyboard-response","174","944504","0.0-6.0-2.55","LF","p0ob2fsrsp","1920","1080","de","lu04rk02","null","","","","learningBlock1","","","","<div style=""font-size:60px;""> </div>","null","LF","learning/Slide56.JPG","This is a tob:","",""
"","html-keyboard-response","175","945504","0.0-6.0-0.56","LF","p0ob2fsrsp","1920","1080","de","lu04rk02","null","","","","learningBlock1","","","","This is a dep:","null","","","","",""
"","image-keyboard-response","176","945830","0.0-6.0-1.56","LF","p0ob2fsrsp","1920","1080","de","lu04rk02","null","","","","","","","","learning/Slide57.JPG","null","","","","",""
"","html-keyboard-response","177","946831","0.0-6.0-2.56","LF","p0ob2fsrsp","1920","1080","de","lu04rk02","null","","","","learningBlock1","","","","<div style=""font-size:60px;""> </div>","null","LF","learning/Slide57.JPG","This is a dep:","",""
"","html-keyboard-response","178","947833","0.0-6.0-0.57","LF","p0ob2fsrsp","1920","1080","de","lu04rk02","null","","","","learningBlock1","","","","This is a wug:","null","","","","",""
"","image-keyboard-response","179","948159","0.0-6.0-1.57","LF","p0ob2fsrsp","1920","1080","de","lu04rk02","null","","","","","","","","learning/Slide58.JPG","null","","","","",""
"","html-keyboard-response","180","949160","0.0-6.0-2.57","LF","p0ob2fsrsp","1920","1080","de","lu04rk02","null","","","","learningBlock1","","","","<div style=""font-size:60px;""> </div>","null","LF","learning/Slide58.JPG","This is a wug:","",""
"","html-keyboard-response","181","950161","0.0-6.0-0.58","LF","p0ob2fsrsp","1920","1080","de","lu04rk02","null","","","","learningBlock1","","","","This is a dep:","null","","","","",""
"","image-keyboard-response","182","950488","0.0-6.0-1.58","LF","p0ob2fsrsp","1920","1080","de","lu04rk02","null","","","","","","","","learning/Slide59.JPG","null","","","","",""
"","html-keyboard-response","183","951489","0.0-6.0-2.58","LF","p0ob2fsrsp","1920","1080","de","lu04rk02","null","","","","learningBlock1","","","","<div style=""font-size:60px;""> </div>","null","LF","learning/Slide59.JPG","This is a dep:","",""
"","html-keyboard-response","184","952491","0.0-6.0-0.59","LF","p0ob2fsrsp","1920","1080","de","lu04rk02","null","","","","learningBlock1","","","","This is a wug:","null","","","","",""
"","image-keyboard-response","185","952816","0.0-6.0-1.59","LF","p0ob2fsrsp","1920","1080","de","lu04rk02","null","","","","","","","","learning/Slide60.JPG","null","","","","",""
"","html-keyboard-response","186","953816","0.0-6.0-2.59","LF","p0ob2fsrsp","1920","1080","de","lu04rk02","null","","","","learningBlock1","","","","<div style=""font-size:60px;""> </div>","null","LF","learning/Slide60.JPG","This is a wug:","",""
"","html-keyboard-response","187","954817","0.0-6.0-0.60","LF","p0ob2fsrsp","1920","1080","de","lu04rk02","null","","","","learningBlock1","","","","This is a bim:","null","","","","",""
"","image-keyboard-response","188","955144","0.0-6.0-1.60","LF","p0ob2fsrsp","1920","1080","de","lu04rk02","null","","","","","","","","learning/Slide61.JPG","null","","","","",""
"","html-keyboard-response","189","956145","0.0-6.0-2.60","LF","p0ob2fsrsp","1920","1080","de","lu04rk02","null","","","","learningBlock1","","","","<div style=""font-size:60px;""> </div>","null","LF","learning/Slide61.JPG","This is a bim:","",""
"","html-keyboard-response","190","957146","0.0-6.0-0.61","LF","p0ob2fsrsp","1920","1080","de","lu04rk02","null","","","","learningBlock1","","","","This is a dep:","null","","","","",""
"","image-keyboard-response","191","957473","0.0-6.0-1.61","LF","p0ob2fsrsp","1920","1080","de","lu04rk02","null","","","","","","","","learning/Slide62.JPG","null","","","","",""
"","html-keyboard-response","192","958473","0.0-6.0-2.61","LF","p0ob2fsrsp","1920","1080","de","lu04rk02","null","","","","learningBlock1","","","","<div style=""font-size:60px;""> </div>","null","LF","learning/Slide62.JPG","This is a dep:","",""
"","html-keyboard-response","193","959473","0.0-6.0-0.62","LF","p0ob2fsrsp","1920","1080","de","lu04rk02","null","","","","learningBlock1","","","","This is a bim:","null","","","","",""
"","image-keyboard-response","194","959799","0.0-6.0-1.62","LF","p0ob2fsrsp","1920","1080","de","lu04rk02","null","","","","","","","","learning/Slide63.JPG","null","","","","",""
"","html-keyboard-response","195","960799","0.0-6.0-2.62","LF","p0ob2fsrsp","1920","1080","de","lu04rk02","null","","","","learningBlock1","","","","<div style=""font-size:60px;""> </div>","null","LF","learning/Slide63.JPG","This is a bim:","",""
"","html-keyboard-response","196","961800","0.0-6.0-0.63","LF","p0ob2fsrsp","1920","1080","de","lu04rk02","null","","","","learningBlock1","","","","This is a tob:","null","","","","",""
"","image-keyboard-response","197","962126","0.0-6.0-1.63","LF","p0ob2fsrsp","1920","1080","de","lu04rk02","null","","","","","","","","learning/Slide64.JPG","null","","","","",""
"","html-keyboard-response","198","963127","0.0-6.0-2.63","LF","p0ob2fsrsp","1920","1080","de","lu04rk02","null","","","","learningBlock1","","","","<div style=""font-size:60px;""> </div>","null","LF","learning/Slide64.JPG","This is a tob:","",""
"","html-keyboard-response","199","964128","0.0-6.0-0.64","LF","p0ob2fsrsp","1920","1080","de","lu04rk02","null","","","","learningBlock1","","","","This is a wug:","null","","","","",""
"","image-keyboard-response","200","964453","0.0-6.0-1.64","LF","p0ob2fsrsp","1920","1080","de","lu04rk02","null","","","","","","","","learning/Slide65.JPG","null","","","","",""
"","html-keyboard-response","201","965455","0.0-6.0-2.64","LF","p0ob2fsrsp","1920","1080","de","lu04rk02","null","","","","learningBlock1","","","","<div style=""font-size:60px;""> </div>","null","LF","learning/Slide65.JPG","This is a wug:","",""
"","html-keyboard-response","202","966455","0.0-6.0-0.65","LF","p0ob2fsrsp","1920","1080","de","lu04rk02","null","","","","learningBlock1","","","","This is a dep:","null","","","","",""
"","image-keyboard-response","203","966782","0.0-6.0-1.65","LF","p0ob2fsrsp","1920","1080","de","lu04rk02","null","","","","","","","","learning/Slide66.JPG","null","","","","",""
"","html-keyboard-response","204","967783","0.0-6.0-2.65","LF","p0ob2fsrsp","1920","1080","de","lu04rk02","null","","","","learningBlock1","","","","<div style=""font-size:60px;""> </div>","null","LF","learning/Slide66.JPG","This is a dep:","",""
"","html-keyboard-response","205","968783","0.0-6.0-0.66","LF","p0ob2fsrsp","1920","1080","de","lu04rk02","null","","","","learningBlock1","","","","This is a tob:","null","","","","",""
"","image-keyboard-response","206","969110","0.0-6.0-1.66","LF","p0ob2fsrsp","1920","1080","de","lu04rk02","null","","","","","","","","learning/Slide67.JPG","null","","","","",""
"","html-keyboard-response","207","970111","0.0-6.0-2.66","LF","p0ob2fsrsp","1920","1080","de","lu04rk02","null","","","","learningBlock1","","","","<div style=""font-size:60px;""> </div>","null","LF","learning/Slide67.JPG","This is a tob:","",""
"","html-keyboard-response","208","971112","0.0-6.0-0.67","LF","p0ob2fsrsp","1920","1080","de","lu04rk02","null","","","","learningBlock1","","","","This is a wug:","null","","","","",""
"","image-keyboard-response","209","971438","0.0-6.0-1.67","LF","p0ob2fsrsp","1920","1080","de","lu04rk02","null","","","","","","","","learning/Slide68.JPG","null","","","","",""
"","html-keyboard-response","210","972440","0.0-6.0-2.67","LF","p0ob2fsrsp","1920","1080","de","lu04rk02","null","","","","learningBlock1","","","","<div style=""font-size:60px;""> </div>","null","LF","learning/Slide68.JPG","This is a wug:","",""
"","html-keyboard-response","211","973440","0.0-6.0-0.68","LF","p0ob2fsrsp","1920","1080","de","lu04rk02","null","","","","learningBlock1","","","","This is a tob:","null","","","","",""
"","image-keyboard-response","212","973767","0.0-6.0-1.68","LF","p0ob2fsrsp","1920","1080","de","lu04rk02","null","","","","","","","","learning/Slide69.JPG","null","","","","",""
"","html-keyboard-response","213","974767","0.0-6.0-2.68","LF","p0ob2fsrsp","1920","1080","de","lu04rk02","null","","","","learningBlock1","","","","<div style=""font-size:60px;""> </div>","null","LF","learning/Slide69.JPG","This is a tob:","",""
"","html-keyboard-response","214","975769","0.0-6.0-0.69","LF","p0ob2fsrsp","1920","1080","de","lu04rk02","null","","","","learningBlock1","","","","This is a dep:","null","","","","",""
"","image-keyboard-response","215","976095","0.0-6.0-1.69","LF","p0ob2fsrsp","1920","1080","de","lu04rk02","null","","","","","","","","learning/Slide70.JPG","null","","","","",""
"","html-keyboard-response","216","977095","0.0-6.0-2.69","LF","p0ob2fsrsp","1920","1080","de","lu04rk02","null","","","","learningBlock1","","","","<div style=""font-size:60px;""> </div>","null","LF","learning/Slide70.JPG","This is a dep:","",""
"","html-keyboard-response","217","978096","0.0-6.0-0.70","LF","p0ob2fsrsp","1920","1080","de","lu04rk02","null","","","","learningBlock1","","","","This is a wug:","null","","","","",""
"","image-keyboard-response","218","978423","0.0-6.0-1.70","LF","p0ob2fsrsp","1920","1080","de","lu04rk02","null","","","","","","","","learning/Slide71.JPG","null","","","","",""
"","html-keyboard-response","219","979423","0.0-6.0-2.70","LF","p0ob2fsrsp","1920","1080","de","lu04rk02","null","","","","learningBlock1","","","","<div style=""font-size:60px;""> </div>","null","LF","learning/Slide71.JPG","This is a wug:","",""
"","html-keyboard-response","220","980424","0.0-6.0-0.71","LF","p0ob2fsrsp","1920","1080","de","lu04rk02","null","","","","learningBlock1","","","","This is a bim:","null","","","","",""
"","image-keyboard-response","221","980749","0.0-6.0-1.71","LF","p0ob2fsrsp","1920","1080","de","lu04rk02","null","","","","","","","","learning/Slide72.JPG","null","","","","",""
"","html-keyboard-response","222","981750","0.0-6.0-2.71","LF","p0ob2fsrsp","1920","1080","de","lu04rk02","null","","","","learningBlock1","","","","<div style=""font-size:60px;""> </div>","null","LF","learning/Slide72.JPG","This is a bim:","",""
"","html-keyboard-response","223","982751","0.0-6.0-0.72","LF","p0ob2fsrsp","1920","1080","de","lu04rk02","null","","","","learningBlock1","","","","This is a wug:","null","","","","",""
"","image-keyboard-response","224","983080","0.0-6.0-1.72","LF","p0ob2fsrsp","1920","1080","de","lu04rk02","null","","","","","","","","learning/Slide73.JPG","null","","","","",""
"","html-keyboard-response","225","984081","0.0-6.0-2.72","LF","p0ob2fsrsp","1920","1080","de","lu04rk02","null","","","","learningBlock1","","","","<div style=""font-size:60px;""> </div>","null","LF","learning/Slide73.JPG","This is a wug:","",""
"","html-keyboard-response","226","985081","0.0-6.0-0.73","LF","p0ob2fsrsp","1920","1080","de","lu04rk02","null","","","","learningBlock1","","","","This is a dep:","null","","","","",""
"","image-keyboard-response","227","985406","0.0-6.0-1.73","LF","p0ob2fsrsp","1920","1080","de","lu04rk02","null","","","","","","","","learning/Slide74.JPG","null","","","","",""
"","html-keyboard-response","228","986406","0.0-6.0-2.73","LF","p0ob2fsrsp","1920","1080","de","lu04rk02","null","","","","learningBlock1","","","","<div style=""font-size:60px;""> </div>","null","LF","learning/Slide74.JPG","This is a dep:","",""
"","html-keyboard-response","229","987408","0.0-6.0-0.74","LF","p0ob2fsrsp","1920","1080","de","lu04rk02","null","","","","learningBlock1","","","","This is a tob:","null","","","","",""
"","image-keyboard-response","230","987733","0.0-6.0-1.74","LF","p0ob2fsrsp","1920","1080","de","lu04rk02","null","","","","","","","","learning/Slide75.JPG","null","","","","",""
"","html-keyboard-response","231","988734","0.0-6.0-2.74","LF","p0ob2fsrsp","1920","1080","de","lu04rk02","null","","","","learningBlock1","","","","<div style=""font-size:60px;""> </div>","null","LF","learning/Slide75.JPG","This is a tob:","",""
"","html-keyboard-response","232","989736","0.0-6.0-0.75","LF","p0ob2fsrsp","1920","1080","de","lu04rk02","null","","","","learningBlock1","","","","This is a bim:","null","","","","",""
"","image-keyboard-response","233","990061","0.0-6.0-1.75","LF","p0ob2fsrsp","1920","1080","de","lu04rk02","null","","","","","","","","learning/Slide76.JPG","null","","","","",""
"","html-keyboard-response","234","991062","0.0-6.0-2.75","LF","p0ob2fsrsp","1920","1080","de","lu04rk02","null","","","","learningBlock1","","","","<div style=""font-size:60px;""> </div>","null","LF","learning/Slide76.JPG","This is a bim:","",""
"","html-keyboard-response","235","992063","0.0-6.0-0.76","LF","p0ob2fsrsp","1920","1080","de","lu04rk02","null","","","","learningBlock1","","","","This is a tob:","null","","","","",""
"","image-keyboard-response","236","992391","0.0-6.0-1.76","LF","p0ob2fsrsp","1920","1080","de","lu04rk02","null","","","","","","","","learning/Slide77.JPG","null","","","","",""
"","html-keyboard-response","237","993392","0.0-6.0-2.76","LF","p0ob2fsrsp","1920","1080","de","lu04rk02","null","","","","learningBlock1","","","","<div style=""font-size:60px;""> </div>","null","LF","learning/Slide77.JPG","This is a tob:","",""
"","html-keyboard-response","238","994392","0.0-6.0-0.77","LF","p0ob2fsrsp","1920","1080","de","lu04rk02","null","","","","learningBlock1","","","","This is a wug:","null","","","","",""
"","image-keyboard-response","239","994719","0.0-6.0-1.77","LF","p0ob2fsrsp","1920","1080","de","lu04rk02","null","","","","","","","","learning/Slide78.JPG","null","","","","",""
"","html-keyboard-response","240","995722","0.0-6.0-2.77","LF","p0ob2fsrsp","1920","1080","de","lu04rk02","null","","","","learningBlock1","","","","<div style=""font-size:60px;""> </div>","null","LF","learning/Slide78.JPG","This is a wug:","",""
"","html-keyboard-response","241","996722","0.0-6.0-0.78","LF","p0ob2fsrsp","1920","1080","de","lu04rk02","null","","","","learningBlock1","","","","This is a bim:","null","","","","",""
"","image-keyboard-response","242","997051","0.0-6.0-1.78","LF","p0ob2fsrsp","1920","1080","de","lu04rk02","null","","","","","","","","learning/Slide79.JPG","null","","","","",""
"","html-keyboard-response","243","998053","0.0-6.0-2.78","LF","p0ob2fsrsp","1920","1080","de","lu04rk02","null","","","","learningBlock1","","","","<div style=""font-size:60px;""> </div>","null","LF","learning/Slide79.JPG","This is a bim:","",""
"","html-keyboard-response","244","999053","0.0-6.0-0.79","LF","p0ob2fsrsp","1920","1080","de","lu04rk02","null","","","","learningBlock1","","","","This is a tob:","null","","","","",""
"","image-keyboard-response","245","999382","0.0-6.0-1.79","LF","p0ob2fsrsp","1920","1080","de","lu04rk02","null","","","","","","","","learning/Slide80.JPG","null","","","","",""
"","html-keyboard-response","246","1000382","0.0-6.0-2.79","LF","p0ob2fsrsp","1920","1080","de","lu04rk02","null","","","","learningBlock1","","","","<div style=""font-size:60px;""> </div>","null","LF","learning/Slide80.JPG","This is a tob:","",""
"","instructions","247","1037492","0.0-7.0","LF","p0ob2fsrsp","1920","1080","de","lu04rk02","NA","","","[{""page_index"":0,""viewing_time"":37109}]","instructions","","","","","","","","","",""
"","html-keyboard-response","248","1038494","0.0-8.0-0.0","LF","p0ob2fsrsp","1920","1080","de","lu04rk02","null","","","","learningBlock2","","","","This is a wug:","null","","","","",""
"","image-keyboard-response","249","1038821","0.0-8.0-1.0","LF","p0ob2fsrsp","1920","1080","de","lu04rk02","null","","","","","","","","learning/Slide81.JPG","null","","","","",""
"","html-keyboard-response","250","1039822","0.0-8.0-2.0","LF","p0ob2fsrsp","1920","1080","de","lu04rk02","null","","","","learningBlock2","","","","<div style=""font-size:60px;""> </div>","null","LF","learning/Slide81.JPG","This is a wug:","",""
"","html-keyboard-response","251","1040824","0.0-8.0-0.1","LF","p0ob2fsrsp","1920","1080","de","lu04rk02","null","","","","learningBlock2","","","","This is a bim:","null","","","","",""
"","image-keyboard-response","252","1041151","0.0-8.0-1.1","LF","p0ob2fsrsp","1920","1080","de","lu04rk02","null","","","","","","","","learning/Slide82.JPG","null","","","","",""
"","html-keyboard-response","253","1042151","0.0-8.0-2.1","LF","p0ob2fsrsp","1920","1080","de","lu04rk02","null","","","","learningBlock2","","","","<div style=""font-size:60px;""> </div>","null","LF","learning/Slide82.JPG","This is a bim:","",""
"","html-keyboard-response","254","1043152","0.0-8.0-0.2","LF","p0ob2fsrsp","1920","1080","de","lu04rk02","null","","","","learningBlock2","","","","This is a wug:","null","","","","",""
"","image-keyboard-response","255","1043480","0.0-8.0-1.2","LF","p0ob2fsrsp","1920","1080","de","lu04rk02","null","","","","","","","","learning/Slide83.JPG","null","","","","",""
"","html-keyboard-response","256","1044482","0.0-8.0-2.2","LF","p0ob2fsrsp","1920","1080","de","lu04rk02","null","","","","learningBlock2","","","","<div style=""font-size:60px;""> </div>","null","LF","learning/Slide83.JPG","This is a wug:","",""
"","html-keyboard-response","257","1045483","0.0-8.0-0.3","LF","p0ob2fsrsp","1920","1080","de","lu04rk02","null","","","","learningBlock2","","","","This is a dep:","null","","","","",""
"","image-keyboard-response","258","1045808","0.0-8.0-1.3","LF","p0ob2fsrsp","1920","1080","de","lu04rk02","null","","","","","","","","learning/Slide84.JPG","null","","","","",""
"","html-keyboard-response","259","1046810","0.0-8.0-2.3","LF","p0ob2fsrsp","1920","1080","de","lu04rk02","null","","","","learningBlock2","","","","<div style=""font-size:60px;""> </div>","null","LF","learning/Slide84.JPG","This is a dep:","",""
"","html-keyboard-response","260","1047810","0.0-8.0-0.4","LF","p0ob2fsrsp","1920","1080","de","lu04rk02","null","","","","learningBlock2","","","","This is a bim:","null","","","","",""
"","image-keyboard-response","261","1048137","0.0-8.0-1.4","LF","p0ob2fsrsp","1920","1080","de","lu04rk02","null","","","","","","","","learning/Slide85.JPG","null","","","","",""
"","html-keyboard-response","262","1049138","0.0-8.0-2.4","LF","p0ob2fsrsp","1920","1080","de","lu04rk02","null","","","","learningBlock2","","","","<div style=""font-size:60px;""> </div>","null","LF","learning/Slide85.JPG","This is a bim:","",""
"","html-keyboard-response","263","1050138","0.0-8.0-0.5","LF","p0ob2fsrsp","1920","1080","de","lu04rk02","null","","","","learningBlock2","","","","This is a tob:","null","","","","",""
"","image-keyboard-response","264","1050464","0.0-8.0-1.5","LF","p0ob2fsrsp","1920","1080","de","lu04rk02","null","","","","","","","","learning/Slide86.JPG","null","","","","",""
"","html-keyboard-response","265","1051466","0.0-8.0-2.5","LF","p0ob2fsrsp","1920","1080","de","lu04rk02","null","","","","learningBlock2","","","","<div style=""font-size:60px;""> </div>","null","LF","learning/Slide86.JPG","This is a tob:","",""
"","html-keyboard-response","266","1052467","0.0-8.0-0.6","LF","p0ob2fsrsp","1920","1080","de","lu04rk02","null","","","","learningBlock2","","","","This is a wug:","null","","","","",""
"","image-keyboard-response","267","1052792","0.0-8.0-1.6","LF","p0ob2fsrsp","1920","1080","de","lu04rk02","null","","","","","","","","learning/Slide87.JPG","null","","","","",""
"","html-keyboard-response","268","1053794","0.0-8.0-2.6","LF","p0ob2fsrsp","1920","1080","de","lu04rk02","null","","","","learningBlock2","","","","<div style=""font-size:60px;""> </div>","null","LF","learning/Slide87.JPG","This is a wug:","",""
"","html-keyboard-response","269","1054795","0.0-8.0-0.7","LF","p0ob2fsrsp","1920","1080","de","lu04rk02","null","","","","learningBlock2","","","","This is a tob:","null","","","","",""
"","image-keyboard-response","270","1055121","0.0-8.0-1.7","LF","p0ob2fsrsp","1920","1080","de","lu04rk02","null","","","","","","","","learning/Slide88.JPG","null","","","","",""
"","html-keyboard-response","271","1056122","0.0-8.0-2.7","LF","p0ob2fsrsp","1920","1080","de","lu04rk02","null","","","","learningBlock2","","","","<div style=""font-size:60px;""> </div>","null","LF","learning/Slide88.JPG","This is a tob:","",""
"","html-keyboard-response","272","1057123","0.0-8.0-0.8","LF","p0ob2fsrsp","1920","1080","de","lu04rk02","null","","","","learningBlock2","","","","This is a bim:","null","","","","",""
"","image-keyboard-response","273","1057450","0.0-8.0-1.8","LF","p0ob2fsrsp","1920","1080","de","lu04rk02","null","","","","","","","","learning/Slide89.JPG","null","","","","",""
"","html-keyboard-response","274","1058451","0.0-8.0-2.8","LF","p0ob2fsrsp","1920","1080","de","lu04rk02","null","","","","learningBlock2","","","","<div style=""font-size:60px;""> </div>","null","LF","learning/Slide89.JPG","This is a bim:","",""
"","html-keyboard-response","275","1059452","0.0-8.0-0.9","LF","p0ob2fsrsp","1920","1080","de","lu04rk02","null","","","","learningBlock2","","","","This is a dep:","null","","","","",""
"","image-keyboard-response","276","1059779","0.0-8.0-1.9","LF","p0ob2fsrsp","1920","1080","de","lu04rk02","null","","","","","","","","learning/Slide90.JPG","null","","","","",""
"","html-keyboard-response","277","1060781","0.0-8.0-2.9","LF","p0ob2fsrsp","1920","1080","de","lu04rk02","null","","","","learningBlock2","","","","<div style=""font-size:60px;""> </div>","null","LF","learning/Slide90.JPG","This is a dep:","",""
"","html-keyboard-response","278","1061782","0.0-8.0-0.10","LF","p0ob2fsrsp","1920","1080","de","lu04rk02","null","","","","learningBlock2","","","","This is a wug:","null","","","","",""
"","image-keyboard-response","279","1062108","0.0-8.0-1.10","LF","p0ob2fsrsp","1920","1080","de","lu04rk02","null","","","","","","","","learning/Slide91.JPG","null","","","","",""
"","html-keyboard-response","280","1063109","0.0-8.0-2.10","LF","p0ob2fsrsp","1920","1080","de","lu04rk02","null","","","","learningBlock2","","","","<div style=""font-size:60px;""> </div>","null","LF","learning/Slide91.JPG","This is a wug:","",""
"","html-keyboard-response","281","1064110","0.0-8.0-0.11","LF","p0ob2fsrsp","1920","1080","de","lu04rk02","null","","","","learningBlock2","","","","This is a tob:","null","","","","",""
"","image-keyboard-response","282","1064437","0.0-8.0-1.11","LF","p0ob2fsrsp","1920","1080","de","lu04rk02","null","","","","","","","","learning/Slide92.JPG","null","","","","",""
"","html-keyboard-response","283","1065437","0.0-8.0-2.11","LF","p0ob2fsrsp","1920","1080","de","lu04rk02","null","","","","learningBlock2","","","","<div style=""font-size:60px;""> </div>","null","LF","learning/Slide92.JPG","This is a tob:","",""
"","html-keyboard-response","284","1066438","0.0-8.0-0.12","LF","p0ob2fsrsp","1920","1080","de","lu04rk02","null","","","","learningBlock2","","","","This is a bim:","null","","","","",""
"","image-keyboard-response","285","1066766","0.0-8.0-1.12","LF","p0ob2fsrsp","1920","1080","de","lu04rk02","null","","","","","","","","learning/Slide93.JPG","null","","","","",""
"","html-keyboard-response","286","1067766","0.0-8.0-2.12","LF","p0ob2fsrsp","1920","1080","de","lu04rk02","null","","","","learningBlock2","","","","<div style=""font-size:60px;""> </div>","null","LF","learning/Slide93.JPG","This is a bim:","",""
"","html-keyboard-response","287","1068768","0.0-8.0-0.13","LF","p0ob2fsrsp","1920","1080","de","lu04rk02","null","","","","learningBlock2","","","","This is a tob:","null","","","","",""
"","image-keyboard-response","288","1069095","0.0-8.0-1.13","LF","p0ob2fsrsp","1920","1080","de","lu04rk02","null","","","","","","","","learning/Slide94.JPG","null","","","","",""
"","html-keyboard-response","289","1070096","0.0-8.0-2.13","LF","p0ob2fsrsp","1920","1080","de","lu04rk02","null","","","","learningBlock2","","","","<div style=""font-size:60px;""> </div>","null","LF","learning/Slide94.JPG","This is a tob:","",""
"","html-keyboard-response","290","1071097","0.0-8.0-0.14","LF","p0ob2fsrsp","1920","1080","de","lu04rk02","null","","","","learningBlock2","","","","This is a wug:","null","","","","",""
"","image-keyboard-response","291","1071425","0.0-8.0-1.14","LF","p0ob2fsrsp","1920","1080","de","lu04rk02","null","","","","","","","","learning/Slide95.JPG","null","","","","",""
"","html-keyboard-response","292","1072426","0.0-8.0-2.14","LF","p0ob2fsrsp","1920","1080","de","lu04rk02","null","","","","learningBlock2","","","","<div style=""font-size:60px;""> </div>","null","LF","learning/Slide95.JPG","This is a wug:","",""
"","html-keyboard-response","293","1073426","0.0-8.0-0.15","LF","p0ob2fsrsp","1920","1080","de","lu04rk02","null","","","","learningBlock2","","","","This is a tob:","null","","","","",""
"","image-keyboard-response","294","1073753","0.0-8.0-1.15","LF","p0ob2fsrsp","1920","1080","de","lu04rk02","null","","","","","","","","learning/Slide96.JPG","null","","","","",""
"","html-keyboard-response","295","1074754","0.0-8.0-2.15","LF","p0ob2fsrsp","1920","1080","de","lu04rk02","null","","","","learningBlock2","","","","<div style=""font-size:60px;""> </div>","null","LF","learning/Slide96.JPG","This is a tob:","",""
"","html-keyboard-response","296","1075755","0.0-8.0-0.16","LF","p0ob2fsrsp","1920","1080","de","lu04rk02","null","","","","learningBlock2","","","","This is a dep:","null","","","","",""
"","image-keyboard-response","297","1076082","0.0-8.0-1.16","LF","p0ob2fsrsp","1920","1080","de","lu04rk02","null","","","","","","","","learning/Slide97.JPG","null","","","","",""
"","html-keyboard-response","298","1077081","0.0-8.0-2.16","LF","p0ob2fsrsp","1920","1080","de","lu04rk02","null","","","","learningBlock2","","","","<div style=""font-size:60px;""> </div>","null","LF","learning/Slide97.JPG","This is a dep:","",""
"","html-keyboard-response","299","1078083","0.0-8.0-0.17","LF","p0ob2fsrsp","1920","1080","de","lu04rk02","null","","","","learningBlock2","","","","This is a bim:","null","","","","",""
"","image-keyboard-response","300","1078410","0.0-8.0-1.17","LF","p0ob2fsrsp","1920","1080","de","lu04rk02","null","","","","","","","","learning/Slide98.JPG","null","","","","",""
"","html-keyboard-response","301","1079411","0.0-8.0-2.17","LF","p0ob2fsrsp","1920","1080","de","lu04rk02","null","","","","learningBlock2","","","","<div style=""font-size:60px;""> </div>","null","LF","learning/Slide98.JPG","This is a bim:","",""
"","html-keyboard-response","302","1080412","0.0-8.0-0.18","LF","p0ob2fsrsp","1920","1080","de","lu04rk02","null","","","","learningBlock2","","","","This is a dep:","null","","","","",""
"","image-keyboard-response","303","1080739","0.0-8.0-1.18","LF","p0ob2fsrsp","1920","1080","de","lu04rk02","null","","","","","","","","learning/Slide99.JPG","null","","","","",""
"","html-keyboard-response","304","1081740","0.0-8.0-2.18","LF","p0ob2fsrsp","1920","1080","de","lu04rk02","null","","","","learningBlock2","","","","<div style=""font-size:60px;""> </div>","null","LF","learning/Slide99.JPG","This is a dep:","",""
"","html-keyboard-response","305","1082741","0.0-8.0-0.19","LF","p0ob2fsrsp","1920","1080","de","lu04rk02","null","","","","learningBlock2","","","","This is a bim:","null","","","","",""
"","image-keyboard-response","306","1083067","0.0-8.0-1.19","LF","p0ob2fsrsp","1920","1080","de","lu04rk02","null","","","","","","","","learning/Slide100.JPG","null","","","","",""
"","html-keyboard-response","307","1084069","0.0-8.0-2.19","LF","p0ob2fsrsp","1920","1080","de","lu04rk02","null","","","","learningBlock2","","","","<div style=""font-size:60px;""> </div>","null","LF","learning/Slide100.JPG","This is a bim:","",""
"","html-keyboard-response","308","1085071","0.0-8.0-0.20","LF","p0ob2fsrsp","1920","1080","de","lu04rk02","null","","","","learningBlock2","","","","This is a tob:","null","","","","",""
"","image-keyboard-response","309","1085397","0.0-8.0-1.20","LF","p0ob2fsrsp","1920","1080","de","lu04rk02","null","","","","","","","","learning/Slide101.JPG","null","","","","",""
"","html-keyboard-response","310","1086398","0.0-8.0-2.20","LF","p0ob2fsrsp","1920","1080","de","lu04rk02","null","","","","learningBlock2","","","","<div style=""font-size:60px;""> </div>","null","LF","learning/Slide101.JPG","This is a tob:","",""
"","html-keyboard-response","311","1087397","0.0-8.0-0.21","LF","p0ob2fsrsp","1920","1080","de","lu04rk02","null","","","","learningBlock2","","","","This is a bim:","null","","","","",""
"","image-keyboard-response","312","1087725","0.0-8.0-1.21","LF","p0ob2fsrsp","1920","1080","de","lu04rk02","null","","","","","","","","learning/Slide102.JPG","null","","","","",""
"","html-keyboard-response","313","1088725","0.0-8.0-2.21","LF","p0ob2fsrsp","1920","1080","de","lu04rk02","null","","","","learningBlock2","","","","<div style=""font-size:60px;""> </div>","null","LF","learning/Slide102.JPG","This is a bim:","",""
"","html-keyboard-response","314","1089725","0.0-8.0-0.22","LF","p0ob2fsrsp","1920","1080","de","lu04rk02","null","","","","learningBlock2","","","","This is a dep:","null","","","","",""
"","image-keyboard-response","315","1090053","0.0-8.0-1.22","LF","p0ob2fsrsp","1920","1080","de","lu04rk02","null","","","","","","","","learning/Slide103.JPG","null","","","","",""
"","html-keyboard-response","316","1091054","0.0-8.0-2.22","LF","p0ob2fsrsp","1920","1080","de","lu04rk02","null","","","","learningBlock2","","","","<div style=""font-size:60px;""> </div>","null","LF","learning/Slide103.JPG","This is a dep:","",""
"","html-keyboard-response","317","1092055","0.0-8.0-0.23","LF","p0ob2fsrsp","1920","1080","de","lu04rk02","null","","","","learningBlock2","","","","This is a tob:","null","","","","",""
"","image-keyboard-response","318","1092381","0.0-8.0-1.23","LF","p0ob2fsrsp","1920","1080","de","lu04rk02","null","","","","","","","","learning/Slide104.JPG","null","","","","",""
"","html-keyboard-response","319","1093383","0.0-8.0-2.23","LF","p0ob2fsrsp","1920","1080","de","lu04rk02","null","","","","learningBlock2","","","","<div style=""font-size:60px;""> </div>","null","LF","learning/Slide104.JPG","This is a tob:","",""
"","html-keyboard-response","320","1094383","0.0-8.0-0.24","LF","p0ob2fsrsp","1920","1080","de","lu04rk02","null","","","","learningBlock2","","","","This is a dep:","null","","","","",""
"","image-keyboard-response","321","1094709","0.0-8.0-1.24","LF","p0ob2fsrsp","1920","1080","de","lu04rk02","null","","","","","","","","learning/Slide105.JPG","null","","","","",""
"","html-keyboard-response","322","1095710","0.0-8.0-2.24","LF","p0ob2fsrsp","1920","1080","de","lu04rk02","null","","","","learningBlock2","","","","<div style=""font-size:60px;""> </div>","null","LF","learning/Slide105.JPG","This is a dep:","",""
"","html-keyboard-response","323","1096710","0.0-8.0-0.25","LF","p0ob2fsrsp","1920","1080","de","lu04rk02","null","","","","learningBlock2","","","","This is a wug:","null","","","","",""
"","image-keyboard-response","324","1097038","0.0-8.0-1.25","LF","p0ob2fsrsp","1920","1080","de","lu04rk02","null","","","","","","","","learning/Slide106.JPG","null","","","","",""
"","html-keyboard-response","325","1098039","0.0-8.0-2.25","LF","p0ob2fsrsp","1920","1080","de","lu04rk02","null","","","","learningBlock2","","","","<div style=""font-size:60px;""> </div>","null","LF","learning/Slide106.JPG","This is a wug:","",""
"","html-keyboard-response","326","1099040","0.0-8.0-0.26","LF","p0ob2fsrsp","1920","1080","de","lu04rk02","null","","","","learningBlock2","","","","This is a bim:","null","","","","",""
"","image-keyboard-response","327","1099366","0.0-8.0-1.26","LF","p0ob2fsrsp","1920","1080","de","lu04rk02","null","","","","","","","","learning/Slide107.JPG","null","","","","",""
"","html-keyboard-response","328","1100367","0.0-8.0-2.26","LF","p0ob2fsrsp","1920","1080","de","lu04rk02","null","","","","learningBlock2","","","","<div style=""font-size:60px;""> </div>","null","LF","learning/Slide107.JPG","This is a bim:","",""
"","html-keyboard-response","329","1101367","0.0-8.0-0.27","LF","p0ob2fsrsp","1920","1080","de","lu04rk02","null","","","","learningBlock2","","","","This is a dep:","null","","","","",""
"","image-keyboard-response","330","1101694","0.0-8.0-1.27","LF","p0ob2fsrsp","1920","1080","de","lu04rk02","null","","","","","","","","learning/Slide108.JPG","null","","","","",""
"","html-keyboard-response","331","1102695","0.0-8.0-2.27","LF","p0ob2fsrsp","1920","1080","de","lu04rk02","null","","","","learningBlock2","","","","<div style=""font-size:60px;""> </div>","null","LF","learning/Slide108.JPG","This is a dep:","",""
"","html-keyboard-response","332","1103696","0.0-8.0-0.28","LF","p0ob2fsrsp","1920","1080","de","lu04rk02","null","","","","learningBlock2","","","","This is a wug:","null","","","","",""
"","image-keyboard-response","333","1104022","0.0-8.0-1.28","LF","p0ob2fsrsp","1920","1080","de","lu04rk02","null","","","","","","","","learning/Slide109.JPG","null","","","","",""
"","html-keyboard-response","334","1105022","0.0-8.0-2.28","LF","p0ob2fsrsp","1920","1080","de","lu04rk02","null","","","","learningBlock2","","","","<div style=""font-size:60px;""> </div>","null","LF","learning/Slide109.JPG","This is a wug:","",""
"","html-keyboard-response","335","1106023","0.0-8.0-0.29","LF","p0ob2fsrsp","1920","1080","de","lu04rk02","null","","","","learningBlock2","","","","This is a bim:","null","","","","",""
"","image-keyboard-response","336","1106350","0.0-8.0-1.29","LF","p0ob2fsrsp","1920","1080","de","lu04rk02","null","","","","","","","","learning/Slide110.JPG","null","","","","",""
"","html-keyboard-response","337","1107351","0.0-8.0-2.29","LF","p0ob2fsrsp","1920","1080","de","lu04rk02","null","","","","learningBlock2","","","","<div style=""font-size:60px;""> </div>","null","LF","learning/Slide110.JPG","This is a bim:","",""
"","html-keyboard-response","338","1108352","0.0-8.0-0.30","LF","p0ob2fsrsp","1920","1080","de","lu04rk02","null","","","","learningBlock2","","","","This is a tob:","null","","","","",""
"","image-keyboard-response","339","1108678","0.0-8.0-1.30","LF","p0ob2fsrsp","1920","1080","de","lu04rk02","null","","","","","","","","learning/Slide111.JPG","null","","","","",""
"","html-keyboard-response","340","1109679","0.0-8.0-2.30","LF","p0ob2fsrsp","1920","1080","de","lu04rk02","null","","","","learningBlock2","","","","<div style=""font-size:60px;""> </div>","null","LF","learning/Slide111.JPG","This is a tob:","",""
"","html-keyboard-response","341","1110680","0.0-8.0-0.31","LF","p0ob2fsrsp","1920","1080","de","lu04rk02","null","","","","learningBlock2","","","","This is a wug:","null","","","","",""
"","image-keyboard-response","342","1111007","0.0-8.0-1.31","LF","p0ob2fsrsp","1920","1080","de","lu04rk02","null","","","","","","","","learning/Slide112.JPG","null","","","","",""
"","html-keyboard-response","343","1112008","0.0-8.0-2.31","LF","p0ob2fsrsp","1920","1080","de","lu04rk02","null","","","","learningBlock2","","","","<div style=""font-size:60px;""> </div>","null","LF","learning/Slide112.JPG","This is a wug:","",""
"","html-keyboard-response","344","1113009","0.0-8.0-0.32","LF","p0ob2fsrsp","1920","1080","de","lu04rk02","null","","","","learningBlock2","","","","This is a tob:","null","","","","",""
"","image-keyboard-response","345","1113336","0.0-8.0-1.32","LF","p0ob2fsrsp","1920","1080","de","lu04rk02","null","","","","","","","","learning/Slide113.JPG","null","","","","",""
"","html-keyboard-response","346","1114336","0.0-8.0-2.32","LF","p0ob2fsrsp","1920","1080","de","lu04rk02","null","","","","learningBlock2","","","","<div style=""font-size:60px;""> </div>","null","LF","learning/Slide113.JPG","This is a tob:","",""
"","html-keyboard-response","347","1115337","0.0-8.0-0.33","LF","p0ob2fsrsp","1920","1080","de","lu04rk02","null","","","","learningBlock2","","","","This is a wug:","null","","","","",""
"","image-keyboard-response","348","1115664","0.0-8.0-1.33","LF","p0ob2fsrsp","1920","1080","de","lu04rk02","null","","","","","","","","learning/Slide114.JPG","null","","","","",""
"","html-keyboard-response","349","1116666","0.0-8.0-2.33","LF","p0ob2fsrsp","1920","1080","de","lu04rk02","null","","","","learningBlock2","","","","<div style=""font-size:60px;""> </div>","null","LF","learning/Slide114.JPG","This is a wug:","",""
"","html-keyboard-response","350","1117667","0.0-8.0-0.34","LF","p0ob2fsrsp","1920","1080","de","lu04rk02","null","","","","learningBlock2","","","","This is a bim:","null","","","","",""
"","image-keyboard-response","351","1117995","0.0-8.0-1.34","LF","p0ob2fsrsp","1920","1080","de","lu04rk02","null","","","","","","","","learning/Slide115.JPG","null","","","","",""
"","html-keyboard-response","352","1118995","0.0-8.0-2.34","LF","p0ob2fsrsp","1920","1080","de","lu04rk02","null","","","","learningBlock2","","","","<div style=""font-size:60px;""> </div>","null","LF","learning/Slide115.JPG","This is a bim:","",""
"","html-keyboard-response","353","1119996","0.0-8.0-0.35","LF","p0ob2fsrsp","1920","1080","de","lu04rk02","null","","","","learningBlock2","","","","This is a dep:","null","","","","",""
"","image-keyboard-response","354","1120322","0.0-8.0-1.35","LF","p0ob2fsrsp","1920","1080","de","lu04rk02","null","","","","","","","","learning/Slide116.JPG","null","","","","",""
"","html-keyboard-response","355","1121324","0.0-8.0-2.35","LF","p0ob2fsrsp","1920","1080","de","lu04rk02","null","","","","learningBlock2","","","","<div style=""font-size:60px;""> </div>","null","LF","learning/Slide116.JPG","This is a dep:","",""
"","html-keyboard-response","356","1122324","0.0-8.0-0.36","LF","p0ob2fsrsp","1920","1080","de","lu04rk02","null","","","","learningBlock2","","","","This is a tob:","null","","","","",""
"","image-keyboard-response","357","1122652","0.0-8.0-1.36","LF","p0ob2fsrsp","1920","1080","de","lu04rk02","null","","","","","","","","learning/Slide117.JPG","null","","","","",""
"","html-keyboard-response","358","1123653","0.0-8.0-2.36","LF","p0ob2fsrsp","1920","1080","de","lu04rk02","null","","","","learningBlock2","","","","<div style=""font-size:60px;""> </div>","null","LF","learning/Slide117.JPG","This is a tob:","",""
"","html-keyboard-response","359","1124653","0.0-8.0-0.37","LF","p0ob2fsrsp","1920","1080","de","lu04rk02","null","","","","learningBlock2","","","","This is a dep:","null","","","","",""
"","image-keyboard-response","360","1124980","0.0-8.0-1.37","LF","p0ob2fsrsp","1920","1080","de","lu04rk02","null","","","","","","","","learning/Slide118.JPG","null","","","","",""
"","html-keyboard-response","361","1125980","0.0-8.0-2.37","LF","p0ob2fsrsp","1920","1080","de","lu04rk02","null","","","","learningBlock2","","","","<div style=""font-size:60px;""> </div>","null","LF","learning/Slide118.JPG","This is a dep:","",""
"","html-keyboard-response","362","1126981","0.0-8.0-0.38","LF","p0ob2fsrsp","1920","1080","de","lu04rk02","null","","","","learningBlock2","","","","This is a wug:","null","","","","",""
"","image-keyboard-response","363","1127308","0.0-8.0-1.38","LF","p0ob2fsrsp","1920","1080","de","lu04rk02","null","","","","","","","","learning/Slide119.JPG","null","","","","",""
"","html-keyboard-response","364","1128309","0.0-8.0-2.38","LF","p0ob2fsrsp","1920","1080","de","lu04rk02","null","","","","learningBlock2","","","","<div style=""font-size:60px;""> </div>","null","LF","learning/Slide119.JPG","This is a wug:","",""
"","html-keyboard-response","365","1129310","0.0-8.0-0.39","LF","p0ob2fsrsp","1920","1080","de","lu04rk02","null","","","","learningBlock2","","","","This is a dep:","null","","","","",""
"","image-keyboard-response","366","1129636","0.0-8.0-1.39","LF","p0ob2fsrsp","1920","1080","de","lu04rk02","null","","","","","","","","learning/Slide120.JPG","null","","","","",""
"","html-keyboard-response","367","1130635","0.0-8.0-2.39","LF","p0ob2fsrsp","1920","1080","de","lu04rk02","null","","","","learningBlock2","","","","<div style=""font-size:60px;""> </div>","null","LF","learning/Slide120.JPG","This is a dep:","",""
"","html-keyboard-response","368","1131636","0.0-8.0-0.40","LF","p0ob2fsrsp","1920","1080","de","lu04rk02","null","","","","learningBlock2","","","","This is a bim:","null","","","","",""
"","image-keyboard-response","369","1131963","0.0-8.0-1.40","LF","p0ob2fsrsp","1920","1080","de","lu04rk02","null","","","","","","","","learning/Slide121.JPG","null","","","","",""
"","html-keyboard-response","370","1132965","0.0-8.0-2.40","LF","p0ob2fsrsp","1920","1080","de","lu04rk02","null","","","","learningBlock2","","","","<div style=""font-size:60px;""> </div>","null","LF","learning/Slide121.JPG","This is a bim:","",""
"","html-keyboard-response","371","1133965","0.0-8.0-0.41","LF","p0ob2fsrsp","1920","1080","de","lu04rk02","null","","","","learningBlock2","","","","This is a wug:","null","","","","",""
"","image-keyboard-response","372","1134293","0.0-8.0-1.41","LF","p0ob2fsrsp","1920","1080","de","lu04rk02","null","","","","","","","","learning/Slide122.JPG","null","","","","",""
"","html-keyboard-response","373","1135293","0.0-8.0-2.41","LF","p0ob2fsrsp","1920","1080","de","lu04rk02","null","","","","learningBlock2","","","","<div style=""font-size:60px;""> </div>","null","LF","learning/Slide122.JPG","This is a wug:","",""
"","html-keyboard-response","374","1136294","0.0-8.0-0.42","LF","p0ob2fsrsp","1920","1080","de","lu04rk02","null","","","","learningBlock2","","","","This is a bim:","null","","","","",""
"","image-keyboard-response","375","1136621","0.0-8.0-1.42","LF","p0ob2fsrsp","1920","1080","de","lu04rk02","null","","","","","","","","learning/Slide123.JPG","null","","","","",""
"","html-keyboard-response","376","1137621","0.0-8.0-2.42","LF","p0ob2fsrsp","1920","1080","de","lu04rk02","null","","","","learningBlock2","","","","<div style=""font-size:60px;""> </div>","null","LF","learning/Slide123.JPG","This is a bim:","",""
"","html-keyboard-response","377","1138622","0.0-8.0-0.43","LF","p0ob2fsrsp","1920","1080","de","lu04rk02","null","","","","learningBlock2","","","","This is a tob:","null","","","","",""
"","image-keyboard-response","378","1138948","0.0-8.0-1.43","LF","p0ob2fsrsp","1920","1080","de","lu04rk02","null","","","","","","","","learning/Slide124.JPG","null","","","","",""
"","html-keyboard-response","379","1139950","0.0-8.0-2.43","LF","p0ob2fsrsp","1920","1080","de","lu04rk02","null","","","","learningBlock2","","","","<div style=""font-size:60px;""> </div>","null","LF","learning/Slide124.JPG","This is a tob:","",""
"","html-keyboard-response","380","1140950","0.0-8.0-0.44","LF","p0ob2fsrsp","1920","1080","de","lu04rk02","null","","","","learningBlock2","","","","This is a bim:","null","","","","",""
"","image-keyboard-response","381","1141276","0.0-8.0-1.44","LF","p0ob2fsrsp","1920","1080","de","lu04rk02","null","","","","","","","","learning/Slide125.JPG","null","","","","",""
"","html-keyboard-response","382","1142277","0.0-8.0-2.44","LF","p0ob2fsrsp","1920","1080","de","lu04rk02","null","","","","learningBlock2","","","","<div style=""font-size:60px;""> </div>","null","LF","learning/Slide125.JPG","This is a bim:","",""
"","html-keyboard-response","383","1143278","0.0-8.0-0.45","LF","p0ob2fsrsp","1920","1080","de","lu04rk02","null","","","","learningBlock2","","","","This is a tob:","null","","","","",""
"","image-keyboard-response","384","1143605","0.0-8.0-1.45","LF","p0ob2fsrsp","1920","1080","de","lu04rk02","null","","","","","","","","learning/Slide126.JPG","null","","","","",""
"","html-keyboard-response","385","1144605","0.0-8.0-2.45","LF","p0ob2fsrsp","1920","1080","de","lu04rk02","null","","","","learningBlock2","","","","<div style=""font-size:60px;""> </div>","null","LF","learning/Slide126.JPG","This is a tob:","",""
"","html-keyboard-response","386","1145605","0.0-8.0-0.46","LF","p0ob2fsrsp","1920","1080","de","lu04rk02","null","","","","learningBlock2","","","","This is a dep:","null","","","","",""
"","image-keyboard-response","387","1145932","0.0-8.0-1.46","LF","p0ob2fsrsp","1920","1080","de","lu04rk02","null","","","","","","","","learning/Slide127.JPG","null","","","","",""
"","html-keyboard-response","388","1146935","0.0-8.0-2.46","LF","p0ob2fsrsp","1920","1080","de","lu04rk02","null","","","","learningBlock2","","","","<div style=""font-size:60px;""> </div>","null","LF","learning/Slide127.JPG","This is a dep:","",""
"","html-keyboard-response","389","1147936","0.0-8.0-0.47","LF","p0ob2fsrsp","1920","1080","de","lu04rk02","null","","","","learningBlock2","","","","This is a wug:","null","","","","",""
"","image-keyboard-response","390","1148263","0.0-8.0-1.47","LF","p0ob2fsrsp","1920","1080","de","lu04rk02","null","","","","","","","","learning/Slide128.JPG","null","","","","",""
"","html-keyboard-response","391","1149263","0.0-8.0-2.47","LF","p0ob2fsrsp","1920","1080","de","lu04rk02","null","","","","learningBlock2","","","","<div style=""font-size:60px;""> </div>","null","LF","learning/Slide128.JPG","This is a wug:","",""
"","html-keyboard-response","392","1150265","0.0-8.0-0.48","LF","p0ob2fsrsp","1920","1080","de","lu04rk02","null","","","","learningBlock2","","","","This is a tob:","null","","","","",""
"","image-keyboard-response","393","1150593","0.0-8.0-1.48","LF","p0ob2fsrsp","1920","1080","de","lu04rk02","null","","","","","","","","learning/Slide129.JPG","null","","","","",""
"","html-keyboard-response","394","1151593","0.0-8.0-2.48","LF","p0ob2fsrsp","1920","1080","de","lu04rk02","null","","","","learningBlock2","","","","<div style=""font-size:60px;""> </div>","null","LF","learning/Slide129.JPG","This is a tob:","",""
"","html-keyboard-response","395","1152594","0.0-8.0-0.49","LF","p0ob2fsrsp","1920","1080","de","lu04rk02","null","","","","learningBlock2","","","","This is a wug:","null","","","","",""
"","image-keyboard-response","396","1152922","0.0-8.0-1.49","LF","p0ob2fsrsp","1920","1080","de","lu04rk02","null","","","","","","","","learning/Slide130.JPG","null","","","","",""
"","html-keyboard-response","397","1153922","0.0-8.0-2.49","LF","p0ob2fsrsp","1920","1080","de","lu04rk02","null","","","","learningBlock2","","","","<div style=""font-size:60px;""> </div>","null","LF","learning/Slide130.JPG","This is a wug:","",""
"","html-keyboard-response","398","1154923","0.0-8.0-0.50","LF","p0ob2fsrsp","1920","1080","de","lu04rk02","null","","","","learningBlock2","","","","This is a bim:","null","","","","",""
"","image-keyboard-response","399","1155250","0.0-8.0-1.50","LF","p0ob2fsrsp","1920","1080","de","lu04rk02","null","","","","","","","","learning/Slide131.JPG","null","","","","",""
"","html-keyboard-response","400","1156251","0.0-8.0-2.50","LF","p0ob2fsrsp","1920","1080","de","lu04rk02","null","","","","learningBlock2","","","","<div style=""font-size:60px;""> </div>","null","LF","learning/Slide131.JPG","This is a bim:","",""
"","html-keyboard-response","401","1157253","0.0-8.0-0.51","LF","p0ob2fsrsp","1920","1080","de","lu04rk02","null","","","","learningBlock2","","","","This is a dep:","null","","","","",""
"","image-keyboard-response","402","1157581","0.0-8.0-1.51","LF","p0ob2fsrsp","1920","1080","de","lu04rk02","null","","","","","","","","learning/Slide132.JPG","null","","","","",""
"","html-keyboard-response","403","1158582","0.0-8.0-2.51","LF","p0ob2fsrsp","1920","1080","de","lu04rk02","null","","","","learningBlock2","","","","<div style=""font-size:60px;""> </div>","null","LF","learning/Slide132.JPG","This is a dep:","",""
"","html-keyboard-response","404","1159583","0.0-8.0-0.52","LF","p0ob2fsrsp","1920","1080","de","lu04rk02","null","","","","learningBlock2","","","","This is a tob:","null","","","","",""
"","image-keyboard-response","405","1159909","0.0-8.0-1.52","LF","p0ob2fsrsp","1920","1080","de","lu04rk02","null","","","","","","","","learning/Slide133.JPG","null","","","","",""
"","html-keyboard-response","406","1160908","0.0-8.0-2.52","LF","p0ob2fsrsp","1920","1080","de","lu04rk02","null","","","","learningBlock2","","","","<div style=""font-size:60px;""> </div>","null","LF","learning/Slide133.JPG","This is a tob:","",""
"","html-keyboard-response","407","1161910","0.0-8.0-0.53","LF","p0ob2fsrsp","1920","1080","de","lu04rk02","null","","","","learningBlock2","","","","This is a dep:","null","","","","",""
"","image-keyboard-response","408","1162239","0.0-8.0-1.53","LF","p0ob2fsrsp","1920","1080","de","lu04rk02","null","","","","","","","","learning/Slide134.JPG","null","","","","",""
"","html-keyboard-response","409","1163238","0.0-8.0-2.53","LF","p0ob2fsrsp","1920","1080","de","lu04rk02","null","","","","learningBlock2","","","","<div style=""font-size:60px;""> </div>","null","LF","learning/Slide134.JPG","This is a dep:","",""
"","html-keyboard-response","410","1164240","0.0-8.0-0.54","LF","p0ob2fsrsp","1920","1080","de","lu04rk02","null","","","","learningBlock2","","","","This is a tob:","null","","","","",""
"","image-keyboard-response","411","1164569","0.0-8.0-1.54","LF","p0ob2fsrsp","1920","1080","de","lu04rk02","null","","","","","","","","learning/Slide135.JPG","null","","","","",""
"","html-keyboard-response","412","1165569","0.0-8.0-2.54","LF","p0ob2fsrsp","1920","1080","de","lu04rk02","null","","","","learningBlock2","","","","<div style=""font-size:60px;""> </div>","null","LF","learning/Slide135.JPG","This is a tob:","",""
"","html-keyboard-response","413","1166570","0.0-8.0-0.55","LF","p0ob2fsrsp","1920","1080","de","lu04rk02","null","","","","learningBlock2","","","","This is a wug:","null","","","","",""
"","image-keyboard-response","414","1166897","0.0-8.0-1.55","LF","p0ob2fsrsp","1920","1080","de","lu04rk02","null","","","","","","","","learning/Slide136.JPG","null","","","","",""
"","html-keyboard-response","415","1167898","0.0-8.0-2.55","LF","p0ob2fsrsp","1920","1080","de","lu04rk02","null","","","","learningBlock2","","","","<div style=""font-size:60px;""> </div>","null","LF","learning/Slide136.JPG","This is a wug:","",""
"","html-keyboard-response","416","1168900","0.0-8.0-0.56","LF","p0ob2fsrsp","1920","1080","de","lu04rk02","null","","","","learningBlock2","","","","This is a tob:","null","","","","",""
"","image-keyboard-response","417","1169229","0.0-8.0-1.56","LF","p0ob2fsrsp","1920","1080","de","lu04rk02","null","","","","","","","","learning/Slide137.JPG","null","","","","",""
"","html-keyboard-response","418","1170230","0.0-8.0-2.56","LF","p0ob2fsrsp","1920","1080","de","lu04rk02","null","","","","learningBlock2","","","","<div style=""font-size:60px;""> </div>","null","LF","learning/Slide137.JPG","This is a tob:","",""
"","html-keyboard-response","419","1171230","0.0-8.0-0.57","LF","p0ob2fsrsp","1920","1080","de","lu04rk02","null","","","","learningBlock2","","","","This is a bim:","null","","","","",""
"","image-keyboard-response","420","1171558","0.0-8.0-1.57","LF","p0ob2fsrsp","1920","1080","de","lu04rk02","null","","","","","","","","learning/Slide138.JPG","null","","","","",""
"","html-keyboard-response","421","1172558","0.0-8.0-2.57","LF","p0ob2fsrsp","1920","1080","de","lu04rk02","null","","","","learningBlock2","","","","<div style=""font-size:60px;""> </div>","null","LF","learning/Slide138.JPG","This is a bim:","",""
"","html-keyboard-response","422","1173559","0.0-8.0-0.58","LF","p0ob2fsrsp","1920","1080","de","lu04rk02","null","","","","learningBlock2","","","","This is a wug:","null","","","","",""
"","image-keyboard-response","423","1173885","0.0-8.0-1.58","LF","p0ob2fsrsp","1920","1080","de","lu04rk02","null","","","","","","","","learning/Slide139.JPG","null","","","","",""
"","html-keyboard-response","424","1174887","0.0-8.0-2.58","LF","p0ob2fsrsp","1920","1080","de","lu04rk02","null","","","","learningBlock2","","","","<div style=""font-size:60px;""> </div>","null","LF","learning/Slide139.JPG","This is a wug:","",""
"","html-keyboard-response","425","1175888","0.0-8.0-0.59","LF","p0ob2fsrsp","1920","1080","de","lu04rk02","null","","","","learningBlock2","","","","This is a dep:","null","","","","",""
"","image-keyboard-response","426","1176216","0.0-8.0-1.59","LF","p0ob2fsrsp","1920","1080","de","lu04rk02","null","","","","","","","","learning/Slide140.JPG","null","","","","",""
"","html-keyboard-response","427","1177217","0.0-8.0-2.59","LF","p0ob2fsrsp","1920","1080","de","lu04rk02","null","","","","learningBlock2","","","","<div style=""font-size:60px;""> </div>","null","LF","learning/Slide140.JPG","This is a dep:","",""
"","html-keyboard-response","428","1178218","0.0-8.0-0.60","LF","p0ob2fsrsp","1920","1080","de","lu04rk02","null","","","","learningBlock2","","","","This is a tob:","null","","","","",""
"","image-keyboard-response","429","1178544","0.0-8.0-1.60","LF","p0ob2fsrsp","1920","1080","de","lu04rk02","null","","","","","","","","learning/Slide141.JPG","null","","","","",""
"","html-keyboard-response","430","1179543","0.0-8.0-2.60","LF","p0ob2fsrsp","1920","1080","de","lu04rk02","null","","","","learningBlock2","","","","<div style=""font-size:60px;""> </div>","null","LF","learning/Slide141.JPG","This is a tob:","",""
"","html-keyboard-response","431","1180544","0.0-8.0-0.61","LF","p0ob2fsrsp","1920","1080","de","lu04rk02","null","","","","learningBlock2","","","","This is a wug:","null","","","","",""
"","image-keyboard-response","432","1180871","0.0-8.0-1.61","LF","p0ob2fsrsp","1920","1080","de","lu04rk02","null","","","","","","","","learning/Slide142.JPG","null","","","","",""
"","html-keyboard-response","433","1181871","0.0-8.0-2.61","LF","p0ob2fsrsp","1920","1080","de","lu04rk02","null","","","","learningBlock2","","","","<div style=""font-size:60px;""> </div>","null","LF","learning/Slide142.JPG","This is a wug:","",""
"","html-keyboard-response","434","1182872","0.0-8.0-0.62","LF","p0ob2fsrsp","1920","1080","de","lu04rk02","null","","","","learningBlock2","","","","This is a bim:","null","","","","",""
"","image-keyboard-response","435","1183198","0.0-8.0-1.62","LF","p0ob2fsrsp","1920","1080","de","lu04rk02","null","","","","","","","","learning/Slide143.JPG","null","","","","",""
"","html-keyboard-response","436","1184199","0.0-8.0-2.62","LF","p0ob2fsrsp","1920","1080","de","lu04rk02","null","","","","learningBlock2","","","","<div style=""font-size:60px;""> </div>","null","LF","learning/Slide143.JPG","This is a bim:","",""
"","html-keyboard-response","437","1185199","0.0-8.0-0.63","LF","p0ob2fsrsp","1920","1080","de","lu04rk02","null","","","","learningBlock2","","","","This is a dep:","null","","","","",""
"","image-keyboard-response","438","1185527","0.0-8.0-1.63","LF","p0ob2fsrsp","1920","1080","de","lu04rk02","null","","","","","","","","learning/Slide144.JPG","null","","","","",""
"","html-keyboard-response","439","1186527","0.0-8.0-2.63","LF","p0ob2fsrsp","1920","1080","de","lu04rk02","null","","","","learningBlock2","","","","<div style=""font-size:60px;""> </div>","null","LF","learning/Slide144.JPG","This is a dep:","",""
"","html-keyboard-response","440","1187528","0.0-8.0-0.64","LF","p0ob2fsrsp","1920","1080","de","lu04rk02","null","","","","learningBlock2","","","","This is a bim:","null","","","","",""
"","image-keyboard-response","441","1187855","0.0-8.0-1.64","LF","p0ob2fsrsp","1920","1080","de","lu04rk02","null","","","","","","","","learning/Slide145.JPG","null","","","","",""
"","html-keyboard-response","442","1188855","0.0-8.0-2.64","LF","p0ob2fsrsp","1920","1080","de","lu04rk02","null","","","","learningBlock2","","","","<div style=""font-size:60px;""> </div>","null","LF","learning/Slide145.JPG","This is a bim:","",""
"","html-keyboard-response","443","1189856","0.0-8.0-0.65","LF","p0ob2fsrsp","1920","1080","de","lu04rk02","null","","","","learningBlock2","","","","This is a tob:","null","","","","",""
"","image-keyboard-response","444","1190181","0.0-8.0-1.65","LF","p0ob2fsrsp","1920","1080","de","lu04rk02","null","","","","","","","","learning/Slide146.JPG","null","","","","",""
"","html-keyboard-response","445","1191182","0.0-8.0-2.65","LF","p0ob2fsrsp","1920","1080","de","lu04rk02","null","","","","learningBlock2","","","","<div style=""font-size:60px;""> </div>","null","LF","learning/Slide146.JPG","This is a tob:","",""
"","html-keyboard-response","446","1192184","0.0-8.0-0.66","LF","p0ob2fsrsp","1920","1080","de","lu04rk02","null","","","","learningBlock2","","","","This is a wug:","null","","","","",""
"","image-keyboard-response","447","1192509","0.0-8.0-1.66","LF","p0ob2fsrsp","1920","1080","de","lu04rk02","null","","","","","","","","learning/Slide147.JPG","null","","","","",""
"","html-keyboard-response","448","1193510","0.0-8.0-2.66","LF","p0ob2fsrsp","1920","1080","de","lu04rk02","null","","","","learningBlock2","","","","<div style=""font-size:60px;""> </div>","null","LF","learning/Slide147.JPG","This is a wug:","",""
"","html-keyboard-response","449","1194510","0.0-8.0-0.67","LF","p0ob2fsrsp","1920","1080","de","lu04rk02","null","","","","learningBlock2","","","","This is a bim:","null","","","","",""
"","image-keyboard-response","450","1194836","0.0-8.0-1.67","LF","p0ob2fsrsp","1920","1080","de","lu04rk02","null","","","","","","","","learning/Slide148.JPG","null","","","","",""
"","html-keyboard-response","451","1195836","0.0-8.0-2.67","LF","p0ob2fsrsp","1920","1080","de","lu04rk02","null","","","","learningBlock2","","","","<div style=""font-size:60px;""> </div>","null","LF","learning/Slide148.JPG","This is a bim:","",""
"","html-keyboard-response","452","1196836","0.0-8.0-0.68","LF","p0ob2fsrsp","1920","1080","de","lu04rk02","null","","","","learningBlock2","","","","This is a dep:","null","","","","",""
"","image-keyboard-response","453","1197163","0.0-8.0-1.68","LF","p0ob2fsrsp","1920","1080","de","lu04rk02","null","","","","","","","","learning/Slide149.JPG","null","","","","",""
"","html-keyboard-response","454","1198164","0.0-8.0-2.68","LF","p0ob2fsrsp","1920","1080","de","lu04rk02","null","","","","learningBlock2","","","","<div style=""font-size:60px;""> </div>","null","LF","learning/Slide149.JPG","This is a dep:","",""
"","html-keyboard-response","455","1199165","0.0-8.0-0.69","LF","p0ob2fsrsp","1920","1080","de","lu04rk02","null","","","","learningBlock2","","","","This is a wug:","null","","","","",""
"","image-keyboard-response","456","1199493","0.0-8.0-1.69","LF","p0ob2fsrsp","1920","1080","de","lu04rk02","null","","","","","","","","learning/Slide150.JPG","null","","","","",""
"","html-keyboard-response","457","1200493","0.0-8.0-2.69","LF","p0ob2fsrsp","1920","1080","de","lu04rk02","null","","","","learningBlock2","","","","<div style=""font-size:60px;""> </div>","null","LF","learning/Slide150.JPG","This is a wug:","",""
"","html-keyboard-response","458","1201494","0.0-8.0-0.70","LF","p0ob2fsrsp","1920","1080","de","lu04rk02","null","","","","learningBlock2","","","","This is a dep:","null","","","","",""
"","image-keyboard-response","459","1201823","0.0-8.0-1.70","LF","p0ob2fsrsp","1920","1080","de","lu04rk02","null","","","","","","","","learning/Slide151.JPG","null","","","","",""
"","html-keyboard-response","460","1202824","0.0-8.0-2.70","LF","p0ob2fsrsp","1920","1080","de","lu04rk02","null","","","","learningBlock2","","","","<div style=""font-size:60px;""> </div>","null","LF","learning/Slide151.JPG","This is a dep:","",""
"","html-keyboard-response","461","1203824","0.0-8.0-0.71","LF","p0ob2fsrsp","1920","1080","de","lu04rk02","null","","","","learningBlock2","","","","This is a wug:","null","","","","",""
"","image-keyboard-response","462","1204150","0.0-8.0-1.71","LF","p0ob2fsrsp","1920","1080","de","lu04rk02","null","","","","","","","","learning/Slide152.JPG","null","","","","",""
"","html-keyboard-response","463","1205151","0.0-8.0-2.71","LF","p0ob2fsrsp","1920","1080","de","lu04rk02","null","","","","learningBlock2","","","","<div style=""font-size:60px;""> </div>","null","LF","learning/Slide152.JPG","This is a wug:","",""
"","html-keyboard-response","464","1206151","0.0-8.0-0.72","LF","p0ob2fsrsp","1920","1080","de","lu04rk02","null","","","","learningBlock2","","","","This is a bim:","null","","","","",""
"","image-keyboard-response","465","1206480","0.0-8.0-1.72","LF","p0ob2fsrsp","1920","1080","de","lu04rk02","null","","","","","","","","learning/Slide153.JPG","null","","","","",""
"","html-keyboard-response","466","1207481","0.0-8.0-2.72","LF","p0ob2fsrsp","1920","1080","de","lu04rk02","null","","","","learningBlock2","","","","<div style=""font-size:60px;""> </div>","null","LF","learning/Slide153.JPG","This is a bim:","",""
"","html-keyboard-response","467","1208481","0.0-8.0-0.73","LF","p0ob2fsrsp","1920","1080","de","lu04rk02","null","","","","learningBlock2","","","","This is a tob:","null","","","","",""
"","image-keyboard-response","468","1208808","0.0-8.0-1.73","LF","p0ob2fsrsp","1920","1080","de","lu04rk02","null","","","","","","","","learning/Slide154.JPG","null","","","","",""
"","html-keyboard-response","469","1209809","0.0-8.0-2.73","LF","p0ob2fsrsp","1920","1080","de","lu04rk02","null","","","","learningBlock2","","","","<div style=""font-size:60px;""> </div>","null","LF","learning/Slide154.JPG","This is a tob:","",""
"","html-keyboard-response","470","1210809","0.0-8.0-0.74","LF","p0ob2fsrsp","1920","1080","de","lu04rk02","null","","","","learningBlock2","","","","This is a dep:","null","","","","",""
"","image-keyboard-response","471","1211137","0.0-8.0-1.74","LF","p0ob2fsrsp","1920","1080","de","lu04rk02","null","","","","","","","","learning/Slide155.JPG","null","","","","",""
"","html-keyboard-response","472","1212137","0.0-8.0-2.74","LF","p0ob2fsrsp","1920","1080","de","lu04rk02","null","","","","learningBlock2","","","","<div style=""font-size:60px;""> </div>","null","LF","learning/Slide155.JPG","This is a dep:","",""
"","html-keyboard-response","473","1213138","0.0-8.0-0.75","LF","p0ob2fsrsp","1920","1080","de","lu04rk02","null","","","","learningBlock2","","","","This is a bim:","null","","","","",""
"","image-keyboard-response","474","1213467","0.0-8.0-1.75","LF","p0ob2fsrsp","1920","1080","de","lu04rk02","null","","","","","","","","learning/Slide156.JPG","null","","","","",""
"","html-keyboard-response","475","1214467","0.0-8.0-2.75","LF","p0ob2fsrsp","1920","1080","de","lu04rk02","null","","","","learningBlock2","","","","<div style=""font-size:60px;""> </div>","null","LF","learning/Slide156.JPG","This is a bim:","",""
"","html-keyboard-response","476","1215467","0.0-8.0-0.76","LF","p0ob2fsrsp","1920","1080","de","lu04rk02","null","","","","learningBlock2","","","","This is a dep:","null","","","","",""
"","image-keyboard-response","477","1215795","0.0-8.0-1.76","LF","p0ob2fsrsp","1920","1080","de","lu04rk02","null","","","","","","","","learning/Slide157.JPG","null","","","","",""
"","html-keyboard-response","478","1216796","0.0-8.0-2.76","LF","p0ob2fsrsp","1920","1080","de","lu04rk02","null","","","","learningBlock2","","","","<div style=""font-size:60px;""> </div>","null","LF","learning/Slide157.JPG","This is a dep:","",""
"","html-keyboard-response","479","1217796","0.0-8.0-0.77","LF","p0ob2fsrsp","1920","1080","de","lu04rk02","null","","","","learningBlock2","","","","This is a tob:","null","","","","",""
"","image-keyboard-response","480","1218124","0.0-8.0-1.77","LF","p0ob2fsrsp","1920","1080","de","lu04rk02","null","","","","","","","","learning/Slide158.JPG","null","","","","",""
"","html-keyboard-response","481","1219124","0.0-8.0-2.77","LF","p0ob2fsrsp","1920","1080","de","lu04rk02","null","","","","learningBlock2","","","","<div style=""font-size:60px;""> </div>","null","LF","learning/Slide158.JPG","This is a tob:","",""
"","html-keyboard-response","482","1220125","0.0-8.0-0.78","LF","p0ob2fsrsp","1920","1080","de","lu04rk02","null","","","","learningBlock2","","","","This is a dep:","null","","","","",""
"","image-keyboard-response","483","1220454","0.0-8.0-1.78","LF","p0ob2fsrsp","1920","1080","de","lu04rk02","null","","","","","","","","learning/Slide159.JPG","null","","","","",""
"","html-keyboard-response","484","1221455","0.0-8.0-2.78","LF","p0ob2fsrsp","1920","1080","de","lu04rk02","null","","","","learningBlock2","","","","<div style=""font-size:60px;""> </div>","null","LF","learning/Slide159.JPG","This is a dep:","",""
"","html-keyboard-response","485","1222457","0.0-8.0-0.79","LF","p0ob2fsrsp","1920","1080","de","lu04rk02","null","","","","learningBlock2","","","","This is a wug:","null","","","","",""
"","image-keyboard-response","486","1222784","0.0-8.0-1.79","LF","p0ob2fsrsp","1920","1080","de","lu04rk02","null","","","","","","","","learning/Slide160.JPG","null","","","","",""
