"success","trial_type","trial_index","time_elapsed","internal_node_id","condition","subject","screen_width","screen_height","language","codeword","rt","responses","url","view_history","test_part","final_height_px","final_width_px","scale_factor","stimulus","key_press","learningType","presentedImage","presentedLabel","button_pressed","response"
"true","fullscreen","0","2268","0.0-0.0","FL","uf6pxq0fzv","1549","872","en","RG06DY30","","","","","","","","","","","","","","",""
"","survey-html-form","1","3232","0.0-1.0","FL","uf6pxq0fzv","1549","872","en","RG06DY30","962.3350000001665","{""language"":""en""}","","","","","","","","","","","","",""
"","external-html","2","6720","0.0-3.0-0.0","FL","uf6pxq0fzv","1549","872","en","RG06DY30","3484.2099999987113","","text/information_english.html","","","","","","","","","","","",""
"","external-html","3","25695","0.0-3.0-1.0","FL","uf6pxq0fzv","1549","872","en","RG06DY30","18923.49000000104","","text/consent_english.html","","","","","","","","","","","",""
"","survey-html-form","4","125950","0.0-3.0-2.0","FL","uf6pxq0fzv","1549","872","en","RG06DY30","100253.98000000132","{""codeword_enter"":""RG06DY30""}","","","","","","","","","","","","",""
"","instructions","5","137799","0.0-4.0","FL","uf6pxq0fzv","1549","872","en","RG06DY30","NA","","","[{""page_index"":0,""viewing_time"":1882.7300000011746},{""page_index"":1,""viewing_time"":8463.894999998956}]","instructions","","","","","","","","","",""
"","resize","6","182504","0.0-5.0","FL","uf6pxq0fzv","1549","872","en","RG06DY30","","","","","","","254","1.6126984126984127","","","","","","",""
"","image-keyboard-response","7","182681","0.0-6.0-0.0","FL","uf6pxq0fzv","1549","872","en","RG06DY30","null","","","","","","","","learning/Slide1.JPG","null","","","","",""
"","html-keyboard-response","8","183834","0.0-6.0-1.0","FL","uf6pxq0fzv","1549","872","en","RG06DY30","null","","","","learningBlock1","","","","That was a tob.","null","","","","",""
"","html-keyboard-response","9","184836","0.0-6.0-2.0","FL","uf6pxq0fzv","1549","872","en","RG06DY30","null","","","","learningBlock1","","","","<div style=""font-size:60px;""> </div>","null","FL","learning/Slide1.JPG","That was a tob.","",""
"","image-keyboard-response","10","185011","0.0-6.0-0.1","FL","uf6pxq0fzv","1549","872","en","RG06DY30","null","","","","","","","","learning/Slide2.JPG","null","","","","",""
"","html-keyboard-response","11","186164","0.0-6.0-1.1","FL","uf6pxq0fzv","1549","872","en","RG06DY30","null","","","","learningBlock1","","","","That was a wug.","null","","","","",""
"","html-keyboard-response","12","187166","0.0-6.0-2.1","FL","uf6pxq0fzv","1549","872","en","RG06DY30","null","","","","learningBlock1","","","","<div style=""font-size:60px;""> </div>","null","FL","learning/Slide2.JPG","That was a wug.","",""
"","image-keyboard-response","13","187342","0.0-6.0-0.2","FL","uf6pxq0fzv","1549","872","en","RG06DY30","null","","","","","","","","learning/Slide3.JPG","null","","","","",""
"","html-keyboard-response","14","188495","0.0-6.0-1.2","FL","uf6pxq0fzv","1549","872","en","RG06DY30","null","","","","learningBlock1","","","","That was a bim.","null","","","","",""
"","html-keyboard-response","15","189498","0.0-6.0-2.2","FL","uf6pxq0fzv","1549","872","en","RG06DY30","null","","","","learningBlock1","","","","<div style=""font-size:60px;""> </div>","null","FL","learning/Slide3.JPG","That was a bim.","",""
"","image-keyboard-response","16","189674","0.0-6.0-0.3","FL","uf6pxq0fzv","1549","872","en","RG06DY30","null","","","","","","","","learning/Slide4.JPG","null","","","","",""
"","html-keyboard-response","17","190828","0.0-6.0-1.3","FL","uf6pxq0fzv","1549","872","en","RG06DY30","null","","","","learningBlock1","","","","That was a dep.","null","","","","",""
"","html-keyboard-response","18","191830","0.0-6.0-2.3","FL","uf6pxq0fzv","1549","872","en","RG06DY30","null","","","","learningBlock1","","","","<div style=""font-size:60px;""> </div>","null","FL","learning/Slide4.JPG","That was a dep.","",""
"","image-keyboard-response","19","192006","0.0-6.0-0.4","FL","uf6pxq0fzv","1549","872","en","RG06DY30","null","","","","","","","","learning/Slide5.JPG","null","","","","",""
"","html-keyboard-response","20","193159","0.0-6.0-1.4","FL","uf6pxq0fzv","1549","872","en","RG06DY30","null","","","","learningBlock1","","","","That was a wug.","null","","","","",""
"","html-keyboard-response","21","194161","0.0-6.0-2.4","FL","uf6pxq0fzv","1549","872","en","RG06DY30","null","","","","learningBlock1","","","","<div style=""font-size:60px;""> </div>","null","FL","learning/Slide5.JPG","That was a wug.","",""
"","image-keyboard-response","22","194337","0.0-6.0-0.5","FL","uf6pxq0fzv","1549","872","en","RG06DY30","null","","","","","","","","learning/Slide6.JPG","null","","","","",""
"","html-keyboard-response","23","195489","0.0-6.0-1.5","FL","uf6pxq0fzv","1549","872","en","RG06DY30","null","","","","learningBlock1","","","","That was a dep.","null","","","","",""
"","html-keyboard-response","24","196490","0.0-6.0-2.5","FL","uf6pxq0fzv","1549","872","en","RG06DY30","null","","","","learningBlock1","","","","<div style=""font-size:60px;""> </div>","null","FL","learning/Slide6.JPG","That was a dep.","",""
"","image-keyboard-response","25","196667","0.0-6.0-0.6","FL","uf6pxq0fzv","1549","872","en","RG06DY30","null","","","","","","","","learning/Slide7.JPG","null","","","","",""
"","html-keyboard-response","26","197822","0.0-6.0-1.6","FL","uf6pxq0fzv","1549","872","en","RG06DY30","null","","","","learningBlock1","","","","That was a wug.","null","","","","",""
"","html-keyboard-response","27","198824","0.0-6.0-2.6","FL","uf6pxq0fzv","1549","872","en","RG06DY30","null","","","","learningBlock1","","","","<div style=""font-size:60px;""> </div>","null","FL","learning/Slide7.JPG","That was a wug.","",""
"","image-keyboard-response","28","199000","0.0-6.0-0.7","FL","uf6pxq0fzv","1549","872","en","RG06DY30","null","","","","","","","","learning/Slide8.JPG","null","","","","",""
"","html-keyboard-response","29","200153","0.0-6.0-1.7","FL","uf6pxq0fzv","1549","872","en","RG06DY30","null","","","","learningBlock1","","","","That was a bim.","null","","","","",""
"","html-keyboard-response","30","201155","0.0-6.0-2.7","FL","uf6pxq0fzv","1549","872","en","RG06DY30","null","","","","learningBlock1","","","","<div style=""font-size:60px;""> </div>","null","FL","learning/Slide8.JPG","That was a bim.","",""
"","image-keyboard-response","31","201331","0.0-6.0-0.8","FL","uf6pxq0fzv","1549","872","en","RG06DY30","null","","","","","","","","learning/Slide9.JPG","null","","","","",""
"","html-keyboard-response","32","202484","0.0-6.0-1.8","FL","uf6pxq0fzv","1549","872","en","RG06DY30","null","","","","learningBlock1","","","","That was a wug.","null","","","","",""
"","html-keyboard-response","33","203485","0.0-6.0-2.8","FL","uf6pxq0fzv","1549","872","en","RG06DY30","null","","","","learningBlock1","","","","<div style=""font-size:60px;""> </div>","null","FL","learning/Slide9.JPG","That was a wug.","",""
"","image-keyboard-response","34","203662","0.0-6.0-0.9","FL","uf6pxq0fzv","1549","872","en","RG06DY30","null","","","","","","","","learning/Slide10.JPG","null","","","","",""
"","html-keyboard-response","35","204816","0.0-6.0-1.9","FL","uf6pxq0fzv","1549","872","en","RG06DY30","null","","","","learningBlock1","","","","That was a dep.","null","","","","",""
"","html-keyboard-response","36","205816","0.0-6.0-2.9","FL","uf6pxq0fzv","1549","872","en","RG06DY30","null","","","","learningBlock1","","","","<div style=""font-size:60px;""> </div>","null","FL","learning/Slide10.JPG","That was a dep.","",""
"","image-keyboard-response","37","205993","0.0-6.0-0.10","FL","uf6pxq0fzv","1549","872","en","RG06DY30","null","","","","","","","","learning/Slide11.JPG","null","","","","",""
"","html-keyboard-response","38","207145","0.0-6.0-1.10","FL","uf6pxq0fzv","1549","872","en","RG06DY30","null","","","","learningBlock1","","","","That was a tob.","null","","","","",""
"","html-keyboard-response","39","208146","0.0-6.0-2.10","FL","uf6pxq0fzv","1549","872","en","RG06DY30","null","","","","learningBlock1","","","","<div style=""font-size:60px;""> </div>","null","FL","learning/Slide11.JPG","That was a tob.","",""
"","image-keyboard-response","40","208322","0.0-6.0-0.11","FL","uf6pxq0fzv","1549","872","en","RG06DY30","null","","","","","","","","learning/Slide12.JPG","null","","","","",""
"","html-keyboard-response","41","209473","0.0-6.0-1.11","FL","uf6pxq0fzv","1549","872","en","RG06DY30","null","","","","learningBlock1","","","","That was a dep.","null","","","","",""
"","html-keyboard-response","42","210476","0.0-6.0-2.11","FL","uf6pxq0fzv","1549","872","en","RG06DY30","null","","","","learningBlock1","","","","<div style=""font-size:60px;""> </div>","null","FL","learning/Slide12.JPG","That was a dep.","",""
"","image-keyboard-response","43","210653","0.0-6.0-0.12","FL","uf6pxq0fzv","1549","872","en","RG06DY30","null","","","","","","","","learning/Slide13.JPG","null","","","","",""
"","html-keyboard-response","44","211805","0.0-6.0-1.12","FL","uf6pxq0fzv","1549","872","en","RG06DY30","null","","","","learningBlock1","","","","That was a bim.","null","","","","",""
"","html-keyboard-response","45","212810","0.0-6.0-2.12","FL","uf6pxq0fzv","1549","872","en","RG06DY30","null","","","","learningBlock1","","","","<div style=""font-size:60px;""> </div>","null","FL","learning/Slide13.JPG","That was a bim.","",""
"","image-keyboard-response","46","212986","0.0-6.0-0.13","FL","uf6pxq0fzv","1549","872","en","RG06DY30","null","","","","","","","","learning/Slide14.JPG","null","","","","",""
"","html-keyboard-response","47","214139","0.0-6.0-1.13","FL","uf6pxq0fzv","1549","872","en","RG06DY30","null","","","","learningBlock1","","","","That was a wug.","null","","","","",""
"","html-keyboard-response","48","215140","0.0-6.0-2.13","FL","uf6pxq0fzv","1549","872","en","RG06DY30","null","","","","learningBlock1","","","","<div style=""font-size:60px;""> </div>","null","FL","learning/Slide14.JPG","That was a wug.","",""
"","image-keyboard-response","49","215317","0.0-6.0-0.14","FL","uf6pxq0fzv","1549","872","en","RG06DY30","null","","","","","","","","learning/Slide15.JPG","null","","","","",""
"","html-keyboard-response","50","216469","0.0-6.0-1.14","FL","uf6pxq0fzv","1549","872","en","RG06DY30","null","","","","learningBlock1","","","","That was a tob.","null","","","","",""
"","html-keyboard-response","51","217470","0.0-6.0-2.14","FL","uf6pxq0fzv","1549","872","en","RG06DY30","null","","","","learningBlock1","","","","<div style=""font-size:60px;""> </div>","null","FL","learning/Slide15.JPG","That was a tob.","",""
"","image-keyboard-response","52","217646","0.0-6.0-0.15","FL","uf6pxq0fzv","1549","872","en","RG06DY30","null","","","","","","","","learning/Slide16.JPG","null","","","","",""
"","html-keyboard-response","53","218799","0.0-6.0-1.15","FL","uf6pxq0fzv","1549","872","en","RG06DY30","null","","","","learningBlock1","","","","That was a dep.","null","","","","",""
"","html-keyboard-response","54","219800","0.0-6.0-2.15","FL","uf6pxq0fzv","1549","872","en","RG06DY30","null","","","","learningBlock1","","","","<div style=""font-size:60px;""> </div>","null","FL","learning/Slide16.JPG","That was a dep.","",""
"","image-keyboard-response","55","219976","0.0-6.0-0.16","FL","uf6pxq0fzv","1549","872","en","RG06DY30","null","","","","","","","","learning/Slide17.JPG","null","","","","",""
"","html-keyboard-response","56","221127","0.0-6.0-1.16","FL","uf6pxq0fzv","1549","872","en","RG06DY30","null","","","","learningBlock1","","","","That was a bim.","null","","","","",""
"","html-keyboard-response","57","222129","0.0-6.0-2.16","FL","uf6pxq0fzv","1549","872","en","RG06DY30","null","","","","learningBlock1","","","","<div style=""font-size:60px;""> </div>","null","FL","learning/Slide17.JPG","That was a bim.","",""
"","image-keyboard-response","58","222305","0.0-6.0-0.17","FL","uf6pxq0fzv","1549","872","en","RG06DY30","null","","","","","","","","learning/Slide18.JPG","null","","","","",""
"","html-keyboard-response","59","223460","0.0-6.0-1.17","FL","uf6pxq0fzv","1549","872","en","RG06DY30","null","","","","learningBlock1","","","","That was a tob.","null","","","","",""
"","html-keyboard-response","60","224461","0.0-6.0-2.17","FL","uf6pxq0fzv","1549","872","en","RG06DY30","null","","","","learningBlock1","","","","<div style=""font-size:60px;""> </div>","null","FL","learning/Slide18.JPG","That was a tob.","",""
"","image-keyboard-response","61","224637","0.0-6.0-0.18","FL","uf6pxq0fzv","1549","872","en","RG06DY30","null","","","","","","","","learning/Slide19.JPG","null","","","","",""
"","html-keyboard-response","62","225789","0.0-6.0-1.18","FL","uf6pxq0fzv","1549","872","en","RG06DY30","null","","","","learningBlock1","","","","That was a wug.","null","","","","",""
"","html-keyboard-response","63","226790","0.0-6.0-2.18","FL","uf6pxq0fzv","1549","872","en","RG06DY30","null","","","","learningBlock1","","","","<div style=""font-size:60px;""> </div>","null","FL","learning/Slide19.JPG","That was a wug.","",""
"","image-keyboard-response","64","226966","0.0-6.0-0.19","FL","uf6pxq0fzv","1549","872","en","RG06DY30","null","","","","","","","","learning/Slide20.JPG","null","","","","",""
"","html-keyboard-response","65","228118","0.0-6.0-1.19","FL","uf6pxq0fzv","1549","872","en","RG06DY30","null","","","","learningBlock1","","","","That was a bim.","null","","","","",""
"","html-keyboard-response","66","229119","0.0-6.0-2.19","FL","uf6pxq0fzv","1549","872","en","RG06DY30","null","","","","learningBlock1","","","","<div style=""font-size:60px;""> </div>","null","FL","learning/Slide20.JPG","That was a bim.","",""
"","image-keyboard-response","67","229295","0.0-6.0-0.20","FL","uf6pxq0fzv","1549","872","en","RG06DY30","null","","","","","","","","learning/Slide21.JPG","null","","","","",""
"","html-keyboard-response","68","230458","0.0-6.0-1.20","FL","uf6pxq0fzv","1549","872","en","RG06DY30","null","","","","learningBlock1","","","","That was a dep.","null","","","","",""
"","html-keyboard-response","69","231460","0.0-6.0-2.20","FL","uf6pxq0fzv","1549","872","en","RG06DY30","null","","","","learningBlock1","","","","<div style=""font-size:60px;""> </div>","null","FL","learning/Slide21.JPG","That was a dep.","",""
"","image-keyboard-response","70","231636","0.0-6.0-0.21","FL","uf6pxq0fzv","1549","872","en","RG06DY30","null","","","","","","","","learning/Slide22.JPG","null","","","","",""
"","html-keyboard-response","71","232787","0.0-6.0-1.21","FL","uf6pxq0fzv","1549","872","en","RG06DY30","null","","","","learningBlock1","","","","That was a bim.","null","","","","",""
"","html-keyboard-response","72","233789","0.0-6.0-2.21","FL","uf6pxq0fzv","1549","872","en","RG06DY30","null","","","","learningBlock1","","","","<div style=""font-size:60px;""> </div>","null","FL","learning/Slide22.JPG","That was a bim.","",""
"","image-keyboard-response","73","233964","0.0-6.0-0.22","FL","uf6pxq0fzv","1549","872","en","RG06DY30","null","","","","","","","","learning/Slide23.JPG","null","","","","",""
"","html-keyboard-response","74","235130","0.0-6.0-1.22","FL","uf6pxq0fzv","1549","872","en","RG06DY30","null","","","","learningBlock1","","","","That was a tob.","null","","","","",""
"","html-keyboard-response","75","236132","0.0-6.0-2.22","FL","uf6pxq0fzv","1549","872","en","RG06DY30","null","","","","learningBlock1","","","","<div style=""font-size:60px;""> </div>","null","FL","learning/Slide23.JPG","That was a tob.","",""
"","image-keyboard-response","76","236308","0.0-6.0-0.23","FL","uf6pxq0fzv","1549","872","en","RG06DY30","null","","","","","","","","learning/Slide24.JPG","null","","","","",""
"","html-keyboard-response","77","237462","0.0-6.0-1.23","FL","uf6pxq0fzv","1549","872","en","RG06DY30","null","","","","learningBlock1","","","","That was a wug.","null","","","","",""
"","html-keyboard-response","78","238462","0.0-6.0-2.23","FL","uf6pxq0fzv","1549","872","en","RG06DY30","null","","","","learningBlock1","","","","<div style=""font-size:60px;""> </div>","null","FL","learning/Slide24.JPG","That was a wug.","",""
"","image-keyboard-response","79","238638","0.0-6.0-0.24","FL","uf6pxq0fzv","1549","872","en","RG06DY30","null","","","","","","","","learning/Slide25.JPG","null","","","","",""
"","html-keyboard-response","80","239791","0.0-6.0-1.24","FL","uf6pxq0fzv","1549","872","en","RG06DY30","null","","","","learningBlock1","","","","That was a dep.","null","","","","",""
"","html-keyboard-response","81","240792","0.0-6.0-2.24","FL","uf6pxq0fzv","1549","872","en","RG06DY30","null","","","","learningBlock1","","","","<div style=""font-size:60px;""> </div>","null","FL","learning/Slide25.JPG","That was a dep.","",""
"","image-keyboard-response","82","240968","0.0-6.0-0.25","FL","uf6pxq0fzv","1549","872","en","RG06DY30","null","","","","","","","","learning/Slide26.JPG","null","","","","",""
"","html-keyboard-response","83","242120","0.0-6.0-1.25","FL","uf6pxq0fzv","1549","872","en","RG06DY30","null","","","","learningBlock1","","","","That was a wug.","null","","","","",""
"","html-keyboard-response","84","243122","0.0-6.0-2.25","FL","uf6pxq0fzv","1549","872","en","RG06DY30","null","","","","learningBlock1","","","","<div style=""font-size:60px;""> </div>","null","FL","learning/Slide26.JPG","That was a wug.","",""
"","image-keyboard-response","85","243299","0.0-6.0-0.26","FL","uf6pxq0fzv","1549","872","en","RG06DY30","null","","","","","","","","learning/Slide27.JPG","null","","","","",""
"","html-keyboard-response","86","244451","0.0-6.0-1.26","FL","uf6pxq0fzv","1549","872","en","RG06DY30","null","","","","learningBlock1","","","","That was a bim.","null","","","","",""
"","html-keyboard-response","87","245452","0.0-6.0-2.26","FL","uf6pxq0fzv","1549","872","en","RG06DY30","null","","","","learningBlock1","","","","<div style=""font-size:60px;""> </div>","null","FL","learning/Slide27.JPG","That was a bim.","",""
"","image-keyboard-response","88","245628","0.0-6.0-0.27","FL","uf6pxq0fzv","1549","872","en","RG06DY30","null","","","","","","","","learning/Slide28.JPG","null","","","","",""
"","html-keyboard-response","89","246780","0.0-6.0-1.27","FL","uf6pxq0fzv","1549","872","en","RG06DY30","null","","","","learningBlock1","","","","That was a dep.","null","","","","",""
"","html-keyboard-response","90","247782","0.0-6.0-2.27","FL","uf6pxq0fzv","1549","872","en","RG06DY30","null","","","","learningBlock1","","","","<div style=""font-size:60px;""> </div>","null","FL","learning/Slide28.JPG","That was a dep.","",""
"","image-keyboard-response","91","247958","0.0-6.0-0.28","FL","uf6pxq0fzv","1549","872","en","RG06DY30","null","","","","","","","","learning/Slide29.JPG","null","","","","",""
"","html-keyboard-response","92","249111","0.0-6.0-1.28","FL","uf6pxq0fzv","1549","872","en","RG06DY30","null","","","","learningBlock1","","","","That was a tob.","null","","","","",""
"","html-keyboard-response","93","250120","0.0-6.0-2.28","FL","uf6pxq0fzv","1549","872","en","RG06DY30","null","","","","learningBlock1","","","","<div style=""font-size:60px;""> </div>","null","FL","learning/Slide29.JPG","That was a tob.","",""
"","image-keyboard-response","94","250296","0.0-6.0-0.29","FL","uf6pxq0fzv","1549","872","en","RG06DY30","null","","","","","","","","learning/Slide30.JPG","null","","","","",""
"","html-keyboard-response","95","251448","0.0-6.0-1.29","FL","uf6pxq0fzv","1549","872","en","RG06DY30","null","","","","learningBlock1","","","","That was a dep.","null","","","","",""
"","html-keyboard-response","96","252449","0.0-6.0-2.29","FL","uf6pxq0fzv","1549","872","en","RG06DY30","null","","","","learningBlock1","","","","<div style=""font-size:60px;""> </div>","null","FL","learning/Slide30.JPG","That was a dep.","",""
"","image-keyboard-response","97","252626","0.0-6.0-0.30","FL","uf6pxq0fzv","1549","872","en","RG06DY30","null","","","","","","","","learning/Slide31.JPG","null","","","","",""
"","html-keyboard-response","98","253787","0.0-6.0-1.30","FL","uf6pxq0fzv","1549","872","en","RG06DY30","null","","","","learningBlock1","","","","That was a wug.","null","","","","",""
"","html-keyboard-response","99","254788","0.0-6.0-2.30","FL","uf6pxq0fzv","1549","872","en","RG06DY30","null","","","","learningBlock1","","","","<div style=""font-size:60px;""> </div>","null","FL","learning/Slide31.JPG","That was a wug.","",""
"","image-keyboard-response","100","254965","0.0-6.0-0.31","FL","uf6pxq0fzv","1549","872","en","RG06DY30","null","","","","","","","","learning/Slide32.JPG","null","","","","",""
"","html-keyboard-response","101","256124","0.0-6.0-1.31","FL","uf6pxq0fzv","1549","872","en","RG06DY30","null","","","","learningBlock1","","","","That was a tob.","null","","","","",""
"","html-keyboard-response","102","257125","0.0-6.0-2.31","FL","uf6pxq0fzv","1549","872","en","RG06DY30","null","","","","learningBlock1","","","","<div style=""font-size:60px;""> </div>","null","FL","learning/Slide32.JPG","That was a tob.","",""
"","image-keyboard-response","103","257302","0.0-6.0-0.32","FL","uf6pxq0fzv","1549","872","en","RG06DY30","null","","","","","","","","learning/Slide33.JPG","null","","","","",""
"","html-keyboard-response","104","258454","0.0-6.0-1.32","FL","uf6pxq0fzv","1549","872","en","RG06DY30","null","","","","learningBlock1","","","","That was a bim.","null","","","","",""
"","html-keyboard-response","105","259456","0.0-6.0-2.32","FL","uf6pxq0fzv","1549","872","en","RG06DY30","null","","","","learningBlock1","","","","<div style=""font-size:60px;""> </div>","null","FL","learning/Slide33.JPG","That was a bim.","",""
"","image-keyboard-response","106","259632","0.0-6.0-0.33","FL","uf6pxq0fzv","1549","872","en","RG06DY30","null","","","","","","","","learning/Slide34.JPG","null","","","","",""
"","html-keyboard-response","107","260784","0.0-6.0-1.33","FL","uf6pxq0fzv","1549","872","en","RG06DY30","null","","","","learningBlock1","","","","That was a tob.","null","","","","",""
"","html-keyboard-response","108","261786","0.0-6.0-2.33","FL","uf6pxq0fzv","1549","872","en","RG06DY30","null","","","","learningBlock1","","","","<div style=""font-size:60px;""> </div>","null","FL","learning/Slide34.JPG","That was a tob.","",""
"","image-keyboard-response","109","261962","0.0-6.0-0.34","FL","uf6pxq0fzv","1549","872","en","RG06DY30","null","","","","","","","","learning/Slide35.JPG","null","","","","",""
"","html-keyboard-response","110","263114","0.0-6.0-1.34","FL","uf6pxq0fzv","1549","872","en","RG06DY30","null","","","","learningBlock1","","","","That was a bim.","null","","","","",""
"","html-keyboard-response","111","264114","0.0-6.0-2.34","FL","uf6pxq0fzv","1549","872","en","RG06DY30","null","","","","learningBlock1","","","","<div style=""font-size:60px;""> </div>","null","FL","learning/Slide35.JPG","That was a bim.","",""
"","image-keyboard-response","112","264290","0.0-6.0-0.35","FL","uf6pxq0fzv","1549","872","en","RG06DY30","null","","","","","","","","learning/Slide36.JPG","null","","","","",""
"","html-keyboard-response","113","265441","0.0-6.0-1.35","FL","uf6pxq0fzv","1549","872","en","RG06DY30","null","","","","learningBlock1","","","","That was a dep.","null","","","","",""
"","html-keyboard-response","114","266443","0.0-6.0-2.35","FL","uf6pxq0fzv","1549","872","en","RG06DY30","null","","","","learningBlock1","","","","<div style=""font-size:60px;""> </div>","null","FL","learning/Slide36.JPG","That was a dep.","",""
"","image-keyboard-response","115","266619","0.0-6.0-0.36","FL","uf6pxq0fzv","1549","872","en","RG06DY30","null","","","","","","","","learning/Slide37.JPG","null","","","","",""
"","html-keyboard-response","116","267772","0.0-6.0-1.36","FL","uf6pxq0fzv","1549","872","en","RG06DY30","null","","","","learningBlock1","","","","That was a tob.","null","","","","",""
"","html-keyboard-response","117","268774","0.0-6.0-2.36","FL","uf6pxq0fzv","1549","872","en","RG06DY30","null","","","","learningBlock1","","","","<div style=""font-size:60px;""> </div>","null","FL","learning/Slide37.JPG","That was a tob.","",""
"","image-keyboard-response","118","268950","0.0-6.0-0.37","FL","uf6pxq0fzv","1549","872","en","RG06DY30","null","","","","","","","","learning/Slide38.JPG","null","","","","",""
"","html-keyboard-response","119","270103","0.0-6.0-1.37","FL","uf6pxq0fzv","1549","872","en","RG06DY30","null","","","","learningBlock1","","","","That was a wug.","null","","","","",""
"","html-keyboard-response","120","271104","0.0-6.0-2.37","FL","uf6pxq0fzv","1549","872","en","RG06DY30","null","","","","learningBlock1","","","","<div style=""font-size:60px;""> </div>","null","FL","learning/Slide38.JPG","That was a wug.","",""
"","image-keyboard-response","121","271280","0.0-6.0-0.38","FL","uf6pxq0fzv","1549","872","en","RG06DY30","null","","","","","","","","learning/Slide39.JPG","null","","","","",""
"","html-keyboard-response","122","272433","0.0-6.0-1.38","FL","uf6pxq0fzv","1549","872","en","RG06DY30","null","","","","learningBlock1","","","","That was a bim.","null","","","","",""
"","html-keyboard-response","123","273434","0.0-6.0-2.38","FL","uf6pxq0fzv","1549","872","en","RG06DY30","null","","","","learningBlock1","","","","<div style=""font-size:60px;""> </div>","null","FL","learning/Slide39.JPG","That was a bim.","",""
"","image-keyboard-response","124","273610","0.0-6.0-0.39","FL","uf6pxq0fzv","1549","872","en","RG06DY30","null","","","","","","","","learning/Slide40.JPG","null","","","","",""
"","html-keyboard-response","125","274763","0.0-6.0-1.39","FL","uf6pxq0fzv","1549","872","en","RG06DY30","null","","","","learningBlock1","","","","That was a tob.","null","","","","",""
"","html-keyboard-response","126","275765","0.0-6.0-2.39","FL","uf6pxq0fzv","1549","872","en","RG06DY30","null","","","","learningBlock1","","","","<div style=""font-size:60px;""> </div>","null","FL","learning/Slide40.JPG","That was a tob.","",""
"","image-keyboard-response","127","275941","0.0-6.0-0.40","FL","uf6pxq0fzv","1549","872","en","RG06DY30","null","","","","","","","","learning/Slide41.JPG","null","","","","",""
"","html-keyboard-response","128","277093","0.0-6.0-1.40","FL","uf6pxq0fzv","1549","872","en","RG06DY30","null","","","","learningBlock1","","","","That was a bim.","null","","","","",""
"","html-keyboard-response","129","278094","0.0-6.0-2.40","FL","uf6pxq0fzv","1549","872","en","RG06DY30","null","","","","learningBlock1","","","","<div style=""font-size:60px;""> </div>","null","FL","learning/Slide41.JPG","That was a bim.","",""
"","image-keyboard-response","130","278270","0.0-6.0-0.41","FL","uf6pxq0fzv","1549","872","en","RG06DY30","null","","","","","","","","learning/Slide42.JPG","null","","","","",""
"","html-keyboard-response","131","279423","0.0-6.0-1.41","FL","uf6pxq0fzv","1549","872","en","RG06DY30","null","","","","learningBlock1","","","","That was a dep.","null","","","","",""
"","html-keyboard-response","132","280425","0.0-6.0-2.41","FL","uf6pxq0fzv","1549","872","en","RG06DY30","null","","","","learningBlock1","","","","<div style=""font-size:60px;""> </div>","null","FL","learning/Slide42.JPG","That was a dep.","",""
"","image-keyboard-response","133","280601","0.0-6.0-0.42","FL","uf6pxq0fzv","1549","872","en","RG06DY30","null","","","","","","","","learning/Slide43.JPG","null","","","","",""
"","html-keyboard-response","134","281753","0.0-6.0-1.42","FL","uf6pxq0fzv","1549","872","en","RG06DY30","null","","","","learningBlock1","","","","That was a wug.","null","","","","",""
"","html-keyboard-response","135","282756","0.0-6.0-2.42","FL","uf6pxq0fzv","1549","872","en","RG06DY30","null","","","","learningBlock1","","","","<div style=""font-size:60px;""> </div>","null","FL","learning/Slide43.JPG","That was a wug.","",""
"","image-keyboard-response","136","282932","0.0-6.0-0.43","FL","uf6pxq0fzv","1549","872","en","RG06DY30","null","","","","","","","","learning/Slide44.JPG","null","","","","",""
"","html-keyboard-response","137","284085","0.0-6.0-1.43","FL","uf6pxq0fzv","1549","872","en","RG06DY30","null","","","","learningBlock1","","","","That was a bim.","null","","","","",""
"","html-keyboard-response","138","285086","0.0-6.0-2.43","FL","uf6pxq0fzv","1549","872","en","RG06DY30","null","","","","learningBlock1","","","","<div style=""font-size:60px;""> </div>","null","FL","learning/Slide44.JPG","That was a bim.","",""
"","image-keyboard-response","139","285262","0.0-6.0-0.44","FL","uf6pxq0fzv","1549","872","en","RG06DY30","null","","","","","","","","learning/Slide45.JPG","null","","","","",""
"","html-keyboard-response","140","286415","0.0-6.0-1.44","FL","uf6pxq0fzv","1549","872","en","RG06DY30","null","","","","learningBlock1","","","","That was a wug.","null","","","","",""
"","html-keyboard-response","141","287417","0.0-6.0-2.44","FL","uf6pxq0fzv","1549","872","en","RG06DY30","null","","","","learningBlock1","","","","<div style=""font-size:60px;""> </div>","null","FL","learning/Slide45.JPG","That was a wug.","",""
"","image-keyboard-response","142","287593","0.0-6.0-0.45","FL","uf6pxq0fzv","1549","872","en","RG06DY30","null","","","","","","","","learning/Slide46.JPG","null","","","","",""
"","html-keyboard-response","143","288744","0.0-6.0-1.45","FL","uf6pxq0fzv","1549","872","en","RG06DY30","null","","","","learningBlock1","","","","That was a dep.","null","","","","",""
"","html-keyboard-response","144","289745","0.0-6.0-2.45","FL","uf6pxq0fzv","1549","872","en","RG06DY30","null","","","","learningBlock1","","","","<div style=""font-size:60px;""> </div>","null","FL","learning/Slide46.JPG","That was a dep.","",""
"","image-keyboard-response","145","289921","0.0-6.0-0.46","FL","uf6pxq0fzv","1549","872","en","RG06DY30","null","","","","","","","","learning/Slide47.JPG","null","","","","",""
"","html-keyboard-response","146","291075","0.0-6.0-1.46","FL","uf6pxq0fzv","1549","872","en","RG06DY30","null","","","","learningBlock1","","","","That was a tob.","null","","","","",""
"","html-keyboard-response","147","292077","0.0-6.0-2.46","FL","uf6pxq0fzv","1549","872","en","RG06DY30","null","","","","learningBlock1","","","","<div style=""font-size:60px;""> </div>","null","FL","learning/Slide47.JPG","That was a tob.","",""
"","image-keyboard-response","148","292253","0.0-6.0-0.47","FL","uf6pxq0fzv","1549","872","en","RG06DY30","null","","","","","","","","learning/Slide48.JPG","null","","","","",""
"","html-keyboard-response","149","293406","0.0-6.0-1.47","FL","uf6pxq0fzv","1549","872","en","RG06DY30","null","","","","learningBlock1","","","","That was a bim.","null","","","","",""
"","html-keyboard-response","150","294408","0.0-6.0-2.47","FL","uf6pxq0fzv","1549","872","en","RG06DY30","null","","","","learningBlock1","","","","<div style=""font-size:60px;""> </div>","null","FL","learning/Slide48.JPG","That was a bim.","",""
"","image-keyboard-response","151","294585","0.0-6.0-0.48","FL","uf6pxq0fzv","1549","872","en","RG06DY30","null","","","","","","","","learning/Slide49.JPG","null","","","","",""
"","html-keyboard-response","152","295737","0.0-6.0-1.48","FL","uf6pxq0fzv","1549","872","en","RG06DY30","null","","","","learningBlock1","","","","That was a dep.","null","","","","",""
"","html-keyboard-response","153","296738","0.0-6.0-2.48","FL","uf6pxq0fzv","1549","872","en","RG06DY30","null","","","","learningBlock1","","","","<div style=""font-size:60px;""> </div>","null","FL","learning/Slide49.JPG","That was a dep.","",""
"","image-keyboard-response","154","296914","0.0-6.0-0.49","FL","uf6pxq0fzv","1549","872","en","RG06DY30","null","","","","","","","","learning/Slide50.JPG","null","","","","",""
"","html-keyboard-response","155","298073","0.0-6.0-1.49","FL","uf6pxq0fzv","1549","872","en","RG06DY30","null","","","","learningBlock1","","","","That was a tob.","null","","","","",""
"","html-keyboard-response","156","299074","0.0-6.0-2.49","FL","uf6pxq0fzv","1549","872","en","RG06DY30","null","","","","learningBlock1","","","","<div style=""font-size:60px;""> </div>","null","FL","learning/Slide50.JPG","That was a tob.","",""
"","image-keyboard-response","157","299251","0.0-6.0-0.50","FL","uf6pxq0fzv","1549","872","en","RG06DY30","null","","","","","","","","learning/Slide51.JPG","null","","","","",""
"","html-keyboard-response","158","300403","0.0-6.0-1.50","FL","uf6pxq0fzv","1549","872","en","RG06DY30","null","","","","learningBlock1","","","","That was a bim.","null","","","","",""
"","html-keyboard-response","159","301404","0.0-6.0-2.50","FL","uf6pxq0fzv","1549","872","en","RG06DY30","null","","","","learningBlock1","","","","<div style=""font-size:60px;""> </div>","null","FL","learning/Slide51.JPG","That was a bim.","",""
"","image-keyboard-response","160","301580","0.0-6.0-0.51","FL","uf6pxq0fzv","1549","872","en","RG06DY30","null","","","","","","","","learning/Slide52.JPG","null","","","","",""
"","html-keyboard-response","161","302731","0.0-6.0-1.51","FL","uf6pxq0fzv","1549","872","en","RG06DY30","null","","","","learningBlock1","","","","That was a wug.","null","","","","",""
"","html-keyboard-response","162","303732","0.0-6.0-2.51","FL","uf6pxq0fzv","1549","872","en","RG06DY30","null","","","","learningBlock1","","","","<div style=""font-size:60px;""> </div>","null","FL","learning/Slide52.JPG","That was a wug.","",""
"","image-keyboard-response","163","303908","0.0-6.0-0.52","FL","uf6pxq0fzv","1549","872","en","RG06DY30","null","","","","","","","","learning/Slide53.JPG","null","","","","",""
"","html-keyboard-response","164","305060","0.0-6.0-1.52","FL","uf6pxq0fzv","1549","872","en","RG06DY30","null","","","","learningBlock1","","","","That was a tob.","null","","","","",""
"","html-keyboard-response","165","306061","0.0-6.0-2.52","FL","uf6pxq0fzv","1549","872","en","RG06DY30","null","","","","learningBlock1","","","","<div style=""font-size:60px;""> </div>","null","FL","learning/Slide53.JPG","That was a tob.","",""
"","image-keyboard-response","166","306237","0.0-6.0-0.53","FL","uf6pxq0fzv","1549","872","en","RG06DY30","null","","","","","","","","learning/Slide54.JPG","null","","","","",""
"","html-keyboard-response","167","307389","0.0-6.0-1.53","FL","uf6pxq0fzv","1549","872","en","RG06DY30","null","","","","learningBlock1","","","","That was a dep.","null","","","","",""
"","html-keyboard-response","168","308391","0.0-6.0-2.53","FL","uf6pxq0fzv","1549","872","en","RG06DY30","null","","","","learningBlock1","","","","<div style=""font-size:60px;""> </div>","null","FL","learning/Slide54.JPG","That was a dep.","",""
"","image-keyboard-response","169","308567","0.0-6.0-0.54","FL","uf6pxq0fzv","1549","872","en","RG06DY30","null","","","","","","","","learning/Slide55.JPG","null","","","","",""
"","html-keyboard-response","170","309720","0.0-6.0-1.54","FL","uf6pxq0fzv","1549","872","en","RG06DY30","null","","","","learningBlock1","","","","That was a bim.","null","","","","",""
"","html-keyboard-response","171","310722","0.0-6.0-2.54","FL","uf6pxq0fzv","1549","872","en","RG06DY30","null","","","","learningBlock1","","","","<div style=""font-size:60px;""> </div>","null","FL","learning/Slide55.JPG","That was a bim.","",""
"","image-keyboard-response","172","310898","0.0-6.0-0.55","FL","uf6pxq0fzv","1549","872","en","RG06DY30","null","","","","","","","","learning/Slide56.JPG","null","","","","",""
"","html-keyboard-response","173","312052","0.0-6.0-1.55","FL","uf6pxq0fzv","1549","872","en","RG06DY30","null","","","","learningBlock1","","","","That was a tob.","null","","","","",""
"","html-keyboard-response","174","313053","0.0-6.0-2.55","FL","uf6pxq0fzv","1549","872","en","RG06DY30","null","","","","learningBlock1","","","","<div style=""font-size:60px;""> </div>","null","FL","learning/Slide56.JPG","That was a tob.","",""
"","image-keyboard-response","175","313229","0.0-6.0-0.56","FL","uf6pxq0fzv","1549","872","en","RG06DY30","null","","","","","","","","learning/Slide57.JPG","null","","","","",""
"","html-keyboard-response","176","314383","0.0-6.0-1.56","FL","uf6pxq0fzv","1549","872","en","RG06DY30","null","","","","learningBlock1","","","","That was a dep.","null","","","","",""
"","html-keyboard-response","177","315384","0.0-6.0-2.56","FL","uf6pxq0fzv","1549","872","en","RG06DY30","null","","","","learningBlock1","","","","<div style=""font-size:60px;""> </div>","null","FL","learning/Slide57.JPG","That was a dep.","",""
"","image-keyboard-response","178","315560","0.0-6.0-0.57","FL","uf6pxq0fzv","1549","872","en","RG06DY30","null","","","","","","","","learning/Slide58.JPG","null","","","","",""
"","html-keyboard-response","179","316713","0.0-6.0-1.57","FL","uf6pxq0fzv","1549","872","en","RG06DY30","null","","","","learningBlock1","","","","That was a wug.","null","","","","",""
"","html-keyboard-response","180","317714","0.0-6.0-2.57","FL","uf6pxq0fzv","1549","872","en","RG06DY30","null","","","","learningBlock1","","","","<div style=""font-size:60px;""> </div>","null","FL","learning/Slide58.JPG","That was a wug.","",""
"","image-keyboard-response","181","317891","0.0-6.0-0.58","FL","uf6pxq0fzv","1549","872","en","RG06DY30","null","","","","","","","","learning/Slide59.JPG","null","","","","",""
"","html-keyboard-response","182","319043","0.0-6.0-1.58","FL","uf6pxq0fzv","1549","872","en","RG06DY30","null","","","","learningBlock1","","","","That was a dep.","null","","","","",""
"","html-keyboard-response","183","320044","0.0-6.0-2.58","FL","uf6pxq0fzv","1549","872","en","RG06DY30","null","","","","learningBlock1","","","","<div style=""font-size:60px;""> </div>","null","FL","learning/Slide59.JPG","That was a dep.","",""
"","image-keyboard-response","184","320220","0.0-6.0-0.59","FL","uf6pxq0fzv","1549","872","en","RG06DY30","null","","","","","","","","learning/Slide60.JPG","null","","","","",""
"","html-keyboard-response","185","321373","0.0-6.0-1.59","FL","uf6pxq0fzv","1549","872","en","RG06DY30","null","","","","learningBlock1","","","","That was a wug.","null","","","","",""
"","html-keyboard-response","186","322374","0.0-6.0-2.59","FL","uf6pxq0fzv","1549","872","en","RG06DY30","null","","","","learningBlock1","","","","<div style=""font-size:60px;""> </div>","null","FL","learning/Slide60.JPG","That was a wug.","",""
"","image-keyboard-response","187","322551","0.0-6.0-0.60","FL","uf6pxq0fzv","1549","872","en","RG06DY30","null","","","","","","","","learning/Slide61.JPG","null","","","","",""
"","html-keyboard-response","188","323704","0.0-6.0-1.60","FL","uf6pxq0fzv","1549","872","en","RG06DY30","null","","","","learningBlock1","","","","That was a bim.","null","","","","",""
"","html-keyboard-response","189","324705","0.0-6.0-2.60","FL","uf6pxq0fzv","1549","872","en","RG06DY30","null","","","","learningBlock1","","","","<div style=""font-size:60px;""> </div>","null","FL","learning/Slide61.JPG","That was a bim.","",""
"","image-keyboard-response","190","324882","0.0-6.0-0.61","FL","uf6pxq0fzv","1549","872","en","RG06DY30","null","","","","","","","","learning/Slide62.JPG","null","","","","",""
"","html-keyboard-response","191","326035","0.0-6.0-1.61","FL","uf6pxq0fzv","1549","872","en","RG06DY30","null","","","","learningBlock1","","","","That was a dep.","null","","","","",""
"","html-keyboard-response","192","327035","0.0-6.0-2.61","FL","uf6pxq0fzv","1549","872","en","RG06DY30","null","","","","learningBlock1","","","","<div style=""font-size:60px;""> </div>","null","FL","learning/Slide62.JPG","That was a dep.","",""
"","image-keyboard-response","193","327212","0.0-6.0-0.62","FL","uf6pxq0fzv","1549","872","en","RG06DY30","null","","","","","","","","learning/Slide63.JPG","null","","","","",""
"","html-keyboard-response","194","328364","0.0-6.0-1.62","FL","uf6pxq0fzv","1549","872","en","RG06DY30","null","","","","learningBlock1","","","","That was a bim.","null","","","","",""
"","html-keyboard-response","195","329365","0.0-6.0-2.62","FL","uf6pxq0fzv","1549","872","en","RG06DY30","null","","","","learningBlock1","","","","<div style=""font-size:60px;""> </div>","null","FL","learning/Slide63.JPG","That was a bim.","",""
"","image-keyboard-response","196","329542","0.0-6.0-0.63","FL","uf6pxq0fzv","1549","872","en","RG06DY30","null","","","","","","","","learning/Slide64.JPG","null","","","","",""
"","html-keyboard-response","197","330695","0.0-6.0-1.63","FL","uf6pxq0fzv","1549","872","en","RG06DY30","null","","","","learningBlock1","","","","That was a tob.","null","","","","",""
"","html-keyboard-response","198","331696","0.0-6.0-2.63","FL","uf6pxq0fzv","1549","872","en","RG06DY30","null","","","","learningBlock1","","","","<div style=""font-size:60px;""> </div>","null","FL","learning/Slide64.JPG","That was a tob.","",""
"","image-keyboard-response","199","331872","0.0-6.0-0.64","FL","uf6pxq0fzv","1549","872","en","RG06DY30","null","","","","","","","","learning/Slide65.JPG","null","","","","",""
"","html-keyboard-response","200","333024","0.0-6.0-1.64","FL","uf6pxq0fzv","1549","872","en","RG06DY30","null","","","","learningBlock1","","","","That was a wug.","null","","","","",""
"","html-keyboard-response","201","334026","0.0-6.0-2.64","FL","uf6pxq0fzv","1549","872","en","RG06DY30","null","","","","learningBlock1","","","","<div style=""font-size:60px;""> </div>","null","FL","learning/Slide65.JPG","That was a wug.","",""
"","image-keyboard-response","202","334202","0.0-6.0-0.65","FL","uf6pxq0fzv","1549","872","en","RG06DY30","null","","","","","","","","learning/Slide66.JPG","null","","","","",""
"","html-keyboard-response","203","335354","0.0-6.0-1.65","FL","uf6pxq0fzv","1549","872","en","RG06DY30","null","","","","learningBlock1","","","","That was a dep.","null","","","","",""
"","html-keyboard-response","204","336355","0.0-6.0-2.65","FL","uf6pxq0fzv","1549","872","en","RG06DY30","null","","","","learningBlock1","","","","<div style=""font-size:60px;""> </div>","null","FL","learning/Slide66.JPG","That was a dep.","",""
"","image-keyboard-response","205","336531","0.0-6.0-0.66","FL","uf6pxq0fzv","1549","872","en","RG06DY30","null","","","","","","","","learning/Slide67.JPG","null","","","","",""
"","html-keyboard-response","206","337684","0.0-6.0-1.66","FL","uf6pxq0fzv","1549","872","en","RG06DY30","null","","","","learningBlock1","","","","That was a tob.","null","","","","",""
"","html-keyboard-response","207","338685","0.0-6.0-2.66","FL","uf6pxq0fzv","1549","872","en","RG06DY30","null","","","","learningBlock1","","","","<div style=""font-size:60px;""> </div>","null","FL","learning/Slide67.JPG","That was a tob.","",""
"","image-keyboard-response","208","338860","0.0-6.0-0.67","FL","uf6pxq0fzv","1549","872","en","RG06DY30","null","","","","","","","","learning/Slide68.JPG","null","","","","",""
"","html-keyboard-response","209","340014","0.0-6.0-1.67","FL","uf6pxq0fzv","1549","872","en","RG06DY30","null","","","","learningBlock1","","","","That was a wug.","null","","","","",""
"","html-keyboard-response","210","341015","0.0-6.0-2.67","FL","uf6pxq0fzv","1549","872","en","RG06DY30","null","","","","learningBlock1","","","","<div style=""font-size:60px;""> </div>","null","FL","learning/Slide68.JPG","That was a wug.","",""
"","image-keyboard-response","211","341192","0.0-6.0-0.68","FL","uf6pxq0fzv","1549","872","en","RG06DY30","null","","","","","","","","learning/Slide69.JPG","null","","","","",""
"","html-keyboard-response","212","342345","0.0-6.0-1.68","FL","uf6pxq0fzv","1549","872","en","RG06DY30","null","","","","learningBlock1","","","","That was a tob.","null","","","","",""
"","html-keyboard-response","213","343346","0.0-6.0-2.68","FL","uf6pxq0fzv","1549","872","en","RG06DY30","null","","","","learningBlock1","","","","<div style=""font-size:60px;""> </div>","null","FL","learning/Slide69.JPG","That was a tob.","",""
"","image-keyboard-response","214","343522","0.0-6.0-0.69","FL","uf6pxq0fzv","1549","872","en","RG06DY30","null","","","","","","","","learning/Slide70.JPG","null","","","","",""
"","html-keyboard-response","215","344674","0.0-6.0-1.69","FL","uf6pxq0fzv","1549","872","en","RG06DY30","null","","","","learningBlock1","","","","That was a dep.","null","","","","",""
"","html-keyboard-response","216","345675","0.0-6.0-2.69","FL","uf6pxq0fzv","1549","872","en","RG06DY30","null","","","","learningBlock1","","","","<div style=""font-size:60px;""> </div>","null","FL","learning/Slide70.JPG","That was a dep.","",""
"","image-keyboard-response","217","345851","0.0-6.0-0.70","FL","uf6pxq0fzv","1549","872","en","RG06DY30","null","","","","","","","","learning/Slide71.JPG","null","","","","",""
"","html-keyboard-response","218","347004","0.0-6.0-1.70","FL","uf6pxq0fzv","1549","872","en","RG06DY30","null","","","","learningBlock1","","","","That was a wug.","null","","","","",""
"","html-keyboard-response","219","348006","0.0-6.0-2.70","FL","uf6pxq0fzv","1549","872","en","RG06DY30","null","","","","learningBlock1","","","","<div style=""font-size:60px;""> </div>","null","FL","learning/Slide71.JPG","That was a wug.","",""
"","image-keyboard-response","220","348182","0.0-6.0-0.71","FL","uf6pxq0fzv","1549","872","en","RG06DY30","null","","","","","","","","learning/Slide72.JPG","null","","","","",""
"","html-keyboard-response","221","349335","0.0-6.0-1.71","FL","uf6pxq0fzv","1549","872","en","RG06DY30","null","","","","learningBlock1","","","","That was a bim.","null","","","","",""
"","html-keyboard-response","222","350336","0.0-6.0-2.71","FL","uf6pxq0fzv","1549","872","en","RG06DY30","null","","","","learningBlock1","","","","<div style=""font-size:60px;""> </div>","null","FL","learning/Slide72.JPG","That was a bim.","",""
"","image-keyboard-response","223","350512","0.0-6.0-0.72","FL","uf6pxq0fzv","1549","872","en","RG06DY30","null","","","","","","","","learning/Slide73.JPG","null","","","","",""
"","html-keyboard-response","224","351664","0.0-6.0-1.72","FL","uf6pxq0fzv","1549","872","en","RG06DY30","null","","","","learningBlock1","","","","That was a wug.","null","","","","",""
"","html-keyboard-response","225","352666","0.0-6.0-2.72","FL","uf6pxq0fzv","1549","872","en","RG06DY30","null","","","","learningBlock1","","","","<div style=""font-size:60px;""> </div>","null","FL","learning/Slide73.JPG","That was a wug.","",""
"","image-keyboard-response","226","352843","0.0-6.0-0.73","FL","uf6pxq0fzv","1549","872","en","RG06DY30","null","","","","","","","","learning/Slide74.JPG","null","","","","",""
"","html-keyboard-response","227","353994","0.0-6.0-1.73","FL","uf6pxq0fzv","1549","872","en","RG06DY30","null","","","","learningBlock1","","","","That was a dep.","null","","","","",""
"","html-keyboard-response","228","354995","0.0-6.0-2.73","FL","uf6pxq0fzv","1549","872","en","RG06DY30","null","","","","learningBlock1","","","","<div style=""font-size:60px;""> </div>","null","FL","learning/Slide74.JPG","That was a dep.","",""
"","image-keyboard-response","229","355171","0.0-6.0-0.74","FL","uf6pxq0fzv","1549","872","en","RG06DY30","null","","","","","","","","learning/Slide75.JPG","null","","","","",""
"","html-keyboard-response","230","356322","0.0-6.0-1.74","FL","uf6pxq0fzv","1549","872","en","RG06DY30","null","","","","learningBlock1","","","","That was a tob.","null","","","","",""
"","html-keyboard-response","231","357324","0.0-6.0-2.74","FL","uf6pxq0fzv","1549","872","en","RG06DY30","null","","","","learningBlock1","","","","<div style=""font-size:60px;""> </div>","null","FL","learning/Slide75.JPG","That was a tob.","",""
"","image-keyboard-response","232","357500","0.0-6.0-0.75","FL","uf6pxq0fzv","1549","872","en","RG06DY30","null","","","","","","","","learning/Slide76.JPG","null","","","","",""
"","html-keyboard-response","233","358652","0.0-6.0-1.75","FL","uf6pxq0fzv","1549","872","en","RG06DY30","null","","","","learningBlock1","","","","That was a bim.","null","","","","",""
"","html-keyboard-response","234","359653","0.0-6.0-2.75","FL","uf6pxq0fzv","1549","872","en","RG06DY30","null","","","","learningBlock1","","","","<div style=""font-size:60px;""> </div>","null","FL","learning/Slide76.JPG","That was a bim.","",""
"","image-keyboard-response","235","359830","0.0-6.0-0.76","FL","uf6pxq0fzv","1549","872","en","RG06DY30","null","","","","","","","","learning/Slide77.JPG","null","","","","",""
"","html-keyboard-response","236","360982","0.0-6.0-1.76","FL","uf6pxq0fzv","1549","872","en","RG06DY30","null","","","","learningBlock1","","","","That was a tob.","null","","","","",""
"","html-keyboard-response","237","361984","0.0-6.0-2.76","FL","uf6pxq0fzv","1549","872","en","RG06DY30","null","","","","learningBlock1","","","","<div style=""font-size:60px;""> </div>","null","FL","learning/Slide77.JPG","That was a tob.","",""
"","image-keyboard-response","238","362160","0.0-6.0-0.77","FL","uf6pxq0fzv","1549","872","en","RG06DY30","null","","","","","","","","learning/Slide78.JPG","null","","","","",""
"","html-keyboard-response","239","363311","0.0-6.0-1.77","FL","uf6pxq0fzv","1549","872","en","RG06DY30","null","","","","learningBlock1","","","","That was a wug.","null","","","","",""
"","html-keyboard-response","240","364314","0.0-6.0-2.77","FL","uf6pxq0fzv","1549","872","en","RG06DY30","null","","","","learningBlock1","","","","<div style=""font-size:60px;""> </div>","null","FL","learning/Slide78.JPG","That was a wug.","",""
"","image-keyboard-response","241","364491","0.0-6.0-0.78","FL","uf6pxq0fzv","1549","872","en","RG06DY30","null","","","","","","","","learning/Slide79.JPG","null","","","","",""
"","html-keyboard-response","242","365643","0.0-6.0-1.78","FL","uf6pxq0fzv","1549","872","en","RG06DY30","null","","","","learningBlock1","","","","That was a bim.","null","","","","",""
"","html-keyboard-response","243","366644","0.0-6.0-2.78","FL","uf6pxq0fzv","1549","872","en","RG06DY30","null","","","","learningBlock1","","","","<div style=""font-size:60px;""> </div>","null","FL","learning/Slide79.JPG","That was a bim.","",""
"","image-keyboard-response","244","366820","0.0-6.0-0.79","FL","uf6pxq0fzv","1549","872","en","RG06DY30","null","","","","","","","","learning/Slide80.JPG","null","","","","",""
"","html-keyboard-response","245","367972","0.0-6.0-1.79","FL","uf6pxq0fzv","1549","872","en","RG06DY30","null","","","","learningBlock1","","","","That was a tob.","null","","","","",""
"","html-keyboard-response","246","368973","0.0-6.0-2.79","FL","uf6pxq0fzv","1549","872","en","RG06DY30","null","","","","learningBlock1","","","","<div style=""font-size:60px;""> </div>","null","FL","learning/Slide80.JPG","That was a tob.","",""
"","instructions","247","372062","0.0-7.0","FL","uf6pxq0fzv","1549","872","en","RG06DY30","NA","","","[{""page_index"":0,""viewing_time"":3088.785000001779}]","instructions","","","","","","","","","",""
"","image-keyboard-response","248","372239","0.0-8.0-0.0","FL","uf6pxq0fzv","1549","872","en","RG06DY30","null","","","","","","","","learning/Slide81.JPG","null","","","","",""
"","html-keyboard-response","249","373391","0.0-8.0-1.0","FL","uf6pxq0fzv","1549","872","en","RG06DY30","null","","","","learningBlock2","","","","That was a wug.","null","","","","",""
"","html-keyboard-response","250","374393","0.0-8.0-2.0","FL","uf6pxq0fzv","1549","872","en","RG06DY30","null","","","","learningBlock2","","","","<div style=""font-size:60px;""> </div>","null","FL","learning/Slide81.JPG","That was a wug.","",""
"","image-keyboard-response","251","374569","0.0-8.0-0.1","FL","uf6pxq0fzv","1549","872","en","RG06DY30","null","","","","","","","","learning/Slide82.JPG","null","","","","",""
"","html-keyboard-response","252","375721","0.0-8.0-1.1","FL","uf6pxq0fzv","1549","872","en","RG06DY30","null","","","","learningBlock2","","","","That was a bim.","null","","","","",""
"","html-keyboard-response","253","376722","0.0-8.0-2.1","FL","uf6pxq0fzv","1549","872","en","RG06DY30","null","","","","learningBlock2","","","","<div style=""font-size:60px;""> </div>","null","FL","learning/Slide82.JPG","That was a bim.","",""
"","image-keyboard-response","254","376899","0.0-8.0-0.2","FL","uf6pxq0fzv","1549","872","en","RG06DY30","null","","","","","","","","learning/Slide83.JPG","null","","","","",""
"","html-keyboard-response","255","378052","0.0-8.0-1.2","FL","uf6pxq0fzv","1549","872","en","RG06DY30","null","","","","learningBlock2","","","","That was a wug.","null","","","","",""
"","html-keyboard-response","256","379053","0.0-8.0-2.2","FL","uf6pxq0fzv","1549","872","en","RG06DY30","null","","","","learningBlock2","","","","<div style=""font-size:60px;""> </div>","null","FL","learning/Slide83.JPG","That was a wug.","",""
"","image-keyboard-response","257","379229","0.0-8.0-0.3","FL","uf6pxq0fzv","1549","872","en","RG06DY30","null","","","","","","","","learning/Slide84.JPG","null","","","","",""
"","html-keyboard-response","258","380382","0.0-8.0-1.3","FL","uf6pxq0fzv","1549","872","en","RG06DY30","null","","","","learningBlock2","","","","That was a dep.","null","","","","",""
"","html-keyboard-response","259","381383","0.0-8.0-2.3","FL","uf6pxq0fzv","1549","872","en","RG06DY30","null","","","","learningBlock2","","","","<div style=""font-size:60px;""> </div>","null","FL","learning/Slide84.JPG","That was a dep.","",""
"","image-keyboard-response","260","381559","0.0-8.0-0.4","FL","uf6pxq0fzv","1549","872","en","RG06DY30","null","","","","","","","","learning/Slide85.JPG","null","","","","",""
"","html-keyboard-response","261","382712","0.0-8.0-1.4","FL","uf6pxq0fzv","1549","872","en","RG06DY30","null","","","","learningBlock2","","","","That was a bim.","null","","","","",""
"","html-keyboard-response","262","383714","0.0-8.0-2.4","FL","uf6pxq0fzv","1549","872","en","RG06DY30","null","","","","learningBlock2","","","","<div style=""font-size:60px;""> </div>","null","FL","learning/Slide85.JPG","That was a bim.","",""
"","image-keyboard-response","263","383890","0.0-8.0-0.5","FL","uf6pxq0fzv","1549","872","en","RG06DY30","null","","","","","","","","learning/Slide86.JPG","null","","","","",""
"","html-keyboard-response","264","385043","0.0-8.0-1.5","FL","uf6pxq0fzv","1549","872","en","RG06DY30","null","","","","learningBlock2","","","","That was a tob.","null","","","","",""
"","html-keyboard-response","265","386044","0.0-8.0-2.5","FL","uf6pxq0fzv","1549","872","en","RG06DY30","null","","","","learningBlock2","","","","<div style=""font-size:60px;""> </div>","null","FL","learning/Slide86.JPG","That was a tob.","",""
"","image-keyboard-response","266","386220","0.0-8.0-0.6","FL","uf6pxq0fzv","1549","872","en","RG06DY30","null","","","","","","","","learning/Slide87.JPG","null","","","","",""
"","html-keyboard-response","267","387372","0.0-8.0-1.6","FL","uf6pxq0fzv","1549","872","en","RG06DY30","null","","","","learningBlock2","","","","That was a wug.","null","","","","",""
"","html-keyboard-response","268","388374","0.0-8.0-2.6","FL","uf6pxq0fzv","1549","872","en","RG06DY30","null","","","","learningBlock2","","","","<div style=""font-size:60px;""> </div>","null","FL","learning/Slide87.JPG","That was a wug.","",""
"","image-keyboard-response","269","388550","0.0-8.0-0.7","FL","uf6pxq0fzv","1549","872","en","RG06DY30","null","","","","","","","","learning/Slide88.JPG","null","","","","",""
"","html-keyboard-response","270","389703","0.0-8.0-1.7","FL","uf6pxq0fzv","1549","872","en","RG06DY30","null","","","","learningBlock2","","","","That was a tob.","null","","","","",""
"","html-keyboard-response","271","390704","0.0-8.0-2.7","FL","uf6pxq0fzv","1549","872","en","RG06DY30","null","","","","learningBlock2","","","","<div style=""font-size:60px;""> </div>","null","FL","learning/Slide88.JPG","That was a tob.","",""
"","image-keyboard-response","272","390880","0.0-8.0-0.8","FL","uf6pxq0fzv","1549","872","en","RG06DY30","null","","","","","","","","learning/Slide89.JPG","null","","","","",""
"","html-keyboard-response","273","392032","0.0-8.0-1.8","FL","uf6pxq0fzv","1549","872","en","RG06DY30","null","","","","learningBlock2","","","","That was a bim.","null","","","","",""
"","html-keyboard-response","274","393034","0.0-8.0-2.8","FL","uf6pxq0fzv","1549","872","en","RG06DY30","null","","","","learningBlock2","","","","<div style=""font-size:60px;""> </div>","null","FL","learning/Slide89.JPG","That was a bim.","",""
"","image-keyboard-response","275","393210","0.0-8.0-0.9","FL","uf6pxq0fzv","1549","872","en","RG06DY30","null","","","","","","","","learning/Slide90.JPG","null","","","","",""
"","html-keyboard-response","276","394363","0.0-8.0-1.9","FL","uf6pxq0fzv","1549","872","en","RG06DY30","null","","","","learningBlock2","","","","That was a dep.","null","","","","",""
"","html-keyboard-response","277","395364","0.0-8.0-2.9","FL","uf6pxq0fzv","1549","872","en","RG06DY30","null","","","","learningBlock2","","","","<div style=""font-size:60px;""> </div>","null","FL","learning/Slide90.JPG","That was a dep.","",""
"","image-keyboard-response","278","395540","0.0-8.0-0.10","FL","uf6pxq0fzv","1549","872","en","RG06DY30","null","","","","","","","","learning/Slide91.JPG","null","","","","",""
"","html-keyboard-response","279","396693","0.0-8.0-1.10","FL","uf6pxq0fzv","1549","872","en","RG06DY30","null","","","","learningBlock2","","","","That was a wug.","null","","","","",""
"","html-keyboard-response","280","397694","0.0-8.0-2.10","FL","uf6pxq0fzv","1549","872","en","RG06DY30","null","","","","learningBlock2","","","","<div style=""font-size:60px;""> </div>","null","FL","learning/Slide91.JPG","That was a wug.","",""
"","image-keyboard-response","281","397870","0.0-8.0-0.11","FL","uf6pxq0fzv","1549","872","en","RG06DY30","null","","","","","","","","learning/Slide92.JPG","null","","","","",""
"","html-keyboard-response","282","399022","0.0-8.0-1.11","FL","uf6pxq0fzv","1549","872","en","RG06DY30","null","","","","learningBlock2","","","","That was a tob.","null","","","","",""
"","html-keyboard-response","283","400024","0.0-8.0-2.11","FL","uf6pxq0fzv","1549","872","en","RG06DY30","null","","","","learningBlock2","","","","<div style=""font-size:60px;""> </div>","null","FL","learning/Slide92.JPG","That was a tob.","",""
"","image-keyboard-response","284","400200","0.0-8.0-0.12","FL","uf6pxq0fzv","1549","872","en","RG06DY30","null","","","","","","","","learning/Slide93.JPG","null","","","","",""
"","html-keyboard-response","285","401354","0.0-8.0-1.12","FL","uf6pxq0fzv","1549","872","en","RG06DY30","null","","","","learningBlock2","","","","That was a bim.","null","","","","",""
"","html-keyboard-response","286","402355","0.0-8.0-2.12","FL","uf6pxq0fzv","1549","872","en","RG06DY30","null","","","","learningBlock2","","","","<div style=""font-size:60px;""> </div>","null","FL","learning/Slide93.JPG","That was a bim.","",""
"","image-keyboard-response","287","402531","0.0-8.0-0.13","FL","uf6pxq0fzv","1549","872","en","RG06DY30","null","","","","","","","","learning/Slide94.JPG","null","","","","",""
"","html-keyboard-response","288","403684","0.0-8.0-1.13","FL","uf6pxq0fzv","1549","872","en","RG06DY30","null","","","","learningBlock2","","","","That was a tob.","null","","","","",""
"","html-keyboard-response","289","404685","0.0-8.0-2.13","FL","uf6pxq0fzv","1549","872","en","RG06DY30","null","","","","learningBlock2","","","","<div style=""font-size:60px;""> </div>","null","FL","learning/Slide94.JPG","That was a tob.","",""
"","image-keyboard-response","290","404862","0.0-8.0-0.14","FL","uf6pxq0fzv","1549","872","en","RG06DY30","null","","","","","","","","learning/Slide95.JPG","null","","","","",""
"","html-keyboard-response","291","406014","0.0-8.0-1.14","FL","uf6pxq0fzv","1549","872","en","RG06DY30","null","","","","learningBlock2","","","","That was a wug.","null","","","","",""
"","html-keyboard-response","292","407016","0.0-8.0-2.14","FL","uf6pxq0fzv","1549","872","en","RG06DY30","null","","","","learningBlock2","","","","<div style=""font-size:60px;""> </div>","null","FL","learning/Slide95.JPG","That was a wug.","",""
"","image-keyboard-response","293","407192","0.0-8.0-0.15","FL","uf6pxq0fzv","1549","872","en","RG06DY30","null","","","","","","","","learning/Slide96.JPG","null","","","","",""
"","html-keyboard-response","294","408346","0.0-8.0-1.15","FL","uf6pxq0fzv","1549","872","en","RG06DY30","null","","","","learningBlock2","","","","That was a tob.","null","","","","",""
"","html-keyboard-response","295","409348","0.0-8.0-2.15","FL","uf6pxq0fzv","1549","872","en","RG06DY30","null","","","","learningBlock2","","","","<div style=""font-size:60px;""> </div>","null","FL","learning/Slide96.JPG","That was a tob.","",""
"","image-keyboard-response","296","409524","0.0-8.0-0.16","FL","uf6pxq0fzv","1549","872","en","RG06DY30","null","","","","","","","","learning/Slide97.JPG","null","","","","",""
"","html-keyboard-response","297","410678","0.0-8.0-1.16","FL","uf6pxq0fzv","1549","872","en","RG06DY30","null","","","","learningBlock2","","","","That was a dep.","null","","","","",""
"","html-keyboard-response","298","411680","0.0-8.0-2.16","FL","uf6pxq0fzv","1549","872","en","RG06DY30","null","","","","learningBlock2","","","","<div style=""font-size:60px;""> </div>","null","FL","learning/Slide97.JPG","That was a dep.","",""
"","image-keyboard-response","299","411856","0.0-8.0-0.17","FL","uf6pxq0fzv","1549","872","en","RG06DY30","null","","","","","","","","learning/Slide98.JPG","null","","","","",""
"","html-keyboard-response","300","413015","0.0-8.0-1.17","FL","uf6pxq0fzv","1549","872","en","RG06DY30","null","","","","learningBlock2","","","","That was a bim.","null","","","","",""
"","html-keyboard-response","301","414016","0.0-8.0-2.17","FL","uf6pxq0fzv","1549","872","en","RG06DY30","null","","","","learningBlock2","","","","<div style=""font-size:60px;""> </div>","null","FL","learning/Slide98.JPG","That was a bim.","",""
"","image-keyboard-response","302","414192","0.0-8.0-0.18","FL","uf6pxq0fzv","1549","872","en","RG06DY30","null","","","","","","","","learning/Slide99.JPG","null","","","","",""
"","html-keyboard-response","303","415344","0.0-8.0-1.18","FL","uf6pxq0fzv","1549","872","en","RG06DY30","null","","","","learningBlock2","","","","That was a dep.","null","","","","",""
"","html-keyboard-response","304","416345","0.0-8.0-2.18","FL","uf6pxq0fzv","1549","872","en","RG06DY30","null","","","","learningBlock2","","","","<div style=""font-size:60px;""> </div>","null","FL","learning/Slide99.JPG","That was a dep.","",""
"","image-keyboard-response","305","416522","0.0-8.0-0.19","FL","uf6pxq0fzv","1549","872","en","RG06DY30","null","","","","","","","","learning/Slide100.JPG","null","","","","",""
"","html-keyboard-response","306","417674","0.0-8.0-1.19","FL","uf6pxq0fzv","1549","872","en","RG06DY30","null","","","","learningBlock2","","","","That was a bim.","null","","","","",""
"","html-keyboard-response","307","418680","0.0-8.0-2.19","FL","uf6pxq0fzv","1549","872","en","RG06DY30","null","","","","learningBlock2","","","","<div style=""font-size:60px;""> </div>","null","FL","learning/Slide100.JPG","That was a bim.","",""
"","image-keyboard-response","308","418856","0.0-8.0-0.20","FL","uf6pxq0fzv","1549","872","en","RG06DY30","null","","","","","","","","learning/Slide101.JPG","null","","","","",""
"","html-keyboard-response","309","420009","0.0-8.0-1.20","FL","uf6pxq0fzv","1549","872","en","RG06DY30","null","","","","learningBlock2","","","","That was a tob.","null","","","","",""
"","html-keyboard-response","310","421010","0.0-8.0-2.20","FL","uf6pxq0fzv","1549","872","en","RG06DY30","null","","","","learningBlock2","","","","<div style=""font-size:60px;""> </div>","null","FL","learning/Slide101.JPG","That was a tob.","",""
"","image-keyboard-response","311","421186","0.0-8.0-0.21","FL","uf6pxq0fzv","1549","872","en","RG06DY30","null","","","","","","","","learning/Slide102.JPG","null","","","","",""
"","html-keyboard-response","312","422339","0.0-8.0-1.21","FL","uf6pxq0fzv","1549","872","en","RG06DY30","null","","","","learningBlock2","","","","That was a bim.","null","","","","",""
"","html-keyboard-response","313","423340","0.0-8.0-2.21","FL","uf6pxq0fzv","1549","872","en","RG06DY30","null","","","","learningBlock2","","","","<div style=""font-size:60px;""> </div>","null","FL","learning/Slide102.JPG","That was a bim.","",""
"","image-keyboard-response","314","423516","0.0-8.0-0.22","FL","uf6pxq0fzv","1549","872","en","RG06DY30","null","","","","","","","","learning/Slide103.JPG","null","","","","",""
"","html-keyboard-response","315","424669","0.0-8.0-1.22","FL","uf6pxq0fzv","1549","872","en","RG06DY30","null","","","","learningBlock2","","","","That was a dep.","null","","","","",""
"","html-keyboard-response","316","425670","0.0-8.0-2.22","FL","uf6pxq0fzv","1549","872","en","RG06DY30","null","","","","learningBlock2","","","","<div style=""font-size:60px;""> </div>","null","FL","learning/Slide103.JPG","That was a dep.","",""
"","image-keyboard-response","317","425846","0.0-8.0-0.23","FL","uf6pxq0fzv","1549","872","en","RG06DY30","null","","","","","","","","learning/Slide104.JPG","null","","","","",""
"","html-keyboard-response","318","427001","0.0-8.0-1.23","FL","uf6pxq0fzv","1549","872","en","RG06DY30","null","","","","learningBlock2","","","","That was a tob.","null","","","","",""
"","html-keyboard-response","319","428002","0.0-8.0-2.23","FL","uf6pxq0fzv","1549","872","en","RG06DY30","null","","","","learningBlock2","","","","<div style=""font-size:60px;""> </div>","null","FL","learning/Slide104.JPG","That was a tob.","",""
"","image-keyboard-response","320","428179","0.0-8.0-0.24","FL","uf6pxq0fzv","1549","872","en","RG06DY30","null","","","","","","","","learning/Slide105.JPG","null","","","","",""
"","html-keyboard-response","321","429331","0.0-8.0-1.24","FL","uf6pxq0fzv","1549","872","en","RG06DY30","null","","","","learningBlock2","","","","That was a dep.","null","","","","",""
"","html-keyboard-response","322","430333","0.0-8.0-2.24","FL","uf6pxq0fzv","1549","872","en","RG06DY30","null","","","","learningBlock2","","","","<div style=""font-size:60px;""> </div>","null","FL","learning/Slide105.JPG","That was a dep.","",""
"","image-keyboard-response","323","430510","0.0-8.0-0.25","FL","uf6pxq0fzv","1549","872","en","RG06DY30","null","","","","","","","","learning/Slide106.JPG","null","","","","",""
"","html-keyboard-response","324","431676","0.0-8.0-1.25","FL","uf6pxq0fzv","1549","872","en","RG06DY30","null","","","","learningBlock2","","","","That was a wug.","null","","","","",""
"","html-keyboard-response","325","432678","0.0-8.0-2.25","FL","uf6pxq0fzv","1549","872","en","RG06DY30","null","","","","learningBlock2","","","","<div style=""font-size:60px;""> </div>","null","FL","learning/Slide106.JPG","That was a wug.","",""
"","image-keyboard-response","326","432854","0.0-8.0-0.26","FL","uf6pxq0fzv","1549","872","en","RG06DY30","null","","","","","","","","learning/Slide107.JPG","null","","","","",""
"","html-keyboard-response","327","434007","0.0-8.0-1.26","FL","uf6pxq0fzv","1549","872","en","RG06DY30","null","","","","learningBlock2","","","","That was a bim.","null","","","","",""
"","html-keyboard-response","328","435009","0.0-8.0-2.26","FL","uf6pxq0fzv","1549","872","en","RG06DY30","null","","","","learningBlock2","","","","<div style=""font-size:60px;""> </div>","null","FL","learning/Slide107.JPG","That was a bim.","",""
"","image-keyboard-response","329","435185","0.0-8.0-0.27","FL","uf6pxq0fzv","1549","872","en","RG06DY30","null","","","","","","","","learning/Slide108.JPG","null","","","","",""
"","html-keyboard-response","330","436343","0.0-8.0-1.27","FL","uf6pxq0fzv","1549","872","en","RG06DY30","null","","","","learningBlock2","","","","That was a dep.","null","","","","",""
"","html-keyboard-response","331","437345","0.0-8.0-2.27","FL","uf6pxq0fzv","1549","872","en","RG06DY30","null","","","","learningBlock2","","","","<div style=""font-size:60px;""> </div>","null","FL","learning/Slide108.JPG","That was a dep.","",""
"","image-keyboard-response","332","437521","0.0-8.0-0.28","FL","uf6pxq0fzv","1549","872","en","RG06DY30","null","","","","","","","","learning/Slide109.JPG","null","","","","",""
"","html-keyboard-response","333","438673","0.0-8.0-1.28","FL","uf6pxq0fzv","1549","872","en","RG06DY30","null","","","","learningBlock2","","","","That was a wug.","null","","","","",""
"","html-keyboard-response","334","439675","0.0-8.0-2.28","FL","uf6pxq0fzv","1549","872","en","RG06DY30","null","","","","learningBlock2","","","","<div style=""font-size:60px;""> </div>","null","FL","learning/Slide109.JPG","That was a wug.","",""
"","image-keyboard-response","335","439851","0.0-8.0-0.29","FL","uf6pxq0fzv","1549","872","en","RG06DY30","null","","","","","","","","learning/Slide110.JPG","null","","","","",""
"","html-keyboard-response","336","441004","0.0-8.0-1.29","FL","uf6pxq0fzv","1549","872","en","RG06DY30","null","","","","learningBlock2","","","","That was a bim.","null","","","","",""
"","html-keyboard-response","337","442005","0.0-8.0-2.29","FL","uf6pxq0fzv","1549","872","en","RG06DY30","null","","","","learningBlock2","","","","<div style=""font-size:60px;""> </div>","null","FL","learning/Slide110.JPG","That was a bim.","",""
"","image-keyboard-response","338","442182","0.0-8.0-0.30","FL","uf6pxq0fzv","1549","872","en","RG06DY30","null","","","","","","","","learning/Slide111.JPG","null","","","","",""
"","html-keyboard-response","339","443336","0.0-8.0-1.30","FL","uf6pxq0fzv","1549","872","en","RG06DY30","null","","","","learningBlock2","","","","That was a tob.","null","","","","",""
"","html-keyboard-response","340","444337","0.0-8.0-2.30","FL","uf6pxq0fzv","1549","872","en","RG06DY30","null","","","","learningBlock2","","","","<div style=""font-size:60px;""> </div>","null","FL","learning/Slide111.JPG","That was a tob.","",""
"","image-keyboard-response","341","444513","0.0-8.0-0.31","FL","uf6pxq0fzv","1549","872","en","RG06DY30","null","","","","","","","","learning/Slide112.JPG","null","","","","",""
"","html-keyboard-response","342","445664","0.0-8.0-1.31","FL","uf6pxq0fzv","1549","872","en","RG06DY30","null","","","","learningBlock2","","","","That was a wug.","null","","","","",""
"","html-keyboard-response","343","446665","0.0-8.0-2.31","FL","uf6pxq0fzv","1549","872","en","RG06DY30","null","","","","learningBlock2","","","","<div style=""font-size:60px;""> </div>","null","FL","learning/Slide112.JPG","That was a wug.","",""
"","image-keyboard-response","344","446842","0.0-8.0-0.32","FL","uf6pxq0fzv","1549","872","en","RG06DY30","null","","","","","","","","learning/Slide113.JPG","null","","","","",""
"","html-keyboard-response","345","447994","0.0-8.0-1.32","FL","uf6pxq0fzv","1549","872","en","RG06DY30","null","","","","learningBlock2","","","","That was a tob.","null","","","","",""
"","html-keyboard-response","346","448995","0.0-8.0-2.32","FL","uf6pxq0fzv","1549","872","en","RG06DY30","null","","","","learningBlock2","","","","<div style=""font-size:60px;""> </div>","null","FL","learning/Slide113.JPG","That was a tob.","",""
"","image-keyboard-response","347","449172","0.0-8.0-0.33","FL","uf6pxq0fzv","1549","872","en","RG06DY30","null","","","","","","","","learning/Slide114.JPG","null","","","","",""
"","html-keyboard-response","348","450325","0.0-8.0-1.33","FL","uf6pxq0fzv","1549","872","en","RG06DY30","null","","","","learningBlock2","","","","That was a wug.","null","","","","",""
"","html-keyboard-response","349","451327","0.0-8.0-2.33","FL","uf6pxq0fzv","1549","872","en","RG06DY30","null","","","","learningBlock2","","","","<div style=""font-size:60px;""> </div>","null","FL","learning/Slide114.JPG","That was a wug.","",""
"","image-keyboard-response","350","451504","0.0-8.0-0.34","FL","uf6pxq0fzv","1549","872","en","RG06DY30","null","","","","","","","","learning/Slide115.JPG","null","","","","",""
"","html-keyboard-response","351","452657","0.0-8.0-1.34","FL","uf6pxq0fzv","1549","872","en","RG06DY30","null","","","","learningBlock2","","","","That was a bim.","null","","","","",""
"","html-keyboard-response","352","453658","0.0-8.0-2.34","FL","uf6pxq0fzv","1549","872","en","RG06DY30","null","","","","learningBlock2","","","","<div style=""font-size:60px;""> </div>","null","FL","learning/Slide115.JPG","That was a bim.","",""
"","image-keyboard-response","353","453834","0.0-8.0-0.35","FL","uf6pxq0fzv","1549","872","en","RG06DY30","null","","","","","","","","learning/Slide116.JPG","null","","","","",""
"","html-keyboard-response","354","454988","0.0-8.0-1.35","FL","uf6pxq0fzv","1549","872","en","RG06DY30","null","","","","learningBlock2","","","","That was a dep.","null","","","","",""
"","html-keyboard-response","355","455989","0.0-8.0-2.35","FL","uf6pxq0fzv","1549","872","en","RG06DY30","null","","","","learningBlock2","","","","<div style=""font-size:60px;""> </div>","null","FL","learning/Slide116.JPG","That was a dep.","",""
"","image-keyboard-response","356","456165","0.0-8.0-0.36","FL","uf6pxq0fzv","1549","872","en","RG06DY30","null","","","","","","","","learning/Slide117.JPG","null","","","","",""
"","html-keyboard-response","357","457328","0.0-8.0-1.36","FL","uf6pxq0fzv","1549","872","en","RG06DY30","null","","","","learningBlock2","","","","That was a tob.","null","","","","",""
"","html-keyboard-response","358","458329","0.0-8.0-2.36","FL","uf6pxq0fzv","1549","872","en","RG06DY30","null","","","","learningBlock2","","","","<div style=""font-size:60px;""> </div>","null","FL","learning/Slide117.JPG","That was a tob.","",""
"","image-keyboard-response","359","458506","0.0-8.0-0.37","FL","uf6pxq0fzv","1549","872","en","RG06DY30","null","","","","","","","","learning/Slide118.JPG","null","","","","",""
"","html-keyboard-response","360","459665","0.0-8.0-1.37","FL","uf6pxq0fzv","1549","872","en","RG06DY30","null","","","","learningBlock2","","","","That was a dep.","null","","","","",""
"","html-keyboard-response","361","460666","0.0-8.0-2.37","FL","uf6pxq0fzv","1549","872","en","RG06DY30","null","","","","learningBlock2","","","","<div style=""font-size:60px;""> </div>","null","FL","learning/Slide118.JPG","That was a dep.","",""
"","image-keyboard-response","362","460842","0.0-8.0-0.38","FL","uf6pxq0fzv","1549","872","en","RG06DY30","null","","","","","","","","learning/Slide119.JPG","null","","","","",""
"","html-keyboard-response","363","461995","0.0-8.0-1.38","FL","uf6pxq0fzv","1549","872","en","RG06DY30","null","","","","learningBlock2","","","","That was a wug.","null","","","","",""
"","html-keyboard-response","364","462996","0.0-8.0-2.38","FL","uf6pxq0fzv","1549","872","en","RG06DY30","null","","","","learningBlock2","","","","<div style=""font-size:60px;""> </div>","null","FL","learning/Slide119.JPG","That was a wug.","",""
"","image-keyboard-response","365","463172","0.0-8.0-0.39","FL","uf6pxq0fzv","1549","872","en","RG06DY30","null","","","","","","","","learning/Slide120.JPG","null","","","","",""
"","html-keyboard-response","366","464325","0.0-8.0-1.39","FL","uf6pxq0fzv","1549","872","en","RG06DY30","null","","","","learningBlock2","","","","That was a dep.","null","","","","",""
"","html-keyboard-response","367","465326","0.0-8.0-2.39","FL","uf6pxq0fzv","1549","872","en","RG06DY30","null","","","","learningBlock2","","","","<div style=""font-size:60px;""> </div>","null","FL","learning/Slide120.JPG","That was a dep.","",""
"","image-keyboard-response","368","465502","0.0-8.0-0.40","FL","uf6pxq0fzv","1549","872","en","RG06DY30","null","","","","","","","","learning/Slide121.JPG","null","","","","",""
"","html-keyboard-response","369","466654","0.0-8.0-1.40","FL","uf6pxq0fzv","1549","872","en","RG06DY30","null","","","","learningBlock2","","","","That was a bim.","null","","","","",""
"","html-keyboard-response","370","467655","0.0-8.0-2.40","FL","uf6pxq0fzv","1549","872","en","RG06DY30","null","","","","learningBlock2","","","","<div style=""font-size:60px;""> </div>","null","FL","learning/Slide121.JPG","That was a bim.","",""
"","image-keyboard-response","371","467832","0.0-8.0-0.41","FL","uf6pxq0fzv","1549","872","en","RG06DY30","null","","","","","","","","learning/Slide122.JPG","null","","","","",""
"","html-keyboard-response","372","468984","0.0-8.0-1.41","FL","uf6pxq0fzv","1549","872","en","RG06DY30","null","","","","learningBlock2","","","","That was a wug.","null","","","","",""
"","html-keyboard-response","373","469986","0.0-8.0-2.41","FL","uf6pxq0fzv","1549","872","en","RG06DY30","null","","","","learningBlock2","","","","<div style=""font-size:60px;""> </div>","null","FL","learning/Slide122.JPG","That was a wug.","",""
"","image-keyboard-response","374","470162","0.0-8.0-0.42","FL","uf6pxq0fzv","1549","872","en","RG06DY30","null","","","","","","","","learning/Slide123.JPG","null","","","","",""
"","html-keyboard-response","375","471314","0.0-8.0-1.42","FL","uf6pxq0fzv","1549","872","en","RG06DY30","null","","","","learningBlock2","","","","That was a bim.","null","","","","",""
"","html-keyboard-response","376","472315","0.0-8.0-2.42","FL","uf6pxq0fzv","1549","872","en","RG06DY30","null","","","","learningBlock2","","","","<div style=""font-size:60px;""> </div>","null","FL","learning/Slide123.JPG","That was a bim.","",""
"","image-keyboard-response","377","472492","0.0-8.0-0.43","FL","uf6pxq0fzv","1549","872","en","RG06DY30","null","","","","","","","","learning/Slide124.JPG","null","","","","",""
"","html-keyboard-response","378","473658","0.0-8.0-1.43","FL","uf6pxq0fzv","1549","872","en","RG06DY30","null","","","","learningBlock2","","","","That was a tob.","null","","","","",""
"","html-keyboard-response","379","474659","0.0-8.0-2.43","FL","uf6pxq0fzv","1549","872","en","RG06DY30","null","","","","learningBlock2","","","","<div style=""font-size:60px;""> </div>","null","FL","learning/Slide124.JPG","That was a tob.","",""
"","image-keyboard-response","380","474836","0.0-8.0-0.44","FL","uf6pxq0fzv","1549","872","en","RG06DY30","null","","","","","","","","learning/Slide125.JPG","null","","","","",""
"","html-keyboard-response","381","475989","0.0-8.0-1.44","FL","uf6pxq0fzv","1549","872","en","RG06DY30","null","","","","learningBlock2","","","","That was a bim.","null","","","","",""
"","html-keyboard-response","382","476990","0.0-8.0-2.44","FL","uf6pxq0fzv","1549","872","en","RG06DY30","null","","","","learningBlock2","","","","<div style=""font-size:60px;""> </div>","null","FL","learning/Slide125.JPG","That was a bim.","",""
"","image-keyboard-response","383","477166","0.0-8.0-0.45","FL","uf6pxq0fzv","1549","872","en","RG06DY30","null","","","","","","","","learning/Slide126.JPG","null","","","","",""
"","html-keyboard-response","384","478319","0.0-8.0-1.45","FL","uf6pxq0fzv","1549","872","en","RG06DY30","null","","","","learningBlock2","","","","That was a tob.","null","","","","",""
"","html-keyboard-response","385","479320","0.0-8.0-2.45","FL","uf6pxq0fzv","1549","872","en","RG06DY30","null","","","","learningBlock2","","","","<div style=""font-size:60px;""> </div>","null","FL","learning/Slide126.JPG","That was a tob.","",""
"","image-keyboard-response","386","479496","0.0-8.0-0.46","FL","uf6pxq0fzv","1549","872","en","RG06DY30","null","","","","","","","","learning/Slide127.JPG","null","","","","",""
"","html-keyboard-response","387","480648","0.0-8.0-1.46","FL","uf6pxq0fzv","1549","872","en","RG06DY30","null","","","","learningBlock2","","","","That was a dep.","null","","","","",""
"","html-keyboard-response","388","481649","0.0-8.0-2.46","FL","uf6pxq0fzv","1549","872","en","RG06DY30","null","","","","learningBlock2","","","","<div style=""font-size:60px;""> </div>","null","FL","learning/Slide127.JPG","That was a dep.","",""
"","image-keyboard-response","389","481825","0.0-8.0-0.47","FL","uf6pxq0fzv","1549","872","en","RG06DY30","null","","","","","","","","learning/Slide128.JPG","null","","","","",""
"","html-keyboard-response","390","482977","0.0-8.0-1.47","FL","uf6pxq0fzv","1549","872","en","RG06DY30","null","","","","learningBlock2","","","","That was a wug.","null","","","","",""
"","html-keyboard-response","391","483979","0.0-8.0-2.47","FL","uf6pxq0fzv","1549","872","en","RG06DY30","null","","","","learningBlock2","","","","<div style=""font-size:60px;""> </div>","null","FL","learning/Slide128.JPG","That was a wug.","",""
"","image-keyboard-response","392","484156","0.0-8.0-0.48","FL","uf6pxq0fzv","1549","872","en","RG06DY30","null","","","","","","","","learning/Slide129.JPG","null","","","","",""
"","html-keyboard-response","393","485308","0.0-8.0-1.48","FL","uf6pxq0fzv","1549","872","en","RG06DY30","null","","","","learningBlock2","","","","That was a tob.","null","","","","",""
"","html-keyboard-response","394","486309","0.0-8.0-2.48","FL","uf6pxq0fzv","1549","872","en","RG06DY30","null","","","","learningBlock2","","","","<div style=""font-size:60px;""> </div>","null","FL","learning/Slide129.JPG","That was a tob.","",""
"","image-keyboard-response","395","486486","0.0-8.0-0.49","FL","uf6pxq0fzv","1549","872","en","RG06DY30","null","","","","","","","","learning/Slide130.JPG","null","","","","",""
"","html-keyboard-response","396","487638","0.0-8.0-1.49","FL","uf6pxq0fzv","1549","872","en","RG06DY30","null","","","","learningBlock2","","","","That was a wug.","null","","","","",""
"","html-keyboard-response","397","488639","0.0-8.0-2.49","FL","uf6pxq0fzv","1549","872","en","RG06DY30","null","","","","learningBlock2","","","","<div style=""font-size:60px;""> </div>","null","FL","learning/Slide130.JPG","That was a wug.","",""
"","image-keyboard-response","398","488815","0.0-8.0-0.50","FL","uf6pxq0fzv","1549","872","en","RG06DY30","null","","","","","","","","learning/Slide131.JPG","null","","","","",""
"","html-keyboard-response","399","489967","0.0-8.0-1.50","FL","uf6pxq0fzv","1549","872","en","RG06DY30","null","","","","learningBlock2","","","","That was a bim.","null","","","","",""
"","html-keyboard-response","400","490969","0.0-8.0-2.50","FL","uf6pxq0fzv","1549","872","en","RG06DY30","null","","","","learningBlock2","","","","<div style=""font-size:60px;""> </div>","null","FL","learning/Slide131.JPG","That was a bim.","",""
"","image-keyboard-response","401","491145","0.0-8.0-0.51","FL","uf6pxq0fzv","1549","872","en","RG06DY30","null","","","","","","","","learning/Slide132.JPG","null","","","","",""
"","html-keyboard-response","402","492297","0.0-8.0-1.51","FL","uf6pxq0fzv","1549","872","en","RG06DY30","null","","","","learningBlock2","","","","That was a dep.","null","","","","",""
"","html-keyboard-response","403","493299","0.0-8.0-2.51","FL","uf6pxq0fzv","1549","872","en","RG06DY30","null","","","","learningBlock2","","","","<div style=""font-size:60px;""> </div>","null","FL","learning/Slide132.JPG","That was a dep.","",""
"","image-keyboard-response","404","493476","0.0-8.0-0.52","FL","uf6pxq0fzv","1549","872","en","RG06DY30","null","","","","","","","","learning/Slide133.JPG","null","","","","",""
"","html-keyboard-response","405","494628","0.0-8.0-1.52","FL","uf6pxq0fzv","1549","872","en","RG06DY30","null","","","","learningBlock2","","","","That was a tob.","null","","","","",""
"","html-keyboard-response","406","495629","0.0-8.0-2.52","FL","uf6pxq0fzv","1549","872","en","RG06DY30","null","","","","learningBlock2","","","","<div style=""font-size:60px;""> </div>","null","FL","learning/Slide133.JPG","That was a tob.","",""
"","image-keyboard-response","407","495805","0.0-8.0-0.53","FL","uf6pxq0fzv","1549","872","en","RG06DY30","null","","","","","","","","learning/Slide134.JPG","null","","","","",""
"","html-keyboard-response","408","496957","0.0-8.0-1.53","FL","uf6pxq0fzv","1549","872","en","RG06DY30","null","","","","learningBlock2","","","","That was a dep.","null","","","","",""
"","html-keyboard-response","409","497959","0.0-8.0-2.53","FL","uf6pxq0fzv","1549","872","en","RG06DY30","null","","","","learningBlock2","","","","<div style=""font-size:60px;""> </div>","null","FL","learning/Slide134.JPG","That was a dep.","",""
"","image-keyboard-response","410","498135","0.0-8.0-0.54","FL","uf6pxq0fzv","1549","872","en","RG06DY30","null","","","","","","","","learning/Slide135.JPG","null","","","","",""
"","html-keyboard-response","411","499288","0.0-8.0-1.54","FL","uf6pxq0fzv","1549","872","en","RG06DY30","null","","","","learningBlock2","","","","That was a tob.","null","","","","",""
"","html-keyboard-response","412","500289","0.0-8.0-2.54","FL","uf6pxq0fzv","1549","872","en","RG06DY30","null","","","","learningBlock2","","","","<div style=""font-size:60px;""> </div>","null","FL","learning/Slide135.JPG","That was a tob.","",""
"","image-keyboard-response","413","500465","0.0-8.0-0.55","FL","uf6pxq0fzv","1549","872","en","RG06DY30","null","","","","","","","","learning/Slide136.JPG","null","","","","",""
"","html-keyboard-response","414","501618","0.0-8.0-1.55","FL","uf6pxq0fzv","1549","872","en","RG06DY30","null","","","","learningBlock2","","","","That was a wug.","null","","","","",""
"","html-keyboard-response","415","502619","0.0-8.0-2.55","FL","uf6pxq0fzv","1549","872","en","RG06DY30","null","","","","learningBlock2","","","","<div style=""font-size:60px;""> </div>","null","FL","learning/Slide136.JPG","That was a wug.","",""
"","image-keyboard-response","416","502795","0.0-8.0-0.56","FL","uf6pxq0fzv","1549","872","en","RG06DY30","null","","","","","","","","learning/Slide137.JPG","null","","","","",""
"","html-keyboard-response","417","503962","0.0-8.0-1.56","FL","uf6pxq0fzv","1549","872","en","RG06DY30","null","","","","learningBlock2","","","","That was a tob.","null","","","","",""
"","html-keyboard-response","418","504964","0.0-8.0-2.56","FL","uf6pxq0fzv","1549","872","en","RG06DY30","null","","","","learningBlock2","","","","<div style=""font-size:60px;""> </div>","null","FL","learning/Slide137.JPG","That was a tob.","",""
"","image-keyboard-response","419","505141","0.0-8.0-0.57","FL","uf6pxq0fzv","1549","872","en","RG06DY30","null","","","","","","","","learning/Slide138.JPG","null","","","","",""
"","html-keyboard-response","420","506294","0.0-8.0-1.57","FL","uf6pxq0fzv","1549","872","en","RG06DY30","null","","","","learningBlock2","","","","That was a bim.","null","","","","",""
"","html-keyboard-response","421","507296","0.0-8.0-2.57","FL","uf6pxq0fzv","1549","872","en","RG06DY30","null","","","","learningBlock2","","","","<div style=""font-size:60px;""> </div>","null","FL","learning/Slide138.JPG","That was a bim.","",""
"","image-keyboard-response","422","507472","0.0-8.0-0.58","FL","uf6pxq0fzv","1549","872","en","RG06DY30","null","","","","","","","","learning/Slide139.JPG","null","","","","",""
"","html-keyboard-response","423","508624","0.0-8.0-1.58","FL","uf6pxq0fzv","1549","872","en","RG06DY30","null","","","","learningBlock2","","","","That was a wug.","null","","","","",""
"","html-keyboard-response","424","509626","0.0-8.0-2.58","FL","uf6pxq0fzv","1549","872","en","RG06DY30","null","","","","learningBlock2","","","","<div style=""font-size:60px;""> </div>","null","FL","learning/Slide139.JPG","That was a wug.","",""
"","image-keyboard-response","425","509802","0.0-8.0-0.59","FL","uf6pxq0fzv","1549","872","en","RG06DY30","null","","","","","","","","learning/Slide140.JPG","null","","","","",""
"","html-keyboard-response","426","510954","0.0-8.0-1.59","FL","uf6pxq0fzv","1549","872","en","RG06DY30","null","","","","learningBlock2","","","","That was a dep.","null","","","","",""
"","html-keyboard-response","427","511956","0.0-8.0-2.59","FL","uf6pxq0fzv","1549","872","en","RG06DY30","null","","","","learningBlock2","","","","<div style=""font-size:60px;""> </div>","null","FL","learning/Slide140.JPG","That was a dep.","",""
"","image-keyboard-response","428","512133","0.0-8.0-0.60","FL","uf6pxq0fzv","1549","872","en","RG06DY30","null","","","","","","","","learning/Slide141.JPG","null","","","","",""
"","html-keyboard-response","429","513285","0.0-8.0-1.60","FL","uf6pxq0fzv","1549","872","en","RG06DY30","null","","","","learningBlock2","","","","That was a tob.","null","","","","",""
"","html-keyboard-response","430","514287","0.0-8.0-2.60","FL","uf6pxq0fzv","1549","872","en","RG06DY30","null","","","","learningBlock2","","","","<div style=""font-size:60px;""> </div>","null","FL","learning/Slide141.JPG","That was a tob.","",""
"","image-keyboard-response","431","514463","0.0-8.0-0.61","FL","uf6pxq0fzv","1549","872","en","RG06DY30","null","","","","","","","","learning/Slide142.JPG","null","","","","",""
"","html-keyboard-response","432","515614","0.0-8.0-1.61","FL","uf6pxq0fzv","1549","872","en","RG06DY30","null","","","","learningBlock2","","","","That was a wug.","null","","","","",""
"","html-keyboard-response","433","516616","0.0-8.0-2.61","FL","uf6pxq0fzv","1549","872","en","RG06DY30","null","","","","learningBlock2","","","","<div style=""font-size:60px;""> </div>","null","FL","learning/Slide142.JPG","That was a wug.","",""
"","image-keyboard-response","434","516793","0.0-8.0-0.62","FL","uf6pxq0fzv","1549","872","en","RG06DY30","null","","","","","","","","learning/Slide143.JPG","null","","","","",""
"","html-keyboard-response","435","517945","0.0-8.0-1.62","FL","uf6pxq0fzv","1549","872","en","RG06DY30","null","","","","learningBlock2","","","","That was a bim.","null","","","","",""
"","html-keyboard-response","436","518946","0.0-8.0-2.62","FL","uf6pxq0fzv","1549","872","en","RG06DY30","null","","","","learningBlock2","","","","<div style=""font-size:60px;""> </div>","null","FL","learning/Slide143.JPG","That was a bim.","",""
"","image-keyboard-response","437","519123","0.0-8.0-0.63","FL","uf6pxq0fzv","1549","872","en","RG06DY30","null","","","","","","","","learning/Slide144.JPG","null","","","","",""
"","html-keyboard-response","438","520274","0.0-8.0-1.63","FL","uf6pxq0fzv","1549","872","en","RG06DY30","null","","","","learningBlock2","","","","That was a dep.","null","","","","",""
"","html-keyboard-response","439","521275","0.0-8.0-2.63","FL","uf6pxq0fzv","1549","872","en","RG06DY30","null","","","","learningBlock2","","","","<div style=""font-size:60px;""> </div>","null","FL","learning/Slide144.JPG","That was a dep.","",""
"","image-keyboard-response","440","521450","0.0-8.0-0.64","FL","uf6pxq0fzv","1549","872","en","RG06DY30","null","","","","","","","","learning/Slide145.JPG","null","","","","",""
"","html-keyboard-response","441","522603","0.0-8.0-1.64","FL","uf6pxq0fzv","1549","872","en","RG06DY30","null","","","","learningBlock2","","","","That was a bim.","null","","","","",""
"","html-keyboard-response","442","523605","0.0-8.0-2.64","FL","uf6pxq0fzv","1549","872","en","RG06DY30","null","","","","learningBlock2","","","","<div style=""font-size:60px;""> </div>","null","FL","learning/Slide145.JPG","That was a bim.","",""
"","image-keyboard-response","443","523782","0.0-8.0-0.65","FL","uf6pxq0fzv","1549","872","en","RG06DY30","null","","","","","","","","learning/Slide146.JPG","null","","","","",""
"","html-keyboard-response","444","524935","0.0-8.0-1.65","FL","uf6pxq0fzv","1549","872","en","RG06DY30","null","","","","learningBlock2","","","","That was a tob.","null","","","","",""
"","html-keyboard-response","445","525936","0.0-8.0-2.65","FL","uf6pxq0fzv","1549","872","en","RG06DY30","null","","","","learningBlock2","","","","<div style=""font-size:60px;""> </div>","null","FL","learning/Slide146.JPG","That was a tob.","",""
"","image-keyboard-response","446","526112","0.0-8.0-0.66","FL","uf6pxq0fzv","1549","872","en","RG06DY30","null","","","","","","","","learning/Slide147.JPG","null","","","","",""
"","html-keyboard-response","447","527265","0.0-8.0-1.66","FL","uf6pxq0fzv","1549","872","en","RG06DY30","null","","","","learningBlock2","","","","That was a wug.","null","","","","",""
"","html-keyboard-response","448","528266","0.0-8.0-2.66","FL","uf6pxq0fzv","1549","872","en","RG06DY30","null","","","","learningBlock2","","","","<div style=""font-size:60px;""> </div>","null","FL","learning/Slide147.JPG","That was a wug.","",""
"","image-keyboard-response","449","528442","0.0-8.0-0.67","FL","uf6pxq0fzv","1549","872","en","RG06DY30","null","","","","","","","","learning/Slide148.JPG","null","","","","",""
"","html-keyboard-response","450","529594","0.0-8.0-1.67","FL","uf6pxq0fzv","1549","872","en","RG06DY30","null","","","","learningBlock2","","","","That was a bim.","null","","","","",""
"","html-keyboard-response","451","530596","0.0-8.0-2.67","FL","uf6pxq0fzv","1549","872","en","RG06DY30","null","","","","learningBlock2","","","","<div style=""font-size:60px;""> </div>","null","FL","learning/Slide148.JPG","That was a bim.","",""
"","image-keyboard-response","452","530773","0.0-8.0-0.68","FL","uf6pxq0fzv","1549","872","en","RG06DY30","null","","","","","","","","learning/Slide149.JPG","null","","","","",""
"","html-keyboard-response","453","531925","0.0-8.0-1.68","FL","uf6pxq0fzv","1549","872","en","RG06DY30","null","","","","learningBlock2","","","","That was a dep.","null","","","","",""
"","html-keyboard-response","454","532926","0.0-8.0-2.68","FL","uf6pxq0fzv","1549","872","en","RG06DY30","null","","","","learningBlock2","","","","<div style=""font-size:60px;""> </div>","null","FL","learning/Slide149.JPG","That was a dep.","",""
"","image-keyboard-response","455","533103","0.0-8.0-0.69","FL","uf6pxq0fzv","1549","872","en","RG06DY30","null","","","","","","","","learning/Slide150.JPG","null","","","","",""
"","html-keyboard-response","456","534255","0.0-8.0-1.69","FL","uf6pxq0fzv","1549","872","en","RG06DY30","null","","","","learningBlock2","","","","That was a wug.","null","","","","",""
"","html-keyboard-response","457","535256","0.0-8.0-2.69","FL","uf6pxq0fzv","1549","872","en","RG06DY30","null","","","","learningBlock2","","","","<div style=""font-size:60px;""> </div>","null","FL","learning/Slide150.JPG","That was a wug.","",""
"","image-keyboard-response","458","535432","0.0-8.0-0.70","FL","uf6pxq0fzv","1549","872","en","RG06DY30","null","","","","","","","","learning/Slide151.JPG","null","","","","",""
"","html-keyboard-response","459","536585","0.0-8.0-1.70","FL","uf6pxq0fzv","1549","872","en","RG06DY30","null","","","","learningBlock2","","","","That was a dep.","null","","","","",""
"","html-keyboard-response","460","537586","0.0-8.0-2.70","FL","uf6pxq0fzv","1549","872","en","RG06DY30","null","","","","learningBlock2","","","","<div style=""font-size:60px;""> </div>","null","FL","learning/Slide151.JPG","That was a dep.","",""
"","image-keyboard-response","461","537763","0.0-8.0-0.71","FL","uf6pxq0fzv","1549","872","en","RG06DY30","null","","","","","","","","learning/Slide152.JPG","null","","","","",""
"","html-keyboard-response","462","538916","0.0-8.0-1.71","FL","uf6pxq0fzv","1549","872","en","RG06DY30","null","","","","learningBlock2","","","","That was a wug.","null","","","","",""
"","html-keyboard-response","463","539917","0.0-8.0-2.71","FL","uf6pxq0fzv","1549","872","en","RG06DY30","null","","","","learningBlock2","","","","<div style=""font-size:60px;""> </div>","null","FL","learning/Slide152.JPG","That was a wug.","",""
"","image-keyboard-response","464","540093","0.0-8.0-0.72","FL","uf6pxq0fzv","1549","872","en","RG06DY30","null","","","","","","","","learning/Slide153.JPG","null","","","","",""
"","html-keyboard-response","465","541245","0.0-8.0-1.72","FL","uf6pxq0fzv","1549","872","en","RG06DY30","null","","","","learningBlock2","","","","That was a bim.","null","","","","",""
"","html-keyboard-response","466","542247","0.0-8.0-2.72","FL","uf6pxq0fzv","1549","872","en","RG06DY30","null","","","","learningBlock2","","","","<div style=""font-size:60px;""> </div>","null","FL","learning/Slide153.JPG","That was a bim.","",""
"","image-keyboard-response","467","542424","0.0-8.0-0.73","FL","uf6pxq0fzv","1549","872","en","RG06DY30","null","","","","","","","","learning/Slide154.JPG","null","","","","",""
"","html-keyboard-response","468","543576","0.0-8.0-1.73","FL","uf6pxq0fzv","1549","872","en","RG06DY30","null","","","","learningBlock2","","","","That was a tob.","null","","","","",""
"","html-keyboard-response","469","544578","0.0-8.0-2.73","FL","uf6pxq0fzv","1549","872","en","RG06DY30","null","","","","learningBlock2","","","","<div style=""font-size:60px;""> </div>","null","FL","learning/Slide154.JPG","That was a tob.","",""
"","image-keyboard-response","470","544754","0.0-8.0-0.74","FL","uf6pxq0fzv","1549","872","en","RG06DY30","null","","","","","","","","learning/Slide155.JPG","null","","","","",""
"","html-keyboard-response","471","545906","0.0-8.0-1.74","FL","uf6pxq0fzv","1549","872","en","RG06DY30","null","","","","learningBlock2","","","","That was a dep.","null","","","","",""
"","html-keyboard-response","472","546907","0.0-8.0-2.74","FL","uf6pxq0fzv","1549","872","en","RG06DY30","null","","","","learningBlock2","","","","<div style=""font-size:60px;""> </div>","null","FL","learning/Slide155.JPG","That was a dep.","",""
"","image-keyboard-response","473","547084","0.0-8.0-0.75","FL","uf6pxq0fzv","1549","872","en","RG06DY30","null","","","","","","","","learning/Slide156.JPG","null","","","","",""
"","html-keyboard-response","474","548237","0.0-8.0-1.75","FL","uf6pxq0fzv","1549","872","en","RG06DY30","null","","","","learningBlock2","","","","That was a bim.","null","","","","",""
"","html-keyboard-response","475","549239","0.0-8.0-2.75","FL","uf6pxq0fzv","1549","872","en","RG06DY30","null","","","","learningBlock2","","","","<div style=""font-size:60px;""> </div>","null","FL","learning/Slide156.JPG","That was a bim.","",""
"","image-keyboard-response","476","549416","0.0-8.0-0.76","FL","uf6pxq0fzv","1549","872","en","RG06DY30","null","","","","","","","","learning/Slide157.JPG","null","","","","",""
"","html-keyboard-response","477","550569","0.0-8.0-1.76","FL","uf6pxq0fzv","1549","872","en","RG06DY30","null","","","","learningBlock2","","","","That was a dep.","null","","","","",""
"","html-keyboard-response","478","551571","0.0-8.0-2.76","FL","uf6pxq0fzv","1549","872","en","RG06DY30","null","","","","learningBlock2","","","","<div style=""font-size:60px;""> </div>","null","FL","learning/Slide157.JPG","That was a dep.","",""
"","image-keyboard-response","479","551748","0.0-8.0-0.77","FL","uf6pxq0fzv","1549","872","en","RG06DY30","null","","","","","","","","learning/Slide158.JPG","null","","","","",""
"","html-keyboard-response","480","552899","0.0-8.0-1.77","FL","uf6pxq0fzv","1549","872","en","RG06DY30","null","","","","learningBlock2","","","","That was a tob.","null","","","","",""
"","html-keyboard-response","481","553901","0.0-8.0-2.77","FL","uf6pxq0fzv","1549","872","en","RG06DY30","null","","","","learningBlock2","","","","<div style=""font-size:60px;""> </div>","null","FL","learning/Slide158.JPG","That was a tob.","",""
"","image-keyboard-response","482","554077","0.0-8.0-0.78","FL","uf6pxq0fzv","1549","872","en","RG06DY30","null","","","","","","","","learning/Slide159.JPG","null","","","","",""
"","html-keyboard-response","483","555229","0.0-8.0-1.78","FL","uf6pxq0fzv","1549","872","en","RG06DY30","null","","","","learningBlock2","","","","That was a dep.","null","","","","",""
"","html-keyboard-response","484","556231","0.0-8.0-2.78","FL","uf6pxq0fzv","1549","872","en","RG06DY30","null","","","","learningBlock2","","","","<div style=""font-size:60px;""> </div>","null","FL","learning/Slide159.JPG","That was a dep.","",""
"","image-keyboard-response","485","556407","0.0-8.0-0.79","FL","uf6pxq0fzv","1549","872","en","RG06DY30","null","","","","","","","","learning/Slide160.JPG","null","","","","",""
"","html-keyboard-response","486","557560","0.0-8.0-1.79","FL","uf6pxq0fzv","1549","872","en","RG06DY30","null","","","","learningBlock2","","","","That was a wug.","null","","","","",""
"","html-keyboard-response","487","558562","0.0-8.0-2.79","FL","uf6pxq0fzv","1549","872","en","RG06DY30","null","","","","learningBlock2","","","","<div style=""font-size:60px;""> </div>","null","FL","learning/Slide160.JPG","That was a wug.","",""
"","resize2","488","561414","0.0-9.0","FL","uf6pxq0fzv","1549","872","en","RG06DY30","","","","","","","103","1.03","","","","","","",""
