"success","trial_type","trial_index","time_elapsed","internal_node_id","condition","subject","screen_width","screen_height","language","codeword","rt","responses","url","view_history","test_part","final_height_px","final_width_px","scale_factor","stimulus","key_press","learningType","presentedImage","presentedLabel","button_pressed","response"
"true","fullscreen","0","8862","0.0-0.0","LF","99v3ayruzp","1440","900","de","ki04as07","","","","","","","","","","","","","","",""
"","survey-html-form","1","14500","0.0-1.0","LF","99v3ayruzp","1440","900","de","ki04as07","5635.065000038594","{""language"":""de""}","","","","","","","","","","","","",""
"","external-html","2","27915","0.0-2.0-0.0","LF","99v3ayruzp","1440","900","de","ki04as07","13337.174999993294","","text/information.html","","","","","","","","","","","",""
"","external-html","3","35219","0.0-2.0-1.0","LF","99v3ayruzp","1440","900","de","ki04as07","7203.704999992624","","text/consent.html","","","","","","","","","","","",""
"","survey-html-form","4","64203","0.0-2.0-2.0","LF","99v3ayruzp","1440","900","de","ki04as07","28983.055000077","{""codeword_enter"":""ki04as07""}","","","","","","","","","","","","",""
"","instructions","5","75892","0.0-4.0","LF","99v3ayruzp","1440","900","de","ki04as07","NA","","","[{""page_index"":0,""viewing_time"":2974.475000053644},{""page_index"":1,""viewing_time"":7211.9699999457225}]","instructions","","","","","","","","","",""
"","resize","6","116989","0.0-5.0","LF","99v3ayruzp","1440","900","de","ki04as07","","","","","","","426","2.7047619047619045","","","","","","",""
"","html-keyboard-response","7","117994","0.0-6.0-0.0","LF","99v3ayruzp","1440","900","de","ki04as07","null","","","","learningBlock1","","","","This is a tob:","null","","","","",""
"","image-keyboard-response","8","118327","0.0-6.0-1.0","LF","99v3ayruzp","1440","900","de","ki04as07","null","","","","","","","","learning/Slide1.JPG","null","","","","",""
"","html-keyboard-response","9","119329","0.0-6.0-2.0","LF","99v3ayruzp","1440","900","de","ki04as07","null","","","","learningBlock1","","","","<div style=""font-size:60px;""> </div>","null","LF","learning/Slide1.JPG","This is a tob:","",""
"","html-keyboard-response","10","120334","0.0-6.0-0.1","LF","99v3ayruzp","1440","900","de","ki04as07","null","","","","learningBlock1","","","","This is a wug:","null","","","","",""
"","image-keyboard-response","11","120666","0.0-6.0-1.1","LF","99v3ayruzp","1440","900","de","ki04as07","null","","","","","","","","learning/Slide2.JPG","null","","","","",""
"","html-keyboard-response","12","121669","0.0-6.0-2.1","LF","99v3ayruzp","1440","900","de","ki04as07","null","","","","learningBlock1","","","","<div style=""font-size:60px;""> </div>","null","LF","learning/Slide2.JPG","This is a wug:","",""
"","html-keyboard-response","13","122676","0.0-6.0-0.2","LF","99v3ayruzp","1440","900","de","ki04as07","null","","","","learningBlock1","","","","This is a bim:","null","","","","",""
"","image-keyboard-response","14","123003","0.0-6.0-1.2","LF","99v3ayruzp","1440","900","de","ki04as07","null","","","","","","","","learning/Slide3.JPG","null","","","","",""
"","html-keyboard-response","15","124007","0.0-6.0-2.2","LF","99v3ayruzp","1440","900","de","ki04as07","null","","","","learningBlock1","","","","<div style=""font-size:60px;""> </div>","null","LF","learning/Slide3.JPG","This is a bim:","",""
"","html-keyboard-response","16","125009","0.0-6.0-0.3","LF","99v3ayruzp","1440","900","de","ki04as07","null","","","","learningBlock1","","","","This is a dep:","null","","","","",""
"","image-keyboard-response","17","125340","0.0-6.0-1.3","LF","99v3ayruzp","1440","900","de","ki04as07","null","","","","","","","","learning/Slide4.JPG","null","","","","",""
"","html-keyboard-response","18","126346","0.0-6.0-2.3","LF","99v3ayruzp","1440","900","de","ki04as07","null","","","","learningBlock1","","","","<div style=""font-size:60px;""> </div>","null","LF","learning/Slide4.JPG","This is a dep:","",""
"","html-keyboard-response","19","127351","0.0-6.0-0.4","LF","99v3ayruzp","1440","900","de","ki04as07","null","","","","learningBlock1","","","","This is a wug:","null","","","","",""
"","image-keyboard-response","20","127688","0.0-6.0-1.4","LF","99v3ayruzp","1440","900","de","ki04as07","null","","","","","","","","learning/Slide5.JPG","null","","","","",""
"","html-keyboard-response","21","128689","0.0-6.0-2.4","LF","99v3ayruzp","1440","900","de","ki04as07","null","","","","learningBlock1","","","","<div style=""font-size:60px;""> </div>","null","LF","learning/Slide5.JPG","This is a wug:","",""
"","html-keyboard-response","22","129695","0.0-6.0-0.5","LF","99v3ayruzp","1440","900","de","ki04as07","null","","","","learningBlock1","","","","This is a dep:","null","","","","",""
"","image-keyboard-response","23","130027","0.0-6.0-1.5","LF","99v3ayruzp","1440","900","de","ki04as07","null","","","","","","","","learning/Slide6.JPG","null","","","","",""
"","html-keyboard-response","24","131029","0.0-6.0-2.5","LF","99v3ayruzp","1440","900","de","ki04as07","null","","","","learningBlock1","","","","<div style=""font-size:60px;""> </div>","null","LF","learning/Slide6.JPG","This is a dep:","",""
"","html-keyboard-response","25","132031","0.0-6.0-0.6","LF","99v3ayruzp","1440","900","de","ki04as07","null","","","","learningBlock1","","","","This is a wug:","null","","","","",""
"","image-keyboard-response","26","132366","0.0-6.0-1.6","LF","99v3ayruzp","1440","900","de","ki04as07","null","","","","","","","","learning/Slide7.JPG","null","","","","",""
"","html-keyboard-response","27","133371","0.0-6.0-2.6","LF","99v3ayruzp","1440","900","de","ki04as07","null","","","","learningBlock1","","","","<div style=""font-size:60px;""> </div>","null","LF","learning/Slide7.JPG","This is a wug:","",""
"","html-keyboard-response","28","134376","0.0-6.0-0.7","LF","99v3ayruzp","1440","900","de","ki04as07","null","","","","learningBlock1","","","","This is a bim:","null","","","","",""
"","image-keyboard-response","29","134712","0.0-6.0-1.7","LF","99v3ayruzp","1440","900","de","ki04as07","null","","","","","","","","learning/Slide8.JPG","null","","","","",""
"","html-keyboard-response","30","135713","0.0-6.0-2.7","LF","99v3ayruzp","1440","900","de","ki04as07","null","","","","learningBlock1","","","","<div style=""font-size:60px;""> </div>","null","LF","learning/Slide8.JPG","This is a bim:","",""
"","html-keyboard-response","31","136719","0.0-6.0-0.8","LF","99v3ayruzp","1440","900","de","ki04as07","null","","","","learningBlock1","","","","This is a wug:","null","","","","",""
"","image-keyboard-response","32","137047","0.0-6.0-1.8","LF","99v3ayruzp","1440","900","de","ki04as07","null","","","","","","","","learning/Slide9.JPG","null","","","","",""
"","html-keyboard-response","33","138048","0.0-6.0-2.8","LF","99v3ayruzp","1440","900","de","ki04as07","null","","","","learningBlock1","","","","<div style=""font-size:60px;""> </div>","null","LF","learning/Slide9.JPG","This is a wug:","",""
"","html-keyboard-response","34","139054","0.0-6.0-0.9","LF","99v3ayruzp","1440","900","de","ki04as07","null","","","","learningBlock1","","","","This is a dep:","null","","","","",""
"","image-keyboard-response","35","139385","0.0-6.0-1.9","LF","99v3ayruzp","1440","900","de","ki04as07","null","","","","","","","","learning/Slide10.JPG","null","","","","",""
"","html-keyboard-response","36","140389","0.0-6.0-2.9","LF","99v3ayruzp","1440","900","de","ki04as07","null","","","","learningBlock1","","","","<div style=""font-size:60px;""> </div>","null","LF","learning/Slide10.JPG","This is a dep:","",""
"","html-keyboard-response","37","141395","0.0-6.0-0.10","LF","99v3ayruzp","1440","900","de","ki04as07","null","","","","learningBlock1","","","","This is a tob:","null","","","","",""
"","image-keyboard-response","38","141730","0.0-6.0-1.10","LF","99v3ayruzp","1440","900","de","ki04as07","null","","","","","","","","learning/Slide11.JPG","null","","","","",""
"","html-keyboard-response","39","142732","0.0-6.0-2.10","LF","99v3ayruzp","1440","900","de","ki04as07","null","","","","learningBlock1","","","","<div style=""font-size:60px;""> </div>","null","LF","learning/Slide11.JPG","This is a tob:","",""
"","html-keyboard-response","40","143734","0.0-6.0-0.11","LF","99v3ayruzp","1440","900","de","ki04as07","null","","","","learningBlock1","","","","This is a dep:","null","","","","",""
"","image-keyboard-response","41","144069","0.0-6.0-1.11","LF","99v3ayruzp","1440","900","de","ki04as07","null","","","","","","","","learning/Slide12.JPG","null","","","","",""
"","html-keyboard-response","42","145074","0.0-6.0-2.11","LF","99v3ayruzp","1440","900","de","ki04as07","null","","","","learningBlock1","","","","<div style=""font-size:60px;""> </div>","null","LF","learning/Slide12.JPG","This is a dep:","",""
"","html-keyboard-response","43","146078","0.0-6.0-0.12","LF","99v3ayruzp","1440","900","de","ki04as07","null","","","","learningBlock1","","","","This is a bim:","null","","","","",""
"","image-keyboard-response","44","146407","0.0-6.0-1.12","LF","99v3ayruzp","1440","900","de","ki04as07","null","","","","","","","","learning/Slide13.JPG","null","","","","",""
"","html-keyboard-response","45","147411","0.0-6.0-2.12","LF","99v3ayruzp","1440","900","de","ki04as07","null","","","","learningBlock1","","","","<div style=""font-size:60px;""> </div>","null","LF","learning/Slide13.JPG","This is a bim:","",""
"","html-keyboard-response","46","148416","0.0-6.0-0.13","LF","99v3ayruzp","1440","900","de","ki04as07","null","","","","learningBlock1","","","","This is a wug:","null","","","","",""
"","image-keyboard-response","47","148748","0.0-6.0-1.13","LF","99v3ayruzp","1440","900","de","ki04as07","null","","","","","","","","learning/Slide14.JPG","null","","","","",""
"","html-keyboard-response","48","149753","0.0-6.0-2.13","LF","99v3ayruzp","1440","900","de","ki04as07","null","","","","learningBlock1","","","","<div style=""font-size:60px;""> </div>","null","LF","learning/Slide14.JPG","This is a wug:","",""
"","html-keyboard-response","49","150755","0.0-6.0-0.14","LF","99v3ayruzp","1440","900","de","ki04as07","null","","","","learningBlock1","","","","This is a tob:","null","","","","",""
"","image-keyboard-response","50","151088","0.0-6.0-1.14","LF","99v3ayruzp","1440","900","de","ki04as07","null","","","","","","","","learning/Slide15.JPG","null","","","","",""
"","html-keyboard-response","51","152091","0.0-6.0-2.14","LF","99v3ayruzp","1440","900","de","ki04as07","null","","","","learningBlock1","","","","<div style=""font-size:60px;""> </div>","null","LF","learning/Slide15.JPG","This is a tob:","",""
"","html-keyboard-response","52","153096","0.0-6.0-0.15","LF","99v3ayruzp","1440","900","de","ki04as07","null","","","","learningBlock1","","","","This is a dep:","null","","","","",""
"","image-keyboard-response","53","153427","0.0-6.0-1.15","LF","99v3ayruzp","1440","900","de","ki04as07","null","","","","","","","","learning/Slide16.JPG","null","","","","",""
"","html-keyboard-response","54","154432","0.0-6.0-2.15","LF","99v3ayruzp","1440","900","de","ki04as07","null","","","","learningBlock1","","","","<div style=""font-size:60px;""> </div>","null","LF","learning/Slide16.JPG","This is a dep:","",""
"","html-keyboard-response","55","155436","0.0-6.0-0.16","LF","99v3ayruzp","1440","900","de","ki04as07","null","","","","learningBlock1","","","","This is a bim:","null","","","","",""
"","image-keyboard-response","56","155767","0.0-6.0-1.16","LF","99v3ayruzp","1440","900","de","ki04as07","null","","","","","","","","learning/Slide17.JPG","null","","","","",""
"","html-keyboard-response","57","156771","0.0-6.0-2.16","LF","99v3ayruzp","1440","900","de","ki04as07","null","","","","learningBlock1","","","","<div style=""font-size:60px;""> </div>","null","LF","learning/Slide17.JPG","This is a bim:","",""
"","html-keyboard-response","58","157775","0.0-6.0-0.17","LF","99v3ayruzp","1440","900","de","ki04as07","null","","","","learningBlock1","","","","This is a tob:","null","","","","",""
"","image-keyboard-response","59","158106","0.0-6.0-1.17","LF","99v3ayruzp","1440","900","de","ki04as07","null","","","","","","","","learning/Slide18.JPG","null","","","","",""
"","html-keyboard-response","60","159110","0.0-6.0-2.17","LF","99v3ayruzp","1440","900","de","ki04as07","null","","","","learningBlock1","","","","<div style=""font-size:60px;""> </div>","null","LF","learning/Slide18.JPG","This is a tob:","",""
"","html-keyboard-response","61","160116","0.0-6.0-0.18","LF","99v3ayruzp","1440","900","de","ki04as07","null","","","","learningBlock1","","","","This is a wug:","null","","","","",""
"","image-keyboard-response","62","160451","0.0-6.0-1.18","LF","99v3ayruzp","1440","900","de","ki04as07","null","","","","","","","","learning/Slide19.JPG","null","","","","",""
"","html-keyboard-response","63","161455","0.0-6.0-2.18","LF","99v3ayruzp","1440","900","de","ki04as07","null","","","","learningBlock1","","","","<div style=""font-size:60px;""> </div>","null","LF","learning/Slide19.JPG","This is a wug:","",""
"","html-keyboard-response","64","162460","0.0-6.0-0.19","LF","99v3ayruzp","1440","900","de","ki04as07","null","","","","learningBlock1","","","","This is a bim:","null","","","","",""
"","image-keyboard-response","65","162791","0.0-6.0-1.19","LF","99v3ayruzp","1440","900","de","ki04as07","null","","","","","","","","learning/Slide20.JPG","null","","","","",""
"","html-keyboard-response","66","163795","0.0-6.0-2.19","LF","99v3ayruzp","1440","900","de","ki04as07","null","","","","learningBlock1","","","","<div style=""font-size:60px;""> </div>","null","LF","learning/Slide20.JPG","This is a bim:","",""
"","html-keyboard-response","67","164800","0.0-6.0-0.20","LF","99v3ayruzp","1440","900","de","ki04as07","null","","","","learningBlock1","","","","This is a dep:","null","","","","",""
"","image-keyboard-response","68","165135","0.0-6.0-1.20","LF","99v3ayruzp","1440","900","de","ki04as07","null","","","","","","","","learning/Slide21.JPG","null","","","","",""
"","html-keyboard-response","69","166140","0.0-6.0-2.20","LF","99v3ayruzp","1440","900","de","ki04as07","null","","","","learningBlock1","","","","<div style=""font-size:60px;""> </div>","null","LF","learning/Slide21.JPG","This is a dep:","",""
"","html-keyboard-response","70","167144","0.0-6.0-0.21","LF","99v3ayruzp","1440","900","de","ki04as07","null","","","","learningBlock1","","","","This is a bim:","null","","","","",""
"","image-keyboard-response","71","167475","0.0-6.0-1.21","LF","99v3ayruzp","1440","900","de","ki04as07","null","","","","","","","","learning/Slide22.JPG","null","","","","",""
"","html-keyboard-response","72","168479","0.0-6.0-2.21","LF","99v3ayruzp","1440","900","de","ki04as07","null","","","","learningBlock1","","","","<div style=""font-size:60px;""> </div>","null","LF","learning/Slide22.JPG","This is a bim:","",""
"","html-keyboard-response","73","169485","0.0-6.0-0.22","LF","99v3ayruzp","1440","900","de","ki04as07","null","","","","learningBlock1","","","","This is a tob:","null","","","","",""
"","image-keyboard-response","74","169819","0.0-6.0-1.22","LF","99v3ayruzp","1440","900","de","ki04as07","null","","","","","","","","learning/Slide23.JPG","null","","","","",""
"","html-keyboard-response","75","170824","0.0-6.0-2.22","LF","99v3ayruzp","1440","900","de","ki04as07","null","","","","learningBlock1","","","","<div style=""font-size:60px;""> </div>","null","LF","learning/Slide23.JPG","This is a tob:","",""
"","html-keyboard-response","76","171829","0.0-6.0-0.23","LF","99v3ayruzp","1440","900","de","ki04as07","null","","","","learningBlock1","","","","This is a wug:","null","","","","",""
"","image-keyboard-response","77","172164","0.0-6.0-1.23","LF","99v3ayruzp","1440","900","de","ki04as07","null","","","","","","","","learning/Slide24.JPG","null","","","","",""
"","html-keyboard-response","78","173170","0.0-6.0-2.23","LF","99v3ayruzp","1440","900","de","ki04as07","null","","","","learningBlock1","","","","<div style=""font-size:60px;""> </div>","null","LF","learning/Slide24.JPG","This is a wug:","",""
"","html-keyboard-response","79","174176","0.0-6.0-0.24","LF","99v3ayruzp","1440","900","de","ki04as07","null","","","","learningBlock1","","","","This is a dep:","null","","","","",""
"","image-keyboard-response","80","174505","0.0-6.0-1.24","LF","99v3ayruzp","1440","900","de","ki04as07","null","","","","","","","","learning/Slide25.JPG","null","","","","",""
"","html-keyboard-response","81","175506","0.0-6.0-2.24","LF","99v3ayruzp","1440","900","de","ki04as07","null","","","","learningBlock1","","","","<div style=""font-size:60px;""> </div>","null","LF","learning/Slide25.JPG","This is a dep:","",""
"","html-keyboard-response","82","176511","0.0-6.0-0.25","LF","99v3ayruzp","1440","900","de","ki04as07","null","","","","learningBlock1","","","","This is a wug:","null","","","","",""
"","image-keyboard-response","83","176844","0.0-6.0-1.25","LF","99v3ayruzp","1440","900","de","ki04as07","null","","","","","","","","learning/Slide26.JPG","null","","","","",""
"","html-keyboard-response","84","177849","0.0-6.0-2.25","LF","99v3ayruzp","1440","900","de","ki04as07","null","","","","learningBlock1","","","","<div style=""font-size:60px;""> </div>","null","LF","learning/Slide26.JPG","This is a wug:","",""
"","html-keyboard-response","85","178853","0.0-6.0-0.26","LF","99v3ayruzp","1440","900","de","ki04as07","null","","","","learningBlock1","","","","This is a bim:","null","","","","",""
"","image-keyboard-response","86","179184","0.0-6.0-1.26","LF","99v3ayruzp","1440","900","de","ki04as07","null","","","","","","","","learning/Slide27.JPG","null","","","","",""
"","html-keyboard-response","87","180190","0.0-6.0-2.26","LF","99v3ayruzp","1440","900","de","ki04as07","null","","","","learningBlock1","","","","<div style=""font-size:60px;""> </div>","null","LF","learning/Slide27.JPG","This is a bim:","",""
"","html-keyboard-response","88","181195","0.0-6.0-0.27","LF","99v3ayruzp","1440","900","de","ki04as07","null","","","","learningBlock1","","","","This is a dep:","null","","","","",""
"","image-keyboard-response","89","181523","0.0-6.0-1.27","LF","99v3ayruzp","1440","900","de","ki04as07","null","","","","","","","","learning/Slide28.JPG","null","","","","",""
"","html-keyboard-response","90","182527","0.0-6.0-2.27","LF","99v3ayruzp","1440","900","de","ki04as07","null","","","","learningBlock1","","","","<div style=""font-size:60px;""> </div>","null","LF","learning/Slide28.JPG","This is a dep:","",""
"","html-keyboard-response","91","183529","0.0-6.0-0.28","LF","99v3ayruzp","1440","900","de","ki04as07","null","","","","learningBlock1","","","","This is a tob:","null","","","","",""
"","image-keyboard-response","92","183862","0.0-6.0-1.28","LF","99v3ayruzp","1440","900","de","ki04as07","null","","","","","","","","learning/Slide29.JPG","null","","","","",""
"","html-keyboard-response","93","184865","0.0-6.0-2.28","LF","99v3ayruzp","1440","900","de","ki04as07","null","","","","learningBlock1","","","","<div style=""font-size:60px;""> </div>","null","LF","learning/Slide29.JPG","This is a tob:","",""
"","html-keyboard-response","94","185869","0.0-6.0-0.29","LF","99v3ayruzp","1440","900","de","ki04as07","null","","","","learningBlock1","","","","This is a dep:","null","","","","",""
"","image-keyboard-response","95","186202","0.0-6.0-1.29","LF","99v3ayruzp","1440","900","de","ki04as07","null","","","","","","","","learning/Slide30.JPG","null","","","","",""
"","html-keyboard-response","96","187206","0.0-6.0-2.29","LF","99v3ayruzp","1440","900","de","ki04as07","null","","","","learningBlock1","","","","<div style=""font-size:60px;""> </div>","null","LF","learning/Slide30.JPG","This is a dep:","",""
"","html-keyboard-response","97","188207","0.0-6.0-0.30","LF","99v3ayruzp","1440","900","de","ki04as07","null","","","","learningBlock1","","","","This is a wug:","null","","","","",""
"","image-keyboard-response","98","188541","0.0-6.0-1.30","LF","99v3ayruzp","1440","900","de","ki04as07","null","","","","","","","","learning/Slide31.JPG","null","","","","",""
"","html-keyboard-response","99","189546","0.0-6.0-2.30","LF","99v3ayruzp","1440","900","de","ki04as07","null","","","","learningBlock1","","","","<div style=""font-size:60px;""> </div>","null","LF","learning/Slide31.JPG","This is a wug:","",""
"","html-keyboard-response","100","190552","0.0-6.0-0.31","LF","99v3ayruzp","1440","900","de","ki04as07","null","","","","learningBlock1","","","","This is a tob:","null","","","","",""
"","image-keyboard-response","101","190887","0.0-6.0-1.31","LF","99v3ayruzp","1440","900","de","ki04as07","null","","","","","","","","learning/Slide32.JPG","null","","","","",""
"","html-keyboard-response","102","191891","0.0-6.0-2.31","LF","99v3ayruzp","1440","900","de","ki04as07","null","","","","learningBlock1","","","","<div style=""font-size:60px;""> </div>","null","LF","learning/Slide32.JPG","This is a tob:","",""
"","html-keyboard-response","103","192897","0.0-6.0-0.32","LF","99v3ayruzp","1440","900","de","ki04as07","null","","","","learningBlock1","","","","This is a bim:","null","","","","",""
"","image-keyboard-response","104","193228","0.0-6.0-1.32","LF","99v3ayruzp","1440","900","de","ki04as07","null","","","","","","","","learning/Slide33.JPG","null","","","","",""
"","html-keyboard-response","105","194229","0.0-6.0-2.32","LF","99v3ayruzp","1440","900","de","ki04as07","null","","","","learningBlock1","","","","<div style=""font-size:60px;""> </div>","null","LF","learning/Slide33.JPG","This is a bim:","",""
"","html-keyboard-response","106","195234","0.0-6.0-0.33","LF","99v3ayruzp","1440","900","de","ki04as07","null","","","","learningBlock1","","","","This is a tob:","null","","","","",""
"","image-keyboard-response","107","195565","0.0-6.0-1.33","LF","99v3ayruzp","1440","900","de","ki04as07","null","","","","","","","","learning/Slide34.JPG","null","","","","",""
"","html-keyboard-response","108","196570","0.0-6.0-2.33","LF","99v3ayruzp","1440","900","de","ki04as07","null","","","","learningBlock1","","","","<div style=""font-size:60px;""> </div>","null","LF","learning/Slide34.JPG","This is a tob:","",""
"","html-keyboard-response","109","197574","0.0-6.0-0.34","LF","99v3ayruzp","1440","900","de","ki04as07","null","","","","learningBlock1","","","","This is a bim:","null","","","","",""
"","image-keyboard-response","110","197906","0.0-6.0-1.34","LF","99v3ayruzp","1440","900","de","ki04as07","null","","","","","","","","learning/Slide35.JPG","null","","","","",""
"","html-keyboard-response","111","198910","0.0-6.0-2.34","LF","99v3ayruzp","1440","900","de","ki04as07","null","","","","learningBlock1","","","","<div style=""font-size:60px;""> </div>","null","LF","learning/Slide35.JPG","This is a bim:","",""
"","html-keyboard-response","112","199915","0.0-6.0-0.35","LF","99v3ayruzp","1440","900","de","ki04as07","null","","","","learningBlock1","","","","This is a dep:","null","","","","",""
"","image-keyboard-response","113","200250","0.0-6.0-1.35","LF","99v3ayruzp","1440","900","de","ki04as07","null","","","","","","","","learning/Slide36.JPG","null","","","","",""
"","html-keyboard-response","114","201254","0.0-6.0-2.35","LF","99v3ayruzp","1440","900","de","ki04as07","null","","","","learningBlock1","","","","<div style=""font-size:60px;""> </div>","null","LF","learning/Slide36.JPG","This is a dep:","",""
"","html-keyboard-response","115","202259","0.0-6.0-0.36","LF","99v3ayruzp","1440","900","de","ki04as07","null","","","","learningBlock1","","","","This is a tob:","null","","","","",""
"","image-keyboard-response","116","202590","0.0-6.0-1.36","LF","99v3ayruzp","1440","900","de","ki04as07","null","","","","","","","","learning/Slide37.JPG","null","","","","",""
"","html-keyboard-response","117","203595","0.0-6.0-2.36","LF","99v3ayruzp","1440","900","de","ki04as07","null","","","","learningBlock1","","","","<div style=""font-size:60px;""> </div>","null","LF","learning/Slide37.JPG","This is a tob:","",""
"","html-keyboard-response","118","204600","0.0-6.0-0.37","LF","99v3ayruzp","1440","900","de","ki04as07","null","","","","learningBlock1","","","","This is a wug:","null","","","","",""
"","image-keyboard-response","119","204935","0.0-6.0-1.37","LF","99v3ayruzp","1440","900","de","ki04as07","null","","","","","","","","learning/Slide38.JPG","null","","","","",""
"","html-keyboard-response","120","205939","0.0-6.0-2.37","LF","99v3ayruzp","1440","900","de","ki04as07","null","","","","learningBlock1","","","","<div style=""font-size:60px;""> </div>","null","LF","learning/Slide38.JPG","This is a wug:","",""
"","html-keyboard-response","121","206944","0.0-6.0-0.38","LF","99v3ayruzp","1440","900","de","ki04as07","null","","","","learningBlock1","","","","This is a bim:","null","","","","",""
"","image-keyboard-response","122","207280","0.0-6.0-1.38","LF","99v3ayruzp","1440","900","de","ki04as07","null","","","","","","","","learning/Slide39.JPG","null","","","","",""
"","html-keyboard-response","123","208284","0.0-6.0-2.38","LF","99v3ayruzp","1440","900","de","ki04as07","null","","","","learningBlock1","","","","<div style=""font-size:60px;""> </div>","null","LF","learning/Slide39.JPG","This is a bim:","",""
"","html-keyboard-response","124","209290","0.0-6.0-0.39","LF","99v3ayruzp","1440","900","de","ki04as07","null","","","","learningBlock1","","","","This is a tob:","null","","","","",""
"","image-keyboard-response","125","209619","0.0-6.0-1.39","LF","99v3ayruzp","1440","900","de","ki04as07","null","","","","","","","","learning/Slide40.JPG","null","","","","",""
"","html-keyboard-response","126","210624","0.0-6.0-2.39","LF","99v3ayruzp","1440","900","de","ki04as07","null","","","","learningBlock1","","","","<div style=""font-size:60px;""> </div>","null","LF","learning/Slide40.JPG","This is a tob:","",""
"","html-keyboard-response","127","211628","0.0-6.0-0.40","LF","99v3ayruzp","1440","900","de","ki04as07","null","","","","learningBlock1","","","","This is a bim:","null","","","","",""
"","image-keyboard-response","128","211959","0.0-6.0-1.40","LF","99v3ayruzp","1440","900","de","ki04as07","null","","","","","","","","learning/Slide41.JPG","null","","","","",""
"","html-keyboard-response","129","212963","0.0-6.0-2.40","LF","99v3ayruzp","1440","900","de","ki04as07","null","","","","learningBlock1","","","","<div style=""font-size:60px;""> </div>","null","LF","learning/Slide41.JPG","This is a bim:","",""
"","html-keyboard-response","130","213968","0.0-6.0-0.41","LF","99v3ayruzp","1440","900","de","ki04as07","null","","","","learningBlock1","","","","This is a dep:","null","","","","",""
"","image-keyboard-response","131","214298","0.0-6.0-1.41","LF","99v3ayruzp","1440","900","de","ki04as07","null","","","","","","","","learning/Slide42.JPG","null","","","","",""
"","html-keyboard-response","132","215302","0.0-6.0-2.41","LF","99v3ayruzp","1440","900","de","ki04as07","null","","","","learningBlock1","","","","<div style=""font-size:60px;""> </div>","null","LF","learning/Slide42.JPG","This is a dep:","",""
"","html-keyboard-response","133","216308","0.0-6.0-0.42","LF","99v3ayruzp","1440","900","de","ki04as07","null","","","","learningBlock1","","","","This is a wug:","null","","","","",""
"","image-keyboard-response","134","216643","0.0-6.0-1.42","LF","99v3ayruzp","1440","900","de","ki04as07","null","","","","","","","","learning/Slide43.JPG","null","","","","",""
"","html-keyboard-response","135","217647","0.0-6.0-2.42","LF","99v3ayruzp","1440","900","de","ki04as07","null","","","","learningBlock1","","","","<div style=""font-size:60px;""> </div>","null","LF","learning/Slide43.JPG","This is a wug:","",""
"","html-keyboard-response","136","218652","0.0-6.0-0.43","LF","99v3ayruzp","1440","900","de","ki04as07","null","","","","learningBlock1","","","","This is a bim:","null","","","","",""
"","image-keyboard-response","137","218983","0.0-6.0-1.43","LF","99v3ayruzp","1440","900","de","ki04as07","null","","","","","","","","learning/Slide44.JPG","null","","","","",""
"","html-keyboard-response","138","219987","0.0-6.0-2.43","LF","99v3ayruzp","1440","900","de","ki04as07","null","","","","learningBlock1","","","","<div style=""font-size:60px;""> </div>","null","LF","learning/Slide44.JPG","This is a bim:","",""
"","html-keyboard-response","139","220993","0.0-6.0-0.44","LF","99v3ayruzp","1440","900","de","ki04as07","null","","","","learningBlock1","","","","This is a wug:","null","","","","",""
"","image-keyboard-response","140","221325","0.0-6.0-1.44","LF","99v3ayruzp","1440","900","de","ki04as07","null","","","","","","","","learning/Slide45.JPG","null","","","","",""
"","html-keyboard-response","141","222327","0.0-6.0-2.44","LF","99v3ayruzp","1440","900","de","ki04as07","null","","","","learningBlock1","","","","<div style=""font-size:60px;""> </div>","null","LF","learning/Slide45.JPG","This is a wug:","",""
"","html-keyboard-response","142","223332","0.0-6.0-0.45","LF","99v3ayruzp","1440","900","de","ki04as07","null","","","","learningBlock1","","","","This is a dep:","null","","","","",""
"","image-keyboard-response","143","223668","0.0-6.0-1.45","LF","99v3ayruzp","1440","900","de","ki04as07","null","","","","","","","","learning/Slide46.JPG","null","","","","",""
"","html-keyboard-response","144","224669","0.0-6.0-2.45","LF","99v3ayruzp","1440","900","de","ki04as07","null","","","","learningBlock1","","","","<div style=""font-size:60px;""> </div>","null","LF","learning/Slide46.JPG","This is a dep:","",""
"","html-keyboard-response","145","225675","0.0-6.0-0.46","LF","99v3ayruzp","1440","900","de","ki04as07","null","","","","learningBlock1","","","","This is a tob:","null","","","","",""
"","image-keyboard-response","146","226007","0.0-6.0-1.46","LF","99v3ayruzp","1440","900","de","ki04as07","null","","","","","","","","learning/Slide47.JPG","null","","","","",""
"","html-keyboard-response","147","227011","0.0-6.0-2.46","LF","99v3ayruzp","1440","900","de","ki04as07","null","","","","learningBlock1","","","","<div style=""font-size:60px;""> </div>","null","LF","learning/Slide47.JPG","This is a tob:","",""
"","html-keyboard-response","148","228017","0.0-6.0-0.47","LF","99v3ayruzp","1440","900","de","ki04as07","null","","","","learningBlock1","","","","This is a bim:","null","","","","",""
"","image-keyboard-response","149","228352","0.0-6.0-1.47","LF","99v3ayruzp","1440","900","de","ki04as07","null","","","","","","","","learning/Slide48.JPG","null","","","","",""
"","html-keyboard-response","150","229357","0.0-6.0-2.47","LF","99v3ayruzp","1440","900","de","ki04as07","null","","","","learningBlock1","","","","<div style=""font-size:60px;""> </div>","null","LF","learning/Slide48.JPG","This is a bim:","",""
"","html-keyboard-response","151","230363","0.0-6.0-0.48","LF","99v3ayruzp","1440","900","de","ki04as07","null","","","","learningBlock1","","","","This is a dep:","null","","","","",""
"","image-keyboard-response","152","230692","0.0-6.0-1.48","LF","99v3ayruzp","1440","900","de","ki04as07","null","","","","","","","","learning/Slide49.JPG","null","","","","",""
"","html-keyboard-response","153","231693","0.0-6.0-2.48","LF","99v3ayruzp","1440","900","de","ki04as07","null","","","","learningBlock1","","","","<div style=""font-size:60px;""> </div>","null","LF","learning/Slide49.JPG","This is a dep:","",""
"","html-keyboard-response","154","232699","0.0-6.0-0.49","LF","99v3ayruzp","1440","900","de","ki04as07","null","","","","learningBlock1","","","","This is a tob:","null","","","","",""
"","image-keyboard-response","155","233028","0.0-6.0-1.49","LF","99v3ayruzp","1440","900","de","ki04as07","null","","","","","","","","learning/Slide50.JPG","null","","","","",""
"","html-keyboard-response","156","234033","0.0-6.0-2.49","LF","99v3ayruzp","1440","900","de","ki04as07","null","","","","learningBlock1","","","","<div style=""font-size:60px;""> </div>","null","LF","learning/Slide50.JPG","This is a tob:","",""
"","html-keyboard-response","157","235037","0.0-6.0-0.50","LF","99v3ayruzp","1440","900","de","ki04as07","null","","","","learningBlock1","","","","This is a bim:","null","","","","",""
"","image-keyboard-response","158","235365","0.0-6.0-1.50","LF","99v3ayruzp","1440","900","de","ki04as07","null","","","","","","","","learning/Slide51.JPG","null","","","","",""
"","html-keyboard-response","159","236369","0.0-6.0-2.50","LF","99v3ayruzp","1440","900","de","ki04as07","null","","","","learningBlock1","","","","<div style=""font-size:60px;""> </div>","null","LF","learning/Slide51.JPG","This is a bim:","",""
"","html-keyboard-response","160","237375","0.0-6.0-0.51","LF","99v3ayruzp","1440","900","de","ki04as07","null","","","","learningBlock1","","","","This is a wug:","null","","","","",""
"","image-keyboard-response","161","237703","0.0-6.0-1.51","LF","99v3ayruzp","1440","900","de","ki04as07","null","","","","","","","","learning/Slide52.JPG","null","","","","",""
"","html-keyboard-response","162","238708","0.0-6.0-2.51","LF","99v3ayruzp","1440","900","de","ki04as07","null","","","","learningBlock1","","","","<div style=""font-size:60px;""> </div>","null","LF","learning/Slide52.JPG","This is a wug:","",""
"","html-keyboard-response","163","239713","0.0-6.0-0.52","LF","99v3ayruzp","1440","900","de","ki04as07","null","","","","learningBlock1","","","","This is a tob:","null","","","","",""
"","image-keyboard-response","164","240049","0.0-6.0-1.52","LF","99v3ayruzp","1440","900","de","ki04as07","null","","","","","","","","learning/Slide53.JPG","null","","","","",""
"","html-keyboard-response","165","241054","0.0-6.0-2.52","LF","99v3ayruzp","1440","900","de","ki04as07","null","","","","learningBlock1","","","","<div style=""font-size:60px;""> </div>","null","LF","learning/Slide53.JPG","This is a tob:","",""
"","html-keyboard-response","166","242060","0.0-6.0-0.53","LF","99v3ayruzp","1440","900","de","ki04as07","null","","","","learningBlock1","","","","This is a dep:","null","","","","",""
"","image-keyboard-response","167","242394","0.0-6.0-1.53","LF","99v3ayruzp","1440","900","de","ki04as07","null","","","","","","","","learning/Slide54.JPG","null","","","","",""
"","html-keyboard-response","168","243396","0.0-6.0-2.53","LF","99v3ayruzp","1440","900","de","ki04as07","null","","","","learningBlock1","","","","<div style=""font-size:60px;""> </div>","null","LF","learning/Slide54.JPG","This is a dep:","",""
"","html-keyboard-response","169","244397","0.0-6.0-0.54","LF","99v3ayruzp","1440","900","de","ki04as07","null","","","","learningBlock1","","","","This is a bim:","null","","","","",""
"","image-keyboard-response","170","244728","0.0-6.0-1.54","LF","99v3ayruzp","1440","900","de","ki04as07","null","","","","","","","","learning/Slide55.JPG","null","","","","",""
"","html-keyboard-response","171","245732","0.0-6.0-2.54","LF","99v3ayruzp","1440","900","de","ki04as07","null","","","","learningBlock1","","","","<div style=""font-size:60px;""> </div>","null","LF","learning/Slide55.JPG","This is a bim:","",""
"","html-keyboard-response","172","246738","0.0-6.0-0.55","LF","99v3ayruzp","1440","900","de","ki04as07","null","","","","learningBlock1","","","","This is a tob:","null","","","","",""
"","image-keyboard-response","173","247072","0.0-6.0-1.55","LF","99v3ayruzp","1440","900","de","ki04as07","null","","","","","","","","learning/Slide56.JPG","null","","","","",""
"","html-keyboard-response","174","248077","0.0-6.0-2.55","LF","99v3ayruzp","1440","900","de","ki04as07","null","","","","learningBlock1","","","","<div style=""font-size:60px;""> </div>","null","LF","learning/Slide56.JPG","This is a tob:","",""
"","html-keyboard-response","175","249083","0.0-6.0-0.56","LF","99v3ayruzp","1440","900","de","ki04as07","null","","","","learningBlock1","","","","This is a dep:","null","","","","",""
"","image-keyboard-response","176","249418","0.0-6.0-1.56","LF","99v3ayruzp","1440","900","de","ki04as07","null","","","","","","","","learning/Slide57.JPG","null","","","","",""
"","html-keyboard-response","177","250425","0.0-6.0-2.56","LF","99v3ayruzp","1440","900","de","ki04as07","null","","","","learningBlock1","","","","<div style=""font-size:60px;""> </div>","null","LF","learning/Slide57.JPG","This is a dep:","",""
"","html-keyboard-response","178","251430","0.0-6.0-0.57","LF","99v3ayruzp","1440","900","de","ki04as07","null","","","","learningBlock1","","","","This is a wug:","null","","","","",""
"","image-keyboard-response","179","251762","0.0-6.0-1.57","LF","99v3ayruzp","1440","900","de","ki04as07","null","","","","","","","","learning/Slide58.JPG","null","","","","",""
"","html-keyboard-response","180","252764","0.0-6.0-2.57","LF","99v3ayruzp","1440","900","de","ki04as07","null","","","","learningBlock1","","","","<div style=""font-size:60px;""> </div>","null","LF","learning/Slide58.JPG","This is a wug:","",""
"","html-keyboard-response","181","253772","0.0-6.0-0.58","LF","99v3ayruzp","1440","900","de","ki04as07","null","","","","learningBlock1","","","","This is a dep:","null","","","","",""
"","image-keyboard-response","182","254103","0.0-6.0-1.58","LF","99v3ayruzp","1440","900","de","ki04as07","null","","","","","","","","learning/Slide59.JPG","null","","","","",""
"","html-keyboard-response","183","255107","0.0-6.0-2.58","LF","99v3ayruzp","1440","900","de","ki04as07","null","","","","learningBlock1","","","","<div style=""font-size:60px;""> </div>","null","LF","learning/Slide59.JPG","This is a dep:","",""
"","html-keyboard-response","184","256112","0.0-6.0-0.59","LF","99v3ayruzp","1440","900","de","ki04as07","null","","","","learningBlock1","","","","This is a wug:","null","","","","",""
"","image-keyboard-response","185","256439","0.0-6.0-1.59","LF","99v3ayruzp","1440","900","de","ki04as07","null","","","","","","","","learning/Slide60.JPG","null","","","","",""
"","html-keyboard-response","186","257441","0.0-6.0-2.59","LF","99v3ayruzp","1440","900","de","ki04as07","null","","","","learningBlock1","","","","<div style=""font-size:60px;""> </div>","null","LF","learning/Slide60.JPG","This is a wug:","",""
"","html-keyboard-response","187","258447","0.0-6.0-0.60","LF","99v3ayruzp","1440","900","de","ki04as07","null","","","","learningBlock1","","","","This is a bim:","null","","","","",""
"","image-keyboard-response","188","258782","0.0-6.0-1.60","LF","99v3ayruzp","1440","900","de","ki04as07","null","","","","","","","","learning/Slide61.JPG","null","","","","",""
"","html-keyboard-response","189","259783","0.0-6.0-2.60","LF","99v3ayruzp","1440","900","de","ki04as07","null","","","","learningBlock1","","","","<div style=""font-size:60px;""> </div>","null","LF","learning/Slide61.JPG","This is a bim:","",""
"","html-keyboard-response","190","260787","0.0-6.0-0.61","LF","99v3ayruzp","1440","900","de","ki04as07","null","","","","learningBlock1","","","","This is a dep:","null","","","","",""
"","image-keyboard-response","191","261122","0.0-6.0-1.61","LF","99v3ayruzp","1440","900","de","ki04as07","null","","","","","","","","learning/Slide62.JPG","null","","","","",""
"","html-keyboard-response","192","262128","0.0-6.0-2.61","LF","99v3ayruzp","1440","900","de","ki04as07","null","","","","learningBlock1","","","","<div style=""font-size:60px;""> </div>","null","LF","learning/Slide62.JPG","This is a dep:","",""
"","html-keyboard-response","193","263133","0.0-6.0-0.62","LF","99v3ayruzp","1440","900","de","ki04as07","null","","","","learningBlock1","","","","This is a bim:","null","","","","",""
"","image-keyboard-response","194","263467","0.0-6.0-1.62","LF","99v3ayruzp","1440","900","de","ki04as07","null","","","","","","","","learning/Slide63.JPG","null","","","","",""
"","html-keyboard-response","195","264470","0.0-6.0-2.62","LF","99v3ayruzp","1440","900","de","ki04as07","null","","","","learningBlock1","","","","<div style=""font-size:60px;""> </div>","null","LF","learning/Slide63.JPG","This is a bim:","",""
"","html-keyboard-response","196","265475","0.0-6.0-0.63","LF","99v3ayruzp","1440","900","de","ki04as07","null","","","","learningBlock1","","","","This is a tob:","null","","","","",""
"","image-keyboard-response","197","265806","0.0-6.0-1.63","LF","99v3ayruzp","1440","900","de","ki04as07","null","","","","","","","","learning/Slide64.JPG","null","","","","",""
"","html-keyboard-response","198","266810","0.0-6.0-2.63","LF","99v3ayruzp","1440","900","de","ki04as07","null","","","","learningBlock1","","","","<div style=""font-size:60px;""> </div>","null","LF","learning/Slide64.JPG","This is a tob:","",""
"","html-keyboard-response","199","267815","0.0-6.0-0.64","LF","99v3ayruzp","1440","900","de","ki04as07","null","","","","learningBlock1","","","","This is a wug:","null","","","","",""
"","image-keyboard-response","200","268145","0.0-6.0-1.64","LF","99v3ayruzp","1440","900","de","ki04as07","null","","","","","","","","learning/Slide65.JPG","null","","","","",""
"","html-keyboard-response","201","269149","0.0-6.0-2.64","LF","99v3ayruzp","1440","900","de","ki04as07","null","","","","learningBlock1","","","","<div style=""font-size:60px;""> </div>","null","LF","learning/Slide65.JPG","This is a wug:","",""
"","html-keyboard-response","202","270153","0.0-6.0-0.65","LF","99v3ayruzp","1440","900","de","ki04as07","null","","","","learningBlock1","","","","This is a dep:","null","","","","",""
"","image-keyboard-response","203","270483","0.0-6.0-1.65","LF","99v3ayruzp","1440","900","de","ki04as07","null","","","","","","","","learning/Slide66.JPG","null","","","","",""
"","html-keyboard-response","204","271489","0.0-6.0-2.65","LF","99v3ayruzp","1440","900","de","ki04as07","null","","","","learningBlock1","","","","<div style=""font-size:60px;""> </div>","null","LF","learning/Slide66.JPG","This is a dep:","",""
"","html-keyboard-response","205","272495","0.0-6.0-0.66","LF","99v3ayruzp","1440","900","de","ki04as07","null","","","","learningBlock1","","","","This is a tob:","null","","","","",""
"","image-keyboard-response","206","272826","0.0-6.0-1.66","LF","99v3ayruzp","1440","900","de","ki04as07","null","","","","","","","","learning/Slide67.JPG","null","","","","",""
"","html-keyboard-response","207","273828","0.0-6.0-2.66","LF","99v3ayruzp","1440","900","de","ki04as07","null","","","","learningBlock1","","","","<div style=""font-size:60px;""> </div>","null","LF","learning/Slide67.JPG","This is a tob:","",""
"","html-keyboard-response","208","274833","0.0-6.0-0.67","LF","99v3ayruzp","1440","900","de","ki04as07","null","","","","learningBlock1","","","","This is a wug:","null","","","","",""
"","image-keyboard-response","209","275164","0.0-6.0-1.67","LF","99v3ayruzp","1440","900","de","ki04as07","null","","","","","","","","learning/Slide68.JPG","null","","","","",""
"","html-keyboard-response","210","276165","0.0-6.0-2.67","LF","99v3ayruzp","1440","900","de","ki04as07","null","","","","learningBlock1","","","","<div style=""font-size:60px;""> </div>","null","LF","learning/Slide68.JPG","This is a wug:","",""
"","html-keyboard-response","211","277171","0.0-6.0-0.68","LF","99v3ayruzp","1440","900","de","ki04as07","null","","","","learningBlock1","","","","This is a tob:","null","","","","",""
"","image-keyboard-response","212","277502","0.0-6.0-1.68","LF","99v3ayruzp","1440","900","de","ki04as07","null","","","","","","","","learning/Slide69.JPG","null","","","","",""
"","html-keyboard-response","213","278509","0.0-6.0-2.68","LF","99v3ayruzp","1440","900","de","ki04as07","null","","","","learningBlock1","","","","<div style=""font-size:60px;""> </div>","null","LF","learning/Slide69.JPG","This is a tob:","",""
"","html-keyboard-response","214","279514","0.0-6.0-0.69","LF","99v3ayruzp","1440","900","de","ki04as07","null","","","","learningBlock1","","","","This is a dep:","null","","","","",""
"","image-keyboard-response","215","279847","0.0-6.0-1.69","LF","99v3ayruzp","1440","900","de","ki04as07","null","","","","","","","","learning/Slide70.JPG","null","","","","",""
"","html-keyboard-response","216","280853","0.0-6.0-2.69","LF","99v3ayruzp","1440","900","de","ki04as07","null","","","","learningBlock1","","","","<div style=""font-size:60px;""> </div>","null","LF","learning/Slide70.JPG","This is a dep:","",""
"","html-keyboard-response","217","281859","0.0-6.0-0.70","LF","99v3ayruzp","1440","900","de","ki04as07","null","","","","learningBlock1","","","","This is a wug:","null","","","","",""
"","image-keyboard-response","218","282194","0.0-6.0-1.70","LF","99v3ayruzp","1440","900","de","ki04as07","null","","","","","","","","learning/Slide71.JPG","null","","","","",""
"","html-keyboard-response","219","283198","0.0-6.0-2.70","LF","99v3ayruzp","1440","900","de","ki04as07","null","","","","learningBlock1","","","","<div style=""font-size:60px;""> </div>","null","LF","learning/Slide71.JPG","This is a wug:","",""
"","html-keyboard-response","220","284203","0.0-6.0-0.71","LF","99v3ayruzp","1440","900","de","ki04as07","null","","","","learningBlock1","","","","This is a bim:","null","","","","",""
"","image-keyboard-response","221","284539","0.0-6.0-1.71","LF","99v3ayruzp","1440","900","de","ki04as07","null","","","","","","","","learning/Slide72.JPG","null","","","","",""
"","html-keyboard-response","222","285540","0.0-6.0-2.71","LF","99v3ayruzp","1440","900","de","ki04as07","null","","","","learningBlock1","","","","<div style=""font-size:60px;""> </div>","null","LF","learning/Slide72.JPG","This is a bim:","",""
"","html-keyboard-response","223","286542","0.0-6.0-0.72","LF","99v3ayruzp","1440","900","de","ki04as07","null","","","","learningBlock1","","","","This is a wug:","null","","","","",""
"","image-keyboard-response","224","286872","0.0-6.0-1.72","LF","99v3ayruzp","1440","900","de","ki04as07","null","","","","","","","","learning/Slide73.JPG","null","","","","",""
"","html-keyboard-response","225","287877","0.0-6.0-2.72","LF","99v3ayruzp","1440","900","de","ki04as07","null","","","","learningBlock1","","","","<div style=""font-size:60px;""> </div>","null","LF","learning/Slide73.JPG","This is a wug:","",""
"","html-keyboard-response","226","288883","0.0-6.0-0.73","LF","99v3ayruzp","1440","900","de","ki04as07","null","","","","learningBlock1","","","","This is a dep:","null","","","","",""
"","image-keyboard-response","227","289210","0.0-6.0-1.73","LF","99v3ayruzp","1440","900","de","ki04as07","null","","","","","","","","learning/Slide74.JPG","null","","","","",""
"","html-keyboard-response","228","290215","0.0-6.0-2.73","LF","99v3ayruzp","1440","900","de","ki04as07","null","","","","learningBlock1","","","","<div style=""font-size:60px;""> </div>","null","LF","learning/Slide74.JPG","This is a dep:","",""
"","html-keyboard-response","229","291218","0.0-6.0-0.74","LF","99v3ayruzp","1440","900","de","ki04as07","null","","","","learningBlock1","","","","This is a tob:","null","","","","",""
"","image-keyboard-response","230","291551","0.0-6.0-1.74","LF","99v3ayruzp","1440","900","de","ki04as07","null","","","","","","","","learning/Slide75.JPG","null","","","","",""
"","html-keyboard-response","231","292555","0.0-6.0-2.74","LF","99v3ayruzp","1440","900","de","ki04as07","null","","","","learningBlock1","","","","<div style=""font-size:60px;""> </div>","null","LF","learning/Slide75.JPG","This is a tob:","",""
"","html-keyboard-response","232","293559","0.0-6.0-0.75","LF","99v3ayruzp","1440","900","de","ki04as07","null","","","","learningBlock1","","","","This is a bim:","null","","","","",""
"","image-keyboard-response","233","293887","0.0-6.0-1.75","LF","99v3ayruzp","1440","900","de","ki04as07","null","","","","","","","","learning/Slide76.JPG","null","","","","",""
"","html-keyboard-response","234","294891","0.0-6.0-2.75","LF","99v3ayruzp","1440","900","de","ki04as07","null","","","","learningBlock1","","","","<div style=""font-size:60px;""> </div>","null","LF","learning/Slide76.JPG","This is a bim:","",""
"","html-keyboard-response","235","295896","0.0-6.0-0.76","LF","99v3ayruzp","1440","900","de","ki04as07","null","","","","learningBlock1","","","","This is a tob:","null","","","","",""
"","image-keyboard-response","236","296231","0.0-6.0-1.76","LF","99v3ayruzp","1440","900","de","ki04as07","null","","","","","","","","learning/Slide77.JPG","null","","","","",""
"","html-keyboard-response","237","297234","0.0-6.0-2.76","LF","99v3ayruzp","1440","900","de","ki04as07","null","","","","learningBlock1","","","","<div style=""font-size:60px;""> </div>","null","LF","learning/Slide77.JPG","This is a tob:","",""
"","html-keyboard-response","238","298240","0.0-6.0-0.77","LF","99v3ayruzp","1440","900","de","ki04as07","null","","","","learningBlock1","","","","This is a wug:","null","","","","",""
"","image-keyboard-response","239","298575","0.0-6.0-1.77","LF","99v3ayruzp","1440","900","de","ki04as07","null","","","","","","","","learning/Slide78.JPG","null","","","","",""
"","html-keyboard-response","240","299579","0.0-6.0-2.77","LF","99v3ayruzp","1440","900","de","ki04as07","null","","","","learningBlock1","","","","<div style=""font-size:60px;""> </div>","null","LF","learning/Slide78.JPG","This is a wug:","",""
"","html-keyboard-response","241","300585","0.0-6.0-0.78","LF","99v3ayruzp","1440","900","de","ki04as07","null","","","","learningBlock1","","","","This is a bim:","null","","","","",""
"","image-keyboard-response","242","300915","0.0-6.0-1.78","LF","99v3ayruzp","1440","900","de","ki04as07","null","","","","","","","","learning/Slide79.JPG","null","","","","",""
"","html-keyboard-response","243","301921","0.0-6.0-2.78","LF","99v3ayruzp","1440","900","de","ki04as07","null","","","","learningBlock1","","","","<div style=""font-size:60px;""> </div>","null","LF","learning/Slide79.JPG","This is a bim:","",""
"","html-keyboard-response","244","302927","0.0-6.0-0.79","LF","99v3ayruzp","1440","900","de","ki04as07","null","","","","learningBlock1","","","","This is a tob:","null","","","","",""
"","image-keyboard-response","245","303260","0.0-6.0-1.79","LF","99v3ayruzp","1440","900","de","ki04as07","null","","","","","","","","learning/Slide80.JPG","null","","","","",""
"","html-keyboard-response","246","304265","0.0-6.0-2.79","LF","99v3ayruzp","1440","900","de","ki04as07","null","","","","learningBlock1","","","","<div style=""font-size:60px;""> </div>","null","LF","learning/Slide80.JPG","This is a tob:","",""
"","instructions","247","335134","0.0-7.0","LF","99v3ayruzp","1440","900","de","ki04as07","NA","","","[{""page_index"":0,""viewing_time"":30868.47999994643}]","instructions","","","","","","","","","",""
"","html-keyboard-response","248","336139","0.0-8.0-0.0","LF","99v3ayruzp","1440","900","de","ki04as07","null","","","","learningBlock2","","","","This is a wug:","null","","","","",""
"","image-keyboard-response","249","336470","0.0-8.0-1.0","LF","99v3ayruzp","1440","900","de","ki04as07","null","","","","","","","","learning/Slide81.JPG","null","","","","",""
"","html-keyboard-response","250","337475","0.0-8.0-2.0","LF","99v3ayruzp","1440","900","de","ki04as07","null","","","","learningBlock2","","","","<div style=""font-size:60px;""> </div>","null","LF","learning/Slide81.JPG","This is a wug:","",""
"","html-keyboard-response","251","338477","0.0-8.0-0.1","LF","99v3ayruzp","1440","900","de","ki04as07","null","","","","learningBlock2","","","","This is a bim:","null","","","","",""
"","image-keyboard-response","252","338807","0.0-8.0-1.1","LF","99v3ayruzp","1440","900","de","ki04as07","null","","","","","","","","learning/Slide82.JPG","null","","","","",""
"","html-keyboard-response","253","339808","0.0-8.0-2.1","LF","99v3ayruzp","1440","900","de","ki04as07","null","","","","learningBlock2","","","","<div style=""font-size:60px;""> </div>","null","LF","learning/Slide82.JPG","This is a bim:","",""
"","html-keyboard-response","254","340814","0.0-8.0-0.2","LF","99v3ayruzp","1440","900","de","ki04as07","null","","","","learningBlock2","","","","This is a wug:","null","","","","",""
"","image-keyboard-response","255","341146","0.0-8.0-1.2","LF","99v3ayruzp","1440","900","de","ki04as07","null","","","","","","","","learning/Slide83.JPG","null","","","","",""
"","html-keyboard-response","256","342152","0.0-8.0-2.2","LF","99v3ayruzp","1440","900","de","ki04as07","null","","","","learningBlock2","","","","<div style=""font-size:60px;""> </div>","null","LF","learning/Slide83.JPG","This is a wug:","",""
"","html-keyboard-response","257","343155","0.0-8.0-0.3","LF","99v3ayruzp","1440","900","de","ki04as07","null","","","","learningBlock2","","","","This is a dep:","null","","","","",""
"","image-keyboard-response","258","343489","0.0-8.0-1.3","LF","99v3ayruzp","1440","900","de","ki04as07","null","","","","","","","","learning/Slide84.JPG","null","","","","",""
"","html-keyboard-response","259","344493","0.0-8.0-2.3","LF","99v3ayruzp","1440","900","de","ki04as07","null","","","","learningBlock2","","","","<div style=""font-size:60px;""> </div>","null","LF","learning/Slide84.JPG","This is a dep:","",""
"","html-keyboard-response","260","345498","0.0-8.0-0.4","LF","99v3ayruzp","1440","900","de","ki04as07","null","","","","learningBlock2","","","","This is a bim:","null","","","","",""
"","image-keyboard-response","261","345833","0.0-8.0-1.4","LF","99v3ayruzp","1440","900","de","ki04as07","null","","","","","","","","learning/Slide85.JPG","null","","","","",""
"","html-keyboard-response","262","346838","0.0-8.0-2.4","LF","99v3ayruzp","1440","900","de","ki04as07","null","","","","learningBlock2","","","","<div style=""font-size:60px;""> </div>","null","LF","learning/Slide85.JPG","This is a bim:","",""
"","html-keyboard-response","263","347844","0.0-8.0-0.5","LF","99v3ayruzp","1440","900","de","ki04as07","null","","","","learningBlock2","","","","This is a tob:","null","","","","",""
"","image-keyboard-response","264","348179","0.0-8.0-1.5","LF","99v3ayruzp","1440","900","de","ki04as07","null","","","","","","","","learning/Slide86.JPG","null","","","","",""
"","html-keyboard-response","265","349183","0.0-8.0-2.5","LF","99v3ayruzp","1440","900","de","ki04as07","null","","","","learningBlock2","","","","<div style=""font-size:60px;""> </div>","null","LF","learning/Slide86.JPG","This is a tob:","",""
"","html-keyboard-response","266","350189","0.0-8.0-0.6","LF","99v3ayruzp","1440","900","de","ki04as07","null","","","","learningBlock2","","","","This is a wug:","null","","","","",""
"","image-keyboard-response","267","350524","0.0-8.0-1.6","LF","99v3ayruzp","1440","900","de","ki04as07","null","","","","","","","","learning/Slide87.JPG","null","","","","",""
"","html-keyboard-response","268","351529","0.0-8.0-2.6","LF","99v3ayruzp","1440","900","de","ki04as07","null","","","","learningBlock2","","","","<div style=""font-size:60px;""> </div>","null","LF","learning/Slide87.JPG","This is a wug:","",""
"","html-keyboard-response","269","352533","0.0-8.0-0.7","LF","99v3ayruzp","1440","900","de","ki04as07","null","","","","learningBlock2","","","","This is a tob:","null","","","","",""
"","image-keyboard-response","270","352863","0.0-8.0-1.7","LF","99v3ayruzp","1440","900","de","ki04as07","null","","","","","","","","learning/Slide88.JPG","null","","","","",""
"","html-keyboard-response","271","353868","0.0-8.0-2.7","LF","99v3ayruzp","1440","900","de","ki04as07","null","","","","learningBlock2","","","","<div style=""font-size:60px;""> </div>","null","LF","learning/Slide88.JPG","This is a tob:","",""
"","html-keyboard-response","272","354873","0.0-8.0-0.8","LF","99v3ayruzp","1440","900","de","ki04as07","null","","","","learningBlock2","","","","This is a bim:","null","","","","",""
"","image-keyboard-response","273","355199","0.0-8.0-1.8","LF","99v3ayruzp","1440","900","de","ki04as07","null","","","","","","","","learning/Slide89.JPG","null","","","","",""
"","html-keyboard-response","274","356202","0.0-8.0-2.8","LF","99v3ayruzp","1440","900","de","ki04as07","null","","","","learningBlock2","","","","<div style=""font-size:60px;""> </div>","null","LF","learning/Slide89.JPG","This is a bim:","",""
"","html-keyboard-response","275","357207","0.0-8.0-0.9","LF","99v3ayruzp","1440","900","de","ki04as07","null","","","","learningBlock2","","","","This is a dep:","null","","","","",""
"","image-keyboard-response","276","357543","0.0-8.0-1.9","LF","99v3ayruzp","1440","900","de","ki04as07","null","","","","","","","","learning/Slide90.JPG","null","","","","",""
"","html-keyboard-response","277","358547","0.0-8.0-2.9","LF","99v3ayruzp","1440","900","de","ki04as07","null","","","","learningBlock2","","","","<div style=""font-size:60px;""> </div>","null","LF","learning/Slide90.JPG","This is a dep:","",""
"","html-keyboard-response","278","359551","0.0-8.0-0.10","LF","99v3ayruzp","1440","900","de","ki04as07","null","","","","learningBlock2","","","","This is a wug:","null","","","","",""
"","image-keyboard-response","279","359882","0.0-8.0-1.10","LF","99v3ayruzp","1440","900","de","ki04as07","null","","","","","","","","learning/Slide91.JPG","null","","","","",""
"","html-keyboard-response","280","360886","0.0-8.0-2.10","LF","99v3ayruzp","1440","900","de","ki04as07","null","","","","learningBlock2","","","","<div style=""font-size:60px;""> </div>","null","LF","learning/Slide91.JPG","This is a wug:","",""
"","html-keyboard-response","281","361892","0.0-8.0-0.11","LF","99v3ayruzp","1440","900","de","ki04as07","null","","","","learningBlock2","","","","This is a tob:","null","","","","",""
"","image-keyboard-response","282","362221","0.0-8.0-1.11","LF","99v3ayruzp","1440","900","de","ki04as07","null","","","","","","","","learning/Slide92.JPG","null","","","","",""
"","html-keyboard-response","283","363226","0.0-8.0-2.11","LF","99v3ayruzp","1440","900","de","ki04as07","null","","","","learningBlock2","","","","<div style=""font-size:60px;""> </div>","null","LF","learning/Slide92.JPG","This is a tob:","",""
"","html-keyboard-response","284","364232","0.0-8.0-0.12","LF","99v3ayruzp","1440","900","de","ki04as07","null","","","","learningBlock2","","","","This is a bim:","null","","","","",""
"","image-keyboard-response","285","364567","0.0-8.0-1.12","LF","99v3ayruzp","1440","900","de","ki04as07","null","","","","","","","","learning/Slide93.JPG","null","","","","",""
"","html-keyboard-response","286","365569","0.0-8.0-2.12","LF","99v3ayruzp","1440","900","de","ki04as07","null","","","","learningBlock2","","","","<div style=""font-size:60px;""> </div>","null","LF","learning/Slide93.JPG","This is a bim:","",""
"","html-keyboard-response","287","366574","0.0-8.0-0.13","LF","99v3ayruzp","1440","900","de","ki04as07","null","","","","learningBlock2","","","","This is a tob:","null","","","","",""
"","image-keyboard-response","288","366906","0.0-8.0-1.13","LF","99v3ayruzp","1440","900","de","ki04as07","null","","","","","","","","learning/Slide94.JPG","null","","","","",""
"","html-keyboard-response","289","367910","0.0-8.0-2.13","LF","99v3ayruzp","1440","900","de","ki04as07","null","","","","learningBlock2","","","","<div style=""font-size:60px;""> </div>","null","LF","learning/Slide94.JPG","This is a tob:","",""
"","html-keyboard-response","290","368916","0.0-8.0-0.14","LF","99v3ayruzp","1440","900","de","ki04as07","null","","","","learningBlock2","","","","This is a wug:","null","","","","",""
"","image-keyboard-response","291","369251","0.0-8.0-1.14","LF","99v3ayruzp","1440","900","de","ki04as07","null","","","","","","","","learning/Slide95.JPG","null","","","","",""
"","html-keyboard-response","292","370255","0.0-8.0-2.14","LF","99v3ayruzp","1440","900","de","ki04as07","null","","","","learningBlock2","","","","<div style=""font-size:60px;""> </div>","null","LF","learning/Slide95.JPG","This is a wug:","",""
"","html-keyboard-response","293","371260","0.0-8.0-0.15","LF","99v3ayruzp","1440","900","de","ki04as07","null","","","","learningBlock2","","","","This is a tob:","null","","","","",""
"","image-keyboard-response","294","371591","0.0-8.0-1.15","LF","99v3ayruzp","1440","900","de","ki04as07","null","","","","","","","","learning/Slide96.JPG","null","","","","",""
"","html-keyboard-response","295","372595","0.0-8.0-2.15","LF","99v3ayruzp","1440","900","de","ki04as07","null","","","","learningBlock2","","","","<div style=""font-size:60px;""> </div>","null","LF","learning/Slide96.JPG","This is a tob:","",""
"","html-keyboard-response","296","373600","0.0-8.0-0.16","LF","99v3ayruzp","1440","900","de","ki04as07","null","","","","learningBlock2","","","","This is a dep:","null","","","","",""
"","image-keyboard-response","297","373930","0.0-8.0-1.16","LF","99v3ayruzp","1440","900","de","ki04as07","null","","","","","","","","learning/Slide97.JPG","null","","","","",""
"","html-keyboard-response","298","374934","0.0-8.0-2.16","LF","99v3ayruzp","1440","900","de","ki04as07","null","","","","learningBlock2","","","","<div style=""font-size:60px;""> </div>","null","LF","learning/Slide97.JPG","This is a dep:","",""
"","html-keyboard-response","299","375939","0.0-8.0-0.17","LF","99v3ayruzp","1440","900","de","ki04as07","null","","","","learningBlock2","","","","This is a bim:","null","","","","",""
"","image-keyboard-response","300","376275","0.0-8.0-1.17","LF","99v3ayruzp","1440","900","de","ki04as07","null","","","","","","","","learning/Slide98.JPG","null","","","","",""
"","html-keyboard-response","301","377279","0.0-8.0-2.17","LF","99v3ayruzp","1440","900","de","ki04as07","null","","","","learningBlock2","","","","<div style=""font-size:60px;""> </div>","null","LF","learning/Slide98.JPG","This is a bim:","",""
"","html-keyboard-response","302","378284","0.0-8.0-0.18","LF","99v3ayruzp","1440","900","de","ki04as07","null","","","","learningBlock2","","","","This is a dep:","null","","","","",""
"","image-keyboard-response","303","378615","0.0-8.0-1.18","LF","99v3ayruzp","1440","900","de","ki04as07","null","","","","","","","","learning/Slide99.JPG","null","","","","",""
"","html-keyboard-response","304","379621","0.0-8.0-2.18","LF","99v3ayruzp","1440","900","de","ki04as07","null","","","","learningBlock2","","","","<div style=""font-size:60px;""> </div>","null","LF","learning/Slide99.JPG","This is a dep:","",""
"","html-keyboard-response","305","380626","0.0-8.0-0.19","LF","99v3ayruzp","1440","900","de","ki04as07","null","","","","learningBlock2","","","","This is a bim:","null","","","","",""
"","image-keyboard-response","306","380954","0.0-8.0-1.19","LF","99v3ayruzp","1440","900","de","ki04as07","null","","","","","","","","learning/Slide100.JPG","null","","","","",""
"","html-keyboard-response","307","381958","0.0-8.0-2.19","LF","99v3ayruzp","1440","900","de","ki04as07","null","","","","learningBlock2","","","","<div style=""font-size:60px;""> </div>","null","LF","learning/Slide100.JPG","This is a bim:","",""
"","html-keyboard-response","308","382964","0.0-8.0-0.20","LF","99v3ayruzp","1440","900","de","ki04as07","null","","","","learningBlock2","","","","This is a tob:","null","","","","",""
"","image-keyboard-response","309","383294","0.0-8.0-1.20","LF","99v3ayruzp","1440","900","de","ki04as07","null","","","","","","","","learning/Slide101.JPG","null","","","","",""
"","html-keyboard-response","310","384298","0.0-8.0-2.20","LF","99v3ayruzp","1440","900","de","ki04as07","null","","","","learningBlock2","","","","<div style=""font-size:60px;""> </div>","null","LF","learning/Slide101.JPG","This is a tob:","",""
"","html-keyboard-response","311","385304","0.0-8.0-0.21","LF","99v3ayruzp","1440","900","de","ki04as07","null","","","","learningBlock2","","","","This is a bim:","null","","","","",""
"","image-keyboard-response","312","385637","0.0-8.0-1.21","LF","99v3ayruzp","1440","900","de","ki04as07","null","","","","","","","","learning/Slide102.JPG","null","","","","",""
"","html-keyboard-response","313","386638","0.0-8.0-2.21","LF","99v3ayruzp","1440","900","de","ki04as07","null","","","","learningBlock2","","","","<div style=""font-size:60px;""> </div>","null","LF","learning/Slide102.JPG","This is a bim:","",""
"","html-keyboard-response","314","387644","0.0-8.0-0.22","LF","99v3ayruzp","1440","900","de","ki04as07","null","","","","learningBlock2","","","","This is a dep:","null","","","","",""
"","image-keyboard-response","315","387972","0.0-8.0-1.22","LF","99v3ayruzp","1440","900","de","ki04as07","null","","","","","","","","learning/Slide103.JPG","null","","","","",""
"","html-keyboard-response","316","388977","0.0-8.0-2.22","LF","99v3ayruzp","1440","900","de","ki04as07","null","","","","learningBlock2","","","","<div style=""font-size:60px;""> </div>","null","LF","learning/Slide103.JPG","This is a dep:","",""
"","html-keyboard-response","317","389981","0.0-8.0-0.23","LF","99v3ayruzp","1440","900","de","ki04as07","null","","","","learningBlock2","","","","This is a tob:","null","","","","",""
"","image-keyboard-response","318","390312","0.0-8.0-1.23","LF","99v3ayruzp","1440","900","de","ki04as07","null","","","","","","","","learning/Slide104.JPG","null","","","","",""
"","html-keyboard-response","319","391315","0.0-8.0-2.23","LF","99v3ayruzp","1440","900","de","ki04as07","null","","","","learningBlock2","","","","<div style=""font-size:60px;""> </div>","null","LF","learning/Slide104.JPG","This is a tob:","",""
"","html-keyboard-response","320","392320","0.0-8.0-0.24","LF","99v3ayruzp","1440","900","de","ki04as07","null","","","","learningBlock2","","","","This is a dep:","null","","","","",""
"","image-keyboard-response","321","392651","0.0-8.0-1.24","LF","99v3ayruzp","1440","900","de","ki04as07","null","","","","","","","","learning/Slide105.JPG","null","","","","",""
"","html-keyboard-response","322","393654","0.0-8.0-2.24","LF","99v3ayruzp","1440","900","de","ki04as07","null","","","","learningBlock2","","","","<div style=""font-size:60px;""> </div>","null","LF","learning/Slide105.JPG","This is a dep:","",""
"","html-keyboard-response","323","394660","0.0-8.0-0.25","LF","99v3ayruzp","1440","900","de","ki04as07","null","","","","learningBlock2","","","","This is a wug:","null","","","","",""
"","image-keyboard-response","324","394996","0.0-8.0-1.25","LF","99v3ayruzp","1440","900","de","ki04as07","null","","","","","","","","learning/Slide106.JPG","null","","","","",""
"","html-keyboard-response","325","396001","0.0-8.0-2.25","LF","99v3ayruzp","1440","900","de","ki04as07","null","","","","learningBlock2","","","","<div style=""font-size:60px;""> </div>","null","LF","learning/Slide106.JPG","This is a wug:","",""
"","html-keyboard-response","326","397006","0.0-8.0-0.26","LF","99v3ayruzp","1440","900","de","ki04as07","null","","","","learningBlock2","","","","This is a bim:","null","","","","",""
"","image-keyboard-response","327","397342","0.0-8.0-1.26","LF","99v3ayruzp","1440","900","de","ki04as07","null","","","","","","","","learning/Slide107.JPG","null","","","","",""
"","html-keyboard-response","328","398346","0.0-8.0-2.26","LF","99v3ayruzp","1440","900","de","ki04as07","null","","","","learningBlock2","","","","<div style=""font-size:60px;""> </div>","null","LF","learning/Slide107.JPG","This is a bim:","",""
"","html-keyboard-response","329","399352","0.0-8.0-0.27","LF","99v3ayruzp","1440","900","de","ki04as07","null","","","","learningBlock2","","","","This is a dep:","null","","","","",""
"","image-keyboard-response","330","399686","0.0-8.0-1.27","LF","99v3ayruzp","1440","900","de","ki04as07","null","","","","","","","","learning/Slide108.JPG","null","","","","",""
"","html-keyboard-response","331","400691","0.0-8.0-2.27","LF","99v3ayruzp","1440","900","de","ki04as07","null","","","","learningBlock2","","","","<div style=""font-size:60px;""> </div>","null","LF","learning/Slide108.JPG","This is a dep:","",""
"","html-keyboard-response","332","401693","0.0-8.0-0.28","LF","99v3ayruzp","1440","900","de","ki04as07","null","","","","learningBlock2","","","","This is a wug:","null","","","","",""
"","image-keyboard-response","333","402026","0.0-8.0-1.28","LF","99v3ayruzp","1440","900","de","ki04as07","null","","","","","","","","learning/Slide109.JPG","null","","","","",""
"","html-keyboard-response","334","403029","0.0-8.0-2.28","LF","99v3ayruzp","1440","900","de","ki04as07","null","","","","learningBlock2","","","","<div style=""font-size:60px;""> </div>","null","LF","learning/Slide109.JPG","This is a wug:","",""
"","html-keyboard-response","335","404035","0.0-8.0-0.29","LF","99v3ayruzp","1440","900","de","ki04as07","null","","","","learningBlock2","","","","This is a bim:","null","","","","",""
"","image-keyboard-response","336","404366","0.0-8.0-1.29","LF","99v3ayruzp","1440","900","de","ki04as07","null","","","","","","","","learning/Slide110.JPG","null","","","","",""
"","html-keyboard-response","337","405370","0.0-8.0-2.29","LF","99v3ayruzp","1440","900","de","ki04as07","null","","","","learningBlock2","","","","<div style=""font-size:60px;""> </div>","null","LF","learning/Slide110.JPG","This is a bim:","",""
"","html-keyboard-response","338","406374","0.0-8.0-0.30","LF","99v3ayruzp","1440","900","de","ki04as07","null","","","","learningBlock2","","","","This is a tob:","null","","","","",""
"","image-keyboard-response","339","406705","0.0-8.0-1.30","LF","99v3ayruzp","1440","900","de","ki04as07","null","","","","","","","","learning/Slide111.JPG","null","","","","",""
"","html-keyboard-response","340","407709","0.0-8.0-2.30","LF","99v3ayruzp","1440","900","de","ki04as07","null","","","","learningBlock2","","","","<div style=""font-size:60px;""> </div>","null","LF","learning/Slide111.JPG","This is a tob:","",""
"","html-keyboard-response","341","408715","0.0-8.0-0.31","LF","99v3ayruzp","1440","900","de","ki04as07","null","","","","learningBlock2","","","","This is a wug:","null","","","","",""
"","image-keyboard-response","342","409050","0.0-8.0-1.31","LF","99v3ayruzp","1440","900","de","ki04as07","null","","","","","","","","learning/Slide112.JPG","null","","","","",""
"","html-keyboard-response","343","410055","0.0-8.0-2.31","LF","99v3ayruzp","1440","900","de","ki04as07","null","","","","learningBlock2","","","","<div style=""font-size:60px;""> </div>","null","LF","learning/Slide112.JPG","This is a wug:","",""
"","html-keyboard-response","344","411059","0.0-8.0-0.32","LF","99v3ayruzp","1440","900","de","ki04as07","null","","","","learningBlock2","","","","This is a tob:","null","","","","",""
"","image-keyboard-response","345","411390","0.0-8.0-1.32","LF","99v3ayruzp","1440","900","de","ki04as07","null","","","","","","","","learning/Slide113.JPG","null","","","","",""
"","html-keyboard-response","346","412396","0.0-8.0-2.32","LF","99v3ayruzp","1440","900","de","ki04as07","null","","","","learningBlock2","","","","<div style=""font-size:60px;""> </div>","null","LF","learning/Slide113.JPG","This is a tob:","",""
"","html-keyboard-response","347","413399","0.0-8.0-0.33","LF","99v3ayruzp","1440","900","de","ki04as07","null","","","","learningBlock2","","","","This is a wug:","null","","","","",""
"","image-keyboard-response","348","413730","0.0-8.0-1.33","LF","99v3ayruzp","1440","900","de","ki04as07","null","","","","","","","","learning/Slide114.JPG","null","","","","",""
"","html-keyboard-response","349","414734","0.0-8.0-2.33","LF","99v3ayruzp","1440","900","de","ki04as07","null","","","","learningBlock2","","","","<div style=""font-size:60px;""> </div>","null","LF","learning/Slide114.JPG","This is a wug:","",""
"","html-keyboard-response","350","415736","0.0-8.0-0.34","LF","99v3ayruzp","1440","900","de","ki04as07","null","","","","learningBlock2","","","","This is a bim:","null","","","","",""
"","image-keyboard-response","351","416065","0.0-8.0-1.34","LF","99v3ayruzp","1440","900","de","ki04as07","null","","","","","","","","learning/Slide115.JPG","null","","","","",""
"","html-keyboard-response","352","417069","0.0-8.0-2.34","LF","99v3ayruzp","1440","900","de","ki04as07","null","","","","learningBlock2","","","","<div style=""font-size:60px;""> </div>","null","LF","learning/Slide115.JPG","This is a bim:","",""
"","html-keyboard-response","353","418075","0.0-8.0-0.35","LF","99v3ayruzp","1440","900","de","ki04as07","null","","","","learningBlock2","","","","This is a dep:","null","","","","",""
"","image-keyboard-response","354","418408","0.0-8.0-1.35","LF","99v3ayruzp","1440","900","de","ki04as07","null","","","","","","","","learning/Slide116.JPG","null","","","","",""
"","html-keyboard-response","355","419412","0.0-8.0-2.35","LF","99v3ayruzp","1440","900","de","ki04as07","null","","","","learningBlock2","","","","<div style=""font-size:60px;""> </div>","null","LF","learning/Slide116.JPG","This is a dep:","",""
"","html-keyboard-response","356","420417","0.0-8.0-0.36","LF","99v3ayruzp","1440","900","de","ki04as07","null","","","","learningBlock2","","","","This is a tob:","null","","","","",""
"","image-keyboard-response","357","420750","0.0-8.0-1.36","LF","99v3ayruzp","1440","900","de","ki04as07","null","","","","","","","","learning/Slide117.JPG","null","","","","",""
"","html-keyboard-response","358","421754","0.0-8.0-2.36","LF","99v3ayruzp","1440","900","de","ki04as07","null","","","","learningBlock2","","","","<div style=""font-size:60px;""> </div>","null","LF","learning/Slide117.JPG","This is a tob:","",""
"","html-keyboard-response","359","422760","0.0-8.0-0.37","LF","99v3ayruzp","1440","900","de","ki04as07","null","","","","learningBlock2","","","","This is a dep:","null","","","","",""
"","image-keyboard-response","360","423095","0.0-8.0-1.37","LF","99v3ayruzp","1440","900","de","ki04as07","null","","","","","","","","learning/Slide118.JPG","null","","","","",""
"","html-keyboard-response","361","424100","0.0-8.0-2.37","LF","99v3ayruzp","1440","900","de","ki04as07","null","","","","learningBlock2","","","","<div style=""font-size:60px;""> </div>","null","LF","learning/Slide118.JPG","This is a dep:","",""
"","html-keyboard-response","362","425104","0.0-8.0-0.38","LF","99v3ayruzp","1440","900","de","ki04as07","null","","","","learningBlock2","","","","This is a wug:","null","","","","",""
"","image-keyboard-response","363","425434","0.0-8.0-1.38","LF","99v3ayruzp","1440","900","de","ki04as07","null","","","","","","","","learning/Slide119.JPG","null","","","","",""
"","html-keyboard-response","364","426439","0.0-8.0-2.38","LF","99v3ayruzp","1440","900","de","ki04as07","null","","","","learningBlock2","","","","<div style=""font-size:60px;""> </div>","null","LF","learning/Slide119.JPG","This is a wug:","",""
"","html-keyboard-response","365","427444","0.0-8.0-0.39","LF","99v3ayruzp","1440","900","de","ki04as07","null","","","","learningBlock2","","","","This is a dep:","null","","","","",""
"","image-keyboard-response","366","427775","0.0-8.0-1.39","LF","99v3ayruzp","1440","900","de","ki04as07","null","","","","","","","","learning/Slide120.JPG","null","","","","",""
"","html-keyboard-response","367","428779","0.0-8.0-2.39","LF","99v3ayruzp","1440","900","de","ki04as07","null","","","","learningBlock2","","","","<div style=""font-size:60px;""> </div>","null","LF","learning/Slide120.JPG","This is a dep:","",""
"","html-keyboard-response","368","429784","0.0-8.0-0.40","LF","99v3ayruzp","1440","900","de","ki04as07","null","","","","learningBlock2","","","","This is a bim:","null","","","","",""
"","image-keyboard-response","369","430114","0.0-8.0-1.40","LF","99v3ayruzp","1440","900","de","ki04as07","null","","","","","","","","learning/Slide121.JPG","null","","","","",""
"","html-keyboard-response","370","431118","0.0-8.0-2.40","LF","99v3ayruzp","1440","900","de","ki04as07","null","","","","learningBlock2","","","","<div style=""font-size:60px;""> </div>","null","LF","learning/Slide121.JPG","This is a bim:","",""
"","html-keyboard-response","371","432123","0.0-8.0-0.41","LF","99v3ayruzp","1440","900","de","ki04as07","null","","","","learningBlock2","","","","This is a wug:","null","","","","",""
"","image-keyboard-response","372","432453","0.0-8.0-1.41","LF","99v3ayruzp","1440","900","de","ki04as07","null","","","","","","","","learning/Slide122.JPG","null","","","","",""
"","html-keyboard-response","373","433458","0.0-8.0-2.41","LF","99v3ayruzp","1440","900","de","ki04as07","null","","","","learningBlock2","","","","<div style=""font-size:60px;""> </div>","null","LF","learning/Slide122.JPG","This is a wug:","",""
"","html-keyboard-response","374","434465","0.0-8.0-0.42","LF","99v3ayruzp","1440","900","de","ki04as07","null","","","","learningBlock2","","","","This is a bim:","null","","","","",""
"","image-keyboard-response","375","434799","0.0-8.0-1.42","LF","99v3ayruzp","1440","900","de","ki04as07","null","","","","","","","","learning/Slide123.JPG","null","","","","",""
"","html-keyboard-response","376","435804","0.0-8.0-2.42","LF","99v3ayruzp","1440","900","de","ki04as07","null","","","","learningBlock2","","","","<div style=""font-size:60px;""> </div>","null","LF","learning/Slide123.JPG","This is a bim:","",""
"","html-keyboard-response","377","436809","0.0-8.0-0.43","LF","99v3ayruzp","1440","900","de","ki04as07","null","","","","learningBlock2","","","","This is a tob:","null","","","","",""
"","image-keyboard-response","378","437141","0.0-8.0-1.43","LF","99v3ayruzp","1440","900","de","ki04as07","null","","","","","","","","learning/Slide124.JPG","null","","","","",""
"","html-keyboard-response","379","438143","0.0-8.0-2.43","LF","99v3ayruzp","1440","900","de","ki04as07","null","","","","learningBlock2","","","","<div style=""font-size:60px;""> </div>","null","LF","learning/Slide124.JPG","This is a tob:","",""
"","html-keyboard-response","380","439149","0.0-8.0-0.44","LF","99v3ayruzp","1440","900","de","ki04as07","null","","","","learningBlock2","","","","This is a bim:","null","","","","",""
"","image-keyboard-response","381","439478","0.0-8.0-1.44","LF","99v3ayruzp","1440","900","de","ki04as07","null","","","","","","","","learning/Slide125.JPG","null","","","","",""
"","html-keyboard-response","382","440483","0.0-8.0-2.44","LF","99v3ayruzp","1440","900","de","ki04as07","null","","","","learningBlock2","","","","<div style=""font-size:60px;""> </div>","null","LF","learning/Slide125.JPG","This is a bim:","",""
"","html-keyboard-response","383","441489","0.0-8.0-0.45","LF","99v3ayruzp","1440","900","de","ki04as07","null","","","","learningBlock2","","","","This is a tob:","null","","","","",""
"","image-keyboard-response","384","441824","0.0-8.0-1.45","LF","99v3ayruzp","1440","900","de","ki04as07","null","","","","","","","","learning/Slide126.JPG","null","","","","",""
"","html-keyboard-response","385","442828","0.0-8.0-2.45","LF","99v3ayruzp","1440","900","de","ki04as07","null","","","","learningBlock2","","","","<div style=""font-size:60px;""> </div>","null","LF","learning/Slide126.JPG","This is a tob:","",""
"","html-keyboard-response","386","443832","0.0-8.0-0.46","LF","99v3ayruzp","1440","900","de","ki04as07","null","","","","learningBlock2","","","","This is a dep:","null","","","","",""
"","image-keyboard-response","387","444163","0.0-8.0-1.46","LF","99v3ayruzp","1440","900","de","ki04as07","null","","","","","","","","learning/Slide127.JPG","null","","","","",""
"","html-keyboard-response","388","445168","0.0-8.0-2.46","LF","99v3ayruzp","1440","900","de","ki04as07","null","","","","learningBlock2","","","","<div style=""font-size:60px;""> </div>","null","LF","learning/Slide127.JPG","This is a dep:","",""
"","html-keyboard-response","389","446172","0.0-8.0-0.47","LF","99v3ayruzp","1440","900","de","ki04as07","null","","","","learningBlock2","","","","This is a wug:","null","","","","",""
"","image-keyboard-response","390","446500","0.0-8.0-1.47","LF","99v3ayruzp","1440","900","de","ki04as07","null","","","","","","","","learning/Slide128.JPG","null","","","","",""
"","html-keyboard-response","391","447501","0.0-8.0-2.47","LF","99v3ayruzp","1440","900","de","ki04as07","null","","","","learningBlock2","","","","<div style=""font-size:60px;""> </div>","null","LF","learning/Slide128.JPG","This is a wug:","",""
"","html-keyboard-response","392","448507","0.0-8.0-0.48","LF","99v3ayruzp","1440","900","de","ki04as07","null","","","","learningBlock2","","","","This is a tob:","null","","","","",""
"","image-keyboard-response","393","448836","0.0-8.0-1.48","LF","99v3ayruzp","1440","900","de","ki04as07","null","","","","","","","","learning/Slide129.JPG","null","","","","",""
"","html-keyboard-response","394","449841","0.0-8.0-2.48","LF","99v3ayruzp","1440","900","de","ki04as07","null","","","","learningBlock2","","","","<div style=""font-size:60px;""> </div>","null","LF","learning/Slide129.JPG","This is a tob:","",""
"","html-keyboard-response","395","450845","0.0-8.0-0.49","LF","99v3ayruzp","1440","900","de","ki04as07","null","","","","learningBlock2","","","","This is a wug:","null","","","","",""
"","image-keyboard-response","396","451182","0.0-8.0-1.49","LF","99v3ayruzp","1440","900","de","ki04as07","null","","","","","","","","learning/Slide130.JPG","null","","","","",""
"","html-keyboard-response","397","452184","0.0-8.0-2.49","LF","99v3ayruzp","1440","900","de","ki04as07","null","","","","learningBlock2","","","","<div style=""font-size:60px;""> </div>","null","LF","learning/Slide130.JPG","This is a wug:","",""
"","html-keyboard-response","398","453190","0.0-8.0-0.50","LF","99v3ayruzp","1440","900","de","ki04as07","null","","","","learningBlock2","","","","This is a bim:","null","","","","",""
"","image-keyboard-response","399","453521","0.0-8.0-1.50","LF","99v3ayruzp","1440","900","de","ki04as07","null","","","","","","","","learning/Slide131.JPG","null","","","","",""
"","html-keyboard-response","400","454525","0.0-8.0-2.50","LF","99v3ayruzp","1440","900","de","ki04as07","null","","","","learningBlock2","","","","<div style=""font-size:60px;""> </div>","null","LF","learning/Slide131.JPG","This is a bim:","",""
"","html-keyboard-response","401","455530","0.0-8.0-0.51","LF","99v3ayruzp","1440","900","de","ki04as07","null","","","","learningBlock2","","","","This is a dep:","null","","","","",""
"","image-keyboard-response","402","455861","0.0-8.0-1.51","LF","99v3ayruzp","1440","900","de","ki04as07","null","","","","","","","","learning/Slide132.JPG","null","","","","",""
"","html-keyboard-response","403","456865","0.0-8.0-2.51","LF","99v3ayruzp","1440","900","de","ki04as07","null","","","","learningBlock2","","","","<div style=""font-size:60px;""> </div>","null","LF","learning/Slide132.JPG","This is a dep:","",""
"","html-keyboard-response","404","457873","0.0-8.0-0.52","LF","99v3ayruzp","1440","900","de","ki04as07","null","","","","learningBlock2","","","","This is a tob:","null","","","","",""
"","image-keyboard-response","405","458206","0.0-8.0-1.52","LF","99v3ayruzp","1440","900","de","ki04as07","null","","","","","","","","learning/Slide133.JPG","null","","","","",""
"","html-keyboard-response","406","459208","0.0-8.0-2.52","LF","99v3ayruzp","1440","900","de","ki04as07","null","","","","learningBlock2","","","","<div style=""font-size:60px;""> </div>","null","LF","learning/Slide133.JPG","This is a tob:","",""
"","html-keyboard-response","407","460214","0.0-8.0-0.53","LF","99v3ayruzp","1440","900","de","ki04as07","null","","","","learningBlock2","","","","This is a dep:","null","","","","",""
"","image-keyboard-response","408","460545","0.0-8.0-1.53","LF","99v3ayruzp","1440","900","de","ki04as07","null","","","","","","","","learning/Slide134.JPG","null","","","","",""
"","html-keyboard-response","409","461550","0.0-8.0-2.53","LF","99v3ayruzp","1440","900","de","ki04as07","null","","","","learningBlock2","","","","<div style=""font-size:60px;""> </div>","null","LF","learning/Slide134.JPG","This is a dep:","",""
"","html-keyboard-response","410","462551","0.0-8.0-0.54","LF","99v3ayruzp","1440","900","de","ki04as07","null","","","","learningBlock2","","","","This is a tob:","null","","","","",""
"","image-keyboard-response","411","462885","0.0-8.0-1.54","LF","99v3ayruzp","1440","900","de","ki04as07","null","","","","","","","","learning/Slide135.JPG","null","","","","",""
"","html-keyboard-response","412","463889","0.0-8.0-2.54","LF","99v3ayruzp","1440","900","de","ki04as07","null","","","","learningBlock2","","","","<div style=""font-size:60px;""> </div>","null","LF","learning/Slide135.JPG","This is a tob:","",""
"","html-keyboard-response","413","464895","0.0-8.0-0.55","LF","99v3ayruzp","1440","900","de","ki04as07","null","","","","learningBlock2","","","","This is a wug:","null","","","","",""
"","image-keyboard-response","414","465224","0.0-8.0-1.55","LF","99v3ayruzp","1440","900","de","ki04as07","null","","","","","","","","learning/Slide136.JPG","null","","","","",""
"","html-keyboard-response","415","466230","0.0-8.0-2.55","LF","99v3ayruzp","1440","900","de","ki04as07","null","","","","learningBlock2","","","","<div style=""font-size:60px;""> </div>","null","LF","learning/Slide136.JPG","This is a wug:","",""
"","html-keyboard-response","416","467236","0.0-8.0-0.56","LF","99v3ayruzp","1440","900","de","ki04as07","null","","","","learningBlock2","","","","This is a tob:","null","","","","",""
"","image-keyboard-response","417","467565","0.0-8.0-1.56","LF","99v3ayruzp","1440","900","de","ki04as07","null","","","","","","","","learning/Slide137.JPG","null","","","","",""
"","html-keyboard-response","418","468568","0.0-8.0-2.56","LF","99v3ayruzp","1440","900","de","ki04as07","null","","","","learningBlock2","","","","<div style=""font-size:60px;""> </div>","null","LF","learning/Slide137.JPG","This is a tob:","",""
"","html-keyboard-response","419","469573","0.0-8.0-0.57","LF","99v3ayruzp","1440","900","de","ki04as07","null","","","","learningBlock2","","","","This is a bim:","null","","","","",""
"","image-keyboard-response","420","469910","0.0-8.0-1.57","LF","99v3ayruzp","1440","900","de","ki04as07","null","","","","","","","","learning/Slide138.JPG","null","","","","",""
"","html-keyboard-response","421","470915","0.0-8.0-2.57","LF","99v3ayruzp","1440","900","de","ki04as07","null","","","","learningBlock2","","","","<div style=""font-size:60px;""> </div>","null","LF","learning/Slide138.JPG","This is a bim:","",""
"","html-keyboard-response","422","471921","0.0-8.0-0.58","LF","99v3ayruzp","1440","900","de","ki04as07","null","","","","learningBlock2","","","","This is a wug:","null","","","","",""
"","image-keyboard-response","423","472254","0.0-8.0-1.58","LF","99v3ayruzp","1440","900","de","ki04as07","null","","","","","","","","learning/Slide139.JPG","null","","","","",""
"","html-keyboard-response","424","473258","0.0-8.0-2.58","LF","99v3ayruzp","1440","900","de","ki04as07","null","","","","learningBlock2","","","","<div style=""font-size:60px;""> </div>","null","LF","learning/Slide139.JPG","This is a wug:","",""
"","html-keyboard-response","425","474264","0.0-8.0-0.59","LF","99v3ayruzp","1440","900","de","ki04as07","null","","","","learningBlock2","","","","This is a dep:","null","","","","",""
"","image-keyboard-response","426","474595","0.0-8.0-1.59","LF","99v3ayruzp","1440","900","de","ki04as07","null","","","","","","","","learning/Slide140.JPG","null","","","","",""
"","html-keyboard-response","427","475600","0.0-8.0-2.59","LF","99v3ayruzp","1440","900","de","ki04as07","null","","","","learningBlock2","","","","<div style=""font-size:60px;""> </div>","null","LF","learning/Slide140.JPG","This is a dep:","",""
"","html-keyboard-response","428","476603","0.0-8.0-0.60","LF","99v3ayruzp","1440","900","de","ki04as07","null","","","","learningBlock2","","","","This is a tob:","null","","","","",""
"","image-keyboard-response","429","476933","0.0-8.0-1.60","LF","99v3ayruzp","1440","900","de","ki04as07","null","","","","","","","","learning/Slide141.JPG","null","","","","",""
"","html-keyboard-response","430","477936","0.0-8.0-2.60","LF","99v3ayruzp","1440","900","de","ki04as07","null","","","","learningBlock2","","","","<div style=""font-size:60px;""> </div>","null","LF","learning/Slide141.JPG","This is a tob:","",""
"","html-keyboard-response","431","478942","0.0-8.0-0.61","LF","99v3ayruzp","1440","900","de","ki04as07","null","","","","learningBlock2","","","","This is a wug:","null","","","","",""
"","image-keyboard-response","432","479272","0.0-8.0-1.61","LF","99v3ayruzp","1440","900","de","ki04as07","null","","","","","","","","learning/Slide142.JPG","null","","","","",""
"","html-keyboard-response","433","480277","0.0-8.0-2.61","LF","99v3ayruzp","1440","900","de","ki04as07","null","","","","learningBlock2","","","","<div style=""font-size:60px;""> </div>","null","LF","learning/Slide142.JPG","This is a wug:","",""
"","html-keyboard-response","434","481281","0.0-8.0-0.62","LF","99v3ayruzp","1440","900","de","ki04as07","null","","","","learningBlock2","","","","This is a bim:","null","","","","",""
"","image-keyboard-response","435","481612","0.0-8.0-1.62","LF","99v3ayruzp","1440","900","de","ki04as07","null","","","","","","","","learning/Slide143.JPG","null","","","","",""
"","html-keyboard-response","436","482616","0.0-8.0-2.62","LF","99v3ayruzp","1440","900","de","ki04as07","null","","","","learningBlock2","","","","<div style=""font-size:60px;""> </div>","null","LF","learning/Slide143.JPG","This is a bim:","",""
"","html-keyboard-response","437","483623","0.0-8.0-0.63","LF","99v3ayruzp","1440","900","de","ki04as07","null","","","","learningBlock2","","","","This is a dep:","null","","","","",""
"","image-keyboard-response","438","483957","0.0-8.0-1.63","LF","99v3ayruzp","1440","900","de","ki04as07","null","","","","","","","","learning/Slide144.JPG","null","","","","",""
"","html-keyboard-response","439","484961","0.0-8.0-2.63","LF","99v3ayruzp","1440","900","de","ki04as07","null","","","","learningBlock2","","","","<div style=""font-size:60px;""> </div>","null","LF","learning/Slide144.JPG","This is a dep:","",""
"","html-keyboard-response","440","485966","0.0-8.0-0.64","LF","99v3ayruzp","1440","900","de","ki04as07","null","","","","learningBlock2","","","","This is a bim:","null","","","","",""
"","image-keyboard-response","441","486297","0.0-8.0-1.64","LF","99v3ayruzp","1440","900","de","ki04as07","null","","","","","","","","learning/Slide145.JPG","null","","","","",""
"","html-keyboard-response","442","487297","0.0-8.0-2.64","LF","99v3ayruzp","1440","900","de","ki04as07","null","","","","learningBlock2","","","","<div style=""font-size:60px;""> </div>","null","LF","learning/Slide145.JPG","This is a bim:","",""
"","html-keyboard-response","443","488302","0.0-8.0-0.65","LF","99v3ayruzp","1440","900","de","ki04as07","null","","","","learningBlock2","","","","This is a tob:","null","","","","",""
"","image-keyboard-response","444","488636","0.0-8.0-1.65","LF","99v3ayruzp","1440","900","de","ki04as07","null","","","","","","","","learning/Slide146.JPG","null","","","","",""
"","html-keyboard-response","445","489640","0.0-8.0-2.65","LF","99v3ayruzp","1440","900","de","ki04as07","null","","","","learningBlock2","","","","<div style=""font-size:60px;""> </div>","null","LF","learning/Slide146.JPG","This is a tob:","",""
"","html-keyboard-response","446","490645","0.0-8.0-0.66","LF","99v3ayruzp","1440","900","de","ki04as07","null","","","","learningBlock2","","","","This is a wug:","null","","","","",""
"","image-keyboard-response","447","490975","0.0-8.0-1.66","LF","99v3ayruzp","1440","900","de","ki04as07","null","","","","","","","","learning/Slide147.JPG","null","","","","",""
"","html-keyboard-response","448","491981","0.0-8.0-2.66","LF","99v3ayruzp","1440","900","de","ki04as07","null","","","","learningBlock2","","","","<div style=""font-size:60px;""> </div>","null","LF","learning/Slide147.JPG","This is a wug:","",""
"","html-keyboard-response","449","492988","0.0-8.0-0.67","LF","99v3ayruzp","1440","900","de","ki04as07","null","","","","learningBlock2","","","","This is a bim:","null","","","","",""
"","image-keyboard-response","450","493321","0.0-8.0-1.67","LF","99v3ayruzp","1440","900","de","ki04as07","null","","","","","","","","learning/Slide148.JPG","null","","","","",""
"","html-keyboard-response","451","494325","0.0-8.0-2.67","LF","99v3ayruzp","1440","900","de","ki04as07","null","","","","learningBlock2","","","","<div style=""font-size:60px;""> </div>","null","LF","learning/Slide148.JPG","This is a bim:","",""
"","html-keyboard-response","452","495331","0.0-8.0-0.68","LF","99v3ayruzp","1440","900","de","ki04as07","null","","","","learningBlock2","","","","This is a dep:","null","","","","",""
"","image-keyboard-response","453","495660","0.0-8.0-1.68","LF","99v3ayruzp","1440","900","de","ki04as07","null","","","","","","","","learning/Slide149.JPG","null","","","","",""
"","html-keyboard-response","454","496664","0.0-8.0-2.68","LF","99v3ayruzp","1440","900","de","ki04as07","null","","","","learningBlock2","","","","<div style=""font-size:60px;""> </div>","null","LF","learning/Slide149.JPG","This is a dep:","",""
"","html-keyboard-response","455","497670","0.0-8.0-0.69","LF","99v3ayruzp","1440","900","de","ki04as07","null","","","","learningBlock2","","","","This is a wug:","null","","","","",""
"","image-keyboard-response","456","498005","0.0-8.0-1.69","LF","99v3ayruzp","1440","900","de","ki04as07","null","","","","","","","","learning/Slide150.JPG","null","","","","",""
"","html-keyboard-response","457","499010","0.0-8.0-2.69","LF","99v3ayruzp","1440","900","de","ki04as07","null","","","","learningBlock2","","","","<div style=""font-size:60px;""> </div>","null","LF","learning/Slide150.JPG","This is a wug:","",""
"","html-keyboard-response","458","500015","0.0-8.0-0.70","LF","99v3ayruzp","1440","900","de","ki04as07","null","","","","learningBlock2","","","","This is a dep:","null","","","","",""
"","image-keyboard-response","459","500351","0.0-8.0-1.70","LF","99v3ayruzp","1440","900","de","ki04as07","null","","","","","","","","learning/Slide151.JPG","null","","","","",""
"","html-keyboard-response","460","501355","0.0-8.0-2.70","LF","99v3ayruzp","1440","900","de","ki04as07","null","","","","learningBlock2","","","","<div style=""font-size:60px;""> </div>","null","LF","learning/Slide151.JPG","This is a dep:","",""
"","html-keyboard-response","461","502361","0.0-8.0-0.71","LF","99v3ayruzp","1440","900","de","ki04as07","null","","","","learningBlock2","","","","This is a wug:","null","","","","",""
"","image-keyboard-response","462","502691","0.0-8.0-1.71","LF","99v3ayruzp","1440","900","de","ki04as07","null","","","","","","","","learning/Slide152.JPG","null","","","","",""
"","html-keyboard-response","463","503694","0.0-8.0-2.71","LF","99v3ayruzp","1440","900","de","ki04as07","null","","","","learningBlock2","","","","<div style=""font-size:60px;""> </div>","null","LF","learning/Slide152.JPG","This is a wug:","",""
"","html-keyboard-response","464","504700","0.0-8.0-0.72","LF","99v3ayruzp","1440","900","de","ki04as07","null","","","","learningBlock2","","","","This is a bim:","null","","","","",""
"","image-keyboard-response","465","505035","0.0-8.0-1.72","LF","99v3ayruzp","1440","900","de","ki04as07","null","","","","","","","","learning/Slide153.JPG","null","","","","",""
"","html-keyboard-response","466","506039","0.0-8.0-2.72","LF","99v3ayruzp","1440","900","de","ki04as07","null","","","","learningBlock2","","","","<div style=""font-size:60px;""> </div>","null","LF","learning/Slide153.JPG","This is a bim:","",""
"","html-keyboard-response","467","507044","0.0-8.0-0.73","LF","99v3ayruzp","1440","900","de","ki04as07","null","","","","learningBlock2","","","","This is a tob:","null","","","","",""
"","image-keyboard-response","468","507376","0.0-8.0-1.73","LF","99v3ayruzp","1440","900","de","ki04as07","null","","","","","","","","learning/Slide154.JPG","null","","","","",""
"","html-keyboard-response","469","508379","0.0-8.0-2.73","LF","99v3ayruzp","1440","900","de","ki04as07","null","","","","learningBlock2","","","","<div style=""font-size:60px;""> </div>","null","LF","learning/Slide154.JPG","This is a tob:","",""
"","html-keyboard-response","470","509380","0.0-8.0-0.74","LF","99v3ayruzp","1440","900","de","ki04as07","null","","","","learningBlock2","","","","This is a dep:","null","","","","",""
"","image-keyboard-response","471","509712","0.0-8.0-1.74","LF","99v3ayruzp","1440","900","de","ki04as07","null","","","","","","","","learning/Slide155.JPG","null","","","","",""
"","html-keyboard-response","472","510718","0.0-8.0-2.74","LF","99v3ayruzp","1440","900","de","ki04as07","null","","","","learningBlock2","","","","<div style=""font-size:60px;""> </div>","null","LF","learning/Slide155.JPG","This is a dep:","",""
"","html-keyboard-response","473","511723","0.0-8.0-0.75","LF","99v3ayruzp","1440","900","de","ki04as07","null","","","","learningBlock2","","","","This is a bim:","null","","","","",""
"","image-keyboard-response","474","512053","0.0-8.0-1.75","LF","99v3ayruzp","1440","900","de","ki04as07","null","","","","","","","","learning/Slide156.JPG","null","","","","",""
"","html-keyboard-response","475","513060","0.0-8.0-2.75","LF","99v3ayruzp","1440","900","de","ki04as07","null","","","","learningBlock2","","","","<div style=""font-size:60px;""> </div>","null","LF","learning/Slide156.JPG","This is a bim:","",""
"","html-keyboard-response","476","514065","0.0-8.0-0.76","LF","99v3ayruzp","1440","900","de","ki04as07","null","","","","learningBlock2","","","","This is a dep:","null","","","","",""
"","image-keyboard-response","477","514398","0.0-8.0-1.76","LF","99v3ayruzp","1440","900","de","ki04as07","null","","","","","","","","learning/Slide157.JPG","null","","","","",""
"","html-keyboard-response","478","515402","0.0-8.0-2.76","LF","99v3ayruzp","1440","900","de","ki04as07","null","","","","learningBlock2","","","","<div style=""font-size:60px;""> </div>","null","LF","learning/Slide157.JPG","This is a dep:","",""
"","html-keyboard-response","479","516404","0.0-8.0-0.77","LF","99v3ayruzp","1440","900","de","ki04as07","null","","","","learningBlock2","","","","This is a tob:","null","","","","",""
"","image-keyboard-response","480","516738","0.0-8.0-1.77","LF","99v3ayruzp","1440","900","de","ki04as07","null","","","","","","","","learning/Slide158.JPG","null","","","","",""
"","html-keyboard-response","481","517742","0.0-8.0-2.77","LF","99v3ayruzp","1440","900","de","ki04as07","null","","","","learningBlock2","","","","<div style=""font-size:60px;""> </div>","null","LF","learning/Slide158.JPG","This is a tob:","",""
"","html-keyboard-response","482","518747","0.0-8.0-0.78","LF","99v3ayruzp","1440","900","de","ki04as07","null","","","","learningBlock2","","","","This is a dep:","null","","","","",""
"","image-keyboard-response","483","519083","0.0-8.0-1.78","LF","99v3ayruzp","1440","900","de","ki04as07","null","","","","","","","","learning/Slide159.JPG","null","","","","",""
"","html-keyboard-response","484","520086","0.0-8.0-2.78","LF","99v3ayruzp","1440","900","de","ki04as07","null","","","","learningBlock2","","","","<div style=""font-size:60px;""> </div>","null","LF","learning/Slide159.JPG","This is a dep:","",""
"","html-keyboard-response","485","521091","0.0-8.0-0.79","LF","99v3ayruzp","1440","900","de","ki04as07","null","","","","learningBlock2","","","","This is a wug:","null","","","","",""
"","image-keyboard-response","486","521422","0.0-8.0-1.79","LF","99v3ayruzp","1440","900","de","ki04as07","null","","","","","","","","learning/Slide160.JPG","null","","","","",""
"","html-keyboard-response","487","522427","0.0-8.0-2.79","LF","99v3ayruzp","1440","900","de","ki04as07","null","","","","learningBlock2","","","","<div style=""font-size:60px;""> </div>","null","LF","learning/Slide160.JPG","This is a wug:","",""
"","resize2","488","524998","0.0-9.0","LF","99v3ayruzp","1440","900","de","ki04as07","","","","","","","104","1.04","","","","","","",""
"","instructions","489","534082","0.0-10.0","LF","99v3ayruzp","1440","900","de","ki04as07","NA","","","[{""page_index"":0,""viewing_time"":9082.520000054501}]","instructions","","","","","","","","","",""
