"success","trial_type","trial_index","time_elapsed","internal_node_id","condition","subject","screen_width","screen_height","language","codeword","rt","responses","url","view_history","test_part","final_height_px","final_width_px","scale_factor","stimulus","key_press","learningType","presentedImage","presentedLabel","button_pressed","response"
"true","fullscreen","0","3222","0.0-0.0","FL","g6wblx1ehg","1280","720","en","aj05er02","","","","","","","","","","","","","","",""
"","survey-html-form","1","10580","0.0-1.0","FL","g6wblx1ehg","1280","720","en","aj05er02","7355.925000039861","{""language"":""en""}","","","","","","","","","","","","",""
"","external-html","2","13048","0.0-3.0-0.0","FL","g6wblx1ehg","1280","720","en","aj05er02","2456.6950000589713","","text/information_english.html","","","","","","","","","","","",""
"","external-html","3","26888","0.0-3.0-1.0","FL","g6wblx1ehg","1280","720","en","aj05er02","13801.94500007201","","text/consent_english.html","","","","","","","","","","","",""
"","survey-html-form","4","132425","0.0-3.0-2.0","FL","g6wblx1ehg","1280","720","en","aj05er02","105524.7649999801","{""codeword_enter"":""aj05er02""}","","","","","","","","","","","","",""
"","instructions","5","176641","0.0-4.0","FL","g6wblx1ehg","1280","720","en","aj05er02","NA","","","[{""page_index"":0,""viewing_time"":3864.519999944605},{""page_index"":1,""viewing_time"":38843.30000006594}]","instructions","","","","","","","","","",""
"","resize","6","245122","0.0-5.0","FL","g6wblx1ehg","1280","720","en","aj05er02","","","","","","","350","2.2222222222222223","","","","","","",""
"","image-keyboard-response","7","245305","0.0-6.0-0.0","FL","g6wblx1ehg","1280","720","en","aj05er02","null","","","","","","","","learning/Slide1.JPG","null","","","","",""
"","html-keyboard-response","8","246465","0.0-6.0-1.0","FL","g6wblx1ehg","1280","720","en","aj05er02","null","","","","learningBlock1","","","","That was a tob.","null","","","","",""
"","html-keyboard-response","9","247470","0.0-6.0-2.0","FL","g6wblx1ehg","1280","720","en","aj05er02","null","","","","learningBlock1","","","","<div style=""font-size:60px;""> </div>","null","FL","learning/Slide1.JPG","That was a tob.","",""
"","image-keyboard-response","10","247653","0.0-6.0-0.1","FL","g6wblx1ehg","1280","720","en","aj05er02","null","","","","","","","","learning/Slide2.JPG","null","","","","",""
"","html-keyboard-response","11","248820","0.0-6.0-1.1","FL","g6wblx1ehg","1280","720","en","aj05er02","null","","","","learningBlock1","","","","That was a wug.","null","","","","",""
"","html-keyboard-response","12","249822","0.0-6.0-2.1","FL","g6wblx1ehg","1280","720","en","aj05er02","null","","","","learningBlock1","","","","<div style=""font-size:60px;""> </div>","null","FL","learning/Slide2.JPG","That was a wug.","",""
"","image-keyboard-response","13","249999","0.0-6.0-0.2","FL","g6wblx1ehg","1280","720","en","aj05er02","null","","","","","","","","learning/Slide3.JPG","null","","","","",""
"","html-keyboard-response","14","251155","0.0-6.0-1.2","FL","g6wblx1ehg","1280","720","en","aj05er02","null","","","","learningBlock1","","","","That was a bim.","null","","","","",""
"","html-keyboard-response","15","252157","0.0-6.0-2.2","FL","g6wblx1ehg","1280","720","en","aj05er02","null","","","","learningBlock1","","","","<div style=""font-size:60px;""> </div>","null","FL","learning/Slide3.JPG","That was a bim.","",""
"","image-keyboard-response","16","252335","0.0-6.0-0.3","FL","g6wblx1ehg","1280","720","en","aj05er02","null","","","","","","","","learning/Slide4.JPG","null","","","","",""
"","html-keyboard-response","17","253489","0.0-6.0-1.3","FL","g6wblx1ehg","1280","720","en","aj05er02","null","","","","learningBlock1","","","","That was a dep.","null","","","","",""
"","html-keyboard-response","18","254490","0.0-6.0-2.3","FL","g6wblx1ehg","1280","720","en","aj05er02","null","","","","learningBlock1","","","","<div style=""font-size:60px;""> </div>","null","FL","learning/Slide4.JPG","That was a dep.","",""
"","image-keyboard-response","19","254666","0.0-6.0-0.4","FL","g6wblx1ehg","1280","720","en","aj05er02","null","","","","","","","","learning/Slide5.JPG","null","","","","",""
"","html-keyboard-response","20","255831","0.0-6.0-1.4","FL","g6wblx1ehg","1280","720","en","aj05er02","null","","","","learningBlock1","","","","That was a wug.","null","","","","",""
"","html-keyboard-response","21","256835","0.0-6.0-2.4","FL","g6wblx1ehg","1280","720","en","aj05er02","null","","","","learningBlock1","","","","<div style=""font-size:60px;""> </div>","null","FL","learning/Slide5.JPG","That was a wug.","",""
"","image-keyboard-response","22","257013","0.0-6.0-0.5","FL","g6wblx1ehg","1280","720","en","aj05er02","null","","","","","","","","learning/Slide6.JPG","null","","","","",""
"","html-keyboard-response","23","258175","0.0-6.0-1.5","FL","g6wblx1ehg","1280","720","en","aj05er02","null","","","","learningBlock1","","","","That was a dep.","null","","","","",""
"","html-keyboard-response","24","259178","0.0-6.0-2.5","FL","g6wblx1ehg","1280","720","en","aj05er02","null","","","","learningBlock1","","","","<div style=""font-size:60px;""> </div>","null","FL","learning/Slide6.JPG","That was a dep.","",""
"","image-keyboard-response","25","259355","0.0-6.0-0.6","FL","g6wblx1ehg","1280","720","en","aj05er02","null","","","","","","","","learning/Slide7.JPG","null","","","","",""
"","html-keyboard-response","26","260512","0.0-6.0-1.6","FL","g6wblx1ehg","1280","720","en","aj05er02","null","","","","learningBlock1","","","","That was a wug.","null","","","","",""
"","html-keyboard-response","27","261515","0.0-6.0-2.6","FL","g6wblx1ehg","1280","720","en","aj05er02","null","","","","learningBlock1","","","","<div style=""font-size:60px;""> </div>","null","FL","learning/Slide7.JPG","That was a wug.","",""
"","image-keyboard-response","28","261692","0.0-6.0-0.7","FL","g6wblx1ehg","1280","720","en","aj05er02","null","","","","","","","","learning/Slide8.JPG","null","","","","",""
"","html-keyboard-response","29","262845","0.0-6.0-1.7","FL","g6wblx1ehg","1280","720","en","aj05er02","null","","","","learningBlock1","","","","That was a bim.","null","","","","",""
"","html-keyboard-response","30","263849","0.0-6.0-2.7","FL","g6wblx1ehg","1280","720","en","aj05er02","null","","","","learningBlock1","","","","<div style=""font-size:60px;""> </div>","null","FL","learning/Slide8.JPG","That was a bim.","",""
"","image-keyboard-response","31","264032","0.0-6.0-0.8","FL","g6wblx1ehg","1280","720","en","aj05er02","null","","","","","","","","learning/Slide9.JPG","null","","","","",""
"","html-keyboard-response","32","265190","0.0-6.0-1.8","FL","g6wblx1ehg","1280","720","en","aj05er02","null","","","","learningBlock1","","","","That was a wug.","null","","","","",""
"","html-keyboard-response","33","266195","0.0-6.0-2.8","FL","g6wblx1ehg","1280","720","en","aj05er02","null","","","","learningBlock1","","","","<div style=""font-size:60px;""> </div>","null","FL","learning/Slide9.JPG","That was a wug.","",""
"","image-keyboard-response","34","266377","0.0-6.0-0.9","FL","g6wblx1ehg","1280","720","en","aj05er02","null","","","","","","","","learning/Slide10.JPG","null","","","","",""
"","html-keyboard-response","35","267536","0.0-6.0-1.9","FL","g6wblx1ehg","1280","720","en","aj05er02","null","","","","learningBlock1","","","","That was a dep.","null","","","","",""
"","html-keyboard-response","36","268545","0.0-6.0-2.9","FL","g6wblx1ehg","1280","720","en","aj05er02","null","","","","learningBlock1","","","","<div style=""font-size:60px;""> </div>","null","FL","learning/Slide10.JPG","That was a dep.","",""
"","image-keyboard-response","37","268727","0.0-6.0-0.10","FL","g6wblx1ehg","1280","720","en","aj05er02","null","","","","","","","","learning/Slide11.JPG","null","","","","",""
"","html-keyboard-response","38","269894","0.0-6.0-1.10","FL","g6wblx1ehg","1280","720","en","aj05er02","null","","","","learningBlock1","","","","That was a tob.","null","","","","",""
"","html-keyboard-response","39","270902","0.0-6.0-2.10","FL","g6wblx1ehg","1280","720","en","aj05er02","null","","","","learningBlock1","","","","<div style=""font-size:60px;""> </div>","null","FL","learning/Slide11.JPG","That was a tob.","",""
"","image-keyboard-response","40","271085","0.0-6.0-0.11","FL","g6wblx1ehg","1280","720","en","aj05er02","null","","","","","","","","learning/Slide12.JPG","null","","","","",""
"","html-keyboard-response","41","272243","0.0-6.0-1.11","FL","g6wblx1ehg","1280","720","en","aj05er02","null","","","","learningBlock1","","","","That was a dep.","null","","","","",""
"","html-keyboard-response","42","273250","0.0-6.0-2.11","FL","g6wblx1ehg","1280","720","en","aj05er02","null","","","","learningBlock1","","","","<div style=""font-size:60px;""> </div>","null","FL","learning/Slide12.JPG","That was a dep.","",""
"","image-keyboard-response","43","273433","0.0-6.0-0.12","FL","g6wblx1ehg","1280","720","en","aj05er02","null","","","","","","","","learning/Slide13.JPG","null","","","","",""
"","html-keyboard-response","44","274591","0.0-6.0-1.12","FL","g6wblx1ehg","1280","720","en","aj05er02","null","","","","learningBlock1","","","","That was a bim.","null","","","","",""
"","html-keyboard-response","45","275596","0.0-6.0-2.12","FL","g6wblx1ehg","1280","720","en","aj05er02","null","","","","learningBlock1","","","","<div style=""font-size:60px;""> </div>","null","FL","learning/Slide13.JPG","That was a bim.","",""
"","image-keyboard-response","46","275773","0.0-6.0-0.13","FL","g6wblx1ehg","1280","720","en","aj05er02","null","","","","","","","","learning/Slide14.JPG","null","","","","",""
"","html-keyboard-response","47","276936","0.0-6.0-1.13","FL","g6wblx1ehg","1280","720","en","aj05er02","null","","","","learningBlock1","","","","That was a wug.","null","","","","",""
"","html-keyboard-response","48","277941","0.0-6.0-2.13","FL","g6wblx1ehg","1280","720","en","aj05er02","null","","","","learningBlock1","","","","<div style=""font-size:60px;""> </div>","null","FL","learning/Slide14.JPG","That was a wug.","",""
"","image-keyboard-response","49","278121","0.0-6.0-0.14","FL","g6wblx1ehg","1280","720","en","aj05er02","null","","","","","","","","learning/Slide15.JPG","null","","","","",""
"","html-keyboard-response","50","279276","0.0-6.0-1.14","FL","g6wblx1ehg","1280","720","en","aj05er02","null","","","","learningBlock1","","","","That was a tob.","null","","","","",""
"","html-keyboard-response","51","280285","0.0-6.0-2.14","FL","g6wblx1ehg","1280","720","en","aj05er02","null","","","","learningBlock1","","","","<div style=""font-size:60px;""> </div>","null","FL","learning/Slide15.JPG","That was a tob.","",""
"","image-keyboard-response","52","280467","0.0-6.0-0.15","FL","g6wblx1ehg","1280","720","en","aj05er02","null","","","","","","","","learning/Slide16.JPG","null","","","","",""
"","html-keyboard-response","53","281625","0.0-6.0-1.15","FL","g6wblx1ehg","1280","720","en","aj05er02","null","","","","learningBlock1","","","","That was a dep.","null","","","","",""
"","html-keyboard-response","54","282633","0.0-6.0-2.15","FL","g6wblx1ehg","1280","720","en","aj05er02","null","","","","learningBlock1","","","","<div style=""font-size:60px;""> </div>","null","FL","learning/Slide16.JPG","That was a dep.","",""
"","image-keyboard-response","55","282817","0.0-6.0-0.16","FL","g6wblx1ehg","1280","720","en","aj05er02","null","","","","","","","","learning/Slide17.JPG","null","","","","",""
"","html-keyboard-response","56","283970","0.0-6.0-1.16","FL","g6wblx1ehg","1280","720","en","aj05er02","null","","","","learningBlock1","","","","That was a bim.","null","","","","",""
"","html-keyboard-response","57","284980","0.0-6.0-2.16","FL","g6wblx1ehg","1280","720","en","aj05er02","null","","","","learningBlock1","","","","<div style=""font-size:60px;""> </div>","null","FL","learning/Slide17.JPG","That was a bim.","",""
"","image-keyboard-response","58","285162","0.0-6.0-0.17","FL","g6wblx1ehg","1280","720","en","aj05er02","null","","","","","","","","learning/Slide18.JPG","null","","","","",""
"","html-keyboard-response","59","286323","0.0-6.0-1.17","FL","g6wblx1ehg","1280","720","en","aj05er02","null","","","","learningBlock1","","","","That was a tob.","null","","","","",""
"","html-keyboard-response","60","287332","0.0-6.0-2.17","FL","g6wblx1ehg","1280","720","en","aj05er02","null","","","","learningBlock1","","","","<div style=""font-size:60px;""> </div>","null","FL","learning/Slide18.JPG","That was a tob.","",""
"","image-keyboard-response","61","287511","0.0-6.0-0.18","FL","g6wblx1ehg","1280","720","en","aj05er02","null","","","","","","","","learning/Slide19.JPG","null","","","","",""
"","html-keyboard-response","62","288670","0.0-6.0-1.18","FL","g6wblx1ehg","1280","720","en","aj05er02","null","","","","learningBlock1","","","","That was a wug.","null","","","","",""
"","html-keyboard-response","63","289673","0.0-6.0-2.18","FL","g6wblx1ehg","1280","720","en","aj05er02","null","","","","learningBlock1","","","","<div style=""font-size:60px;""> </div>","null","FL","learning/Slide19.JPG","That was a wug.","",""
"","image-keyboard-response","64","289850","0.0-6.0-0.19","FL","g6wblx1ehg","1280","720","en","aj05er02","null","","","","","","","","learning/Slide20.JPG","null","","","","",""
"","html-keyboard-response","65","291001","0.0-6.0-1.19","FL","g6wblx1ehg","1280","720","en","aj05er02","null","","","","learningBlock1","","","","That was a bim.","null","","","","",""
"","html-keyboard-response","66","292007","0.0-6.0-2.19","FL","g6wblx1ehg","1280","720","en","aj05er02","null","","","","learningBlock1","","","","<div style=""font-size:60px;""> </div>","null","FL","learning/Slide20.JPG","That was a bim.","",""
"","image-keyboard-response","67","292190","0.0-6.0-0.20","FL","g6wblx1ehg","1280","720","en","aj05er02","null","","","","","","","","learning/Slide21.JPG","null","","","","",""
"","html-keyboard-response","68","293350","0.0-6.0-1.20","FL","g6wblx1ehg","1280","720","en","aj05er02","null","","","","learningBlock1","","","","That was a dep.","null","","","","",""
"","html-keyboard-response","69","294360","0.0-6.0-2.20","FL","g6wblx1ehg","1280","720","en","aj05er02","null","","","","learningBlock1","","","","<div style=""font-size:60px;""> </div>","null","FL","learning/Slide21.JPG","That was a dep.","",""
"","image-keyboard-response","70","294538","0.0-6.0-0.21","FL","g6wblx1ehg","1280","720","en","aj05er02","null","","","","","","","","learning/Slide22.JPG","null","","","","",""
"","html-keyboard-response","71","295697","0.0-6.0-1.21","FL","g6wblx1ehg","1280","720","en","aj05er02","null","","","","learningBlock1","","","","That was a bim.","null","","","","",""
"","html-keyboard-response","72","296700","0.0-6.0-2.21","FL","g6wblx1ehg","1280","720","en","aj05er02","null","","","","learningBlock1","","","","<div style=""font-size:60px;""> </div>","null","FL","learning/Slide22.JPG","That was a bim.","",""
"","image-keyboard-response","73","296876","0.0-6.0-0.22","FL","g6wblx1ehg","1280","720","en","aj05er02","null","","","","","","","","learning/Slide23.JPG","null","","","","",""
"","html-keyboard-response","74","298034","0.0-6.0-1.22","FL","g6wblx1ehg","1280","720","en","aj05er02","null","","","","learningBlock1","","","","That was a tob.","null","","","","",""
"","html-keyboard-response","75","299036","0.0-6.0-2.22","FL","g6wblx1ehg","1280","720","en","aj05er02","null","","","","learningBlock1","","","","<div style=""font-size:60px;""> </div>","null","FL","learning/Slide23.JPG","That was a tob.","",""
"","image-keyboard-response","76","299216","0.0-6.0-0.23","FL","g6wblx1ehg","1280","720","en","aj05er02","null","","","","","","","","learning/Slide24.JPG","null","","","","",""
"","html-keyboard-response","77","300378","0.0-6.0-1.23","FL","g6wblx1ehg","1280","720","en","aj05er02","null","","","","learningBlock1","","","","That was a wug.","null","","","","",""
"","html-keyboard-response","78","301380","0.0-6.0-2.23","FL","g6wblx1ehg","1280","720","en","aj05er02","null","","","","learningBlock1","","","","<div style=""font-size:60px;""> </div>","null","FL","learning/Slide24.JPG","That was a wug.","",""
"","image-keyboard-response","79","301558","0.0-6.0-0.24","FL","g6wblx1ehg","1280","720","en","aj05er02","null","","","","","","","","learning/Slide25.JPG","null","","","","",""
"","html-keyboard-response","80","302715","0.0-6.0-1.24","FL","g6wblx1ehg","1280","720","en","aj05er02","null","","","","learningBlock1","","","","That was a dep.","null","","","","",""
"","html-keyboard-response","81","303720","0.0-6.0-2.24","FL","g6wblx1ehg","1280","720","en","aj05er02","null","","","","learningBlock1","","","","<div style=""font-size:60px;""> </div>","null","FL","learning/Slide25.JPG","That was a dep.","",""
"","image-keyboard-response","82","303897","0.0-6.0-0.25","FL","g6wblx1ehg","1280","720","en","aj05er02","null","","","","","","","","learning/Slide26.JPG","null","","","","",""
"","html-keyboard-response","83","305053","0.0-6.0-1.25","FL","g6wblx1ehg","1280","720","en","aj05er02","null","","","","learningBlock1","","","","That was a wug.","null","","","","",""
"","html-keyboard-response","84","306061","0.0-6.0-2.25","FL","g6wblx1ehg","1280","720","en","aj05er02","null","","","","learningBlock1","","","","<div style=""font-size:60px;""> </div>","null","FL","learning/Slide26.JPG","That was a wug.","",""
"","image-keyboard-response","85","306240","0.0-6.0-0.26","FL","g6wblx1ehg","1280","720","en","aj05er02","null","","","","","","","","learning/Slide27.JPG","null","","","","",""
"","html-keyboard-response","86","307398","0.0-6.0-1.26","FL","g6wblx1ehg","1280","720","en","aj05er02","null","","","","learningBlock1","","","","That was a bim.","null","","","","",""
"","html-keyboard-response","87","308406","0.0-6.0-2.26","FL","g6wblx1ehg","1280","720","en","aj05er02","null","","","","learningBlock1","","","","<div style=""font-size:60px;""> </div>","null","FL","learning/Slide27.JPG","That was a bim.","",""
"","image-keyboard-response","88","308590","0.0-6.0-0.27","FL","g6wblx1ehg","1280","720","en","aj05er02","null","","","","","","","","learning/Slide28.JPG","null","","","","",""
"","html-keyboard-response","89","309756","0.0-6.0-1.27","FL","g6wblx1ehg","1280","720","en","aj05er02","null","","","","learningBlock1","","","","That was a dep.","null","","","","",""
"","html-keyboard-response","90","310759","0.0-6.0-2.27","FL","g6wblx1ehg","1280","720","en","aj05er02","null","","","","learningBlock1","","","","<div style=""font-size:60px;""> </div>","null","FL","learning/Slide28.JPG","That was a dep.","",""
"","image-keyboard-response","91","310940","0.0-6.0-0.28","FL","g6wblx1ehg","1280","720","en","aj05er02","null","","","","","","","","learning/Slide29.JPG","null","","","","",""
"","html-keyboard-response","92","312106","0.0-6.0-1.28","FL","g6wblx1ehg","1280","720","en","aj05er02","null","","","","learningBlock1","","","","That was a tob.","null","","","","",""
"","html-keyboard-response","93","313113","0.0-6.0-2.28","FL","g6wblx1ehg","1280","720","en","aj05er02","null","","","","learningBlock1","","","","<div style=""font-size:60px;""> </div>","null","FL","learning/Slide29.JPG","That was a tob.","",""
"","image-keyboard-response","94","313294","0.0-6.0-0.29","FL","g6wblx1ehg","1280","720","en","aj05er02","null","","","","","","","","learning/Slide30.JPG","null","","","","",""
"","html-keyboard-response","95","314446","0.0-6.0-1.29","FL","g6wblx1ehg","1280","720","en","aj05er02","null","","","","learningBlock1","","","","That was a dep.","null","","","","",""
"","html-keyboard-response","96","315448","0.0-6.0-2.29","FL","g6wblx1ehg","1280","720","en","aj05er02","null","","","","learningBlock1","","","","<div style=""font-size:60px;""> </div>","null","FL","learning/Slide30.JPG","That was a dep.","",""
"","image-keyboard-response","97","315631","0.0-6.0-0.30","FL","g6wblx1ehg","1280","720","en","aj05er02","null","","","","","","","","learning/Slide31.JPG","null","","","","",""
"","html-keyboard-response","98","316798","0.0-6.0-1.30","FL","g6wblx1ehg","1280","720","en","aj05er02","null","","","","learningBlock1","","","","That was a wug.","null","","","","",""
"","html-keyboard-response","99","317802","0.0-6.0-2.30","FL","g6wblx1ehg","1280","720","en","aj05er02","null","","","","learningBlock1","","","","<div style=""font-size:60px;""> </div>","null","FL","learning/Slide31.JPG","That was a wug.","",""
"","image-keyboard-response","100","317978","0.0-6.0-0.31","FL","g6wblx1ehg","1280","720","en","aj05er02","null","","","","","","","","learning/Slide32.JPG","null","","","","",""
"","html-keyboard-response","101","319134","0.0-6.0-1.31","FL","g6wblx1ehg","1280","720","en","aj05er02","null","","","","learningBlock1","","","","That was a tob.","null","","","","",""
"","html-keyboard-response","102","320141","0.0-6.0-2.31","FL","g6wblx1ehg","1280","720","en","aj05er02","null","","","","learningBlock1","","","","<div style=""font-size:60px;""> </div>","null","FL","learning/Slide32.JPG","That was a tob.","",""
"","image-keyboard-response","103","320324","0.0-6.0-0.32","FL","g6wblx1ehg","1280","720","en","aj05er02","null","","","","","","","","learning/Slide33.JPG","null","","","","",""
"","html-keyboard-response","104","321486","0.0-6.0-1.32","FL","g6wblx1ehg","1280","720","en","aj05er02","null","","","","learningBlock1","","","","That was a bim.","null","","","","",""
"","html-keyboard-response","105","322488","0.0-6.0-2.32","FL","g6wblx1ehg","1280","720","en","aj05er02","null","","","","learningBlock1","","","","<div style=""font-size:60px;""> </div>","null","FL","learning/Slide33.JPG","That was a bim.","",""
"","image-keyboard-response","106","322672","0.0-6.0-0.33","FL","g6wblx1ehg","1280","720","en","aj05er02","null","","","","","","","","learning/Slide34.JPG","null","","","","",""
"","html-keyboard-response","107","323830","0.0-6.0-1.33","FL","g6wblx1ehg","1280","720","en","aj05er02","null","","","","learningBlock1","","","","That was a tob.","null","","","","",""
"","html-keyboard-response","108","324831","0.0-6.0-2.33","FL","g6wblx1ehg","1280","720","en","aj05er02","null","","","","learningBlock1","","","","<div style=""font-size:60px;""> </div>","null","FL","learning/Slide34.JPG","That was a tob.","",""
"","image-keyboard-response","109","325008","0.0-6.0-0.34","FL","g6wblx1ehg","1280","720","en","aj05er02","null","","","","","","","","learning/Slide35.JPG","null","","","","",""
"","html-keyboard-response","110","326173","0.0-6.0-1.34","FL","g6wblx1ehg","1280","720","en","aj05er02","null","","","","learningBlock1","","","","That was a bim.","null","","","","",""
"","html-keyboard-response","111","327178","0.0-6.0-2.34","FL","g6wblx1ehg","1280","720","en","aj05er02","null","","","","learningBlock1","","","","<div style=""font-size:60px;""> </div>","null","FL","learning/Slide35.JPG","That was a bim.","",""
"","image-keyboard-response","112","327358","0.0-6.0-0.35","FL","g6wblx1ehg","1280","720","en","aj05er02","null","","","","","","","","learning/Slide36.JPG","null","","","","",""
"","html-keyboard-response","113","328525","0.0-6.0-1.35","FL","g6wblx1ehg","1280","720","en","aj05er02","null","","","","learningBlock1","","","","That was a dep.","null","","","","",""
"","html-keyboard-response","114","329533","0.0-6.0-2.35","FL","g6wblx1ehg","1280","720","en","aj05er02","null","","","","learningBlock1","","","","<div style=""font-size:60px;""> </div>","null","FL","learning/Slide36.JPG","That was a dep.","",""
"","image-keyboard-response","115","329717","0.0-6.0-0.36","FL","g6wblx1ehg","1280","720","en","aj05er02","null","","","","","","","","learning/Slide37.JPG","null","","","","",""
"","html-keyboard-response","116","330880","0.0-6.0-1.36","FL","g6wblx1ehg","1280","720","en","aj05er02","null","","","","learningBlock1","","","","That was a tob.","null","","","","",""
"","html-keyboard-response","117","331882","0.0-6.0-2.36","FL","g6wblx1ehg","1280","720","en","aj05er02","null","","","","learningBlock1","","","","<div style=""font-size:60px;""> </div>","null","FL","learning/Slide37.JPG","That was a tob.","",""
"","image-keyboard-response","118","332060","0.0-6.0-0.37","FL","g6wblx1ehg","1280","720","en","aj05er02","null","","","","","","","","learning/Slide38.JPG","null","","","","",""
"","html-keyboard-response","119","333225","0.0-6.0-1.37","FL","g6wblx1ehg","1280","720","en","aj05er02","null","","","","learningBlock1","","","","That was a wug.","null","","","","",""
"","html-keyboard-response","120","334228","0.0-6.0-2.37","FL","g6wblx1ehg","1280","720","en","aj05er02","null","","","","learningBlock1","","","","<div style=""font-size:60px;""> </div>","null","FL","learning/Slide38.JPG","That was a wug.","",""
"","image-keyboard-response","121","334407","0.0-6.0-0.38","FL","g6wblx1ehg","1280","720","en","aj05er02","null","","","","","","","","learning/Slide39.JPG","null","","","","",""
"","html-keyboard-response","122","335564","0.0-6.0-1.38","FL","g6wblx1ehg","1280","720","en","aj05er02","null","","","","learningBlock1","","","","That was a bim.","null","","","","",""
"","html-keyboard-response","123","336572","0.0-6.0-2.38","FL","g6wblx1ehg","1280","720","en","aj05er02","null","","","","learningBlock1","","","","<div style=""font-size:60px;""> </div>","null","FL","learning/Slide39.JPG","That was a bim.","",""
"","image-keyboard-response","124","336749","0.0-6.0-0.39","FL","g6wblx1ehg","1280","720","en","aj05er02","null","","","","","","","","learning/Slide40.JPG","null","","","","",""
"","html-keyboard-response","125","337909","0.0-6.0-1.39","FL","g6wblx1ehg","1280","720","en","aj05er02","null","","","","learningBlock1","","","","That was a tob.","null","","","","",""
"","html-keyboard-response","126","338918","0.0-6.0-2.39","FL","g6wblx1ehg","1280","720","en","aj05er02","null","","","","learningBlock1","","","","<div style=""font-size:60px;""> </div>","null","FL","learning/Slide40.JPG","That was a tob.","",""
"","image-keyboard-response","127","339096","0.0-6.0-0.40","FL","g6wblx1ehg","1280","720","en","aj05er02","null","","","","","","","","learning/Slide41.JPG","null","","","","",""
"","html-keyboard-response","128","340261","0.0-6.0-1.40","FL","g6wblx1ehg","1280","720","en","aj05er02","null","","","","learningBlock1","","","","That was a bim.","null","","","","",""
"","html-keyboard-response","129","341265","0.0-6.0-2.40","FL","g6wblx1ehg","1280","720","en","aj05er02","null","","","","learningBlock1","","","","<div style=""font-size:60px;""> </div>","null","FL","learning/Slide41.JPG","That was a bim.","",""
"","image-keyboard-response","130","341446","0.0-6.0-0.41","FL","g6wblx1ehg","1280","720","en","aj05er02","null","","","","","","","","learning/Slide42.JPG","null","","","","",""
"","html-keyboard-response","131","342608","0.0-6.0-1.41","FL","g6wblx1ehg","1280","720","en","aj05er02","null","","","","learningBlock1","","","","That was a dep.","null","","","","",""
"","html-keyboard-response","132","343612","0.0-6.0-2.41","FL","g6wblx1ehg","1280","720","en","aj05er02","null","","","","learningBlock1","","","","<div style=""font-size:60px;""> </div>","null","FL","learning/Slide42.JPG","That was a dep.","",""
"","image-keyboard-response","133","343796","0.0-6.0-0.42","FL","g6wblx1ehg","1280","720","en","aj05er02","null","","","","","","","","learning/Slide43.JPG","null","","","","",""
"","html-keyboard-response","134","344956","0.0-6.0-1.42","FL","g6wblx1ehg","1280","720","en","aj05er02","null","","","","learningBlock1","","","","That was a wug.","null","","","","",""
"","html-keyboard-response","135","345965","0.0-6.0-2.42","FL","g6wblx1ehg","1280","720","en","aj05er02","null","","","","learningBlock1","","","","<div style=""font-size:60px;""> </div>","null","FL","learning/Slide43.JPG","That was a wug.","",""
"","image-keyboard-response","136","346145","0.0-6.0-0.43","FL","g6wblx1ehg","1280","720","en","aj05er02","null","","","","","","","","learning/Slide44.JPG","null","","","","",""
"","html-keyboard-response","137","347304","0.0-6.0-1.43","FL","g6wblx1ehg","1280","720","en","aj05er02","null","","","","learningBlock1","","","","That was a bim.","null","","","","",""
"","html-keyboard-response","138","348312","0.0-6.0-2.43","FL","g6wblx1ehg","1280","720","en","aj05er02","null","","","","learningBlock1","","","","<div style=""font-size:60px;""> </div>","null","FL","learning/Slide44.JPG","That was a bim.","",""
"","image-keyboard-response","139","348496","0.0-6.0-0.44","FL","g6wblx1ehg","1280","720","en","aj05er02","null","","","","","","","","learning/Slide45.JPG","null","","","","",""
"","html-keyboard-response","140","349657","0.0-6.0-1.44","FL","g6wblx1ehg","1280","720","en","aj05er02","null","","","","learningBlock1","","","","That was a wug.","null","","","","",""
"","html-keyboard-response","141","350658","0.0-6.0-2.44","FL","g6wblx1ehg","1280","720","en","aj05er02","null","","","","learningBlock1","","","","<div style=""font-size:60px;""> </div>","null","FL","learning/Slide45.JPG","That was a wug.","",""
"","image-keyboard-response","142","350840","0.0-6.0-0.45","FL","g6wblx1ehg","1280","720","en","aj05er02","null","","","","","","","","learning/Slide46.JPG","null","","","","",""
"","html-keyboard-response","143","351999","0.0-6.0-1.45","FL","g6wblx1ehg","1280","720","en","aj05er02","null","","","","learningBlock1","","","","That was a dep.","null","","","","",""
"","html-keyboard-response","144","353000","0.0-6.0-2.45","FL","g6wblx1ehg","1280","720","en","aj05er02","null","","","","learningBlock1","","","","<div style=""font-size:60px;""> </div>","null","FL","learning/Slide46.JPG","That was a dep.","",""
"","image-keyboard-response","145","353184","0.0-6.0-0.46","FL","g6wblx1ehg","1280","720","en","aj05er02","null","","","","","","","","learning/Slide47.JPG","null","","","","",""
"","html-keyboard-response","146","354340","0.0-6.0-1.46","FL","g6wblx1ehg","1280","720","en","aj05er02","null","","","","learningBlock1","","","","That was a tob.","null","","","","",""
"","html-keyboard-response","147","355348","0.0-6.0-2.46","FL","g6wblx1ehg","1280","720","en","aj05er02","null","","","","learningBlock1","","","","<div style=""font-size:60px;""> </div>","null","FL","learning/Slide47.JPG","That was a tob.","",""
"","image-keyboard-response","148","355528","0.0-6.0-0.47","FL","g6wblx1ehg","1280","720","en","aj05er02","null","","","","","","","","learning/Slide48.JPG","null","","","","",""
"","html-keyboard-response","149","356686","0.0-6.0-1.47","FL","g6wblx1ehg","1280","720","en","aj05er02","null","","","","learningBlock1","","","","That was a bim.","null","","","","",""
"","html-keyboard-response","150","357695","0.0-6.0-2.47","FL","g6wblx1ehg","1280","720","en","aj05er02","null","","","","learningBlock1","","","","<div style=""font-size:60px;""> </div>","null","FL","learning/Slide48.JPG","That was a bim.","",""
"","image-keyboard-response","151","357873","0.0-6.0-0.48","FL","g6wblx1ehg","1280","720","en","aj05er02","null","","","","","","","","learning/Slide49.JPG","null","","","","",""
"","html-keyboard-response","152","359026","0.0-6.0-1.48","FL","g6wblx1ehg","1280","720","en","aj05er02","null","","","","learningBlock1","","","","That was a dep.","null","","","","",""
"","html-keyboard-response","153","360031","0.0-6.0-2.48","FL","g6wblx1ehg","1280","720","en","aj05er02","null","","","","learningBlock1","","","","<div style=""font-size:60px;""> </div>","null","FL","learning/Slide49.JPG","That was a dep.","",""
"","image-keyboard-response","154","360209","0.0-6.0-0.49","FL","g6wblx1ehg","1280","720","en","aj05er02","null","","","","","","","","learning/Slide50.JPG","null","","","","",""
"","html-keyboard-response","155","361363","0.0-6.0-1.49","FL","g6wblx1ehg","1280","720","en","aj05er02","null","","","","learningBlock1","","","","That was a tob.","null","","","","",""
"","html-keyboard-response","156","362371","0.0-6.0-2.49","FL","g6wblx1ehg","1280","720","en","aj05er02","null","","","","learningBlock1","","","","<div style=""font-size:60px;""> </div>","null","FL","learning/Slide50.JPG","That was a tob.","",""
"","image-keyboard-response","157","362551","0.0-6.0-0.50","FL","g6wblx1ehg","1280","720","en","aj05er02","null","","","","","","","","learning/Slide51.JPG","null","","","","",""
"","html-keyboard-response","158","363716","0.0-6.0-1.50","FL","g6wblx1ehg","1280","720","en","aj05er02","null","","","","learningBlock1","","","","That was a bim.","null","","","","",""
"","html-keyboard-response","159","364725","0.0-6.0-2.50","FL","g6wblx1ehg","1280","720","en","aj05er02","null","","","","learningBlock1","","","","<div style=""font-size:60px;""> </div>","null","FL","learning/Slide51.JPG","That was a bim.","",""
"","image-keyboard-response","160","364901","0.0-6.0-0.51","FL","g6wblx1ehg","1280","720","en","aj05er02","null","","","","","","","","learning/Slide52.JPG","null","","","","",""
"","html-keyboard-response","161","366059","0.0-6.0-1.51","FL","g6wblx1ehg","1280","720","en","aj05er02","null","","","","learningBlock1","","","","That was a wug.","null","","","","",""
"","html-keyboard-response","162","367060","0.0-6.0-2.51","FL","g6wblx1ehg","1280","720","en","aj05er02","null","","","","learningBlock1","","","","<div style=""font-size:60px;""> </div>","null","FL","learning/Slide52.JPG","That was a wug.","",""
"","image-keyboard-response","163","367238","0.0-6.0-0.52","FL","g6wblx1ehg","1280","720","en","aj05er02","null","","","","","","","","learning/Slide53.JPG","null","","","","",""
"","html-keyboard-response","164","368393","0.0-6.0-1.52","FL","g6wblx1ehg","1280","720","en","aj05er02","null","","","","learningBlock1","","","","That was a tob.","null","","","","",""
"","html-keyboard-response","165","369396","0.0-6.0-2.52","FL","g6wblx1ehg","1280","720","en","aj05er02","null","","","","learningBlock1","","","","<div style=""font-size:60px;""> </div>","null","FL","learning/Slide53.JPG","That was a tob.","",""
"","image-keyboard-response","166","369574","0.0-6.0-0.53","FL","g6wblx1ehg","1280","720","en","aj05er02","null","","","","","","","","learning/Slide54.JPG","null","","","","",""
"","html-keyboard-response","167","370729","0.0-6.0-1.53","FL","g6wblx1ehg","1280","720","en","aj05er02","null","","","","learningBlock1","","","","That was a dep.","null","","","","",""
"","html-keyboard-response","168","371730","0.0-6.0-2.53","FL","g6wblx1ehg","1280","720","en","aj05er02","null","","","","learningBlock1","","","","<div style=""font-size:60px;""> </div>","null","FL","learning/Slide54.JPG","That was a dep.","",""
"","image-keyboard-response","169","371908","0.0-6.0-0.54","FL","g6wblx1ehg","1280","720","en","aj05er02","null","","","","","","","","learning/Slide55.JPG","null","","","","",""
"","html-keyboard-response","170","373060","0.0-6.0-1.54","FL","g6wblx1ehg","1280","720","en","aj05er02","null","","","","learningBlock1","","","","That was a bim.","null","","","","",""
"","html-keyboard-response","171","374069","0.0-6.0-2.54","FL","g6wblx1ehg","1280","720","en","aj05er02","null","","","","learningBlock1","","","","<div style=""font-size:60px;""> </div>","null","FL","learning/Slide55.JPG","That was a bim.","",""
"","image-keyboard-response","172","374253","0.0-6.0-0.55","FL","g6wblx1ehg","1280","720","en","aj05er02","null","","","","","","","","learning/Slide56.JPG","null","","","","",""
"","html-keyboard-response","173","375412","0.0-6.0-1.55","FL","g6wblx1ehg","1280","720","en","aj05er02","null","","","","learningBlock1","","","","That was a tob.","null","","","","",""
"","html-keyboard-response","174","376417","0.0-6.0-2.55","FL","g6wblx1ehg","1280","720","en","aj05er02","null","","","","learningBlock1","","","","<div style=""font-size:60px;""> </div>","null","FL","learning/Slide56.JPG","That was a tob.","",""
"","image-keyboard-response","175","376601","0.0-6.0-0.56","FL","g6wblx1ehg","1280","720","en","aj05er02","null","","","","","","","","learning/Slide57.JPG","null","","","","",""
"","html-keyboard-response","176","377763","0.0-6.0-1.56","FL","g6wblx1ehg","1280","720","en","aj05er02","null","","","","learningBlock1","","","","That was a dep.","null","","","","",""
"","html-keyboard-response","177","378770","0.0-6.0-2.56","FL","g6wblx1ehg","1280","720","en","aj05er02","null","","","","learningBlock1","","","","<div style=""font-size:60px;""> </div>","null","FL","learning/Slide57.JPG","That was a dep.","",""
"","image-keyboard-response","178","378947","0.0-6.0-0.57","FL","g6wblx1ehg","1280","720","en","aj05er02","null","","","","","","","","learning/Slide58.JPG","null","","","","",""
"","html-keyboard-response","179","380100","0.0-6.0-1.57","FL","g6wblx1ehg","1280","720","en","aj05er02","null","","","","learningBlock1","","","","That was a wug.","null","","","","",""
"","html-keyboard-response","180","381108","0.0-6.0-2.57","FL","g6wblx1ehg","1280","720","en","aj05er02","null","","","","learningBlock1","","","","<div style=""font-size:60px;""> </div>","null","FL","learning/Slide58.JPG","That was a wug.","",""
"","image-keyboard-response","181","381285","0.0-6.0-0.58","FL","g6wblx1ehg","1280","720","en","aj05er02","null","","","","","","","","learning/Slide59.JPG","null","","","","",""
"","html-keyboard-response","182","382449","0.0-6.0-1.58","FL","g6wblx1ehg","1280","720","en","aj05er02","null","","","","learningBlock1","","","","That was a dep.","null","","","","",""
"","html-keyboard-response","183","383452","0.0-6.0-2.58","FL","g6wblx1ehg","1280","720","en","aj05er02","null","","","","learningBlock1","","","","<div style=""font-size:60px;""> </div>","null","FL","learning/Slide59.JPG","That was a dep.","",""
"","image-keyboard-response","184","383632","0.0-6.0-0.59","FL","g6wblx1ehg","1280","720","en","aj05er02","null","","","","","","","","learning/Slide60.JPG","null","","","","",""
"","html-keyboard-response","185","384790","0.0-6.0-1.59","FL","g6wblx1ehg","1280","720","en","aj05er02","null","","","","learningBlock1","","","","That was a wug.","null","","","","",""
"","html-keyboard-response","186","385792","0.0-6.0-2.59","FL","g6wblx1ehg","1280","720","en","aj05er02","null","","","","learningBlock1","","","","<div style=""font-size:60px;""> </div>","null","FL","learning/Slide60.JPG","That was a wug.","",""
"","image-keyboard-response","187","385976","0.0-6.0-0.60","FL","g6wblx1ehg","1280","720","en","aj05er02","null","","","","","","","","learning/Slide61.JPG","null","","","","",""
"","html-keyboard-response","188","387138","0.0-6.0-1.60","FL","g6wblx1ehg","1280","720","en","aj05er02","null","","","","learningBlock1","","","","That was a bim.","null","","","","",""
"","html-keyboard-response","189","388143","0.0-6.0-2.60","FL","g6wblx1ehg","1280","720","en","aj05er02","null","","","","learningBlock1","","","","<div style=""font-size:60px;""> </div>","null","FL","learning/Slide61.JPG","That was a bim.","",""
"","image-keyboard-response","190","388319","0.0-6.0-0.61","FL","g6wblx1ehg","1280","720","en","aj05er02","null","","","","","","","","learning/Slide62.JPG","null","","","","",""
"","html-keyboard-response","191","389475","0.0-6.0-1.61","FL","g6wblx1ehg","1280","720","en","aj05er02","null","","","","learningBlock1","","","","That was a dep.","null","","","","",""
"","html-keyboard-response","192","390483","0.0-6.0-2.61","FL","g6wblx1ehg","1280","720","en","aj05er02","null","","","","learningBlock1","","","","<div style=""font-size:60px;""> </div>","null","FL","learning/Slide62.JPG","That was a dep.","",""
"","image-keyboard-response","193","390666","0.0-6.0-0.62","FL","g6wblx1ehg","1280","720","en","aj05er02","null","","","","","","","","learning/Slide63.JPG","null","","","","",""
"","html-keyboard-response","194","391832","0.0-6.0-1.62","FL","g6wblx1ehg","1280","720","en","aj05er02","null","","","","learningBlock1","","","","That was a bim.","null","","","","",""
"","html-keyboard-response","195","392840","0.0-6.0-2.62","FL","g6wblx1ehg","1280","720","en","aj05er02","null","","","","learningBlock1","","","","<div style=""font-size:60px;""> </div>","null","FL","learning/Slide63.JPG","That was a bim.","",""
"","image-keyboard-response","196","393020","0.0-6.0-0.63","FL","g6wblx1ehg","1280","720","en","aj05er02","null","","","","","","","","learning/Slide64.JPG","null","","","","",""
"","html-keyboard-response","197","394184","0.0-6.0-1.63","FL","g6wblx1ehg","1280","720","en","aj05er02","null","","","","learningBlock1","","","","That was a tob.","null","","","","",""
"","html-keyboard-response","198","395185","0.0-6.0-2.63","FL","g6wblx1ehg","1280","720","en","aj05er02","null","","","","learningBlock1","","","","<div style=""font-size:60px;""> </div>","null","FL","learning/Slide64.JPG","That was a tob.","",""
"","image-keyboard-response","199","395368","0.0-6.0-0.64","FL","g6wblx1ehg","1280","720","en","aj05er02","null","","","","","","","","learning/Slide65.JPG","null","","","","",""
"","html-keyboard-response","200","396530","0.0-6.0-1.64","FL","g6wblx1ehg","1280","720","en","aj05er02","null","","","","learningBlock1","","","","That was a wug.","null","","","","",""
"","html-keyboard-response","201","397538","0.0-6.0-2.64","FL","g6wblx1ehg","1280","720","en","aj05er02","null","","","","learningBlock1","","","","<div style=""font-size:60px;""> </div>","null","FL","learning/Slide65.JPG","That was a wug.","",""
"","image-keyboard-response","202","397722","0.0-6.0-0.65","FL","g6wblx1ehg","1280","720","en","aj05er02","null","","","","","","","","learning/Slide66.JPG","null","","","","",""
"","html-keyboard-response","203","398877","0.0-6.0-1.65","FL","g6wblx1ehg","1280","720","en","aj05er02","null","","","","learningBlock1","","","","That was a dep.","null","","","","",""
"","html-keyboard-response","204","399887","0.0-6.0-2.65","FL","g6wblx1ehg","1280","720","en","aj05er02","null","","","","learningBlock1","","","","<div style=""font-size:60px;""> </div>","null","FL","learning/Slide66.JPG","That was a dep.","",""
"","image-keyboard-response","205","400067","0.0-6.0-0.66","FL","g6wblx1ehg","1280","720","en","aj05er02","null","","","","","","","","learning/Slide67.JPG","null","","","","",""
"","html-keyboard-response","206","401232","0.0-6.0-1.66","FL","g6wblx1ehg","1280","720","en","aj05er02","null","","","","learningBlock1","","","","That was a tob.","null","","","","",""
"","html-keyboard-response","207","402240","0.0-6.0-2.66","FL","g6wblx1ehg","1280","720","en","aj05er02","null","","","","learningBlock1","","","","<div style=""font-size:60px;""> </div>","null","FL","learning/Slide67.JPG","That was a tob.","",""
"","image-keyboard-response","208","402420","0.0-6.0-0.67","FL","g6wblx1ehg","1280","720","en","aj05er02","null","","","","","","","","learning/Slide68.JPG","null","","","","",""
"","html-keyboard-response","209","403586","0.0-6.0-1.67","FL","g6wblx1ehg","1280","720","en","aj05er02","null","","","","learningBlock1","","","","That was a wug.","null","","","","",""
"","html-keyboard-response","210","404593","0.0-6.0-2.67","FL","g6wblx1ehg","1280","720","en","aj05er02","null","","","","learningBlock1","","","","<div style=""font-size:60px;""> </div>","null","FL","learning/Slide68.JPG","That was a wug.","",""
"","image-keyboard-response","211","404776","0.0-6.0-0.68","FL","g6wblx1ehg","1280","720","en","aj05er02","null","","","","","","","","learning/Slide69.JPG","null","","","","",""
"","html-keyboard-response","212","405931","0.0-6.0-1.68","FL","g6wblx1ehg","1280","720","en","aj05er02","null","","","","learningBlock1","","","","That was a tob.","null","","","","",""
"","html-keyboard-response","213","406940","0.0-6.0-2.68","FL","g6wblx1ehg","1280","720","en","aj05er02","null","","","","learningBlock1","","","","<div style=""font-size:60px;""> </div>","null","FL","learning/Slide69.JPG","That was a tob.","",""
"","image-keyboard-response","214","407123","0.0-6.0-0.69","FL","g6wblx1ehg","1280","720","en","aj05er02","null","","","","","","","","learning/Slide70.JPG","null","","","","",""
"","html-keyboard-response","215","408282","0.0-6.0-1.69","FL","g6wblx1ehg","1280","720","en","aj05er02","null","","","","learningBlock1","","","","That was a dep.","null","","","","",""
"","html-keyboard-response","216","409290","0.0-6.0-2.69","FL","g6wblx1ehg","1280","720","en","aj05er02","null","","","","learningBlock1","","","","<div style=""font-size:60px;""> </div>","null","FL","learning/Slide70.JPG","That was a dep.","",""
"","image-keyboard-response","217","409468","0.0-6.0-0.70","FL","g6wblx1ehg","1280","720","en","aj05er02","null","","","","","","","","learning/Slide71.JPG","null","","","","",""
"","html-keyboard-response","218","410625","0.0-6.0-1.70","FL","g6wblx1ehg","1280","720","en","aj05er02","null","","","","learningBlock1","","","","That was a wug.","null","","","","",""
"","html-keyboard-response","219","411629","0.0-6.0-2.70","FL","g6wblx1ehg","1280","720","en","aj05er02","null","","","","learningBlock1","","","","<div style=""font-size:60px;""> </div>","null","FL","learning/Slide71.JPG","That was a wug.","",""
"","image-keyboard-response","220","411811","0.0-6.0-0.71","FL","g6wblx1ehg","1280","720","en","aj05er02","null","","","","","","","","learning/Slide72.JPG","null","","","","",""
"","html-keyboard-response","221","412971","0.0-6.0-1.71","FL","g6wblx1ehg","1280","720","en","aj05er02","null","","","","learningBlock1","","","","That was a bim.","null","","","","",""
"","html-keyboard-response","222","413973","0.0-6.0-2.71","FL","g6wblx1ehg","1280","720","en","aj05er02","null","","","","learningBlock1","","","","<div style=""font-size:60px;""> </div>","null","FL","learning/Slide72.JPG","That was a bim.","",""
"","image-keyboard-response","223","414150","0.0-6.0-0.72","FL","g6wblx1ehg","1280","720","en","aj05er02","null","","","","","","","","learning/Slide73.JPG","null","","","","",""
"","html-keyboard-response","224","415301","0.0-6.0-1.72","FL","g6wblx1ehg","1280","720","en","aj05er02","null","","","","learningBlock1","","","","That was a wug.","null","","","","",""
"","html-keyboard-response","225","416307","0.0-6.0-2.72","FL","g6wblx1ehg","1280","720","en","aj05er02","null","","","","learningBlock1","","","","<div style=""font-size:60px;""> </div>","null","FL","learning/Slide73.JPG","That was a wug.","",""
"","image-keyboard-response","226","416483","0.0-6.0-0.73","FL","g6wblx1ehg","1280","720","en","aj05er02","null","","","","","","","","learning/Slide74.JPG","null","","","","",""
"","html-keyboard-response","227","417648","0.0-6.0-1.73","FL","g6wblx1ehg","1280","720","en","aj05er02","null","","","","learningBlock1","","","","That was a dep.","null","","","","",""
"","html-keyboard-response","228","418650","0.0-6.0-2.73","FL","g6wblx1ehg","1280","720","en","aj05er02","null","","","","learningBlock1","","","","<div style=""font-size:60px;""> </div>","null","FL","learning/Slide74.JPG","That was a dep.","",""
"","image-keyboard-response","229","418830","0.0-6.0-0.74","FL","g6wblx1ehg","1280","720","en","aj05er02","null","","","","","","","","learning/Slide75.JPG","null","","","","",""
"","html-keyboard-response","230","419991","0.0-6.0-1.74","FL","g6wblx1ehg","1280","720","en","aj05er02","null","","","","learningBlock1","","","","That was a tob.","null","","","","",""
"","html-keyboard-response","231","420995","0.0-6.0-2.74","FL","g6wblx1ehg","1280","720","en","aj05er02","null","","","","learningBlock1","","","","<div style=""font-size:60px;""> </div>","null","FL","learning/Slide75.JPG","That was a tob.","",""
"","image-keyboard-response","232","421175","0.0-6.0-0.75","FL","g6wblx1ehg","1280","720","en","aj05er02","null","","","","","","","","learning/Slide76.JPG","null","","","","",""
"","html-keyboard-response","233","422341","0.0-6.0-1.75","FL","g6wblx1ehg","1280","720","en","aj05er02","null","","","","learningBlock1","","","","That was a bim.","null","","","","",""
"","html-keyboard-response","234","423348","0.0-6.0-2.75","FL","g6wblx1ehg","1280","720","en","aj05er02","null","","","","learningBlock1","","","","<div style=""font-size:60px;""> </div>","null","FL","learning/Slide76.JPG","That was a bim.","",""
"","image-keyboard-response","235","423531","0.0-6.0-0.76","FL","g6wblx1ehg","1280","720","en","aj05er02","null","","","","","","","","learning/Slide77.JPG","null","","","","",""
"","html-keyboard-response","236","424684","0.0-6.0-1.76","FL","g6wblx1ehg","1280","720","en","aj05er02","null","","","","learningBlock1","","","","That was a tob.","null","","","","",""
"","html-keyboard-response","237","425690","0.0-6.0-2.76","FL","g6wblx1ehg","1280","720","en","aj05er02","null","","","","learningBlock1","","","","<div style=""font-size:60px;""> </div>","null","FL","learning/Slide77.JPG","That was a tob.","",""
"","image-keyboard-response","238","425873","0.0-6.0-0.77","FL","g6wblx1ehg","1280","720","en","aj05er02","null","","","","","","","","learning/Slide78.JPG","null","","","","",""
"","html-keyboard-response","239","427028","0.0-6.0-1.77","FL","g6wblx1ehg","1280","720","en","aj05er02","null","","","","learningBlock1","","","","That was a wug.","null","","","","",""
"","html-keyboard-response","240","428036","0.0-6.0-2.77","FL","g6wblx1ehg","1280","720","en","aj05er02","null","","","","learningBlock1","","","","<div style=""font-size:60px;""> </div>","null","FL","learning/Slide78.JPG","That was a wug.","",""
"","image-keyboard-response","241","428215","0.0-6.0-0.78","FL","g6wblx1ehg","1280","720","en","aj05er02","null","","","","","","","","learning/Slide79.JPG","null","","","","",""
"","html-keyboard-response","242","429378","0.0-6.0-1.78","FL","g6wblx1ehg","1280","720","en","aj05er02","null","","","","learningBlock1","","","","That was a bim.","null","","","","",""
"","html-keyboard-response","243","430382","0.0-6.0-2.78","FL","g6wblx1ehg","1280","720","en","aj05er02","null","","","","learningBlock1","","","","<div style=""font-size:60px;""> </div>","null","FL","learning/Slide79.JPG","That was a bim.","",""
"","image-keyboard-response","244","430566","0.0-6.0-0.79","FL","g6wblx1ehg","1280","720","en","aj05er02","null","","","","","","","","learning/Slide80.JPG","null","","","","",""
"","html-keyboard-response","245","431721","0.0-6.0-1.79","FL","g6wblx1ehg","1280","720","en","aj05er02","null","","","","learningBlock1","","","","That was a tob.","null","","","","",""
"","html-keyboard-response","246","432728","0.0-6.0-2.79","FL","g6wblx1ehg","1280","720","en","aj05er02","null","","","","learningBlock1","","","","<div style=""font-size:60px;""> </div>","null","FL","learning/Slide80.JPG","That was a tob.","",""
"","instructions","247","471799","0.0-7.0","FL","g6wblx1ehg","1280","720","en","aj05er02","NA","","","[{""page_index"":0,""viewing_time"":39071.130000054836}]","instructions","","","","","","","","","",""
"","image-keyboard-response","248","471977","0.0-8.0-0.0","FL","g6wblx1ehg","1280","720","en","aj05er02","null","","","","","","","","learning/Slide81.JPG","null","","","","",""
"","html-keyboard-response","249","473135","0.0-8.0-1.0","FL","g6wblx1ehg","1280","720","en","aj05er02","null","","","","learningBlock2","","","","That was a wug.","null","","","","",""
"","html-keyboard-response","250","474144","0.0-8.0-2.0","FL","g6wblx1ehg","1280","720","en","aj05er02","null","","","","learningBlock2","","","","<div style=""font-size:60px;""> </div>","null","FL","learning/Slide81.JPG","That was a wug.","",""
"","image-keyboard-response","251","474322","0.0-8.0-0.1","FL","g6wblx1ehg","1280","720","en","aj05er02","null","","","","","","","","learning/Slide82.JPG","null","","","","",""
"","html-keyboard-response","252","475483","0.0-8.0-1.1","FL","g6wblx1ehg","1280","720","en","aj05er02","null","","","","learningBlock2","","","","That was a bim.","null","","","","",""
"","html-keyboard-response","253","476486","0.0-8.0-2.1","FL","g6wblx1ehg","1280","720","en","aj05er02","null","","","","learningBlock2","","","","<div style=""font-size:60px;""> </div>","null","FL","learning/Slide82.JPG","That was a bim.","",""
"","image-keyboard-response","254","476666","0.0-8.0-0.2","FL","g6wblx1ehg","1280","720","en","aj05er02","null","","","","","","","","learning/Slide83.JPG","null","","","","",""
"","html-keyboard-response","255","477821","0.0-8.0-1.2","FL","g6wblx1ehg","1280","720","en","aj05er02","null","","","","learningBlock2","","","","That was a wug.","null","","","","",""
"","html-keyboard-response","256","478824","0.0-8.0-2.2","FL","g6wblx1ehg","1280","720","en","aj05er02","null","","","","learningBlock2","","","","<div style=""font-size:60px;""> </div>","null","FL","learning/Slide83.JPG","That was a wug.","",""
"","image-keyboard-response","257","479005","0.0-8.0-0.3","FL","g6wblx1ehg","1280","720","en","aj05er02","null","","","","","","","","learning/Slide84.JPG","null","","","","",""
"","html-keyboard-response","258","480157","0.0-8.0-1.3","FL","g6wblx1ehg","1280","720","en","aj05er02","null","","","","learningBlock2","","","","That was a dep.","null","","","","",""
"","html-keyboard-response","259","481164","0.0-8.0-2.3","FL","g6wblx1ehg","1280","720","en","aj05er02","null","","","","learningBlock2","","","","<div style=""font-size:60px;""> </div>","null","FL","learning/Slide84.JPG","That was a dep.","",""
"","image-keyboard-response","260","481347","0.0-8.0-0.4","FL","g6wblx1ehg","1280","720","en","aj05er02","null","","","","","","","","learning/Slide85.JPG","null","","","","",""
"","html-keyboard-response","261","482500","0.0-8.0-1.4","FL","g6wblx1ehg","1280","720","en","aj05er02","null","","","","learningBlock2","","","","That was a bim.","null","","","","",""
"","html-keyboard-response","262","483505","0.0-8.0-2.4","FL","g6wblx1ehg","1280","720","en","aj05er02","null","","","","learningBlock2","","","","<div style=""font-size:60px;""> </div>","null","FL","learning/Slide85.JPG","That was a bim.","",""
"","image-keyboard-response","263","483682","0.0-8.0-0.5","FL","g6wblx1ehg","1280","720","en","aj05er02","null","","","","","","","","learning/Slide86.JPG","null","","","","",""
"","html-keyboard-response","264","484841","0.0-8.0-1.5","FL","g6wblx1ehg","1280","720","en","aj05er02","null","","","","learningBlock2","","","","That was a tob.","null","","","","",""
"","html-keyboard-response","265","485850","0.0-8.0-2.5","FL","g6wblx1ehg","1280","720","en","aj05er02","null","","","","learningBlock2","","","","<div style=""font-size:60px;""> </div>","null","FL","learning/Slide86.JPG","That was a tob.","",""
"","image-keyboard-response","266","486026","0.0-8.0-0.6","FL","g6wblx1ehg","1280","720","en","aj05er02","null","","","","","","","","learning/Slide87.JPG","null","","","","",""
"","html-keyboard-response","267","487185","0.0-8.0-1.6","FL","g6wblx1ehg","1280","720","en","aj05er02","null","","","","learningBlock2","","","","That was a wug.","null","","","","",""
"","html-keyboard-response","268","488190","0.0-8.0-2.6","FL","g6wblx1ehg","1280","720","en","aj05er02","null","","","","learningBlock2","","","","<div style=""font-size:60px;""> </div>","null","FL","learning/Slide87.JPG","That was a wug.","",""
"","image-keyboard-response","269","488373","0.0-8.0-0.7","FL","g6wblx1ehg","1280","720","en","aj05er02","null","","","","","","","","learning/Slide88.JPG","null","","","","",""
"","html-keyboard-response","270","489541","0.0-8.0-1.7","FL","g6wblx1ehg","1280","720","en","aj05er02","null","","","","learningBlock2","","","","That was a tob.","null","","","","",""
"","html-keyboard-response","271","490547","0.0-8.0-2.7","FL","g6wblx1ehg","1280","720","en","aj05er02","null","","","","learningBlock2","","","","<div style=""font-size:60px;""> </div>","null","FL","learning/Slide88.JPG","That was a tob.","",""
"","image-keyboard-response","272","490723","0.0-8.0-0.8","FL","g6wblx1ehg","1280","720","en","aj05er02","null","","","","","","","","learning/Slide89.JPG","null","","","","",""
"","html-keyboard-response","273","491882","0.0-8.0-1.8","FL","g6wblx1ehg","1280","720","en","aj05er02","null","","","","learningBlock2","","","","That was a bim.","null","","","","",""
"","html-keyboard-response","274","492886","0.0-8.0-2.8","FL","g6wblx1ehg","1280","720","en","aj05er02","null","","","","learningBlock2","","","","<div style=""font-size:60px;""> </div>","null","FL","learning/Slide89.JPG","That was a bim.","",""
"","image-keyboard-response","275","493063","0.0-8.0-0.9","FL","g6wblx1ehg","1280","720","en","aj05er02","null","","","","","","","","learning/Slide90.JPG","null","","","","",""
"","html-keyboard-response","276","494220","0.0-8.0-1.9","FL","g6wblx1ehg","1280","720","en","aj05er02","null","","","","learningBlock2","","","","That was a dep.","null","","","","",""
"","html-keyboard-response","277","495226","0.0-8.0-2.9","FL","g6wblx1ehg","1280","720","en","aj05er02","null","","","","learningBlock2","","","","<div style=""font-size:60px;""> </div>","null","FL","learning/Slide90.JPG","That was a dep.","",""
"","image-keyboard-response","278","495403","0.0-8.0-0.10","FL","g6wblx1ehg","1280","720","en","aj05er02","null","","","","","","","","learning/Slide91.JPG","null","","","","",""
"","html-keyboard-response","279","496558","0.0-8.0-1.10","FL","g6wblx1ehg","1280","720","en","aj05er02","null","","","","learningBlock2","","","","That was a wug.","null","","","","",""
"","html-keyboard-response","280","497560","0.0-8.0-2.10","FL","g6wblx1ehg","1280","720","en","aj05er02","null","","","","learningBlock2","","","","<div style=""font-size:60px;""> </div>","null","FL","learning/Slide91.JPG","That was a wug.","",""
"","image-keyboard-response","281","497743","0.0-8.0-0.11","FL","g6wblx1ehg","1280","720","en","aj05er02","null","","","","","","","","learning/Slide92.JPG","null","","","","",""
"","html-keyboard-response","282","498901","0.0-8.0-1.11","FL","g6wblx1ehg","1280","720","en","aj05er02","null","","","","learningBlock2","","","","That was a tob.","null","","","","",""
"","html-keyboard-response","283","499909","0.0-8.0-2.11","FL","g6wblx1ehg","1280","720","en","aj05er02","null","","","","learningBlock2","","","","<div style=""font-size:60px;""> </div>","null","FL","learning/Slide92.JPG","That was a tob.","",""
"","image-keyboard-response","284","500093","0.0-8.0-0.12","FL","g6wblx1ehg","1280","720","en","aj05er02","null","","","","","","","","learning/Slide93.JPG","null","","","","",""
"","html-keyboard-response","285","501255","0.0-8.0-1.12","FL","g6wblx1ehg","1280","720","en","aj05er02","null","","","","learningBlock2","","","","That was a bim.","null","","","","",""
"","html-keyboard-response","286","502259","0.0-8.0-2.12","FL","g6wblx1ehg","1280","720","en","aj05er02","null","","","","learningBlock2","","","","<div style=""font-size:60px;""> </div>","null","FL","learning/Slide93.JPG","That was a bim.","",""
"","image-keyboard-response","287","502443","0.0-8.0-0.13","FL","g6wblx1ehg","1280","720","en","aj05er02","null","","","","","","","","learning/Slide94.JPG","null","","","","",""
"","html-keyboard-response","288","503603","0.0-8.0-1.13","FL","g6wblx1ehg","1280","720","en","aj05er02","null","","","","learningBlock2","","","","That was a tob.","null","","","","",""
"","html-keyboard-response","289","504604","0.0-8.0-2.13","FL","g6wblx1ehg","1280","720","en","aj05er02","null","","","","learningBlock2","","","","<div style=""font-size:60px;""> </div>","null","FL","learning/Slide94.JPG","That was a tob.","",""
"","image-keyboard-response","290","504781","0.0-8.0-0.14","FL","g6wblx1ehg","1280","720","en","aj05er02","null","","","","","","","","learning/Slide95.JPG","null","","","","",""
"","html-keyboard-response","291","505946","0.0-8.0-1.14","FL","g6wblx1ehg","1280","720","en","aj05er02","null","","","","learningBlock2","","","","That was a wug.","null","","","","",""
"","html-keyboard-response","292","506951","0.0-8.0-2.14","FL","g6wblx1ehg","1280","720","en","aj05er02","null","","","","learningBlock2","","","","<div style=""font-size:60px;""> </div>","null","FL","learning/Slide95.JPG","That was a wug.","",""
"","image-keyboard-response","293","507134","0.0-8.0-0.15","FL","g6wblx1ehg","1280","720","en","aj05er02","null","","","","","","","","learning/Slide96.JPG","null","","","","",""
"","html-keyboard-response","294","508293","0.0-8.0-1.15","FL","g6wblx1ehg","1280","720","en","aj05er02","null","","","","learningBlock2","","","","That was a tob.","null","","","","",""
"","html-keyboard-response","295","509298","0.0-8.0-2.15","FL","g6wblx1ehg","1280","720","en","aj05er02","null","","","","learningBlock2","","","","<div style=""font-size:60px;""> </div>","null","FL","learning/Slide96.JPG","That was a tob.","",""
"","image-keyboard-response","296","509480","0.0-8.0-0.16","FL","g6wblx1ehg","1280","720","en","aj05er02","null","","","","","","","","learning/Slide97.JPG","null","","","","",""
"","html-keyboard-response","297","510645","0.0-8.0-1.16","FL","g6wblx1ehg","1280","720","en","aj05er02","null","","","","learningBlock2","","","","That was a dep.","null","","","","",""
"","html-keyboard-response","298","511653","0.0-8.0-2.16","FL","g6wblx1ehg","1280","720","en","aj05er02","null","","","","learningBlock2","","","","<div style=""font-size:60px;""> </div>","null","FL","learning/Slide97.JPG","That was a dep.","",""
"","image-keyboard-response","299","511829","0.0-8.0-0.17","FL","g6wblx1ehg","1280","720","en","aj05er02","null","","","","","","","","learning/Slide98.JPG","null","","","","",""
"","html-keyboard-response","300","512990","0.0-8.0-1.17","FL","g6wblx1ehg","1280","720","en","aj05er02","null","","","","learningBlock2","","","","That was a bim.","null","","","","",""
"","html-keyboard-response","301","513996","0.0-8.0-2.17","FL","g6wblx1ehg","1280","720","en","aj05er02","null","","","","learningBlock2","","","","<div style=""font-size:60px;""> </div>","null","FL","learning/Slide98.JPG","That was a bim.","",""
"","image-keyboard-response","302","514180","0.0-8.0-0.18","FL","g6wblx1ehg","1280","720","en","aj05er02","null","","","","","","","","learning/Slide99.JPG","null","","","","",""
"","html-keyboard-response","303","515346","0.0-8.0-1.18","FL","g6wblx1ehg","1280","720","en","aj05er02","null","","","","learningBlock2","","","","That was a dep.","null","","","","",""
"","html-keyboard-response","304","516349","0.0-8.0-2.18","FL","g6wblx1ehg","1280","720","en","aj05er02","null","","","","learningBlock2","","","","<div style=""font-size:60px;""> </div>","null","FL","learning/Slide99.JPG","That was a dep.","",""
"","image-keyboard-response","305","516526","0.0-8.0-0.19","FL","g6wblx1ehg","1280","720","en","aj05er02","null","","","","","","","","learning/Slide100.JPG","null","","","","",""
"","html-keyboard-response","306","517679","0.0-8.0-1.19","FL","g6wblx1ehg","1280","720","en","aj05er02","null","","","","learningBlock2","","","","That was a bim.","null","","","","",""
"","html-keyboard-response","307","518681","0.0-8.0-2.19","FL","g6wblx1ehg","1280","720","en","aj05er02","null","","","","learningBlock2","","","","<div style=""font-size:60px;""> </div>","null","FL","learning/Slide100.JPG","That was a bim.","",""
"","image-keyboard-response","308","518857","0.0-8.0-0.20","FL","g6wblx1ehg","1280","720","en","aj05er02","null","","","","","","","","learning/Slide101.JPG","null","","","","",""
"","html-keyboard-response","309","520012","0.0-8.0-1.20","FL","g6wblx1ehg","1280","720","en","aj05er02","null","","","","learningBlock2","","","","That was a tob.","null","","","","",""
"","html-keyboard-response","310","521020","0.0-8.0-2.20","FL","g6wblx1ehg","1280","720","en","aj05er02","null","","","","learningBlock2","","","","<div style=""font-size:60px;""> </div>","null","FL","learning/Slide101.JPG","That was a tob.","",""
"","image-keyboard-response","311","521203","0.0-8.0-0.21","FL","g6wblx1ehg","1280","720","en","aj05er02","null","","","","","","","","learning/Slide102.JPG","null","","","","",""
"","html-keyboard-response","312","522367","0.0-8.0-1.21","FL","g6wblx1ehg","1280","720","en","aj05er02","null","","","","learningBlock2","","","","That was a bim.","null","","","","",""
"","html-keyboard-response","313","523371","0.0-8.0-2.21","FL","g6wblx1ehg","1280","720","en","aj05er02","null","","","","learningBlock2","","","","<div style=""font-size:60px;""> </div>","null","FL","learning/Slide102.JPG","That was a bim.","",""
"","image-keyboard-response","314","523548","0.0-8.0-0.22","FL","g6wblx1ehg","1280","720","en","aj05er02","null","","","","","","","","learning/Slide103.JPG","null","","","","",""
"","html-keyboard-response","315","524701","0.0-8.0-1.22","FL","g6wblx1ehg","1280","720","en","aj05er02","null","","","","learningBlock2","","","","That was a dep.","null","","","","",""
"","html-keyboard-response","316","525706","0.0-8.0-2.22","FL","g6wblx1ehg","1280","720","en","aj05er02","null","","","","learningBlock2","","","","<div style=""font-size:60px;""> </div>","null","FL","learning/Slide103.JPG","That was a dep.","",""
"","image-keyboard-response","317","525886","0.0-8.0-0.23","FL","g6wblx1ehg","1280","720","en","aj05er02","null","","","","","","","","learning/Slide104.JPG","null","","","","",""
"","html-keyboard-response","318","527051","0.0-8.0-1.23","FL","g6wblx1ehg","1280","720","en","aj05er02","null","","","","learningBlock2","","","","That was a tob.","null","","","","",""
"","html-keyboard-response","319","528059","0.0-8.0-2.23","FL","g6wblx1ehg","1280","720","en","aj05er02","null","","","","learningBlock2","","","","<div style=""font-size:60px;""> </div>","null","FL","learning/Slide104.JPG","That was a tob.","",""
"","image-keyboard-response","320","528242","0.0-8.0-0.24","FL","g6wblx1ehg","1280","720","en","aj05er02","null","","","","","","","","learning/Slide105.JPG","null","","","","",""
"","html-keyboard-response","321","529404","0.0-8.0-1.24","FL","g6wblx1ehg","1280","720","en","aj05er02","null","","","","learningBlock2","","","","That was a dep.","null","","","","",""
"","html-keyboard-response","322","530409","0.0-8.0-2.24","FL","g6wblx1ehg","1280","720","en","aj05er02","null","","","","learningBlock2","","","","<div style=""font-size:60px;""> </div>","null","FL","learning/Slide105.JPG","That was a dep.","",""
"","image-keyboard-response","323","530587","0.0-8.0-0.25","FL","g6wblx1ehg","1280","720","en","aj05er02","null","","","","","","","","learning/Slide106.JPG","null","","","","",""
"","html-keyboard-response","324","531748","0.0-8.0-1.25","FL","g6wblx1ehg","1280","720","en","aj05er02","null","","","","learningBlock2","","","","That was a wug.","null","","","","",""
"","html-keyboard-response","325","532750","0.0-8.0-2.25","FL","g6wblx1ehg","1280","720","en","aj05er02","null","","","","learningBlock2","","","","<div style=""font-size:60px;""> </div>","null","FL","learning/Slide106.JPG","That was a wug.","",""
"","image-keyboard-response","326","532927","0.0-8.0-0.26","FL","g6wblx1ehg","1280","720","en","aj05er02","null","","","","","","","","learning/Slide107.JPG","null","","","","",""
"","html-keyboard-response","327","534080","0.0-8.0-1.26","FL","g6wblx1ehg","1280","720","en","aj05er02","null","","","","learningBlock2","","","","That was a bim.","null","","","","",""
"","html-keyboard-response","328","535088","0.0-8.0-2.26","FL","g6wblx1ehg","1280","720","en","aj05er02","null","","","","learningBlock2","","","","<div style=""font-size:60px;""> </div>","null","FL","learning/Slide107.JPG","That was a bim.","",""
"","image-keyboard-response","329","535268","0.0-8.0-0.27","FL","g6wblx1ehg","1280","720","en","aj05er02","null","","","","","","","","learning/Slide108.JPG","null","","","","",""
"","html-keyboard-response","330","536428","0.0-8.0-1.27","FL","g6wblx1ehg","1280","720","en","aj05er02","null","","","","learningBlock2","","","","That was a dep.","null","","","","",""
"","html-keyboard-response","331","537430","0.0-8.0-2.27","FL","g6wblx1ehg","1280","720","en","aj05er02","null","","","","learningBlock2","","","","<div style=""font-size:60px;""> </div>","null","FL","learning/Slide108.JPG","That was a dep.","",""
"","image-keyboard-response","332","537612","0.0-8.0-0.28","FL","g6wblx1ehg","1280","720","en","aj05er02","null","","","","","","","","learning/Slide109.JPG","null","","","","",""
"","html-keyboard-response","333","538773","0.0-8.0-1.28","FL","g6wblx1ehg","1280","720","en","aj05er02","null","","","","learningBlock2","","","","That was a wug.","null","","","","",""
"","html-keyboard-response","334","539782","0.0-8.0-2.28","FL","g6wblx1ehg","1280","720","en","aj05er02","null","","","","learningBlock2","","","","<div style=""font-size:60px;""> </div>","null","FL","learning/Slide109.JPG","That was a wug.","",""
"","image-keyboard-response","335","539965","0.0-8.0-0.29","FL","g6wblx1ehg","1280","720","en","aj05er02","null","","","","","","","","learning/Slide110.JPG","null","","","","",""
"","html-keyboard-response","336","541126","0.0-8.0-1.29","FL","g6wblx1ehg","1280","720","en","aj05er02","null","","","","learningBlock2","","","","That was a bim.","null","","","","",""
"","html-keyboard-response","337","542130","0.0-8.0-2.29","FL","g6wblx1ehg","1280","720","en","aj05er02","null","","","","learningBlock2","","","","<div style=""font-size:60px;""> </div>","null","FL","learning/Slide110.JPG","That was a bim.","",""
"","image-keyboard-response","338","542306","0.0-8.0-0.30","FL","g6wblx1ehg","1280","720","en","aj05er02","null","","","","","","","","learning/Slide111.JPG","null","","","","",""
"","html-keyboard-response","339","543467","0.0-8.0-1.30","FL","g6wblx1ehg","1280","720","en","aj05er02","null","","","","learningBlock2","","","","That was a tob.","null","","","","",""
"","html-keyboard-response","340","544472","0.0-8.0-2.30","FL","g6wblx1ehg","1280","720","en","aj05er02","null","","","","learningBlock2","","","","<div style=""font-size:60px;""> </div>","null","FL","learning/Slide111.JPG","That was a tob.","",""
"","image-keyboard-response","341","544655","0.0-8.0-0.31","FL","g6wblx1ehg","1280","720","en","aj05er02","null","","","","","","","","learning/Slide112.JPG","null","","","","",""
"","html-keyboard-response","342","545815","0.0-8.0-1.31","FL","g6wblx1ehg","1280","720","en","aj05er02","null","","","","learningBlock2","","","","That was a wug.","null","","","","",""
"","html-keyboard-response","343","546818","0.0-8.0-2.31","FL","g6wblx1ehg","1280","720","en","aj05er02","null","","","","learningBlock2","","","","<div style=""font-size:60px;""> </div>","null","FL","learning/Slide112.JPG","That was a wug.","",""
"","image-keyboard-response","344","546997","0.0-8.0-0.32","FL","g6wblx1ehg","1280","720","en","aj05er02","null","","","","","","","","learning/Slide113.JPG","null","","","","",""
"","html-keyboard-response","345","548150","0.0-8.0-1.32","FL","g6wblx1ehg","1280","720","en","aj05er02","null","","","","learningBlock2","","","","That was a tob.","null","","","","",""
"","html-keyboard-response","346","549153","0.0-8.0-2.32","FL","g6wblx1ehg","1280","720","en","aj05er02","null","","","","learningBlock2","","","","<div style=""font-size:60px;""> </div>","null","FL","learning/Slide113.JPG","That was a tob.","",""
"","image-keyboard-response","347","549337","0.0-8.0-0.33","FL","g6wblx1ehg","1280","720","en","aj05er02","null","","","","","","","","learning/Slide114.JPG","null","","","","",""
"","html-keyboard-response","348","550499","0.0-8.0-1.33","FL","g6wblx1ehg","1280","720","en","aj05er02","null","","","","learningBlock2","","","","That was a wug.","null","","","","",""
"","html-keyboard-response","349","551500","0.0-8.0-2.33","FL","g6wblx1ehg","1280","720","en","aj05er02","null","","","","learningBlock2","","","","<div style=""font-size:60px;""> </div>","null","FL","learning/Slide114.JPG","That was a wug.","",""
"","image-keyboard-response","350","551678","0.0-8.0-0.34","FL","g6wblx1ehg","1280","720","en","aj05er02","null","","","","","","","","learning/Slide115.JPG","null","","","","",""
"","html-keyboard-response","351","552831","0.0-8.0-1.34","FL","g6wblx1ehg","1280","720","en","aj05er02","null","","","","learningBlock2","","","","That was a bim.","null","","","","",""
"","html-keyboard-response","352","553834","0.0-8.0-2.34","FL","g6wblx1ehg","1280","720","en","aj05er02","null","","","","learningBlock2","","","","<div style=""font-size:60px;""> </div>","null","FL","learning/Slide115.JPG","That was a bim.","",""
"","image-keyboard-response","353","554016","0.0-8.0-0.35","FL","g6wblx1ehg","1280","720","en","aj05er02","null","","","","","","","","learning/Slide116.JPG","null","","","","",""
"","html-keyboard-response","354","555176","0.0-8.0-1.35","FL","g6wblx1ehg","1280","720","en","aj05er02","null","","","","learningBlock2","","","","That was a dep.","null","","","","",""
"","html-keyboard-response","355","556180","0.0-8.0-2.35","FL","g6wblx1ehg","1280","720","en","aj05er02","null","","","","learningBlock2","","","","<div style=""font-size:60px;""> </div>","null","FL","learning/Slide116.JPG","That was a dep.","",""
"","image-keyboard-response","356","556363","0.0-8.0-0.36","FL","g6wblx1ehg","1280","720","en","aj05er02","null","","","","","","","","learning/Slide117.JPG","null","","","","",""
"","html-keyboard-response","357","557525","0.0-8.0-1.36","FL","g6wblx1ehg","1280","720","en","aj05er02","null","","","","learningBlock2","","","","That was a tob.","null","","","","",""
"","html-keyboard-response","358","558530","0.0-8.0-2.36","FL","g6wblx1ehg","1280","720","en","aj05er02","null","","","","learningBlock2","","","","<div style=""font-size:60px;""> </div>","null","FL","learning/Slide117.JPG","That was a tob.","",""
"","image-keyboard-response","359","558707","0.0-8.0-0.37","FL","g6wblx1ehg","1280","720","en","aj05er02","null","","","","","","","","learning/Slide118.JPG","null","","","","",""
"","html-keyboard-response","360","559864","0.0-8.0-1.37","FL","g6wblx1ehg","1280","720","en","aj05er02","null","","","","learningBlock2","","","","That was a dep.","null","","","","",""
"","html-keyboard-response","361","560872","0.0-8.0-2.37","FL","g6wblx1ehg","1280","720","en","aj05er02","null","","","","learningBlock2","","","","<div style=""font-size:60px;""> </div>","null","FL","learning/Slide118.JPG","That was a dep.","",""
"","image-keyboard-response","362","561056","0.0-8.0-0.38","FL","g6wblx1ehg","1280","720","en","aj05er02","null","","","","","","","","learning/Slide119.JPG","null","","","","",""
"","html-keyboard-response","363","562223","0.0-8.0-1.38","FL","g6wblx1ehg","1280","720","en","aj05er02","null","","","","learningBlock2","","","","That was a wug.","null","","","","",""
"","html-keyboard-response","364","563230","0.0-8.0-2.38","FL","g6wblx1ehg","1280","720","en","aj05er02","null","","","","learningBlock2","","","","<div style=""font-size:60px;""> </div>","null","FL","learning/Slide119.JPG","That was a wug.","",""
"","image-keyboard-response","365","563411","0.0-8.0-0.39","FL","g6wblx1ehg","1280","720","en","aj05er02","null","","","","","","","","learning/Slide120.JPG","null","","","","",""
"","html-keyboard-response","366","564567","0.0-8.0-1.39","FL","g6wblx1ehg","1280","720","en","aj05er02","null","","","","learningBlock2","","","","That was a dep.","null","","","","",""
"","html-keyboard-response","367","565573","0.0-8.0-2.39","FL","g6wblx1ehg","1280","720","en","aj05er02","null","","","","learningBlock2","","","","<div style=""font-size:60px;""> </div>","null","FL","learning/Slide120.JPG","That was a dep.","",""
"","image-keyboard-response","368","565757","0.0-8.0-0.40","FL","g6wblx1ehg","1280","720","en","aj05er02","null","","","","","","","","learning/Slide121.JPG","null","","","","",""
"","html-keyboard-response","369","566923","0.0-8.0-1.40","FL","g6wblx1ehg","1280","720","en","aj05er02","null","","","","learningBlock2","","","","That was a bim.","null","","","","",""
"","html-keyboard-response","370","567926","0.0-8.0-2.40","FL","g6wblx1ehg","1280","720","en","aj05er02","null","","","","learningBlock2","","","","<div style=""font-size:60px;""> </div>","null","FL","learning/Slide121.JPG","That was a bim.","",""
"","image-keyboard-response","371","568103","0.0-8.0-0.41","FL","g6wblx1ehg","1280","720","en","aj05er02","null","","","","","","","","learning/Slide122.JPG","null","","","","",""
"","html-keyboard-response","372","569266","0.0-8.0-1.41","FL","g6wblx1ehg","1280","720","en","aj05er02","null","","","","learningBlock2","","","","That was a wug.","null","","","","",""
"","html-keyboard-response","373","570269","0.0-8.0-2.41","FL","g6wblx1ehg","1280","720","en","aj05er02","null","","","","learningBlock2","","","","<div style=""font-size:60px;""> </div>","null","FL","learning/Slide122.JPG","That was a wug.","",""
"","image-keyboard-response","374","570450","0.0-8.0-0.42","FL","g6wblx1ehg","1280","720","en","aj05er02","null","","","","","","","","learning/Slide123.JPG","null","","","","",""
"","html-keyboard-response","375","571606","0.0-8.0-1.42","FL","g6wblx1ehg","1280","720","en","aj05er02","null","","","","learningBlock2","","","","That was a bim.","null","","","","",""
"","html-keyboard-response","376","572610","0.0-8.0-2.42","FL","g6wblx1ehg","1280","720","en","aj05er02","null","","","","learningBlock2","","","","<div style=""font-size:60px;""> </div>","null","FL","learning/Slide123.JPG","That was a bim.","",""
"","image-keyboard-response","377","572793","0.0-8.0-0.43","FL","g6wblx1ehg","1280","720","en","aj05er02","null","","","","","","","","learning/Slide124.JPG","null","","","","",""
"","html-keyboard-response","378","573959","0.0-8.0-1.43","FL","g6wblx1ehg","1280","720","en","aj05er02","null","","","","learningBlock2","","","","That was a tob.","null","","","","",""
"","html-keyboard-response","379","574962","0.0-8.0-2.43","FL","g6wblx1ehg","1280","720","en","aj05er02","null","","","","learningBlock2","","","","<div style=""font-size:60px;""> </div>","null","FL","learning/Slide124.JPG","That was a tob.","",""
"","image-keyboard-response","380","575145","0.0-8.0-0.44","FL","g6wblx1ehg","1280","720","en","aj05er02","null","","","","","","","","learning/Slide125.JPG","null","","","","",""
"","html-keyboard-response","381","576297","0.0-8.0-1.44","FL","g6wblx1ehg","1280","720","en","aj05er02","null","","","","learningBlock2","","","","That was a bim.","null","","","","",""
"","html-keyboard-response","382","577306","0.0-8.0-2.44","FL","g6wblx1ehg","1280","720","en","aj05er02","null","","","","learningBlock2","","","","<div style=""font-size:60px;""> </div>","null","FL","learning/Slide125.JPG","That was a bim.","",""
"","image-keyboard-response","383","577487","0.0-8.0-0.45","FL","g6wblx1ehg","1280","720","en","aj05er02","null","","","","","","","","learning/Slide126.JPG","null","","","","",""
"","html-keyboard-response","384","578646","0.0-8.0-1.45","FL","g6wblx1ehg","1280","720","en","aj05er02","null","","","","learningBlock2","","","","That was a tob.","null","","","","",""
"","html-keyboard-response","385","579649","0.0-8.0-2.45","FL","g6wblx1ehg","1280","720","en","aj05er02","null","","","","learningBlock2","","","","<div style=""font-size:60px;""> </div>","null","FL","learning/Slide126.JPG","That was a tob.","",""
"","image-keyboard-response","386","579831","0.0-8.0-0.46","FL","g6wblx1ehg","1280","720","en","aj05er02","null","","","","","","","","learning/Slide127.JPG","null","","","","",""
"","html-keyboard-response","387","580991","0.0-8.0-1.46","FL","g6wblx1ehg","1280","720","en","aj05er02","null","","","","learningBlock2","","","","That was a dep.","null","","","","",""
"","html-keyboard-response","388","581993","0.0-8.0-2.46","FL","g6wblx1ehg","1280","720","en","aj05er02","null","","","","learningBlock2","","","","<div style=""font-size:60px;""> </div>","null","FL","learning/Slide127.JPG","That was a dep.","",""
"","image-keyboard-response","389","582176","0.0-8.0-0.47","FL","g6wblx1ehg","1280","720","en","aj05er02","null","","","","","","","","learning/Slide128.JPG","null","","","","",""
"","html-keyboard-response","390","583329","0.0-8.0-1.47","FL","g6wblx1ehg","1280","720","en","aj05er02","null","","","","learningBlock2","","","","That was a wug.","null","","","","",""
"","html-keyboard-response","391","584334","0.0-8.0-2.47","FL","g6wblx1ehg","1280","720","en","aj05er02","null","","","","learningBlock2","","","","<div style=""font-size:60px;""> </div>","null","FL","learning/Slide128.JPG","That was a wug.","",""
"","image-keyboard-response","392","584516","0.0-8.0-0.48","FL","g6wblx1ehg","1280","720","en","aj05er02","null","","","","","","","","learning/Slide129.JPG","null","","","","",""
"","html-keyboard-response","393","585680","0.0-8.0-1.48","FL","g6wblx1ehg","1280","720","en","aj05er02","null","","","","learningBlock2","","","","That was a tob.","null","","","","",""
"","html-keyboard-response","394","586690","0.0-8.0-2.48","FL","g6wblx1ehg","1280","720","en","aj05er02","null","","","","learningBlock2","","","","<div style=""font-size:60px;""> </div>","null","FL","learning/Slide129.JPG","That was a tob.","",""
"","image-keyboard-response","395","586867","0.0-8.0-0.49","FL","g6wblx1ehg","1280","720","en","aj05er02","null","","","","","","","","learning/Slide130.JPG","null","","","","",""
"","html-keyboard-response","396","588023","0.0-8.0-1.49","FL","g6wblx1ehg","1280","720","en","aj05er02","null","","","","learningBlock2","","","","That was a wug.","null","","","","",""
"","html-keyboard-response","397","589033","0.0-8.0-2.49","FL","g6wblx1ehg","1280","720","en","aj05er02","null","","","","learningBlock2","","","","<div style=""font-size:60px;""> </div>","null","FL","learning/Slide130.JPG","That was a wug.","",""
"","image-keyboard-response","398","589215","0.0-8.0-0.50","FL","g6wblx1ehg","1280","720","en","aj05er02","null","","","","","","","","learning/Slide131.JPG","null","","","","",""
"","html-keyboard-response","399","590380","0.0-8.0-1.50","FL","g6wblx1ehg","1280","720","en","aj05er02","null","","","","learningBlock2","","","","That was a bim.","null","","","","",""
"","html-keyboard-response","400","591381","0.0-8.0-2.50","FL","g6wblx1ehg","1280","720","en","aj05er02","null","","","","learningBlock2","","","","<div style=""font-size:60px;""> </div>","null","FL","learning/Slide131.JPG","That was a bim.","",""
"","image-keyboard-response","401","591560","0.0-8.0-0.51","FL","g6wblx1ehg","1280","720","en","aj05er02","null","","","","","","","","learning/Slide132.JPG","null","","","","",""
"","html-keyboard-response","402","592719","0.0-8.0-1.51","FL","g6wblx1ehg","1280","720","en","aj05er02","null","","","","learningBlock2","","","","That was a dep.","null","","","","",""
"","html-keyboard-response","403","593720","0.0-8.0-2.51","FL","g6wblx1ehg","1280","720","en","aj05er02","null","","","","learningBlock2","","","","<div style=""font-size:60px;""> </div>","null","FL","learning/Slide132.JPG","That was a dep.","",""
"","image-keyboard-response","404","593903","0.0-8.0-0.52","FL","g6wblx1ehg","1280","720","en","aj05er02","null","","","","","","","","learning/Slide133.JPG","null","","","","",""
"","html-keyboard-response","405","595062","0.0-8.0-1.52","FL","g6wblx1ehg","1280","720","en","aj05er02","null","","","","learningBlock2","","","","That was a tob.","null","","","","",""
"","html-keyboard-response","406","596067","0.0-8.0-2.52","FL","g6wblx1ehg","1280","720","en","aj05er02","null","","","","learningBlock2","","","","<div style=""font-size:60px;""> </div>","null","FL","learning/Slide133.JPG","That was a tob.","",""
"","image-keyboard-response","407","596243","0.0-8.0-0.53","FL","g6wblx1ehg","1280","720","en","aj05er02","null","","","","","","","","learning/Slide134.JPG","null","","","","",""
"","html-keyboard-response","408","597406","0.0-8.0-1.53","FL","g6wblx1ehg","1280","720","en","aj05er02","null","","","","learningBlock2","","","","That was a dep.","null","","","","",""
"","html-keyboard-response","409","598408","0.0-8.0-2.53","FL","g6wblx1ehg","1280","720","en","aj05er02","null","","","","learningBlock2","","","","<div style=""font-size:60px;""> </div>","null","FL","learning/Slide134.JPG","That was a dep.","",""
"","image-keyboard-response","410","598591","0.0-8.0-0.54","FL","g6wblx1ehg","1280","720","en","aj05er02","null","","","","","","","","learning/Slide135.JPG","null","","","","",""
"","html-keyboard-response","411","599752","0.0-8.0-1.54","FL","g6wblx1ehg","1280","720","en","aj05er02","null","","","","learningBlock2","","","","That was a tob.","null","","","","",""
"","html-keyboard-response","412","600760","0.0-8.0-2.54","FL","g6wblx1ehg","1280","720","en","aj05er02","null","","","","learningBlock2","","","","<div style=""font-size:60px;""> </div>","null","FL","learning/Slide135.JPG","That was a tob.","",""
"","image-keyboard-response","413","600944","0.0-8.0-0.55","FL","g6wblx1ehg","1280","720","en","aj05er02","null","","","","","","","","learning/Slide136.JPG","null","","","","",""
"","html-keyboard-response","414","602100","0.0-8.0-1.55","FL","g6wblx1ehg","1280","720","en","aj05er02","null","","","","learningBlock2","","","","That was a wug.","null","","","","",""
"","html-keyboard-response","415","603101","0.0-8.0-2.55","FL","g6wblx1ehg","1280","720","en","aj05er02","null","","","","learningBlock2","","","","<div style=""font-size:60px;""> </div>","null","FL","learning/Slide136.JPG","That was a wug.","",""
"","image-keyboard-response","416","603280","0.0-8.0-0.56","FL","g6wblx1ehg","1280","720","en","aj05er02","null","","","","","","","","learning/Slide137.JPG","null","","","","",""
"","html-keyboard-response","417","604433","0.0-8.0-1.56","FL","g6wblx1ehg","1280","720","en","aj05er02","null","","","","learningBlock2","","","","That was a tob.","null","","","","",""
"","html-keyboard-response","418","605436","0.0-8.0-2.56","FL","g6wblx1ehg","1280","720","en","aj05er02","null","","","","learningBlock2","","","","<div style=""font-size:60px;""> </div>","null","FL","learning/Slide137.JPG","That was a tob.","",""
"","image-keyboard-response","419","605618","0.0-8.0-0.57","FL","g6wblx1ehg","1280","720","en","aj05er02","null","","","","","","","","learning/Slide138.JPG","null","","","","",""
"","html-keyboard-response","420","606772","0.0-8.0-1.57","FL","g6wblx1ehg","1280","720","en","aj05er02","null","","","","learningBlock2","","","","That was a bim.","null","","","","",""
"","html-keyboard-response","421","607775","0.0-8.0-2.57","FL","g6wblx1ehg","1280","720","en","aj05er02","null","","","","learningBlock2","","","","<div style=""font-size:60px;""> </div>","null","FL","learning/Slide138.JPG","That was a bim.","",""
"","image-keyboard-response","422","607951","0.0-8.0-0.58","FL","g6wblx1ehg","1280","720","en","aj05er02","null","","","","","","","","learning/Slide139.JPG","null","","","","",""
"","html-keyboard-response","423","609109","0.0-8.0-1.58","FL","g6wblx1ehg","1280","720","en","aj05er02","null","","","","learningBlock2","","","","That was a wug.","null","","","","",""
"","html-keyboard-response","424","610114","0.0-8.0-2.58","FL","g6wblx1ehg","1280","720","en","aj05er02","null","","","","learningBlock2","","","","<div style=""font-size:60px;""> </div>","null","FL","learning/Slide139.JPG","That was a wug.","",""
"","image-keyboard-response","425","610293","0.0-8.0-0.59","FL","g6wblx1ehg","1280","720","en","aj05er02","null","","","","","","","","learning/Slide140.JPG","null","","","","",""
"","html-keyboard-response","426","611456","0.0-8.0-1.59","FL","g6wblx1ehg","1280","720","en","aj05er02","null","","","","learningBlock2","","","","That was a dep.","null","","","","",""
"","html-keyboard-response","427","612460","0.0-8.0-2.59","FL","g6wblx1ehg","1280","720","en","aj05er02","null","","","","learningBlock2","","","","<div style=""font-size:60px;""> </div>","null","FL","learning/Slide140.JPG","That was a dep.","",""
"","image-keyboard-response","428","612639","0.0-8.0-0.60","FL","g6wblx1ehg","1280","720","en","aj05er02","null","","","","","","","","learning/Slide141.JPG","null","","","","",""
"","html-keyboard-response","429","613795","0.0-8.0-1.60","FL","g6wblx1ehg","1280","720","en","aj05er02","null","","","","learningBlock2","","","","That was a tob.","null","","","","",""
"","html-keyboard-response","430","614796","0.0-8.0-2.60","FL","g6wblx1ehg","1280","720","en","aj05er02","null","","","","learningBlock2","","","","<div style=""font-size:60px;""> </div>","null","FL","learning/Slide141.JPG","That was a tob.","",""
"","image-keyboard-response","431","614980","0.0-8.0-0.61","FL","g6wblx1ehg","1280","720","en","aj05er02","null","","","","","","","","learning/Slide142.JPG","null","","","","",""
"","html-keyboard-response","432","616139","0.0-8.0-1.61","FL","g6wblx1ehg","1280","720","en","aj05er02","null","","","","learningBlock2","","","","That was a wug.","null","","","","",""
"","html-keyboard-response","433","617140","0.0-8.0-2.61","FL","g6wblx1ehg","1280","720","en","aj05er02","null","","","","learningBlock2","","","","<div style=""font-size:60px;""> </div>","null","FL","learning/Slide142.JPG","That was a wug.","",""
"","image-keyboard-response","434","617318","0.0-8.0-0.62","FL","g6wblx1ehg","1280","720","en","aj05er02","null","","","","","","","","learning/Slide143.JPG","null","","","","",""
"","html-keyboard-response","435","618480","0.0-8.0-1.62","FL","g6wblx1ehg","1280","720","en","aj05er02","null","","","","learningBlock2","","","","That was a bim.","null","","","","",""
"","html-keyboard-response","436","619490","0.0-8.0-2.62","FL","g6wblx1ehg","1280","720","en","aj05er02","null","","","","learningBlock2","","","","<div style=""font-size:60px;""> </div>","null","FL","learning/Slide143.JPG","That was a bim.","",""
"","image-keyboard-response","437","619667","0.0-8.0-0.63","FL","g6wblx1ehg","1280","720","en","aj05er02","null","","","","","","","","learning/Slide144.JPG","null","","","","",""
"","html-keyboard-response","438","620823","0.0-8.0-1.63","FL","g6wblx1ehg","1280","720","en","aj05er02","null","","","","learningBlock2","","","","That was a dep.","null","","","","",""
"","html-keyboard-response","439","621831","0.0-8.0-2.63","FL","g6wblx1ehg","1280","720","en","aj05er02","null","","","","learningBlock2","","","","<div style=""font-size:60px;""> </div>","null","FL","learning/Slide144.JPG","That was a dep.","",""
"","image-keyboard-response","440","622015","0.0-8.0-0.64","FL","g6wblx1ehg","1280","720","en","aj05er02","null","","","","","","","","learning/Slide145.JPG","null","","","","",""
"","html-keyboard-response","441","623169","0.0-8.0-1.64","FL","g6wblx1ehg","1280","720","en","aj05er02","null","","","","learningBlock2","","","","That was a bim.","null","","","","",""
"","html-keyboard-response","442","624176","0.0-8.0-2.64","FL","g6wblx1ehg","1280","720","en","aj05er02","null","","","","learningBlock2","","","","<div style=""font-size:60px;""> </div>","null","FL","learning/Slide145.JPG","That was a bim.","",""
"","image-keyboard-response","443","624359","0.0-8.0-0.65","FL","g6wblx1ehg","1280","720","en","aj05er02","null","","","","","","","","learning/Slide146.JPG","null","","","","",""
"","html-keyboard-response","444","625519","0.0-8.0-1.65","FL","g6wblx1ehg","1280","720","en","aj05er02","null","","","","learningBlock2","","","","That was a tob.","null","","","","",""
"","html-keyboard-response","445","626520","0.0-8.0-2.65","FL","g6wblx1ehg","1280","720","en","aj05er02","null","","","","learningBlock2","","","","<div style=""font-size:60px;""> </div>","null","FL","learning/Slide146.JPG","That was a tob.","",""
"","image-keyboard-response","446","626703","0.0-8.0-0.66","FL","g6wblx1ehg","1280","720","en","aj05er02","null","","","","","","","","learning/Slide147.JPG","null","","","","",""
"","html-keyboard-response","447","627866","0.0-8.0-1.66","FL","g6wblx1ehg","1280","720","en","aj05er02","null","","","","learningBlock2","","","","That was a wug.","null","","","","",""
"","html-keyboard-response","448","628869","0.0-8.0-2.66","FL","g6wblx1ehg","1280","720","en","aj05er02","null","","","","learningBlock2","","","","<div style=""font-size:60px;""> </div>","null","FL","learning/Slide147.JPG","That was a wug.","",""
"","image-keyboard-response","449","629046","0.0-8.0-0.67","FL","g6wblx1ehg","1280","720","en","aj05er02","null","","","","","","","","learning/Slide148.JPG","null","","","","",""
"","html-keyboard-response","450","630199","0.0-8.0-1.67","FL","g6wblx1ehg","1280","720","en","aj05er02","null","","","","learningBlock2","","","","That was a bim.","null","","","","",""
"","html-keyboard-response","451","631207","0.0-8.0-2.67","FL","g6wblx1ehg","1280","720","en","aj05er02","null","","","","learningBlock2","","","","<div style=""font-size:60px;""> </div>","null","FL","learning/Slide148.JPG","That was a bim.","",""
"","image-keyboard-response","452","631383","0.0-8.0-0.68","FL","g6wblx1ehg","1280","720","en","aj05er02","null","","","","","","","","learning/Slide149.JPG","null","","","","",""
"","html-keyboard-response","453","632550","0.0-8.0-1.68","FL","g6wblx1ehg","1280","720","en","aj05er02","null","","","","learningBlock2","","","","That was a dep.","null","","","","",""
"","html-keyboard-response","454","633551","0.0-8.0-2.68","FL","g6wblx1ehg","1280","720","en","aj05er02","null","","","","learningBlock2","","","","<div style=""font-size:60px;""> </div>","null","FL","learning/Slide149.JPG","That was a dep.","",""
"","image-keyboard-response","455","633730","0.0-8.0-0.69","FL","g6wblx1ehg","1280","720","en","aj05er02","null","","","","","","","","learning/Slide150.JPG","null","","","","",""
"","html-keyboard-response","456","634890","0.0-8.0-1.69","FL","g6wblx1ehg","1280","720","en","aj05er02","null","","","","learningBlock2","","","","That was a wug.","null","","","","",""
"","html-keyboard-response","457","635899","0.0-8.0-2.69","FL","g6wblx1ehg","1280","720","en","aj05er02","null","","","","learningBlock2","","","","<div style=""font-size:60px;""> </div>","null","FL","learning/Slide150.JPG","That was a wug.","",""
"","image-keyboard-response","458","636076","0.0-8.0-0.70","FL","g6wblx1ehg","1280","720","en","aj05er02","null","","","","","","","","learning/Slide151.JPG","null","","","","",""
"","html-keyboard-response","459","637235","0.0-8.0-1.70","FL","g6wblx1ehg","1280","720","en","aj05er02","null","","","","learningBlock2","","","","That was a dep.","null","","","","",""
"","html-keyboard-response","460","638238","0.0-8.0-2.70","FL","g6wblx1ehg","1280","720","en","aj05er02","null","","","","learningBlock2","","","","<div style=""font-size:60px;""> </div>","null","FL","learning/Slide151.JPG","That was a dep.","",""
"","image-keyboard-response","461","638418","0.0-8.0-0.71","FL","g6wblx1ehg","1280","720","en","aj05er02","null","","","","","","","","learning/Slide152.JPG","null","","","","",""
"","html-keyboard-response","462","639572","0.0-8.0-1.71","FL","g6wblx1ehg","1280","720","en","aj05er02","null","","","","learningBlock2","","","","That was a wug.","null","","","","",""
"","html-keyboard-response","463","640580","0.0-8.0-2.71","FL","g6wblx1ehg","1280","720","en","aj05er02","null","","","","learningBlock2","","","","<div style=""font-size:60px;""> </div>","null","FL","learning/Slide152.JPG","That was a wug.","",""
"","image-keyboard-response","464","640758","0.0-8.0-0.72","FL","g6wblx1ehg","1280","720","en","aj05er02","null","","","","","","","","learning/Slide153.JPG","null","","","","",""
"","html-keyboard-response","465","641916","0.0-8.0-1.72","FL","g6wblx1ehg","1280","720","en","aj05er02","null","","","","learningBlock2","","","","That was a bim.","null","","","","",""
"","html-keyboard-response","466","642917","0.0-8.0-2.72","FL","g6wblx1ehg","1280","720","en","aj05er02","null","","","","learningBlock2","","","","<div style=""font-size:60px;""> </div>","null","FL","learning/Slide153.JPG","That was a bim.","",""
"","image-keyboard-response","467","643097","0.0-8.0-0.73","FL","g6wblx1ehg","1280","720","en","aj05er02","null","","","","","","","","learning/Slide154.JPG","null","","","","",""
"","html-keyboard-response","468","644259","0.0-8.0-1.73","FL","g6wblx1ehg","1280","720","en","aj05er02","null","","","","learningBlock2","","","","That was a tob.","null","","","","",""
"","html-keyboard-response","469","645261","0.0-8.0-2.73","FL","g6wblx1ehg","1280","720","en","aj05er02","null","","","","learningBlock2","","","","<div style=""font-size:60px;""> </div>","null","FL","learning/Slide154.JPG","That was a tob.","",""
"","image-keyboard-response","470","645440","0.0-8.0-0.74","FL","g6wblx1ehg","1280","720","en","aj05er02","null","","","","","","","","learning/Slide155.JPG","null","","","","",""
"","html-keyboard-response","471","646599","0.0-8.0-1.74","FL","g6wblx1ehg","1280","720","en","aj05er02","null","","","","learningBlock2","","","","That was a dep.","null","","","","",""
"","html-keyboard-response","472","647602","0.0-8.0-2.74","FL","g6wblx1ehg","1280","720","en","aj05er02","null","","","","learningBlock2","","","","<div style=""font-size:60px;""> </div>","null","FL","learning/Slide155.JPG","That was a dep.","",""
"","image-keyboard-response","473","647786","0.0-8.0-0.75","FL","g6wblx1ehg","1280","720","en","aj05er02","null","","","","","","","","learning/Slide156.JPG","null","","","","",""
"","html-keyboard-response","474","648950","0.0-8.0-1.75","FL","g6wblx1ehg","1280","720","en","aj05er02","null","","","","learningBlock2","","","","That was a bim.","null","","","","",""
"","html-keyboard-response","475","649958","0.0-8.0-2.75","FL","g6wblx1ehg","1280","720","en","aj05er02","null","","","","learningBlock2","","","","<div style=""font-size:60px;""> </div>","null","FL","learning/Slide156.JPG","That was a bim.","",""
"","image-keyboard-response","476","650140","0.0-8.0-0.76","FL","g6wblx1ehg","1280","720","en","aj05er02","null","","","","","","","","learning/Slide157.JPG","null","","","","",""
"","html-keyboard-response","477","651303","0.0-8.0-1.76","FL","g6wblx1ehg","1280","720","en","aj05er02","null","","","","learningBlock2","","","","That was a dep.","null","","","","",""
"","html-keyboard-response","478","652309","0.0-8.0-2.76","FL","g6wblx1ehg","1280","720","en","aj05er02","null","","","","learningBlock2","","","","<div style=""font-size:60px;""> </div>","null","FL","learning/Slide157.JPG","That was a dep.","",""
"","image-keyboard-response","479","652487","0.0-8.0-0.77","FL","g6wblx1ehg","1280","720","en","aj05er02","null","","","","","","","","learning/Slide158.JPG","null","","","","",""
"","html-keyboard-response","480","653644","0.0-8.0-1.77","FL","g6wblx1ehg","1280","720","en","aj05er02","null","","","","learningBlock2","","","","That was a tob.","null","","","","",""
"","html-keyboard-response","481","654653","0.0-8.0-2.77","FL","g6wblx1ehg","1280","720","en","aj05er02","null","","","","learningBlock2","","","","<div style=""font-size:60px;""> </div>","null","FL","learning/Slide158.JPG","That was a tob.","",""
"","image-keyboard-response","482","654832","0.0-8.0-0.78","FL","g6wblx1ehg","1280","720","en","aj05er02","null","","","","","","","","learning/Slide159.JPG","null","","","","",""
"","html-keyboard-response","483","655988","0.0-8.0-1.78","FL","g6wblx1ehg","1280","720","en","aj05er02","null","","","","learningBlock2","","","","That was a dep.","null","","","","",""
"","html-keyboard-response","484","656992","0.0-8.0-2.78","FL","g6wblx1ehg","1280","720","en","aj05er02","null","","","","learningBlock2","","","","<div style=""font-size:60px;""> </div>","null","FL","learning/Slide159.JPG","That was a dep.","",""
"","image-keyboard-response","485","657176","0.0-8.0-0.79","FL","g6wblx1ehg","1280","720","en","aj05er02","null","","","","","","","","learning/Slide160.JPG","null","","","","",""
"","html-keyboard-response","486","658340","0.0-8.0-1.79","FL","g6wblx1ehg","1280","720","en","aj05er02","null","","","","learningBlock2","","","","That was a wug.","null","","","","",""
"","html-keyboard-response","487","659350","0.0-8.0-2.79","FL","g6wblx1ehg","1280","720","en","aj05er02","null","","","","learningBlock2","","","","<div style=""font-size:60px;""> </div>","null","FL","learning/Slide160.JPG","That was a wug.","",""
"","resize2","488","666339","0.0-9.0","FL","g6wblx1ehg","1280","720","en","aj05er02","","","","","","","104","1.04","","","","","","",""
