"success","trial_type","trial_index","time_elapsed","internal_node_id","condition","subject","screen_width","screen_height","language","codeword","rt","responses","url","view_history","test_part","final_height_px","final_width_px","scale_factor","stimulus","key_press","learningType","presentedImage","presentedLabel","button_pressed","response"
"true","fullscreen","0","5828","0.0-0.0","FL","40757xtlgp","1366","768","en","va05er24","","","","","","","","","","","","","","",""
"","survey-html-form","1","17007","0.0-1.0","FL","40757xtlgp","1366","768","en","va05er24","11155.099999974482","{""language"":""en""}","","","","","","","","","","","","",""
"","external-html","2","45161","0.0-3.0-0.0","FL","40757xtlgp","1366","768","en","va05er24","28052.93000000529","","text/information_english.html","","","","","","","","","","","",""
"","external-html","3","61751","0.0-3.0-1.0","FL","40757xtlgp","1366","768","en","va05er24","16487.220000009984","","text/consent_english.html","","","","","","","","","","","",""
"","survey-html-form","4","112988","0.0-3.0-2.0","FL","40757xtlgp","1366","768","en","va05er24","51227.8149999911","{""codeword_enter"":""va05er24""}","","","","","","","","","","","","",""
"","instructions","5","147048","0.0-4.0","FL","40757xtlgp","1366","768","en","va05er24","NA","","","[{""page_index"":0,""viewing_time"":3903.7949999328703},{""page_index"":1,""viewing_time"":28640.780000016093}]","instructions","","","","","","","","","",""
"","resize","6","176240","0.0-5.0","FL","40757xtlgp","1366","768","en","va05er24","","","","","","","374","2.3746031746031746","","","","","","",""
"","image-keyboard-response","7","176429","0.0-6.0-0.0","FL","40757xtlgp","1366","768","en","va05er24","null","","","","","","","","learning/Slide1.JPG","null","","","","",""
"","html-keyboard-response","8","177589","0.0-6.0-1.0","FL","40757xtlgp","1366","768","en","va05er24","null","","","","learningBlock1","","","","That was a tob.","null","","","","",""
"","html-keyboard-response","9","178601","0.0-6.0-2.0","FL","40757xtlgp","1366","768","en","va05er24","null","","","","learningBlock1","","","","<div style=""font-size:60px;""> </div>","null","FL","learning/Slide1.JPG","That was a tob.","",""
"","image-keyboard-response","10","178786","0.0-6.0-0.1","FL","40757xtlgp","1366","768","en","va05er24","null","","","","","","","","learning/Slide2.JPG","null","","","","",""
"","html-keyboard-response","11","179942","0.0-6.0-1.1","FL","40757xtlgp","1366","768","en","va05er24","null","","","","learningBlock1","","","","That was a wug.","null","","","","",""
"","html-keyboard-response","12","180952","0.0-6.0-2.1","FL","40757xtlgp","1366","768","en","va05er24","null","","","","learningBlock1","","","","<div style=""font-size:60px;""> </div>","null","FL","learning/Slide2.JPG","That was a wug.","",""
"","image-keyboard-response","13","181135","0.0-6.0-0.2","FL","40757xtlgp","1366","768","en","va05er24","null","","","","","","","","learning/Slide3.JPG","null","","","","",""
"","html-keyboard-response","14","182293","0.0-6.0-1.2","FL","40757xtlgp","1366","768","en","va05er24","null","","","","learningBlock1","","","","That was a bim.","null","","","","",""
"","html-keyboard-response","15","183300","0.0-6.0-2.2","FL","40757xtlgp","1366","768","en","va05er24","null","","","","learningBlock1","","","","<div style=""font-size:60px;""> </div>","null","FL","learning/Slide3.JPG","That was a bim.","",""
"","image-keyboard-response","16","183498","0.0-6.0-0.3","FL","40757xtlgp","1366","768","en","va05er24","null","","","","","","","","learning/Slide4.JPG","null","","","","",""
"","html-keyboard-response","17","184659","0.0-6.0-1.3","FL","40757xtlgp","1366","768","en","va05er24","null","","","","learningBlock1","","","","That was a dep.","null","","","","",""
"","html-keyboard-response","18","185675","0.0-6.0-2.3","FL","40757xtlgp","1366","768","en","va05er24","null","","","","learningBlock1","","","","<div style=""font-size:60px;""> </div>","null","FL","learning/Slide4.JPG","That was a dep.","",""
"","image-keyboard-response","19","185858","0.0-6.0-0.4","FL","40757xtlgp","1366","768","en","va05er24","null","","","","","","","","learning/Slide5.JPG","null","","","","",""
"","html-keyboard-response","20","187015","0.0-6.0-1.4","FL","40757xtlgp","1366","768","en","va05er24","null","","","","learningBlock1","","","","That was a wug.","null","","","","",""
"","html-keyboard-response","21","188024","0.0-6.0-2.4","FL","40757xtlgp","1366","768","en","va05er24","null","","","","learningBlock1","","","","<div style=""font-size:60px;""> </div>","null","FL","learning/Slide5.JPG","That was a wug.","",""
"","image-keyboard-response","22","188207","0.0-6.0-0.5","FL","40757xtlgp","1366","768","en","va05er24","null","","","","","","","","learning/Slide6.JPG","null","","","","",""
"","html-keyboard-response","23","189364","0.0-6.0-1.5","FL","40757xtlgp","1366","768","en","va05er24","null","","","","learningBlock1","","","","That was a dep.","null","","","","",""
"","html-keyboard-response","24","190369","0.0-6.0-2.5","FL","40757xtlgp","1366","768","en","va05er24","null","","","","learningBlock1","","","","<div style=""font-size:60px;""> </div>","null","FL","learning/Slide6.JPG","That was a dep.","",""
"","image-keyboard-response","25","190550","0.0-6.0-0.6","FL","40757xtlgp","1366","768","en","va05er24","null","","","","","","","","learning/Slide7.JPG","null","","","","",""
"","html-keyboard-response","26","191708","0.0-6.0-1.6","FL","40757xtlgp","1366","768","en","va05er24","null","","","","learningBlock1","","","","That was a wug.","null","","","","",""
"","html-keyboard-response","27","192717","0.0-6.0-2.6","FL","40757xtlgp","1366","768","en","va05er24","null","","","","learningBlock1","","","","<div style=""font-size:60px;""> </div>","null","FL","learning/Slide7.JPG","That was a wug.","",""
"","image-keyboard-response","28","192900","0.0-6.0-0.7","FL","40757xtlgp","1366","768","en","va05er24","null","","","","","","","","learning/Slide8.JPG","null","","","","",""
"","html-keyboard-response","29","194056","0.0-6.0-1.7","FL","40757xtlgp","1366","768","en","va05er24","null","","","","learningBlock1","","","","That was a bim.","null","","","","",""
"","html-keyboard-response","30","195066","0.0-6.0-2.7","FL","40757xtlgp","1366","768","en","va05er24","null","","","","learningBlock1","","","","<div style=""font-size:60px;""> </div>","null","FL","learning/Slide8.JPG","That was a bim.","",""
"","image-keyboard-response","31","195249","0.0-6.0-0.8","FL","40757xtlgp","1366","768","en","va05er24","null","","","","","","","","learning/Slide9.JPG","null","","","","",""
"","html-keyboard-response","32","196406","0.0-6.0-1.8","FL","40757xtlgp","1366","768","en","va05er24","null","","","","learningBlock1","","","","That was a wug.","null","","","","",""
"","html-keyboard-response","33","197416","0.0-6.0-2.8","FL","40757xtlgp","1366","768","en","va05er24","null","","","","learningBlock1","","","","<div style=""font-size:60px;""> </div>","null","FL","learning/Slide9.JPG","That was a wug.","",""
"","image-keyboard-response","34","197614","0.0-6.0-0.9","FL","40757xtlgp","1366","768","en","va05er24","null","","","","","","","","learning/Slide10.JPG","null","","","","",""
"","html-keyboard-response","35","198771","0.0-6.0-1.9","FL","40757xtlgp","1366","768","en","va05er24","null","","","","learningBlock1","","","","That was a dep.","null","","","","",""
"","html-keyboard-response","36","199778","0.0-6.0-2.9","FL","40757xtlgp","1366","768","en","va05er24","null","","","","learningBlock1","","","","<div style=""font-size:60px;""> </div>","null","FL","learning/Slide10.JPG","That was a dep.","",""
"","image-keyboard-response","37","199961","0.0-6.0-0.10","FL","40757xtlgp","1366","768","en","va05er24","null","","","","","","","","learning/Slide11.JPG","null","","","","",""
"","html-keyboard-response","38","201121","0.0-6.0-1.10","FL","40757xtlgp","1366","768","en","va05er24","null","","","","learningBlock1","","","","That was a tob.","null","","","","",""
"","html-keyboard-response","39","202128","0.0-6.0-2.10","FL","40757xtlgp","1366","768","en","va05er24","null","","","","learningBlock1","","","","<div style=""font-size:60px;""> </div>","null","FL","learning/Slide11.JPG","That was a tob.","",""
"","image-keyboard-response","40","202309","0.0-6.0-0.11","FL","40757xtlgp","1366","768","en","va05er24","null","","","","","","","","learning/Slide12.JPG","null","","","","",""
"","html-keyboard-response","41","203471","0.0-6.0-1.11","FL","40757xtlgp","1366","768","en","va05er24","null","","","","learningBlock1","","","","That was a dep.","null","","","","",""
"","html-keyboard-response","42","204481","0.0-6.0-2.11","FL","40757xtlgp","1366","768","en","va05er24","null","","","","learningBlock1","","","","<div style=""font-size:60px;""> </div>","null","FL","learning/Slide12.JPG","That was a dep.","",""
"","image-keyboard-response","43","204663","0.0-6.0-0.12","FL","40757xtlgp","1366","768","en","va05er24","null","","","","","","","","learning/Slide13.JPG","null","","","","",""
"","html-keyboard-response","44","205821","0.0-6.0-1.12","FL","40757xtlgp","1366","768","en","va05er24","null","","","","learningBlock1","","","","That was a bim.","null","","","","",""
"","html-keyboard-response","45","206828","0.0-6.0-2.12","FL","40757xtlgp","1366","768","en","va05er24","null","","","","learningBlock1","","","","<div style=""font-size:60px;""> </div>","null","FL","learning/Slide13.JPG","That was a bim.","",""
"","image-keyboard-response","46","207011","0.0-6.0-0.13","FL","40757xtlgp","1366","768","en","va05er24","null","","","","","","","","learning/Slide14.JPG","null","","","","",""
"","html-keyboard-response","47","208168","0.0-6.0-1.13","FL","40757xtlgp","1366","768","en","va05er24","null","","","","learningBlock1","","","","That was a wug.","null","","","","",""
"","html-keyboard-response","48","209178","0.0-6.0-2.13","FL","40757xtlgp","1366","768","en","va05er24","null","","","","learningBlock1","","","","<div style=""font-size:60px;""> </div>","null","FL","learning/Slide14.JPG","That was a wug.","",""
"","image-keyboard-response","49","209361","0.0-6.0-0.14","FL","40757xtlgp","1366","768","en","va05er24","null","","","","","","","","learning/Slide15.JPG","null","","","","",""
"","html-keyboard-response","50","210517","0.0-6.0-1.14","FL","40757xtlgp","1366","768","en","va05er24","null","","","","learningBlock1","","","","That was a tob.","null","","","","",""
"","html-keyboard-response","51","211525","0.0-6.0-2.14","FL","40757xtlgp","1366","768","en","va05er24","null","","","","learningBlock1","","","","<div style=""font-size:60px;""> </div>","null","FL","learning/Slide15.JPG","That was a tob.","",""
"","image-keyboard-response","52","211707","0.0-6.0-0.15","FL","40757xtlgp","1366","768","en","va05er24","null","","","","","","","","learning/Slide16.JPG","null","","","","",""
"","html-keyboard-response","53","212865","0.0-6.0-1.15","FL","40757xtlgp","1366","768","en","va05er24","null","","","","learningBlock1","","","","That was a dep.","null","","","","",""
"","html-keyboard-response","54","213872","0.0-6.0-2.15","FL","40757xtlgp","1366","768","en","va05er24","null","","","","learningBlock1","","","","<div style=""font-size:60px;""> </div>","null","FL","learning/Slide16.JPG","That was a dep.","",""
"","image-keyboard-response","55","214050","0.0-6.0-0.16","FL","40757xtlgp","1366","768","en","va05er24","null","","","","","","","","learning/Slide17.JPG","null","","","","",""
"","html-keyboard-response","56","215205","0.0-6.0-1.16","FL","40757xtlgp","1366","768","en","va05er24","null","","","","learningBlock1","","","","That was a bim.","null","","","","",""
"","html-keyboard-response","57","216212","0.0-6.0-2.16","FL","40757xtlgp","1366","768","en","va05er24","null","","","","learningBlock1","","","","<div style=""font-size:60px;""> </div>","null","FL","learning/Slide17.JPG","That was a bim.","",""
"","image-keyboard-response","58","216396","0.0-6.0-0.17","FL","40757xtlgp","1366","768","en","va05er24","null","","","","","","","","learning/Slide18.JPG","null","","","","",""
"","html-keyboard-response","59","217555","0.0-6.0-1.17","FL","40757xtlgp","1366","768","en","va05er24","null","","","","learningBlock1","","","","That was a tob.","null","","","","",""
"","html-keyboard-response","60","218562","0.0-6.0-2.17","FL","40757xtlgp","1366","768","en","va05er24","null","","","","learningBlock1","","","","<div style=""font-size:60px;""> </div>","null","FL","learning/Slide18.JPG","That was a tob.","",""
"","image-keyboard-response","61","218744","0.0-6.0-0.18","FL","40757xtlgp","1366","768","en","va05er24","null","","","","","","","","learning/Slide19.JPG","null","","","","",""
"","html-keyboard-response","62","219902","0.0-6.0-1.18","FL","40757xtlgp","1366","768","en","va05er24","null","","","","learningBlock1","","","","That was a wug.","null","","","","",""
"","html-keyboard-response","63","220911","0.0-6.0-2.18","FL","40757xtlgp","1366","768","en","va05er24","null","","","","learningBlock1","","","","<div style=""font-size:60px;""> </div>","null","FL","learning/Slide19.JPG","That was a wug.","",""
"","image-keyboard-response","64","221094","0.0-6.0-0.19","FL","40757xtlgp","1366","768","en","va05er24","null","","","","","","","","learning/Slide20.JPG","null","","","","",""
"","html-keyboard-response","65","222251","0.0-6.0-1.19","FL","40757xtlgp","1366","768","en","va05er24","null","","","","learningBlock1","","","","That was a bim.","null","","","","",""
"","html-keyboard-response","66","223258","0.0-6.0-2.19","FL","40757xtlgp","1366","768","en","va05er24","null","","","","learningBlock1","","","","<div style=""font-size:60px;""> </div>","null","FL","learning/Slide20.JPG","That was a bim.","",""
"","image-keyboard-response","67","223444","0.0-6.0-0.20","FL","40757xtlgp","1366","768","en","va05er24","null","","","","","","","","learning/Slide21.JPG","null","","","","",""
"","html-keyboard-response","68","224610","0.0-6.0-1.20","FL","40757xtlgp","1366","768","en","va05er24","null","","","","learningBlock1","","","","That was a dep.","null","","","","",""
"","html-keyboard-response","69","225641","0.0-6.0-2.20","FL","40757xtlgp","1366","768","en","va05er24","null","","","","learningBlock1","","","","<div style=""font-size:60px;""> </div>","null","FL","learning/Slide21.JPG","That was a dep.","",""
"","image-keyboard-response","70","225820","0.0-6.0-0.21","FL","40757xtlgp","1366","768","en","va05er24","null","","","","","","","","learning/Slide22.JPG","null","","","","",""
"","html-keyboard-response","71","226977","0.0-6.0-1.21","FL","40757xtlgp","1366","768","en","va05er24","null","","","","learningBlock1","","","","That was a bim.","null","","","","",""
"","html-keyboard-response","72","227986","0.0-6.0-2.21","FL","40757xtlgp","1366","768","en","va05er24","null","","","","learningBlock1","","","","<div style=""font-size:60px;""> </div>","null","FL","learning/Slide22.JPG","That was a bim.","",""
"","image-keyboard-response","73","228168","0.0-6.0-0.22","FL","40757xtlgp","1366","768","en","va05er24","null","","","","","","","","learning/Slide23.JPG","null","","","","",""
"","html-keyboard-response","74","229324","0.0-6.0-1.22","FL","40757xtlgp","1366","768","en","va05er24","null","","","","learningBlock1","","","","That was a tob.","null","","","","",""
"","html-keyboard-response","75","230333","0.0-6.0-2.22","FL","40757xtlgp","1366","768","en","va05er24","null","","","","learningBlock1","","","","<div style=""font-size:60px;""> </div>","null","FL","learning/Slide23.JPG","That was a tob.","",""
"","image-keyboard-response","76","230517","0.0-6.0-0.23","FL","40757xtlgp","1366","768","en","va05er24","null","","","","","","","","learning/Slide24.JPG","null","","","","",""
"","html-keyboard-response","77","231672","0.0-6.0-1.23","FL","40757xtlgp","1366","768","en","va05er24","null","","","","learningBlock1","","","","That was a wug.","null","","","","",""
"","html-keyboard-response","78","232679","0.0-6.0-2.23","FL","40757xtlgp","1366","768","en","va05er24","null","","","","learningBlock1","","","","<div style=""font-size:60px;""> </div>","null","FL","learning/Slide24.JPG","That was a wug.","",""
"","image-keyboard-response","79","232863","0.0-6.0-0.24","FL","40757xtlgp","1366","768","en","va05er24","null","","","","","","","","learning/Slide25.JPG","null","","","","",""
"","html-keyboard-response","80","234019","0.0-6.0-1.24","FL","40757xtlgp","1366","768","en","va05er24","null","","","","learningBlock1","","","","That was a dep.","null","","","","",""
"","html-keyboard-response","81","235025","0.0-6.0-2.24","FL","40757xtlgp","1366","768","en","va05er24","null","","","","learningBlock1","","","","<div style=""font-size:60px;""> </div>","null","FL","learning/Slide25.JPG","That was a dep.","",""
"","image-keyboard-response","82","235207","0.0-6.0-0.25","FL","40757xtlgp","1366","768","en","va05er24","null","","","","","","","","learning/Slide26.JPG","null","","","","",""
"","html-keyboard-response","83","236364","0.0-6.0-1.25","FL","40757xtlgp","1366","768","en","va05er24","null","","","","learningBlock1","","","","That was a wug.","null","","","","",""
"","html-keyboard-response","84","237374","0.0-6.0-2.25","FL","40757xtlgp","1366","768","en","va05er24","null","","","","learningBlock1","","","","<div style=""font-size:60px;""> </div>","null","FL","learning/Slide26.JPG","That was a wug.","",""
"","image-keyboard-response","85","237557","0.0-6.0-0.26","FL","40757xtlgp","1366","768","en","va05er24","null","","","","","","","","learning/Slide27.JPG","null","","","","",""
"","html-keyboard-response","86","238714","0.0-6.0-1.26","FL","40757xtlgp","1366","768","en","va05er24","null","","","","learningBlock1","","","","That was a bim.","null","","","","",""
"","html-keyboard-response","87","239721","0.0-6.0-2.26","FL","40757xtlgp","1366","768","en","va05er24","null","","","","learningBlock1","","","","<div style=""font-size:60px;""> </div>","null","FL","learning/Slide27.JPG","That was a bim.","",""
"","image-keyboard-response","88","239904","0.0-6.0-0.27","FL","40757xtlgp","1366","768","en","va05er24","null","","","","","","","","learning/Slide28.JPG","null","","","","",""
"","html-keyboard-response","89","241061","0.0-6.0-1.27","FL","40757xtlgp","1366","768","en","va05er24","null","","","","learningBlock1","","","","That was a dep.","null","","","","",""
"","html-keyboard-response","90","242070","0.0-6.0-2.27","FL","40757xtlgp","1366","768","en","va05er24","null","","","","learningBlock1","","","","<div style=""font-size:60px;""> </div>","null","FL","learning/Slide28.JPG","That was a dep.","",""
"","image-keyboard-response","91","242256","0.0-6.0-0.28","FL","40757xtlgp","1366","768","en","va05er24","null","","","","","","","","learning/Slide29.JPG","null","","","","",""
"","html-keyboard-response","92","243414","0.0-6.0-1.28","FL","40757xtlgp","1366","768","en","va05er24","null","","","","learningBlock1","","","","That was a tob.","null","","","","",""
"","html-keyboard-response","93","244421","0.0-6.0-2.28","FL","40757xtlgp","1366","768","en","va05er24","null","","","","learningBlock1","","","","<div style=""font-size:60px;""> </div>","null","FL","learning/Slide29.JPG","That was a tob.","",""
"","image-keyboard-response","94","244604","0.0-6.0-0.29","FL","40757xtlgp","1366","768","en","va05er24","null","","","","","","","","learning/Slide30.JPG","null","","","","",""
"","html-keyboard-response","95","245771","0.0-6.0-1.29","FL","40757xtlgp","1366","768","en","va05er24","null","","","","learningBlock1","","","","That was a dep.","null","","","","",""
"","html-keyboard-response","96","246779","0.0-6.0-2.29","FL","40757xtlgp","1366","768","en","va05er24","null","","","","learningBlock1","","","","<div style=""font-size:60px;""> </div>","null","FL","learning/Slide30.JPG","That was a dep.","",""
"","image-keyboard-response","97","246969","0.0-6.0-0.30","FL","40757xtlgp","1366","768","en","va05er24","null","","","","","","","","learning/Slide31.JPG","null","","","","",""
"","html-keyboard-response","98","248128","0.0-6.0-1.30","FL","40757xtlgp","1366","768","en","va05er24","null","","","","learningBlock1","","","","That was a wug.","null","","","","",""
"","html-keyboard-response","99","249136","0.0-6.0-2.30","FL","40757xtlgp","1366","768","en","va05er24","null","","","","learningBlock1","","","","<div style=""font-size:60px;""> </div>","null","FL","learning/Slide31.JPG","That was a wug.","",""
"","image-keyboard-response","100","249318","0.0-6.0-0.31","FL","40757xtlgp","1366","768","en","va05er24","null","","","","","","","","learning/Slide32.JPG","null","","","","",""
"","html-keyboard-response","101","250475","0.0-6.0-1.31","FL","40757xtlgp","1366","768","en","va05er24","null","","","","learningBlock1","","","","That was a tob.","null","","","","",""
"","html-keyboard-response","102","251481","0.0-6.0-2.31","FL","40757xtlgp","1366","768","en","va05er24","null","","","","learningBlock1","","","","<div style=""font-size:60px;""> </div>","null","FL","learning/Slide32.JPG","That was a tob.","",""
"","image-keyboard-response","103","251664","0.0-6.0-0.32","FL","40757xtlgp","1366","768","en","va05er24","null","","","","","","","","learning/Slide33.JPG","null","","","","",""
"","html-keyboard-response","104","252820","0.0-6.0-1.32","FL","40757xtlgp","1366","768","en","va05er24","null","","","","learningBlock1","","","","That was a bim.","null","","","","",""
"","html-keyboard-response","105","253826","0.0-6.0-2.32","FL","40757xtlgp","1366","768","en","va05er24","null","","","","learningBlock1","","","","<div style=""font-size:60px;""> </div>","null","FL","learning/Slide33.JPG","That was a bim.","",""
"","image-keyboard-response","106","254010","0.0-6.0-0.33","FL","40757xtlgp","1366","768","en","va05er24","null","","","","","","","","learning/Slide34.JPG","null","","","","",""
"","html-keyboard-response","107","255168","0.0-6.0-1.33","FL","40757xtlgp","1366","768","en","va05er24","null","","","","learningBlock1","","","","That was a tob.","null","","","","",""
"","html-keyboard-response","108","256180","0.0-6.0-2.33","FL","40757xtlgp","1366","768","en","va05er24","null","","","","learningBlock1","","","","<div style=""font-size:60px;""> </div>","null","FL","learning/Slide34.JPG","That was a tob.","",""
"","image-keyboard-response","109","256360","0.0-6.0-0.34","FL","40757xtlgp","1366","768","en","va05er24","null","","","","","","","","learning/Slide35.JPG","null","","","","",""
"","html-keyboard-response","110","257517","0.0-6.0-1.34","FL","40757xtlgp","1366","768","en","va05er24","null","","","","learningBlock1","","","","That was a bim.","null","","","","",""
"","html-keyboard-response","111","258523","0.0-6.0-2.34","FL","40757xtlgp","1366","768","en","va05er24","null","","","","learningBlock1","","","","<div style=""font-size:60px;""> </div>","null","FL","learning/Slide35.JPG","That was a bim.","",""
"","image-keyboard-response","112","258712","0.0-6.0-0.35","FL","40757xtlgp","1366","768","en","va05er24","null","","","","","","","","learning/Slide36.JPG","null","","","","",""
"","html-keyboard-response","113","259869","0.0-6.0-1.35","FL","40757xtlgp","1366","768","en","va05er24","null","","","","learningBlock1","","","","That was a dep.","null","","","","",""
"","html-keyboard-response","114","260880","0.0-6.0-2.35","FL","40757xtlgp","1366","768","en","va05er24","null","","","","learningBlock1","","","","<div style=""font-size:60px;""> </div>","null","FL","learning/Slide36.JPG","That was a dep.","",""
"","image-keyboard-response","115","261061","0.0-6.0-0.36","FL","40757xtlgp","1366","768","en","va05er24","null","","","","","","","","learning/Slide37.JPG","null","","","","",""
"","html-keyboard-response","116","262219","0.0-6.0-1.36","FL","40757xtlgp","1366","768","en","va05er24","null","","","","learningBlock1","","","","That was a tob.","null","","","","",""
"","html-keyboard-response","117","263228","0.0-6.0-2.36","FL","40757xtlgp","1366","768","en","va05er24","null","","","","learningBlock1","","","","<div style=""font-size:60px;""> </div>","null","FL","learning/Slide37.JPG","That was a tob.","",""
"","image-keyboard-response","118","263411","0.0-6.0-0.37","FL","40757xtlgp","1366","768","en","va05er24","null","","","","","","","","learning/Slide38.JPG","null","","","","",""
"","html-keyboard-response","119","264567","0.0-6.0-1.37","FL","40757xtlgp","1366","768","en","va05er24","null","","","","learningBlock1","","","","That was a wug.","null","","","","",""
"","html-keyboard-response","120","265575","0.0-6.0-2.37","FL","40757xtlgp","1366","768","en","va05er24","null","","","","learningBlock1","","","","<div style=""font-size:60px;""> </div>","null","FL","learning/Slide38.JPG","That was a wug.","",""
"","image-keyboard-response","121","265757","0.0-6.0-0.38","FL","40757xtlgp","1366","768","en","va05er24","null","","","","","","","","learning/Slide39.JPG","null","","","","",""
"","html-keyboard-response","122","266914","0.0-6.0-1.38","FL","40757xtlgp","1366","768","en","va05er24","null","","","","learningBlock1","","","","That was a bim.","null","","","","",""
"","html-keyboard-response","123","267920","0.0-6.0-2.38","FL","40757xtlgp","1366","768","en","va05er24","null","","","","learningBlock1","","","","<div style=""font-size:60px;""> </div>","null","FL","learning/Slide39.JPG","That was a bim.","",""
"","image-keyboard-response","124","268103","0.0-6.0-0.39","FL","40757xtlgp","1366","768","en","va05er24","null","","","","","","","","learning/Slide40.JPG","null","","","","",""
"","html-keyboard-response","125","269259","0.0-6.0-1.39","FL","40757xtlgp","1366","768","en","va05er24","null","","","","learningBlock1","","","","That was a tob.","null","","","","",""
"","html-keyboard-response","126","270266","0.0-6.0-2.39","FL","40757xtlgp","1366","768","en","va05er24","null","","","","learningBlock1","","","","<div style=""font-size:60px;""> </div>","null","FL","learning/Slide40.JPG","That was a tob.","",""
"","image-keyboard-response","127","270447","0.0-6.0-0.40","FL","40757xtlgp","1366","768","en","va05er24","null","","","","","","","","learning/Slide41.JPG","null","","","","",""
"","html-keyboard-response","128","271604","0.0-6.0-1.40","FL","40757xtlgp","1366","768","en","va05er24","null","","","","learningBlock1","","","","That was a bim.","null","","","","",""
"","html-keyboard-response","129","272610","0.0-6.0-2.40","FL","40757xtlgp","1366","768","en","va05er24","null","","","","learningBlock1","","","","<div style=""font-size:60px;""> </div>","null","FL","learning/Slide41.JPG","That was a bim.","",""
"","image-keyboard-response","130","272794","0.0-6.0-0.41","FL","40757xtlgp","1366","768","en","va05er24","null","","","","","","","","learning/Slide42.JPG","null","","","","",""
"","html-keyboard-response","131","273965","0.0-6.0-1.41","FL","40757xtlgp","1366","768","en","va05er24","null","","","","learningBlock1","","","","That was a dep.","null","","","","",""
"","html-keyboard-response","132","274971","0.0-6.0-2.41","FL","40757xtlgp","1366","768","en","va05er24","null","","","","learningBlock1","","","","<div style=""font-size:60px;""> </div>","null","FL","learning/Slide42.JPG","That was a dep.","",""
"","image-keyboard-response","133","275154","0.0-6.0-0.42","FL","40757xtlgp","1366","768","en","va05er24","null","","","","","","","","learning/Slide43.JPG","null","","","","",""
"","html-keyboard-response","134","276309","0.0-6.0-1.42","FL","40757xtlgp","1366","768","en","va05er24","null","","","","learningBlock1","","","","That was a wug.","null","","","","",""
"","html-keyboard-response","135","277316","0.0-6.0-2.42","FL","40757xtlgp","1366","768","en","va05er24","null","","","","learningBlock1","","","","<div style=""font-size:60px;""> </div>","null","FL","learning/Slide43.JPG","That was a wug.","",""
"","image-keyboard-response","136","277499","0.0-6.0-0.43","FL","40757xtlgp","1366","768","en","va05er24","null","","","","","","","","learning/Slide44.JPG","null","","","","",""
"","html-keyboard-response","137","278664","0.0-6.0-1.43","FL","40757xtlgp","1366","768","en","va05er24","null","","","","learningBlock1","","","","That was a bim.","null","","","","",""
"","html-keyboard-response","138","279674","0.0-6.0-2.43","FL","40757xtlgp","1366","768","en","va05er24","null","","","","learningBlock1","","","","<div style=""font-size:60px;""> </div>","null","FL","learning/Slide44.JPG","That was a bim.","",""
"","image-keyboard-response","139","279859","0.0-6.0-0.44","FL","40757xtlgp","1366","768","en","va05er24","null","","","","","","","","learning/Slide45.JPG","null","","","","",""
"","html-keyboard-response","140","281014","0.0-6.0-1.44","FL","40757xtlgp","1366","768","en","va05er24","null","","","","learningBlock1","","","","That was a wug.","null","","","","",""
"","html-keyboard-response","141","282024","0.0-6.0-2.44","FL","40757xtlgp","1366","768","en","va05er24","null","","","","learningBlock1","","","","<div style=""font-size:60px;""> </div>","null","FL","learning/Slide45.JPG","That was a wug.","",""
"","image-keyboard-response","142","282208","0.0-6.0-0.45","FL","40757xtlgp","1366","768","en","va05er24","null","","","","","","","","learning/Slide46.JPG","null","","","","",""
"","html-keyboard-response","143","283364","0.0-6.0-1.45","FL","40757xtlgp","1366","768","en","va05er24","null","","","","learningBlock1","","","","That was a dep.","null","","","","",""
"","html-keyboard-response","144","284370","0.0-6.0-2.45","FL","40757xtlgp","1366","768","en","va05er24","null","","","","learningBlock1","","","","<div style=""font-size:60px;""> </div>","null","FL","learning/Slide46.JPG","That was a dep.","",""
"","image-keyboard-response","145","284554","0.0-6.0-0.46","FL","40757xtlgp","1366","768","en","va05er24","null","","","","","","","","learning/Slide47.JPG","null","","","","",""
"","html-keyboard-response","146","285711","0.0-6.0-1.46","FL","40757xtlgp","1366","768","en","va05er24","null","","","","learningBlock1","","","","That was a tob.","null","","","","",""
"","html-keyboard-response","147","286723","0.0-6.0-2.46","FL","40757xtlgp","1366","768","en","va05er24","null","","","","learningBlock1","","","","<div style=""font-size:60px;""> </div>","null","FL","learning/Slide47.JPG","That was a tob.","",""
"","image-keyboard-response","148","286906","0.0-6.0-0.47","FL","40757xtlgp","1366","768","en","va05er24","null","","","","","","","","learning/Slide48.JPG","null","","","","",""
"","html-keyboard-response","149","288061","0.0-6.0-1.47","FL","40757xtlgp","1366","768","en","va05er24","null","","","","learningBlock1","","","","That was a bim.","null","","","","",""
"","html-keyboard-response","150","289077","0.0-6.0-2.47","FL","40757xtlgp","1366","768","en","va05er24","null","","","","learningBlock1","","","","<div style=""font-size:60px;""> </div>","null","FL","learning/Slide48.JPG","That was a bim.","",""
"","image-keyboard-response","151","289270","0.0-6.0-0.48","FL","40757xtlgp","1366","768","en","va05er24","null","","","","","","","","learning/Slide49.JPG","null","","","","",""
"","html-keyboard-response","152","290426","0.0-6.0-1.48","FL","40757xtlgp","1366","768","en","va05er24","null","","","","learningBlock1","","","","That was a dep.","null","","","","",""
"","html-keyboard-response","153","291435","0.0-6.0-2.48","FL","40757xtlgp","1366","768","en","va05er24","null","","","","learningBlock1","","","","<div style=""font-size:60px;""> </div>","null","FL","learning/Slide49.JPG","That was a dep.","",""
"","image-keyboard-response","154","291617","0.0-6.0-0.49","FL","40757xtlgp","1366","768","en","va05er24","null","","","","","","","","learning/Slide50.JPG","null","","","","",""
"","html-keyboard-response","155","292775","0.0-6.0-1.49","FL","40757xtlgp","1366","768","en","va05er24","null","","","","learningBlock1","","","","That was a tob.","null","","","","",""
"","html-keyboard-response","156","293784","0.0-6.0-2.49","FL","40757xtlgp","1366","768","en","va05er24","null","","","","learningBlock1","","","","<div style=""font-size:60px;""> </div>","null","FL","learning/Slide50.JPG","That was a tob.","",""
"","image-keyboard-response","157","293973","0.0-6.0-0.50","FL","40757xtlgp","1366","768","en","va05er24","null","","","","","","","","learning/Slide51.JPG","null","","","","",""
"","html-keyboard-response","158","295128","0.0-6.0-1.50","FL","40757xtlgp","1366","768","en","va05er24","null","","","","learningBlock1","","","","That was a bim.","null","","","","",""
"","html-keyboard-response","159","296135","0.0-6.0-2.50","FL","40757xtlgp","1366","768","en","va05er24","null","","","","learningBlock1","","","","<div style=""font-size:60px;""> </div>","null","FL","learning/Slide51.JPG","That was a bim.","",""
"","image-keyboard-response","160","296318","0.0-6.0-0.51","FL","40757xtlgp","1366","768","en","va05er24","null","","","","","","","","learning/Slide52.JPG","null","","","","",""
"","html-keyboard-response","161","297474","0.0-6.0-1.51","FL","40757xtlgp","1366","768","en","va05er24","null","","","","learningBlock1","","","","That was a wug.","null","","","","",""
"","html-keyboard-response","162","298485","0.0-6.0-2.51","FL","40757xtlgp","1366","768","en","va05er24","null","","","","learningBlock1","","","","<div style=""font-size:60px;""> </div>","null","FL","learning/Slide52.JPG","That was a wug.","",""
"","image-keyboard-response","163","298667","0.0-6.0-0.52","FL","40757xtlgp","1366","768","en","va05er24","null","","","","","","","","learning/Slide53.JPG","null","","","","",""
"","html-keyboard-response","164","299824","0.0-6.0-1.52","FL","40757xtlgp","1366","768","en","va05er24","null","","","","learningBlock1","","","","That was a tob.","null","","","","",""
"","html-keyboard-response","165","300830","0.0-6.0-2.52","FL","40757xtlgp","1366","768","en","va05er24","null","","","","learningBlock1","","","","<div style=""font-size:60px;""> </div>","null","FL","learning/Slide53.JPG","That was a tob.","",""
"","image-keyboard-response","166","301020","0.0-6.0-0.53","FL","40757xtlgp","1366","768","en","va05er24","null","","","","","","","","learning/Slide54.JPG","null","","","","",""
"","html-keyboard-response","167","302178","0.0-6.0-1.53","FL","40757xtlgp","1366","768","en","va05er24","null","","","","learningBlock1","","","","That was a dep.","null","","","","",""
"","html-keyboard-response","168","303184","0.0-6.0-2.53","FL","40757xtlgp","1366","768","en","va05er24","null","","","","learningBlock1","","","","<div style=""font-size:60px;""> </div>","null","FL","learning/Slide54.JPG","That was a dep.","",""
"","image-keyboard-response","169","303367","0.0-6.0-0.54","FL","40757xtlgp","1366","768","en","va05er24","null","","","","","","","","learning/Slide55.JPG","null","","","","",""
"","html-keyboard-response","170","304524","0.0-6.0-1.54","FL","40757xtlgp","1366","768","en","va05er24","null","","","","learningBlock1","","","","That was a bim.","null","","","","",""
"","html-keyboard-response","171","305530","0.0-6.0-2.54","FL","40757xtlgp","1366","768","en","va05er24","null","","","","learningBlock1","","","","<div style=""font-size:60px;""> </div>","null","FL","learning/Slide55.JPG","That was a bim.","",""
"","image-keyboard-response","172","305714","0.0-6.0-0.55","FL","40757xtlgp","1366","768","en","va05er24","null","","","","","","","","learning/Slide56.JPG","null","","","","",""
"","html-keyboard-response","173","306869","0.0-6.0-1.55","FL","40757xtlgp","1366","768","en","va05er24","null","","","","learningBlock1","","","","That was a tob.","null","","","","",""
"","html-keyboard-response","174","307879","0.0-6.0-2.55","FL","40757xtlgp","1366","768","en","va05er24","null","","","","learningBlock1","","","","<div style=""font-size:60px;""> </div>","null","FL","learning/Slide56.JPG","That was a tob.","",""
"","image-keyboard-response","175","308072","0.0-6.0-0.56","FL","40757xtlgp","1366","768","en","va05er24","null","","","","","","","","learning/Slide57.JPG","null","","","","",""
"","html-keyboard-response","176","309227","0.0-6.0-1.56","FL","40757xtlgp","1366","768","en","va05er24","null","","","","learningBlock1","","","","That was a dep.","null","","","","",""
"","html-keyboard-response","177","310242","0.0-6.0-2.56","FL","40757xtlgp","1366","768","en","va05er24","null","","","","learningBlock1","","","","<div style=""font-size:60px;""> </div>","null","FL","learning/Slide57.JPG","That was a dep.","",""
"","image-keyboard-response","178","310426","0.0-6.0-0.57","FL","40757xtlgp","1366","768","en","va05er24","null","","","","","","","","learning/Slide58.JPG","null","","","","",""
"","html-keyboard-response","179","311582","0.0-6.0-1.57","FL","40757xtlgp","1366","768","en","va05er24","null","","","","learningBlock1","","","","That was a wug.","null","","","","",""
"","html-keyboard-response","180","312589","0.0-6.0-2.57","FL","40757xtlgp","1366","768","en","va05er24","null","","","","learningBlock1","","","","<div style=""font-size:60px;""> </div>","null","FL","learning/Slide58.JPG","That was a wug.","",""
"","image-keyboard-response","181","312773","0.0-6.0-0.58","FL","40757xtlgp","1366","768","en","va05er24","null","","","","","","","","learning/Slide59.JPG","null","","","","",""
"","html-keyboard-response","182","313929","0.0-6.0-1.58","FL","40757xtlgp","1366","768","en","va05er24","null","","","","learningBlock1","","","","That was a dep.","null","","","","",""
"","html-keyboard-response","183","314937","0.0-6.0-2.58","FL","40757xtlgp","1366","768","en","va05er24","null","","","","learningBlock1","","","","<div style=""font-size:60px;""> </div>","null","FL","learning/Slide59.JPG","That was a dep.","",""
"","image-keyboard-response","184","315119","0.0-6.0-0.59","FL","40757xtlgp","1366","768","en","va05er24","null","","","","","","","","learning/Slide60.JPG","null","","","","",""
"","html-keyboard-response","185","316275","0.0-6.0-1.59","FL","40757xtlgp","1366","768","en","va05er24","null","","","","learningBlock1","","","","That was a wug.","null","","","","",""
"","html-keyboard-response","186","317281","0.0-6.0-2.59","FL","40757xtlgp","1366","768","en","va05er24","null","","","","learningBlock1","","","","<div style=""font-size:60px;""> </div>","null","FL","learning/Slide60.JPG","That was a wug.","",""
"","image-keyboard-response","187","317464","0.0-6.0-0.60","FL","40757xtlgp","1366","768","en","va05er24","null","","","","","","","","learning/Slide61.JPG","null","","","","",""
"","html-keyboard-response","188","318621","0.0-6.0-1.60","FL","40757xtlgp","1366","768","en","va05er24","null","","","","learningBlock1","","","","That was a bim.","null","","","","",""
"","html-keyboard-response","189","319630","0.0-6.0-2.60","FL","40757xtlgp","1366","768","en","va05er24","null","","","","learningBlock1","","","","<div style=""font-size:60px;""> </div>","null","FL","learning/Slide61.JPG","That was a bim.","",""
"","image-keyboard-response","190","319812","0.0-6.0-0.61","FL","40757xtlgp","1366","768","en","va05er24","null","","","","","","","","learning/Slide62.JPG","null","","","","",""
"","html-keyboard-response","191","320968","0.0-6.0-1.61","FL","40757xtlgp","1366","768","en","va05er24","null","","","","learningBlock1","","","","That was a dep.","null","","","","",""
"","html-keyboard-response","192","321975","0.0-6.0-2.61","FL","40757xtlgp","1366","768","en","va05er24","null","","","","learningBlock1","","","","<div style=""font-size:60px;""> </div>","null","FL","learning/Slide62.JPG","That was a dep.","",""
"","image-keyboard-response","193","322157","0.0-6.0-0.62","FL","40757xtlgp","1366","768","en","va05er24","null","","","","","","","","learning/Slide63.JPG","null","","","","",""
"","html-keyboard-response","194","323320","0.0-6.0-1.62","FL","40757xtlgp","1366","768","en","va05er24","null","","","","learningBlock1","","","","That was a bim.","null","","","","",""
"","html-keyboard-response","195","324328","0.0-6.0-2.62","FL","40757xtlgp","1366","768","en","va05er24","null","","","","learningBlock1","","","","<div style=""font-size:60px;""> </div>","null","FL","learning/Slide63.JPG","That was a bim.","",""
"","image-keyboard-response","196","324515","0.0-6.0-0.63","FL","40757xtlgp","1366","768","en","va05er24","null","","","","","","","","learning/Slide64.JPG","null","","","","",""
"","html-keyboard-response","197","325671","0.0-6.0-1.63","FL","40757xtlgp","1366","768","en","va05er24","null","","","","learningBlock1","","","","That was a tob.","null","","","","",""
"","html-keyboard-response","198","326680","0.0-6.0-2.63","FL","40757xtlgp","1366","768","en","va05er24","null","","","","learningBlock1","","","","<div style=""font-size:60px;""> </div>","null","FL","learning/Slide64.JPG","That was a tob.","",""
"","image-keyboard-response","199","326863","0.0-6.0-0.64","FL","40757xtlgp","1366","768","en","va05er24","null","","","","","","","","learning/Slide65.JPG","null","","","","",""
"","html-keyboard-response","200","328021","0.0-6.0-1.64","FL","40757xtlgp","1366","768","en","va05er24","null","","","","learningBlock1","","","","That was a wug.","null","","","","",""
"","html-keyboard-response","201","329027","0.0-6.0-2.64","FL","40757xtlgp","1366","768","en","va05er24","null","","","","learningBlock1","","","","<div style=""font-size:60px;""> </div>","null","FL","learning/Slide65.JPG","That was a wug.","",""
"","image-keyboard-response","202","329209","0.0-6.0-0.65","FL","40757xtlgp","1366","768","en","va05er24","null","","","","","","","","learning/Slide66.JPG","null","","","","",""
"","html-keyboard-response","203","330379","0.0-6.0-1.65","FL","40757xtlgp","1366","768","en","va05er24","null","","","","learningBlock1","","","","That was a dep.","null","","","","",""
"","html-keyboard-response","204","331388","0.0-6.0-2.65","FL","40757xtlgp","1366","768","en","va05er24","null","","","","learningBlock1","","","","<div style=""font-size:60px;""> </div>","null","FL","learning/Slide66.JPG","That was a dep.","",""
"","image-keyboard-response","205","331571","0.0-6.0-0.66","FL","40757xtlgp","1366","768","en","va05er24","null","","","","","","","","learning/Slide67.JPG","null","","","","",""
"","html-keyboard-response","206","332727","0.0-6.0-1.66","FL","40757xtlgp","1366","768","en","va05er24","null","","","","learningBlock1","","","","That was a tob.","null","","","","",""
"","html-keyboard-response","207","333732","0.0-6.0-2.66","FL","40757xtlgp","1366","768","en","va05er24","null","","","","learningBlock1","","","","<div style=""font-size:60px;""> </div>","null","FL","learning/Slide67.JPG","That was a tob.","",""
"","image-keyboard-response","208","333911","0.0-6.0-0.67","FL","40757xtlgp","1366","768","en","va05er24","null","","","","","","","","learning/Slide68.JPG","null","","","","",""
"","html-keyboard-response","209","335067","0.0-6.0-1.67","FL","40757xtlgp","1366","768","en","va05er24","null","","","","learningBlock1","","","","That was a wug.","null","","","","",""
"","html-keyboard-response","210","336077","0.0-6.0-2.67","FL","40757xtlgp","1366","768","en","va05er24","null","","","","learningBlock1","","","","<div style=""font-size:60px;""> </div>","null","FL","learning/Slide68.JPG","That was a wug.","",""
"","image-keyboard-response","211","336259","0.0-6.0-0.68","FL","40757xtlgp","1366","768","en","va05er24","null","","","","","","","","learning/Slide69.JPG","null","","","","",""
"","html-keyboard-response","212","337416","0.0-6.0-1.68","FL","40757xtlgp","1366","768","en","va05er24","null","","","","learningBlock1","","","","That was a tob.","null","","","","",""
"","html-keyboard-response","213","338427","0.0-6.0-2.68","FL","40757xtlgp","1366","768","en","va05er24","null","","","","learningBlock1","","","","<div style=""font-size:60px;""> </div>","null","FL","learning/Slide69.JPG","That was a tob.","",""
"","image-keyboard-response","214","338609","0.0-6.0-0.69","FL","40757xtlgp","1366","768","en","va05er24","null","","","","","","","","learning/Slide70.JPG","null","","","","",""
"","html-keyboard-response","215","339766","0.0-6.0-1.69","FL","40757xtlgp","1366","768","en","va05er24","null","","","","learningBlock1","","","","That was a dep.","null","","","","",""
"","html-keyboard-response","216","340771","0.0-6.0-2.69","FL","40757xtlgp","1366","768","en","va05er24","null","","","","learningBlock1","","","","<div style=""font-size:60px;""> </div>","null","FL","learning/Slide70.JPG","That was a dep.","",""
"","image-keyboard-response","217","340955","0.0-6.0-0.70","FL","40757xtlgp","1366","768","en","va05er24","null","","","","","","","","learning/Slide71.JPG","null","","","","",""
"","html-keyboard-response","218","342116","0.0-6.0-1.70","FL","40757xtlgp","1366","768","en","va05er24","null","","","","learningBlock1","","","","That was a wug.","null","","","","",""
"","html-keyboard-response","219","343124","0.0-6.0-2.70","FL","40757xtlgp","1366","768","en","va05er24","null","","","","learningBlock1","","","","<div style=""font-size:60px;""> </div>","null","FL","learning/Slide71.JPG","That was a wug.","",""
"","image-keyboard-response","220","343306","0.0-6.0-0.71","FL","40757xtlgp","1366","768","en","va05er24","null","","","","","","","","learning/Slide72.JPG","null","","","","",""
"","html-keyboard-response","221","344461","0.0-6.0-1.71","FL","40757xtlgp","1366","768","en","va05er24","null","","","","learningBlock1","","","","That was a bim.","null","","","","",""
"","html-keyboard-response","222","345466","0.0-6.0-2.71","FL","40757xtlgp","1366","768","en","va05er24","null","","","","learningBlock1","","","","<div style=""font-size:60px;""> </div>","null","FL","learning/Slide72.JPG","That was a bim.","",""
"","image-keyboard-response","223","345648","0.0-6.0-0.72","FL","40757xtlgp","1366","768","en","va05er24","null","","","","","","","","learning/Slide73.JPG","null","","","","",""
"","html-keyboard-response","224","346806","0.0-6.0-1.72","FL","40757xtlgp","1366","768","en","va05er24","null","","","","learningBlock1","","","","That was a wug.","null","","","","",""
"","html-keyboard-response","225","347812","0.0-6.0-2.72","FL","40757xtlgp","1366","768","en","va05er24","null","","","","learningBlock1","","","","<div style=""font-size:60px;""> </div>","null","FL","learning/Slide73.JPG","That was a wug.","",""
"","image-keyboard-response","226","347996","0.0-6.0-0.73","FL","40757xtlgp","1366","768","en","va05er24","null","","","","","","","","learning/Slide74.JPG","null","","","","",""
"","html-keyboard-response","227","349151","0.0-6.0-1.73","FL","40757xtlgp","1366","768","en","va05er24","null","","","","learningBlock1","","","","That was a dep.","null","","","","",""
"","html-keyboard-response","228","350160","0.0-6.0-2.73","FL","40757xtlgp","1366","768","en","va05er24","null","","","","learningBlock1","","","","<div style=""font-size:60px;""> </div>","null","FL","learning/Slide74.JPG","That was a dep.","",""
"","image-keyboard-response","229","350344","0.0-6.0-0.74","FL","40757xtlgp","1366","768","en","va05er24","null","","","","","","","","learning/Slide75.JPG","null","","","","",""
"","html-keyboard-response","230","351499","0.0-6.0-1.74","FL","40757xtlgp","1366","768","en","va05er24","null","","","","learningBlock1","","","","That was a tob.","null","","","","",""
"","html-keyboard-response","231","352509","0.0-6.0-2.74","FL","40757xtlgp","1366","768","en","va05er24","null","","","","learningBlock1","","","","<div style=""font-size:60px;""> </div>","null","FL","learning/Slide75.JPG","That was a tob.","",""
"","image-keyboard-response","232","352691","0.0-6.0-0.75","FL","40757xtlgp","1366","768","en","va05er24","null","","","","","","","","learning/Slide76.JPG","null","","","","",""
"","html-keyboard-response","233","353847","0.0-6.0-1.75","FL","40757xtlgp","1366","768","en","va05er24","null","","","","learningBlock1","","","","That was a bim.","null","","","","",""
"","html-keyboard-response","234","354854","0.0-6.0-2.75","FL","40757xtlgp","1366","768","en","va05er24","null","","","","learningBlock1","","","","<div style=""font-size:60px;""> </div>","null","FL","learning/Slide76.JPG","That was a bim.","",""
"","image-keyboard-response","235","355036","0.0-6.0-0.76","FL","40757xtlgp","1366","768","en","va05er24","null","","","","","","","","learning/Slide77.JPG","null","","","","",""
"","html-keyboard-response","236","356192","0.0-6.0-1.76","FL","40757xtlgp","1366","768","en","va05er24","null","","","","learningBlock1","","","","That was a tob.","null","","","","",""
"","html-keyboard-response","237","357199","0.0-6.0-2.76","FL","40757xtlgp","1366","768","en","va05er24","null","","","","learningBlock1","","","","<div style=""font-size:60px;""> </div>","null","FL","learning/Slide77.JPG","That was a tob.","",""
"","image-keyboard-response","238","357382","0.0-6.0-0.77","FL","40757xtlgp","1366","768","en","va05er24","null","","","","","","","","learning/Slide78.JPG","null","","","","",""
"","html-keyboard-response","239","358538","0.0-6.0-1.77","FL","40757xtlgp","1366","768","en","va05er24","null","","","","learningBlock1","","","","That was a wug.","null","","","","",""
"","html-keyboard-response","240","359559","0.0-6.0-2.77","FL","40757xtlgp","1366","768","en","va05er24","null","","","","learningBlock1","","","","<div style=""font-size:60px;""> </div>","null","FL","learning/Slide78.JPG","That was a wug.","",""
"","image-keyboard-response","241","359759","0.0-6.0-0.78","FL","40757xtlgp","1366","768","en","va05er24","null","","","","","","","","learning/Slide79.JPG","null","","","","",""
"","html-keyboard-response","242","360929","0.0-6.0-1.78","FL","40757xtlgp","1366","768","en","va05er24","null","","","","learningBlock1","","","","That was a bim.","null","","","","",""
"","html-keyboard-response","243","361936","0.0-6.0-2.78","FL","40757xtlgp","1366","768","en","va05er24","null","","","","learningBlock1","","","","<div style=""font-size:60px;""> </div>","null","FL","learning/Slide79.JPG","That was a bim.","",""
"","image-keyboard-response","244","362116","0.0-6.0-0.79","FL","40757xtlgp","1366","768","en","va05er24","null","","","","","","","","learning/Slide80.JPG","null","","","","",""
"","html-keyboard-response","245","363273","0.0-6.0-1.79","FL","40757xtlgp","1366","768","en","va05er24","null","","","","learningBlock1","","","","That was a tob.","null","","","","",""
"","html-keyboard-response","246","364277","0.0-6.0-2.79","FL","40757xtlgp","1366","768","en","va05er24","null","","","","learningBlock1","","","","<div style=""font-size:60px;""> </div>","null","FL","learning/Slide80.JPG","That was a tob.","",""
"","instructions","247","385107","0.0-7.0","FL","40757xtlgp","1366","768","en","va05er24","NA","","","[{""page_index"":0,""viewing_time"":20827.28500000667}]","instructions","","","","","","","","","",""
"","image-keyboard-response","248","385291","0.0-8.0-0.0","FL","40757xtlgp","1366","768","en","va05er24","null","","","","","","","","learning/Slide81.JPG","null","","","","",""
"","html-keyboard-response","249","386448","0.0-8.0-1.0","FL","40757xtlgp","1366","768","en","va05er24","null","","","","learningBlock2","","","","That was a wug.","null","","","","",""
"","html-keyboard-response","250","387457","0.0-8.0-2.0","FL","40757xtlgp","1366","768","en","va05er24","null","","","","learningBlock2","","","","<div style=""font-size:60px;""> </div>","null","FL","learning/Slide81.JPG","That was a wug.","",""
"","image-keyboard-response","251","387641","0.0-8.0-0.1","FL","40757xtlgp","1366","768","en","va05er24","null","","","","","","","","learning/Slide82.JPG","null","","","","",""
"","html-keyboard-response","252","388802","0.0-8.0-1.1","FL","40757xtlgp","1366","768","en","va05er24","null","","","","learningBlock2","","","","That was a bim.","null","","","","",""
"","html-keyboard-response","253","389809","0.0-8.0-2.1","FL","40757xtlgp","1366","768","en","va05er24","null","","","","learningBlock2","","","","<div style=""font-size:60px;""> </div>","null","FL","learning/Slide82.JPG","That was a bim.","",""
"","image-keyboard-response","254","389992","0.0-8.0-0.2","FL","40757xtlgp","1366","768","en","va05er24","null","","","","","","","","learning/Slide83.JPG","null","","","","",""
"","html-keyboard-response","255","391155","0.0-8.0-1.2","FL","40757xtlgp","1366","768","en","va05er24","null","","","","learningBlock2","","","","That was a wug.","null","","","","",""
"","html-keyboard-response","256","392160","0.0-8.0-2.2","FL","40757xtlgp","1366","768","en","va05er24","null","","","","learningBlock2","","","","<div style=""font-size:60px;""> </div>","null","FL","learning/Slide83.JPG","That was a wug.","",""
"","image-keyboard-response","257","392343","0.0-8.0-0.3","FL","40757xtlgp","1366","768","en","va05er24","null","","","","","","","","learning/Slide84.JPG","null","","","","",""
"","html-keyboard-response","258","393499","0.0-8.0-1.3","FL","40757xtlgp","1366","768","en","va05er24","null","","","","learningBlock2","","","","That was a dep.","null","","","","",""
"","html-keyboard-response","259","394505","0.0-8.0-2.3","FL","40757xtlgp","1366","768","en","va05er24","null","","","","learningBlock2","","","","<div style=""font-size:60px;""> </div>","null","FL","learning/Slide84.JPG","That was a dep.","",""
"","image-keyboard-response","260","394688","0.0-8.0-0.4","FL","40757xtlgp","1366","768","en","va05er24","null","","","","","","","","learning/Slide85.JPG","null","","","","",""
"","html-keyboard-response","261","395844","0.0-8.0-1.4","FL","40757xtlgp","1366","768","en","va05er24","null","","","","learningBlock2","","","","That was a bim.","null","","","","",""
"","html-keyboard-response","262","396851","0.0-8.0-2.4","FL","40757xtlgp","1366","768","en","va05er24","null","","","","learningBlock2","","","","<div style=""font-size:60px;""> </div>","null","FL","learning/Slide85.JPG","That was a bim.","",""
"","image-keyboard-response","263","397034","0.0-8.0-0.5","FL","40757xtlgp","1366","768","en","va05er24","null","","","","","","","","learning/Slide86.JPG","null","","","","",""
"","html-keyboard-response","264","398191","0.0-8.0-1.5","FL","40757xtlgp","1366","768","en","va05er24","null","","","","learningBlock2","","","","That was a tob.","null","","","","",""
"","html-keyboard-response","265","399198","0.0-8.0-2.5","FL","40757xtlgp","1366","768","en","va05er24","null","","","","learningBlock2","","","","<div style=""font-size:60px;""> </div>","null","FL","learning/Slide86.JPG","That was a tob.","",""
"","image-keyboard-response","266","399380","0.0-8.0-0.6","FL","40757xtlgp","1366","768","en","va05er24","null","","","","","","","","learning/Slide87.JPG","null","","","","",""
"","html-keyboard-response","267","400536","0.0-8.0-1.6","FL","40757xtlgp","1366","768","en","va05er24","null","","","","learningBlock2","","","","That was a wug.","null","","","","",""
"","html-keyboard-response","268","401546","0.0-8.0-2.6","FL","40757xtlgp","1366","768","en","va05er24","null","","","","learningBlock2","","","","<div style=""font-size:60px;""> </div>","null","FL","learning/Slide87.JPG","That was a wug.","",""
"","image-keyboard-response","269","401727","0.0-8.0-0.7","FL","40757xtlgp","1366","768","en","va05er24","null","","","","","","","","learning/Slide88.JPG","null","","","","",""
"","html-keyboard-response","270","402884","0.0-8.0-1.7","FL","40757xtlgp","1366","768","en","va05er24","null","","","","learningBlock2","","","","That was a tob.","null","","","","",""
"","html-keyboard-response","271","403891","0.0-8.0-2.7","FL","40757xtlgp","1366","768","en","va05er24","null","","","","learningBlock2","","","","<div style=""font-size:60px;""> </div>","null","FL","learning/Slide88.JPG","That was a tob.","",""
"","image-keyboard-response","272","404074","0.0-8.0-0.8","FL","40757xtlgp","1366","768","en","va05er24","null","","","","","","","","learning/Slide89.JPG","null","","","","",""
"","html-keyboard-response","273","405229","0.0-8.0-1.8","FL","40757xtlgp","1366","768","en","va05er24","null","","","","learningBlock2","","","","That was a bim.","null","","","","",""
"","html-keyboard-response","274","406235","0.0-8.0-2.8","FL","40757xtlgp","1366","768","en","va05er24","null","","","","learningBlock2","","","","<div style=""font-size:60px;""> </div>","null","FL","learning/Slide89.JPG","That was a bim.","",""
"","image-keyboard-response","275","406415","0.0-8.0-0.9","FL","40757xtlgp","1366","768","en","va05er24","null","","","","","","","","learning/Slide90.JPG","null","","","","",""
"","html-keyboard-response","276","407570","0.0-8.0-1.9","FL","40757xtlgp","1366","768","en","va05er24","null","","","","learningBlock2","","","","That was a dep.","null","","","","",""
"","html-keyboard-response","277","408590","0.0-8.0-2.9","FL","40757xtlgp","1366","768","en","va05er24","null","","","","learningBlock2","","","","<div style=""font-size:60px;""> </div>","null","FL","learning/Slide90.JPG","That was a dep.","",""
"","image-keyboard-response","278","408775","0.0-8.0-0.10","FL","40757xtlgp","1366","768","en","va05er24","null","","","","","","","","learning/Slide91.JPG","null","","","","",""
"","html-keyboard-response","279","409932","0.0-8.0-1.10","FL","40757xtlgp","1366","768","en","va05er24","null","","","","learningBlock2","","","","That was a wug.","null","","","","",""
"","html-keyboard-response","280","410942","0.0-8.0-2.10","FL","40757xtlgp","1366","768","en","va05er24","null","","","","learningBlock2","","","","<div style=""font-size:60px;""> </div>","null","FL","learning/Slide91.JPG","That was a wug.","",""
"","image-keyboard-response","281","411125","0.0-8.0-0.11","FL","40757xtlgp","1366","768","en","va05er24","null","","","","","","","","learning/Slide92.JPG","null","","","","",""
"","html-keyboard-response","282","412290","0.0-8.0-1.11","FL","40757xtlgp","1366","768","en","va05er24","null","","","","learningBlock2","","","","That was a tob.","null","","","","",""
"","html-keyboard-response","283","413296","0.0-8.0-2.11","FL","40757xtlgp","1366","768","en","va05er24","null","","","","learningBlock2","","","","<div style=""font-size:60px;""> </div>","null","FL","learning/Slide92.JPG","That was a tob.","",""
"","image-keyboard-response","284","413478","0.0-8.0-0.12","FL","40757xtlgp","1366","768","en","va05er24","null","","","","","","","","learning/Slide93.JPG","null","","","","",""
"","html-keyboard-response","285","414634","0.0-8.0-1.12","FL","40757xtlgp","1366","768","en","va05er24","null","","","","learningBlock2","","","","That was a bim.","null","","","","",""
"","html-keyboard-response","286","415646","0.0-8.0-2.12","FL","40757xtlgp","1366","768","en","va05er24","null","","","","learningBlock2","","","","<div style=""font-size:60px;""> </div>","null","FL","learning/Slide93.JPG","That was a bim.","",""
"","image-keyboard-response","287","415827","0.0-8.0-0.13","FL","40757xtlgp","1366","768","en","va05er24","null","","","","","","","","learning/Slide94.JPG","null","","","","",""
"","html-keyboard-response","288","416981","0.0-8.0-1.13","FL","40757xtlgp","1366","768","en","va05er24","null","","","","learningBlock2","","","","That was a tob.","null","","","","",""
"","html-keyboard-response","289","417988","0.0-8.0-2.13","FL","40757xtlgp","1366","768","en","va05er24","null","","","","learningBlock2","","","","<div style=""font-size:60px;""> </div>","null","FL","learning/Slide94.JPG","That was a tob.","",""
"","image-keyboard-response","290","418176","0.0-8.0-0.14","FL","40757xtlgp","1366","768","en","va05er24","null","","","","","","","","learning/Slide95.JPG","null","","","","",""
"","html-keyboard-response","291","419330","0.0-8.0-1.14","FL","40757xtlgp","1366","768","en","va05er24","null","","","","learningBlock2","","","","That was a wug.","null","","","","",""
"","html-keyboard-response","292","420337","0.0-8.0-2.14","FL","40757xtlgp","1366","768","en","va05er24","null","","","","learningBlock2","","","","<div style=""font-size:60px;""> </div>","null","FL","learning/Slide95.JPG","That was a wug.","",""
"","image-keyboard-response","293","420520","0.0-8.0-0.15","FL","40757xtlgp","1366","768","en","va05er24","null","","","","","","","","learning/Slide96.JPG","null","","","","",""
"","html-keyboard-response","294","421676","0.0-8.0-1.15","FL","40757xtlgp","1366","768","en","va05er24","null","","","","learningBlock2","","","","That was a tob.","null","","","","",""
"","html-keyboard-response","295","422683","0.0-8.0-2.15","FL","40757xtlgp","1366","768","en","va05er24","null","","","","learningBlock2","","","","<div style=""font-size:60px;""> </div>","null","FL","learning/Slide96.JPG","That was a tob.","",""
"","image-keyboard-response","296","422863","0.0-8.0-0.16","FL","40757xtlgp","1366","768","en","va05er24","null","","","","","","","","learning/Slide97.JPG","null","","","","",""
"","html-keyboard-response","297","424026","0.0-8.0-1.16","FL","40757xtlgp","1366","768","en","va05er24","null","","","","learningBlock2","","","","That was a dep.","null","","","","",""
"","html-keyboard-response","298","425036","0.0-8.0-2.16","FL","40757xtlgp","1366","768","en","va05er24","null","","","","learningBlock2","","","","<div style=""font-size:60px;""> </div>","null","FL","learning/Slide97.JPG","That was a dep.","",""
"","image-keyboard-response","299","425219","0.0-8.0-0.17","FL","40757xtlgp","1366","768","en","va05er24","null","","","","","","","","learning/Slide98.JPG","null","","","","",""
"","html-keyboard-response","300","426377","0.0-8.0-1.17","FL","40757xtlgp","1366","768","en","va05er24","null","","","","learningBlock2","","","","That was a bim.","null","","","","",""
"","html-keyboard-response","301","427389","0.0-8.0-2.17","FL","40757xtlgp","1366","768","en","va05er24","null","","","","learningBlock2","","","","<div style=""font-size:60px;""> </div>","null","FL","learning/Slide98.JPG","That was a bim.","",""
"","image-keyboard-response","302","427569","0.0-8.0-0.18","FL","40757xtlgp","1366","768","en","va05er24","null","","","","","","","","learning/Slide99.JPG","null","","","","",""
"","html-keyboard-response","303","428724","0.0-8.0-1.18","FL","40757xtlgp","1366","768","en","va05er24","null","","","","learningBlock2","","","","That was a dep.","null","","","","",""
"","html-keyboard-response","304","429734","0.0-8.0-2.18","FL","40757xtlgp","1366","768","en","va05er24","null","","","","learningBlock2","","","","<div style=""font-size:60px;""> </div>","null","FL","learning/Slide99.JPG","That was a dep.","",""
"","image-keyboard-response","305","429918","0.0-8.0-0.19","FL","40757xtlgp","1366","768","en","va05er24","null","","","","","","","","learning/Slide100.JPG","null","","","","",""
"","html-keyboard-response","306","431077","0.0-8.0-1.19","FL","40757xtlgp","1366","768","en","va05er24","null","","","","learningBlock2","","","","That was a bim.","null","","","","",""
"","html-keyboard-response","307","432085","0.0-8.0-2.19","FL","40757xtlgp","1366","768","en","va05er24","null","","","","learningBlock2","","","","<div style=""font-size:60px;""> </div>","null","FL","learning/Slide100.JPG","That was a bim.","",""
"","image-keyboard-response","308","432268","0.0-8.0-0.20","FL","40757xtlgp","1366","768","en","va05er24","null","","","","","","","","learning/Slide101.JPG","null","","","","",""
"","html-keyboard-response","309","433425","0.0-8.0-1.20","FL","40757xtlgp","1366","768","en","va05er24","null","","","","learningBlock2","","","","That was a tob.","null","","","","",""
"","html-keyboard-response","310","434431","0.0-8.0-2.20","FL","40757xtlgp","1366","768","en","va05er24","null","","","","learningBlock2","","","","<div style=""font-size:60px;""> </div>","null","FL","learning/Slide101.JPG","That was a tob.","",""
"","image-keyboard-response","311","434616","0.0-8.0-0.21","FL","40757xtlgp","1366","768","en","va05er24","null","","","","","","","","learning/Slide102.JPG","null","","","","",""
"","html-keyboard-response","312","435773","0.0-8.0-1.21","FL","40757xtlgp","1366","768","en","va05er24","null","","","","learningBlock2","","","","That was a bim.","null","","","","",""
"","html-keyboard-response","313","436782","0.0-8.0-2.21","FL","40757xtlgp","1366","768","en","va05er24","null","","","","learningBlock2","","","","<div style=""font-size:60px;""> </div>","null","FL","learning/Slide102.JPG","That was a bim.","",""
"","image-keyboard-response","314","436971","0.0-8.0-0.22","FL","40757xtlgp","1366","768","en","va05er24","null","","","","","","","","learning/Slide103.JPG","null","","","","",""
"","html-keyboard-response","315","438135","0.0-8.0-1.22","FL","40757xtlgp","1366","768","en","va05er24","null","","","","learningBlock2","","","","That was a dep.","null","","","","",""
"","html-keyboard-response","316","439142","0.0-8.0-2.22","FL","40757xtlgp","1366","768","en","va05er24","null","","","","learningBlock2","","","","<div style=""font-size:60px;""> </div>","null","FL","learning/Slide103.JPG","That was a dep.","",""
"","image-keyboard-response","317","439324","0.0-8.0-0.23","FL","40757xtlgp","1366","768","en","va05er24","null","","","","","","","","learning/Slide104.JPG","null","","","","",""
"","html-keyboard-response","318","440482","0.0-8.0-1.23","FL","40757xtlgp","1366","768","en","va05er24","null","","","","learningBlock2","","","","That was a tob.","null","","","","",""
"","html-keyboard-response","319","441489","0.0-8.0-2.23","FL","40757xtlgp","1366","768","en","va05er24","null","","","","learningBlock2","","","","<div style=""font-size:60px;""> </div>","null","FL","learning/Slide104.JPG","That was a tob.","",""
"","image-keyboard-response","320","441672","0.0-8.0-0.24","FL","40757xtlgp","1366","768","en","va05er24","null","","","","","","","","learning/Slide105.JPG","null","","","","",""
"","html-keyboard-response","321","442829","0.0-8.0-1.24","FL","40757xtlgp","1366","768","en","va05er24","null","","","","learningBlock2","","","","That was a dep.","null","","","","",""
"","html-keyboard-response","322","443835","0.0-8.0-2.24","FL","40757xtlgp","1366","768","en","va05er24","null","","","","learningBlock2","","","","<div style=""font-size:60px;""> </div>","null","FL","learning/Slide105.JPG","That was a dep.","",""
"","image-keyboard-response","323","444018","0.0-8.0-0.25","FL","40757xtlgp","1366","768","en","va05er24","null","","","","","","","","learning/Slide106.JPG","null","","","","",""
"","html-keyboard-response","324","445175","0.0-8.0-1.25","FL","40757xtlgp","1366","768","en","va05er24","null","","","","learningBlock2","","","","That was a wug.","null","","","","",""
"","html-keyboard-response","325","446180","0.0-8.0-2.25","FL","40757xtlgp","1366","768","en","va05er24","null","","","","learningBlock2","","","","<div style=""font-size:60px;""> </div>","null","FL","learning/Slide106.JPG","That was a wug.","",""
"","image-keyboard-response","326","446363","0.0-8.0-0.26","FL","40757xtlgp","1366","768","en","va05er24","null","","","","","","","","learning/Slide107.JPG","null","","","","",""
"","html-keyboard-response","327","447518","0.0-8.0-1.26","FL","40757xtlgp","1366","768","en","va05er24","null","","","","learningBlock2","","","","That was a bim.","null","","","","",""
"","html-keyboard-response","328","448527","0.0-8.0-2.26","FL","40757xtlgp","1366","768","en","va05er24","null","","","","learningBlock2","","","","<div style=""font-size:60px;""> </div>","null","FL","learning/Slide107.JPG","That was a bim.","",""
"","image-keyboard-response","329","448711","0.0-8.0-0.27","FL","40757xtlgp","1366","768","en","va05er24","null","","","","","","","","learning/Slide108.JPG","null","","","","",""
"","html-keyboard-response","330","449866","0.0-8.0-1.27","FL","40757xtlgp","1366","768","en","va05er24","null","","","","learningBlock2","","","","That was a dep.","null","","","","",""
"","html-keyboard-response","331","450874","0.0-8.0-2.27","FL","40757xtlgp","1366","768","en","va05er24","null","","","","learningBlock2","","","","<div style=""font-size:60px;""> </div>","null","FL","learning/Slide108.JPG","That was a dep.","",""
"","image-keyboard-response","332","451056","0.0-8.0-0.28","FL","40757xtlgp","1366","768","en","va05er24","null","","","","","","","","learning/Slide109.JPG","null","","","","",""
"","html-keyboard-response","333","452213","0.0-8.0-1.28","FL","40757xtlgp","1366","768","en","va05er24","null","","","","learningBlock2","","","","That was a wug.","null","","","","",""
"","html-keyboard-response","334","453223","0.0-8.0-2.28","FL","40757xtlgp","1366","768","en","va05er24","null","","","","learningBlock2","","","","<div style=""font-size:60px;""> </div>","null","FL","learning/Slide109.JPG","That was a wug.","",""
"","image-keyboard-response","335","453404","0.0-8.0-0.29","FL","40757xtlgp","1366","768","en","va05er24","null","","","","","","","","learning/Slide110.JPG","null","","","","",""
"","html-keyboard-response","336","454560","0.0-8.0-1.29","FL","40757xtlgp","1366","768","en","va05er24","null","","","","learningBlock2","","","","That was a bim.","null","","","","",""
"","html-keyboard-response","337","455568","0.0-8.0-2.29","FL","40757xtlgp","1366","768","en","va05er24","null","","","","learningBlock2","","","","<div style=""font-size:60px;""> </div>","null","FL","learning/Slide110.JPG","That was a bim.","",""
"","image-keyboard-response","338","455750","0.0-8.0-0.30","FL","40757xtlgp","1366","768","en","va05er24","null","","","","","","","","learning/Slide111.JPG","null","","","","",""
"","html-keyboard-response","339","456906","0.0-8.0-1.30","FL","40757xtlgp","1366","768","en","va05er24","null","","","","learningBlock2","","","","That was a tob.","null","","","","",""
"","html-keyboard-response","340","457917","0.0-8.0-2.30","FL","40757xtlgp","1366","768","en","va05er24","null","","","","learningBlock2","","","","<div style=""font-size:60px;""> </div>","null","FL","learning/Slide111.JPG","That was a tob.","",""
"","image-keyboard-response","341","458099","0.0-8.0-0.31","FL","40757xtlgp","1366","768","en","va05er24","null","","","","","","","","learning/Slide112.JPG","null","","","","",""
"","html-keyboard-response","342","459257","0.0-8.0-1.31","FL","40757xtlgp","1366","768","en","va05er24","null","","","","learningBlock2","","","","That was a wug.","null","","","","",""
"","html-keyboard-response","343","460266","0.0-8.0-2.31","FL","40757xtlgp","1366","768","en","va05er24","null","","","","learningBlock2","","","","<div style=""font-size:60px;""> </div>","null","FL","learning/Slide112.JPG","That was a wug.","",""
"","image-keyboard-response","344","460449","0.0-8.0-0.32","FL","40757xtlgp","1366","768","en","va05er24","null","","","","","","","","learning/Slide113.JPG","null","","","","",""
"","html-keyboard-response","345","461606","0.0-8.0-1.32","FL","40757xtlgp","1366","768","en","va05er24","null","","","","learningBlock2","","","","That was a tob.","null","","","","",""
"","html-keyboard-response","346","462616","0.0-8.0-2.32","FL","40757xtlgp","1366","768","en","va05er24","null","","","","learningBlock2","","","","<div style=""font-size:60px;""> </div>","null","FL","learning/Slide113.JPG","That was a tob.","",""
"","image-keyboard-response","347","462798","0.0-8.0-0.33","FL","40757xtlgp","1366","768","en","va05er24","null","","","","","","","","learning/Slide114.JPG","null","","","","",""
"","html-keyboard-response","348","463957","0.0-8.0-1.33","FL","40757xtlgp","1366","768","en","va05er24","null","","","","learningBlock2","","","","That was a wug.","null","","","","",""
"","html-keyboard-response","349","464968","0.0-8.0-2.33","FL","40757xtlgp","1366","768","en","va05er24","null","","","","learningBlock2","","","","<div style=""font-size:60px;""> </div>","null","FL","learning/Slide114.JPG","That was a wug.","",""
"","image-keyboard-response","350","465151","0.0-8.0-0.34","FL","40757xtlgp","1366","768","en","va05er24","null","","","","","","","","learning/Slide115.JPG","null","","","","",""
"","html-keyboard-response","351","466307","0.0-8.0-1.34","FL","40757xtlgp","1366","768","en","va05er24","null","","","","learningBlock2","","","","That was a bim.","null","","","","",""
"","html-keyboard-response","352","467314","0.0-8.0-2.34","FL","40757xtlgp","1366","768","en","va05er24","null","","","","learningBlock2","","","","<div style=""font-size:60px;""> </div>","null","FL","learning/Slide115.JPG","That was a bim.","",""
"","image-keyboard-response","353","467496","0.0-8.0-0.35","FL","40757xtlgp","1366","768","en","va05er24","null","","","","","","","","learning/Slide116.JPG","null","","","","",""
"","html-keyboard-response","354","468651","0.0-8.0-1.35","FL","40757xtlgp","1366","768","en","va05er24","null","","","","learningBlock2","","","","That was a dep.","null","","","","",""
"","html-keyboard-response","355","469657","0.0-8.0-2.35","FL","40757xtlgp","1366","768","en","va05er24","null","","","","learningBlock2","","","","<div style=""font-size:60px;""> </div>","null","FL","learning/Slide116.JPG","That was a dep.","",""
"","image-keyboard-response","356","469839","0.0-8.0-0.36","FL","40757xtlgp","1366","768","en","va05er24","null","","","","","","","","learning/Slide117.JPG","null","","","","",""
"","html-keyboard-response","357","470996","0.0-8.0-1.36","FL","40757xtlgp","1366","768","en","va05er24","null","","","","learningBlock2","","","","That was a tob.","null","","","","",""
"","html-keyboard-response","358","472006","0.0-8.0-2.36","FL","40757xtlgp","1366","768","en","va05er24","null","","","","learningBlock2","","","","<div style=""font-size:60px;""> </div>","null","FL","learning/Slide117.JPG","That was a tob.","",""
"","image-keyboard-response","359","472188","0.0-8.0-0.37","FL","40757xtlgp","1366","768","en","va05er24","null","","","","","","","","learning/Slide118.JPG","null","","","","",""
"","html-keyboard-response","360","473347","0.0-8.0-1.37","FL","40757xtlgp","1366","768","en","va05er24","null","","","","learningBlock2","","","","That was a dep.","null","","","","",""
"","html-keyboard-response","361","474354","0.0-8.0-2.37","FL","40757xtlgp","1366","768","en","va05er24","null","","","","learningBlock2","","","","<div style=""font-size:60px;""> </div>","null","FL","learning/Slide118.JPG","That was a dep.","",""
"","image-keyboard-response","362","474533","0.0-8.0-0.38","FL","40757xtlgp","1366","768","en","va05er24","null","","","","","","","","learning/Slide119.JPG","null","","","","",""
"","html-keyboard-response","363","475692","0.0-8.0-1.38","FL","40757xtlgp","1366","768","en","va05er24","null","","","","learningBlock2","","","","That was a wug.","null","","","","",""
"","html-keyboard-response","364","476700","0.0-8.0-2.38","FL","40757xtlgp","1366","768","en","va05er24","null","","","","learningBlock2","","","","<div style=""font-size:60px;""> </div>","null","FL","learning/Slide119.JPG","That was a wug.","",""
"","image-keyboard-response","365","476882","0.0-8.0-0.39","FL","40757xtlgp","1366","768","en","va05er24","null","","","","","","","","learning/Slide120.JPG","null","","","","",""
"","html-keyboard-response","366","478039","0.0-8.0-1.39","FL","40757xtlgp","1366","768","en","va05er24","null","","","","learningBlock2","","","","That was a dep.","null","","","","",""
"","html-keyboard-response","367","479049","0.0-8.0-2.39","FL","40757xtlgp","1366","768","en","va05er24","null","","","","learningBlock2","","","","<div style=""font-size:60px;""> </div>","null","FL","learning/Slide120.JPG","That was a dep.","",""
"","image-keyboard-response","368","479258","0.0-8.0-0.40","FL","40757xtlgp","1366","768","en","va05er24","null","","","","","","","","learning/Slide121.JPG","null","","","","",""
"","html-keyboard-response","369","480413","0.0-8.0-1.40","FL","40757xtlgp","1366","768","en","va05er24","null","","","","learningBlock2","","","","That was a bim.","null","","","","",""
"","html-keyboard-response","370","481420","0.0-8.0-2.40","FL","40757xtlgp","1366","768","en","va05er24","null","","","","learningBlock2","","","","<div style=""font-size:60px;""> </div>","null","FL","learning/Slide121.JPG","That was a bim.","",""
"","image-keyboard-response","371","481603","0.0-8.0-0.41","FL","40757xtlgp","1366","768","en","va05er24","null","","","","","","","","learning/Slide122.JPG","null","","","","",""
"","html-keyboard-response","372","482765","0.0-8.0-1.41","FL","40757xtlgp","1366","768","en","va05er24","null","","","","learningBlock2","","","","That was a wug.","null","","","","",""
"","html-keyboard-response","373","483772","0.0-8.0-2.41","FL","40757xtlgp","1366","768","en","va05er24","null","","","","learningBlock2","","","","<div style=""font-size:60px;""> </div>","null","FL","learning/Slide122.JPG","That was a wug.","",""
"","image-keyboard-response","374","483955","0.0-8.0-0.42","FL","40757xtlgp","1366","768","en","va05er24","null","","","","","","","","learning/Slide123.JPG","null","","","","",""
"","html-keyboard-response","375","485110","0.0-8.0-1.42","FL","40757xtlgp","1366","768","en","va05er24","null","","","","learningBlock2","","","","That was a bim.","null","","","","",""
"","html-keyboard-response","376","486118","0.0-8.0-2.42","FL","40757xtlgp","1366","768","en","va05er24","null","","","","learningBlock2","","","","<div style=""font-size:60px;""> </div>","null","FL","learning/Slide123.JPG","That was a bim.","",""
"","image-keyboard-response","377","486300","0.0-8.0-0.43","FL","40757xtlgp","1366","768","en","va05er24","null","","","","","","","","learning/Slide124.JPG","null","","","","",""
"","html-keyboard-response","378","487458","0.0-8.0-1.43","FL","40757xtlgp","1366","768","en","va05er24","null","","","","learningBlock2","","","","That was a tob.","null","","","","",""
"","html-keyboard-response","379","488470","0.0-8.0-2.43","FL","40757xtlgp","1366","768","en","va05er24","null","","","","learningBlock2","","","","<div style=""font-size:60px;""> </div>","null","FL","learning/Slide124.JPG","That was a tob.","",""
"","image-keyboard-response","380","488652","0.0-8.0-0.44","FL","40757xtlgp","1366","768","en","va05er24","null","","","","","","","","learning/Slide125.JPG","null","","","","",""
"","html-keyboard-response","381","489809","0.0-8.0-1.44","FL","40757xtlgp","1366","768","en","va05er24","null","","","","learningBlock2","","","","That was a bim.","null","","","","",""
"","html-keyboard-response","382","490816","0.0-8.0-2.44","FL","40757xtlgp","1366","768","en","va05er24","null","","","","learningBlock2","","","","<div style=""font-size:60px;""> </div>","null","FL","learning/Slide125.JPG","That was a bim.","",""
"","image-keyboard-response","383","490998","0.0-8.0-0.45","FL","40757xtlgp","1366","768","en","va05er24","null","","","","","","","","learning/Slide126.JPG","null","","","","",""
"","html-keyboard-response","384","492156","0.0-8.0-1.45","FL","40757xtlgp","1366","768","en","va05er24","null","","","","learningBlock2","","","","That was a tob.","null","","","","",""
"","html-keyboard-response","385","493167","0.0-8.0-2.45","FL","40757xtlgp","1366","768","en","va05er24","null","","","","learningBlock2","","","","<div style=""font-size:60px;""> </div>","null","FL","learning/Slide126.JPG","That was a tob.","",""
"","image-keyboard-response","386","493350","0.0-8.0-0.46","FL","40757xtlgp","1366","768","en","va05er24","null","","","","","","","","learning/Slide127.JPG","null","","","","",""
"","html-keyboard-response","387","494507","0.0-8.0-1.46","FL","40757xtlgp","1366","768","en","va05er24","null","","","","learningBlock2","","","","That was a dep.","null","","","","",""
"","html-keyboard-response","388","495517","0.0-8.0-2.46","FL","40757xtlgp","1366","768","en","va05er24","null","","","","learningBlock2","","","","<div style=""font-size:60px;""> </div>","null","FL","learning/Slide127.JPG","That was a dep.","",""
"","image-keyboard-response","389","495700","0.0-8.0-0.47","FL","40757xtlgp","1366","768","en","va05er24","null","","","","","","","","learning/Slide128.JPG","null","","","","",""
"","html-keyboard-response","390","496864","0.0-8.0-1.47","FL","40757xtlgp","1366","768","en","va05er24","null","","","","learningBlock2","","","","That was a wug.","null","","","","",""
"","html-keyboard-response","391","497876","0.0-8.0-2.47","FL","40757xtlgp","1366","768","en","va05er24","null","","","","learningBlock2","","","","<div style=""font-size:60px;""> </div>","null","FL","learning/Slide128.JPG","That was a wug.","",""
"","image-keyboard-response","392","498058","0.0-8.0-0.48","FL","40757xtlgp","1366","768","en","va05er24","null","","","","","","","","learning/Slide129.JPG","null","","","","",""
"","html-keyboard-response","393","499214","0.0-8.0-1.48","FL","40757xtlgp","1366","768","en","va05er24","null","","","","learningBlock2","","","","That was a tob.","null","","","","",""
"","html-keyboard-response","394","500221","0.0-8.0-2.48","FL","40757xtlgp","1366","768","en","va05er24","null","","","","learningBlock2","","","","<div style=""font-size:60px;""> </div>","null","FL","learning/Slide129.JPG","That was a tob.","",""
"","image-keyboard-response","395","500405","0.0-8.0-0.49","FL","40757xtlgp","1366","768","en","va05er24","null","","","","","","","","learning/Slide130.JPG","null","","","","",""
"","html-keyboard-response","396","501561","0.0-8.0-1.49","FL","40757xtlgp","1366","768","en","va05er24","null","","","","learningBlock2","","","","That was a wug.","null","","","","",""
"","html-keyboard-response","397","502570","0.0-8.0-2.49","FL","40757xtlgp","1366","768","en","va05er24","null","","","","learningBlock2","","","","<div style=""font-size:60px;""> </div>","null","FL","learning/Slide130.JPG","That was a wug.","",""
"","image-keyboard-response","398","502753","0.0-8.0-0.50","FL","40757xtlgp","1366","768","en","va05er24","null","","","","","","","","learning/Slide131.JPG","null","","","","",""
"","html-keyboard-response","399","503911","0.0-8.0-1.50","FL","40757xtlgp","1366","768","en","va05er24","null","","","","learningBlock2","","","","That was a bim.","null","","","","",""
"","html-keyboard-response","400","504921","0.0-8.0-2.50","FL","40757xtlgp","1366","768","en","va05er24","null","","","","learningBlock2","","","","<div style=""font-size:60px;""> </div>","null","FL","learning/Slide131.JPG","That was a bim.","",""
"","image-keyboard-response","401","505116","0.0-8.0-0.51","FL","40757xtlgp","1366","768","en","va05er24","null","","","","","","","","learning/Slide132.JPG","null","","","","",""
"","html-keyboard-response","402","506271","0.0-8.0-1.51","FL","40757xtlgp","1366","768","en","va05er24","null","","","","learningBlock2","","","","That was a dep.","null","","","","",""
"","html-keyboard-response","403","507283","0.0-8.0-2.51","FL","40757xtlgp","1366","768","en","va05er24","null","","","","learningBlock2","","","","<div style=""font-size:60px;""> </div>","null","FL","learning/Slide132.JPG","That was a dep.","",""
"","image-keyboard-response","404","507484","0.0-8.0-0.52","FL","40757xtlgp","1366","768","en","va05er24","null","","","","","","","","learning/Slide133.JPG","null","","","","",""
"","html-keyboard-response","405","508641","0.0-8.0-1.52","FL","40757xtlgp","1366","768","en","va05er24","null","","","","learningBlock2","","","","That was a tob.","null","","","","",""
"","html-keyboard-response","406","509648","0.0-8.0-2.52","FL","40757xtlgp","1366","768","en","va05er24","null","","","","learningBlock2","","","","<div style=""font-size:60px;""> </div>","null","FL","learning/Slide133.JPG","That was a tob.","",""
"","image-keyboard-response","407","509848","0.0-8.0-0.53","FL","40757xtlgp","1366","768","en","va05er24","null","","","","","","","","learning/Slide134.JPG","null","","","","",""
"","html-keyboard-response","408","511003","0.0-8.0-1.53","FL","40757xtlgp","1366","768","en","va05er24","null","","","","learningBlock2","","","","That was a dep.","null","","","","",""
"","html-keyboard-response","409","512011","0.0-8.0-2.53","FL","40757xtlgp","1366","768","en","va05er24","null","","","","learningBlock2","","","","<div style=""font-size:60px;""> </div>","null","FL","learning/Slide134.JPG","That was a dep.","",""
"","image-keyboard-response","410","512194","0.0-8.0-0.54","FL","40757xtlgp","1366","768","en","va05er24","null","","","","","","","","learning/Slide135.JPG","null","","","","",""
"","html-keyboard-response","411","513351","0.0-8.0-1.54","FL","40757xtlgp","1366","768","en","va05er24","null","","","","learningBlock2","","","","That was a tob.","null","","","","",""
"","html-keyboard-response","412","514361","0.0-8.0-2.54","FL","40757xtlgp","1366","768","en","va05er24","null","","","","learningBlock2","","","","<div style=""font-size:60px;""> </div>","null","FL","learning/Slide135.JPG","That was a tob.","",""
"","image-keyboard-response","413","514544","0.0-8.0-0.55","FL","40757xtlgp","1366","768","en","va05er24","null","","","","","","","","learning/Slide136.JPG","null","","","","",""
"","html-keyboard-response","414","515699","0.0-8.0-1.55","FL","40757xtlgp","1366","768","en","va05er24","null","","","","learningBlock2","","","","That was a wug.","null","","","","",""
"","html-keyboard-response","415","516708","0.0-8.0-2.55","FL","40757xtlgp","1366","768","en","va05er24","null","","","","learningBlock2","","","","<div style=""font-size:60px;""> </div>","null","FL","learning/Slide136.JPG","That was a wug.","",""
"","image-keyboard-response","416","516895","0.0-8.0-0.56","FL","40757xtlgp","1366","768","en","va05er24","null","","","","","","","","learning/Slide137.JPG","null","","","","",""
"","html-keyboard-response","417","518069","0.0-8.0-1.56","FL","40757xtlgp","1366","768","en","va05er24","null","","","","learningBlock2","","","","That was a tob.","null","","","","",""
"","html-keyboard-response","418","519077","0.0-8.0-2.56","FL","40757xtlgp","1366","768","en","va05er24","null","","","","learningBlock2","","","","<div style=""font-size:60px;""> </div>","null","FL","learning/Slide137.JPG","That was a tob.","",""
"","image-keyboard-response","419","519283","0.0-8.0-0.57","FL","40757xtlgp","1366","768","en","va05er24","null","","","","","","","","learning/Slide138.JPG","null","","","","",""
"","html-keyboard-response","420","520439","0.0-8.0-1.57","FL","40757xtlgp","1366","768","en","va05er24","null","","","","learningBlock2","","","","That was a bim.","null","","","","",""
"","html-keyboard-response","421","521450","0.0-8.0-2.57","FL","40757xtlgp","1366","768","en","va05er24","null","","","","learningBlock2","","","","<div style=""font-size:60px;""> </div>","null","FL","learning/Slide138.JPG","That was a bim.","",""
"","image-keyboard-response","422","521634","0.0-8.0-0.58","FL","40757xtlgp","1366","768","en","va05er24","null","","","","","","","","learning/Slide139.JPG","null","","","","",""
"","html-keyboard-response","423","522797","0.0-8.0-1.58","FL","40757xtlgp","1366","768","en","va05er24","null","","","","learningBlock2","","","","That was a wug.","null","","","","",""
"","html-keyboard-response","424","523805","0.0-8.0-2.58","FL","40757xtlgp","1366","768","en","va05er24","null","","","","learningBlock2","","","","<div style=""font-size:60px;""> </div>","null","FL","learning/Slide139.JPG","That was a wug.","",""
"","image-keyboard-response","425","523988","0.0-8.0-0.59","FL","40757xtlgp","1366","768","en","va05er24","null","","","","","","","","learning/Slide140.JPG","null","","","","",""
"","html-keyboard-response","426","525144","0.0-8.0-1.59","FL","40757xtlgp","1366","768","en","va05er24","null","","","","learningBlock2","","","","That was a dep.","null","","","","",""
"","html-keyboard-response","427","526150","0.0-8.0-2.59","FL","40757xtlgp","1366","768","en","va05er24","null","","","","learningBlock2","","","","<div style=""font-size:60px;""> </div>","null","FL","learning/Slide140.JPG","That was a dep.","",""
"","image-keyboard-response","428","526332","0.0-8.0-0.60","FL","40757xtlgp","1366","768","en","va05er24","null","","","","","","","","learning/Slide141.JPG","null","","","","",""
"","html-keyboard-response","429","527491","0.0-8.0-1.60","FL","40757xtlgp","1366","768","en","va05er24","null","","","","learningBlock2","","","","That was a tob.","null","","","","",""
"","html-keyboard-response","430","528501","0.0-8.0-2.60","FL","40757xtlgp","1366","768","en","va05er24","null","","","","learningBlock2","","","","<div style=""font-size:60px;""> </div>","null","FL","learning/Slide141.JPG","That was a tob.","",""
"","image-keyboard-response","431","528685","0.0-8.0-0.61","FL","40757xtlgp","1366","768","en","va05er24","null","","","","","","","","learning/Slide142.JPG","null","","","","",""
"","html-keyboard-response","432","529843","0.0-8.0-1.61","FL","40757xtlgp","1366","768","en","va05er24","null","","","","learningBlock2","","","","That was a wug.","null","","","","",""
"","html-keyboard-response","433","530850","0.0-8.0-2.61","FL","40757xtlgp","1366","768","en","va05er24","null","","","","learningBlock2","","","","<div style=""font-size:60px;""> </div>","null","FL","learning/Slide142.JPG","That was a wug.","",""
"","image-keyboard-response","434","531034","0.0-8.0-0.62","FL","40757xtlgp","1366","768","en","va05er24","null","","","","","","","","learning/Slide143.JPG","null","","","","",""
"","html-keyboard-response","435","532191","0.0-8.0-1.62","FL","40757xtlgp","1366","768","en","va05er24","null","","","","learningBlock2","","","","That was a bim.","null","","","","",""
"","html-keyboard-response","436","533200","0.0-8.0-2.62","FL","40757xtlgp","1366","768","en","va05er24","null","","","","learningBlock2","","","","<div style=""font-size:60px;""> </div>","null","FL","learning/Slide143.JPG","That was a bim.","",""
"","image-keyboard-response","437","533384","0.0-8.0-0.63","FL","40757xtlgp","1366","768","en","va05er24","null","","","","","","","","learning/Slide144.JPG","null","","","","",""
"","html-keyboard-response","438","534541","0.0-8.0-1.63","FL","40757xtlgp","1366","768","en","va05er24","null","","","","learningBlock2","","","","That was a dep.","null","","","","",""
"","html-keyboard-response","439","535548","0.0-8.0-2.63","FL","40757xtlgp","1366","768","en","va05er24","null","","","","learningBlock2","","","","<div style=""font-size:60px;""> </div>","null","FL","learning/Slide144.JPG","That was a dep.","",""
"","image-keyboard-response","440","535732","0.0-8.0-0.64","FL","40757xtlgp","1366","768","en","va05er24","null","","","","","","","","learning/Slide145.JPG","null","","","","",""
"","html-keyboard-response","441","536888","0.0-8.0-1.64","FL","40757xtlgp","1366","768","en","va05er24","null","","","","learningBlock2","","","","That was a bim.","null","","","","",""
"","html-keyboard-response","442","537898","0.0-8.0-2.64","FL","40757xtlgp","1366","768","en","va05er24","null","","","","learningBlock2","","","","<div style=""font-size:60px;""> </div>","null","FL","learning/Slide145.JPG","That was a bim.","",""
"","image-keyboard-response","443","538082","0.0-8.0-0.65","FL","40757xtlgp","1366","768","en","va05er24","null","","","","","","","","learning/Slide146.JPG","null","","","","",""
"","html-keyboard-response","444","539240","0.0-8.0-1.65","FL","40757xtlgp","1366","768","en","va05er24","null","","","","learningBlock2","","","","That was a tob.","null","","","","",""
"","html-keyboard-response","445","540247","0.0-8.0-2.65","FL","40757xtlgp","1366","768","en","va05er24","null","","","","learningBlock2","","","","<div style=""font-size:60px;""> </div>","null","FL","learning/Slide146.JPG","That was a tob.","",""
"","image-keyboard-response","446","540431","0.0-8.0-0.66","FL","40757xtlgp","1366","768","en","va05er24","null","","","","","","","","learning/Slide147.JPG","null","","","","",""
"","html-keyboard-response","447","541596","0.0-8.0-1.66","FL","40757xtlgp","1366","768","en","va05er24","null","","","","learningBlock2","","","","That was a wug.","null","","","","",""
"","html-keyboard-response","448","542603","0.0-8.0-2.66","FL","40757xtlgp","1366","768","en","va05er24","null","","","","learningBlock2","","","","<div style=""font-size:60px;""> </div>","null","FL","learning/Slide147.JPG","That was a wug.","",""
"","image-keyboard-response","449","542787","0.0-8.0-0.67","FL","40757xtlgp","1366","768","en","va05er24","null","","","","","","","","learning/Slide148.JPG","null","","","","",""
"","html-keyboard-response","450","543945","0.0-8.0-1.67","FL","40757xtlgp","1366","768","en","va05er24","null","","","","learningBlock2","","","","That was a bim.","null","","","","",""
"","html-keyboard-response","451","544952","0.0-8.0-2.67","FL","40757xtlgp","1366","768","en","va05er24","null","","","","learningBlock2","","","","<div style=""font-size:60px;""> </div>","null","FL","learning/Slide148.JPG","That was a bim.","",""
"","image-keyboard-response","452","545135","0.0-8.0-0.68","FL","40757xtlgp","1366","768","en","va05er24","null","","","","","","","","learning/Slide149.JPG","null","","","","",""
"","html-keyboard-response","453","546291","0.0-8.0-1.68","FL","40757xtlgp","1366","768","en","va05er24","null","","","","learningBlock2","","","","That was a dep.","null","","","","",""
"","html-keyboard-response","454","547302","0.0-8.0-2.68","FL","40757xtlgp","1366","768","en","va05er24","null","","","","learningBlock2","","","","<div style=""font-size:60px;""> </div>","null","FL","learning/Slide149.JPG","That was a dep.","",""
"","image-keyboard-response","455","547485","0.0-8.0-0.69","FL","40757xtlgp","1366","768","en","va05er24","null","","","","","","","","learning/Slide150.JPG","null","","","","",""
"","html-keyboard-response","456","548644","0.0-8.0-1.69","FL","40757xtlgp","1366","768","en","va05er24","null","","","","learningBlock2","","","","That was a wug.","null","","","","",""
"","html-keyboard-response","457","549651","0.0-8.0-2.69","FL","40757xtlgp","1366","768","en","va05er24","null","","","","learningBlock2","","","","<div style=""font-size:60px;""> </div>","null","FL","learning/Slide150.JPG","That was a wug.","",""
"","image-keyboard-response","458","549834","0.0-8.0-0.70","FL","40757xtlgp","1366","768","en","va05er24","null","","","","","","","","learning/Slide151.JPG","null","","","","",""
"","html-keyboard-response","459","550991","0.0-8.0-1.70","FL","40757xtlgp","1366","768","en","va05er24","null","","","","learningBlock2","","","","That was a dep.","null","","","","",""
"","html-keyboard-response","460","552000","0.0-8.0-2.70","FL","40757xtlgp","1366","768","en","va05er24","null","","","","learningBlock2","","","","<div style=""font-size:60px;""> </div>","null","FL","learning/Slide151.JPG","That was a dep.","",""
"","image-keyboard-response","461","552183","0.0-8.0-0.71","FL","40757xtlgp","1366","768","en","va05er24","null","","","","","","","","learning/Slide152.JPG","null","","","","",""
"","html-keyboard-response","462","553351","0.0-8.0-1.71","FL","40757xtlgp","1366","768","en","va05er24","null","","","","learningBlock2","","","","That was a wug.","null","","","","",""
"","html-keyboard-response","463","554357","0.0-8.0-2.71","FL","40757xtlgp","1366","768","en","va05er24","null","","","","learningBlock2","","","","<div style=""font-size:60px;""> </div>","null","FL","learning/Slide152.JPG","That was a wug.","",""
"","image-keyboard-response","464","554540","0.0-8.0-0.72","FL","40757xtlgp","1366","768","en","va05er24","null","","","","","","","","learning/Slide153.JPG","null","","","","",""
"","html-keyboard-response","465","555696","0.0-8.0-1.72","FL","40757xtlgp","1366","768","en","va05er24","null","","","","learningBlock2","","","","That was a bim.","null","","","","",""
"","html-keyboard-response","466","556705","0.0-8.0-2.72","FL","40757xtlgp","1366","768","en","va05er24","null","","","","learningBlock2","","","","<div style=""font-size:60px;""> </div>","null","FL","learning/Slide153.JPG","That was a bim.","",""
"","image-keyboard-response","467","556887","0.0-8.0-0.73","FL","40757xtlgp","1366","768","en","va05er24","null","","","","","","","","learning/Slide154.JPG","null","","","","",""
"","html-keyboard-response","468","558049","0.0-8.0-1.73","FL","40757xtlgp","1366","768","en","va05er24","null","","","","learningBlock2","","","","That was a tob.","null","","","","",""
"","html-keyboard-response","469","559058","0.0-8.0-2.73","FL","40757xtlgp","1366","768","en","va05er24","null","","","","learningBlock2","","","","<div style=""font-size:60px;""> </div>","null","FL","learning/Slide154.JPG","That was a tob.","",""
"","image-keyboard-response","470","559241","0.0-8.0-0.74","FL","40757xtlgp","1366","768","en","va05er24","null","","","","","","","","learning/Slide155.JPG","null","","","","",""
"","html-keyboard-response","471","560397","0.0-8.0-1.74","FL","40757xtlgp","1366","768","en","va05er24","null","","","","learningBlock2","","","","That was a dep.","null","","","","",""
"","html-keyboard-response","472","561405","0.0-8.0-2.74","FL","40757xtlgp","1366","768","en","va05er24","null","","","","learningBlock2","","","","<div style=""font-size:60px;""> </div>","null","FL","learning/Slide155.JPG","That was a dep.","",""
"","image-keyboard-response","473","561587","0.0-8.0-0.75","FL","40757xtlgp","1366","768","en","va05er24","null","","","","","","","","learning/Slide156.JPG","null","","","","",""
"","html-keyboard-response","474","562745","0.0-8.0-1.75","FL","40757xtlgp","1366","768","en","va05er24","null","","","","learningBlock2","","","","That was a bim.","null","","","","",""
"","html-keyboard-response","475","563756","0.0-8.0-2.75","FL","40757xtlgp","1366","768","en","va05er24","null","","","","learningBlock2","","","","<div style=""font-size:60px;""> </div>","null","FL","learning/Slide156.JPG","That was a bim.","",""
"","image-keyboard-response","476","563939","0.0-8.0-0.76","FL","40757xtlgp","1366","768","en","va05er24","null","","","","","","","","learning/Slide157.JPG","null","","","","",""
"","html-keyboard-response","477","565097","0.0-8.0-1.76","FL","40757xtlgp","1366","768","en","va05er24","null","","","","learningBlock2","","","","That was a dep.","null","","","","",""
"","html-keyboard-response","478","566107","0.0-8.0-2.76","FL","40757xtlgp","1366","768","en","va05er24","null","","","","learningBlock2","","","","<div style=""font-size:60px;""> </div>","null","FL","learning/Slide157.JPG","That was a dep.","",""
"","image-keyboard-response","479","566289","0.0-8.0-0.77","FL","40757xtlgp","1366","768","en","va05er24","null","","","","","","","","learning/Slide158.JPG","null","","","","",""
"","html-keyboard-response","480","567446","0.0-8.0-1.77","FL","40757xtlgp","1366","768","en","va05er24","null","","","","learningBlock2","","","","That was a tob.","null","","","","",""
"","html-keyboard-response","481","568454","0.0-8.0-2.77","FL","40757xtlgp","1366","768","en","va05er24","null","","","","learningBlock2","","","","<div style=""font-size:60px;""> </div>","null","FL","learning/Slide158.JPG","That was a tob.","",""
"","image-keyboard-response","482","568637","0.0-8.0-0.78","FL","40757xtlgp","1366","768","en","va05er24","null","","","","","","","","learning/Slide159.JPG","null","","","","",""
"","html-keyboard-response","483","569794","0.0-8.0-1.78","FL","40757xtlgp","1366","768","en","va05er24","null","","","","learningBlock2","","","","That was a dep.","null","","","","",""
"","html-keyboard-response","484","570805","0.0-8.0-2.78","FL","40757xtlgp","1366","768","en","va05er24","null","","","","learningBlock2","","","","<div style=""font-size:60px;""> </div>","null","FL","learning/Slide159.JPG","That was a dep.","",""
"","image-keyboard-response","485","570988","0.0-8.0-0.79","FL","40757xtlgp","1366","768","en","va05er24","null","","","","","","","","learning/Slide160.JPG","null","","","","",""
"","html-keyboard-response","486","572146","0.0-8.0-1.79","FL","40757xtlgp","1366","768","en","va05er24","null","","","","learningBlock2","","","","That was a wug.","null","","","","",""
"","html-keyboard-response","487","573156","0.0-8.0-2.79","FL","40757xtlgp","1366","768","en","va05er24","null","","","","learningBlock2","","","","<div style=""font-size:60px;""> </div>","null","FL","learning/Slide160.JPG","That was a wug.","",""
"","resize2","488","579374","0.0-9.0","FL","40757xtlgp","1366","768","en","va05er24","","","","","","","104","1.04","","","","","","",""
