"success","trial_type","trial_index","time_elapsed","internal_node_id","condition","subject","screen_width","screen_height","language","codeword","rt","responses","url","view_history","test_part","final_height_px","final_width_px","scale_factor","stimulus","key_press","learningType","presentedImage","presentedLabel","button_pressed","response"
"true","fullscreen","0","2917","0.0-0.0","FL","dqehnfb6j7","2560","1440","en","er08em17","","","","","","","","","","","","","","",""
"","survey-html-form","1","18095","0.0-1.0","FL","dqehnfb6j7","2560","1440","en","er08em17","15176.299999991897","{""language"":""en""}","","","","","","","","","","","","",""
"","external-html","2","48720","0.0-3.0-0.0","FL","dqehnfb6j7","2560","1440","en","er08em17","30602.965000027325","","text/information_english.html","","","","","","","","","","","",""
"","external-html","3","67125","0.0-3.0-1.0","FL","dqehnfb6j7","2560","1440","en","er08em17","18381.92000001436","","text/consent_english.html","","","","","","","","","","","",""
"","survey-html-form","4","136980","0.0-3.0-2.0","FL","dqehnfb6j7","2560","1440","en","er08em17","69854.35499995947","{""codeword_enter"":""er08em17""}","","","","","","","","","","","","",""
"","instructions","5","153651","0.0-4.0","FL","dqehnfb6j7","2560","1440","en","er08em17","NA","","","[{""page_index"":0,""viewing_time"":2822.7249999763444},{""page_index"":1,""viewing_time"":12346.085000026505}]","instructions","","","","","","","","","",""
"","resize","6","205230","0.0-5.0","FL","dqehnfb6j7","2560","1440","en","er08em17","","","","","","","306","1.9428571428571428","","","","","","",""
"","image-keyboard-response","7","205407","0.0-6.0-0.0","FL","dqehnfb6j7","2560","1440","en","er08em17","null","","","","","","","","learning/Slide1.JPG","null","","","","",""
"","html-keyboard-response","8","206560","0.0-6.0-1.0","FL","dqehnfb6j7","2560","1440","en","er08em17","null","","","","learningBlock1","","","","That was a tob.","null","","","","",""
"","html-keyboard-response","9","207561","0.0-6.0-2.0","FL","dqehnfb6j7","2560","1440","en","er08em17","null","","","","learningBlock1","","","","<div style=""font-size:60px;""> </div>","null","FL","learning/Slide1.JPG","That was a tob.","",""
"","image-keyboard-response","10","207737","0.0-6.0-0.1","FL","dqehnfb6j7","2560","1440","en","er08em17","null","","","","","","","","learning/Slide2.JPG","null","","","","",""
"","html-keyboard-response","11","208889","0.0-6.0-1.1","FL","dqehnfb6j7","2560","1440","en","er08em17","null","","","","learningBlock1","","","","That was a wug.","null","","","","",""
"","html-keyboard-response","12","209890","0.0-6.0-2.1","FL","dqehnfb6j7","2560","1440","en","er08em17","null","","","","learningBlock1","","","","<div style=""font-size:60px;""> </div>","null","FL","learning/Slide2.JPG","That was a wug.","",""
"","image-keyboard-response","13","210066","0.0-6.0-0.2","FL","dqehnfb6j7","2560","1440","en","er08em17","null","","","","","","","","learning/Slide3.JPG","null","","","","",""
"","html-keyboard-response","14","211217","0.0-6.0-1.2","FL","dqehnfb6j7","2560","1440","en","er08em17","null","","","","learningBlock1","","","","That was a bim.","null","","","","",""
"","html-keyboard-response","15","212218","0.0-6.0-2.2","FL","dqehnfb6j7","2560","1440","en","er08em17","null","","","","learningBlock1","","","","<div style=""font-size:60px;""> </div>","null","FL","learning/Slide3.JPG","That was a bim.","",""
"","image-keyboard-response","16","212395","0.0-6.0-0.3","FL","dqehnfb6j7","2560","1440","en","er08em17","null","","","","","","","","learning/Slide4.JPG","null","","","","",""
"","html-keyboard-response","17","213546","0.0-6.0-1.3","FL","dqehnfb6j7","2560","1440","en","er08em17","null","","","","learningBlock1","","","","That was a dep.","null","","","","",""
"","html-keyboard-response","18","214547","0.0-6.0-2.3","FL","dqehnfb6j7","2560","1440","en","er08em17","null","","","","learningBlock1","","","","<div style=""font-size:60px;""> </div>","null","FL","learning/Slide4.JPG","That was a dep.","",""
"","image-keyboard-response","19","214722","0.0-6.0-0.4","FL","dqehnfb6j7","2560","1440","en","er08em17","null","","","","","","","","learning/Slide5.JPG","null","","","","",""
"","html-keyboard-response","20","215874","0.0-6.0-1.4","FL","dqehnfb6j7","2560","1440","en","er08em17","null","","","","learningBlock1","","","","That was a wug.","null","","","","",""
"","html-keyboard-response","21","216875","0.0-6.0-2.4","FL","dqehnfb6j7","2560","1440","en","er08em17","null","","","","learningBlock1","","","","<div style=""font-size:60px;""> </div>","null","FL","learning/Slide5.JPG","That was a wug.","",""
"","image-keyboard-response","22","217051","0.0-6.0-0.5","FL","dqehnfb6j7","2560","1440","en","er08em17","null","","","","","","","","learning/Slide6.JPG","null","","","","",""
"","html-keyboard-response","23","218202","0.0-6.0-1.5","FL","dqehnfb6j7","2560","1440","en","er08em17","null","","","","learningBlock1","","","","That was a dep.","null","","","","",""
"","html-keyboard-response","24","219203","0.0-6.0-2.5","FL","dqehnfb6j7","2560","1440","en","er08em17","null","","","","learningBlock1","","","","<div style=""font-size:60px;""> </div>","null","FL","learning/Slide6.JPG","That was a dep.","",""
"","image-keyboard-response","25","219379","0.0-6.0-0.6","FL","dqehnfb6j7","2560","1440","en","er08em17","null","","","","","","","","learning/Slide7.JPG","null","","","","",""
"","html-keyboard-response","26","220531","0.0-6.0-1.6","FL","dqehnfb6j7","2560","1440","en","er08em17","null","","","","learningBlock1","","","","That was a wug.","null","","","","",""
"","html-keyboard-response","27","221532","0.0-6.0-2.6","FL","dqehnfb6j7","2560","1440","en","er08em17","null","","","","learningBlock1","","","","<div style=""font-size:60px;""> </div>","null","FL","learning/Slide7.JPG","That was a wug.","",""
"","image-keyboard-response","28","221708","0.0-6.0-0.7","FL","dqehnfb6j7","2560","1440","en","er08em17","null","","","","","","","","learning/Slide8.JPG","null","","","","",""
"","html-keyboard-response","29","222861","0.0-6.0-1.7","FL","dqehnfb6j7","2560","1440","en","er08em17","null","","","","learningBlock1","","","","That was a bim.","null","","","","",""
"","html-keyboard-response","30","223861","0.0-6.0-2.7","FL","dqehnfb6j7","2560","1440","en","er08em17","null","","","","learningBlock1","","","","<div style=""font-size:60px;""> </div>","null","FL","learning/Slide8.JPG","That was a bim.","",""
"","image-keyboard-response","31","224037","0.0-6.0-0.8","FL","dqehnfb6j7","2560","1440","en","er08em17","null","","","","","","","","learning/Slide9.JPG","null","","","","",""
"","html-keyboard-response","32","225190","0.0-6.0-1.8","FL","dqehnfb6j7","2560","1440","en","er08em17","null","","","","learningBlock1","","","","That was a wug.","null","","","","",""
"","html-keyboard-response","33","226192","0.0-6.0-2.8","FL","dqehnfb6j7","2560","1440","en","er08em17","null","","","","learningBlock1","","","","<div style=""font-size:60px;""> </div>","null","FL","learning/Slide9.JPG","That was a wug.","",""
"","image-keyboard-response","34","226367","0.0-6.0-0.9","FL","dqehnfb6j7","2560","1440","en","er08em17","null","","","","","","","","learning/Slide10.JPG","null","","","","",""
"","html-keyboard-response","35","227520","0.0-6.0-1.9","FL","dqehnfb6j7","2560","1440","en","er08em17","null","","","","learningBlock1","","","","That was a dep.","null","","","","",""
"","html-keyboard-response","36","228521","0.0-6.0-2.9","FL","dqehnfb6j7","2560","1440","en","er08em17","null","","","","learningBlock1","","","","<div style=""font-size:60px;""> </div>","null","FL","learning/Slide10.JPG","That was a dep.","",""
"","image-keyboard-response","37","228696","0.0-6.0-0.10","FL","dqehnfb6j7","2560","1440","en","er08em17","null","","","","","","","","learning/Slide11.JPG","null","","","","",""
"","html-keyboard-response","38","229847","0.0-6.0-1.10","FL","dqehnfb6j7","2560","1440","en","er08em17","null","","","","learningBlock1","","","","That was a tob.","null","","","","",""
"","html-keyboard-response","39","230848","0.0-6.0-2.10","FL","dqehnfb6j7","2560","1440","en","er08em17","null","","","","learningBlock1","","","","<div style=""font-size:60px;""> </div>","null","FL","learning/Slide11.JPG","That was a tob.","",""
"","image-keyboard-response","40","231024","0.0-6.0-0.11","FL","dqehnfb6j7","2560","1440","en","er08em17","null","","","","","","","","learning/Slide12.JPG","null","","","","",""
"","html-keyboard-response","41","232188","0.0-6.0-1.11","FL","dqehnfb6j7","2560","1440","en","er08em17","null","","","","learningBlock1","","","","That was a dep.","null","","","","",""
"","html-keyboard-response","42","233190","0.0-6.0-2.11","FL","dqehnfb6j7","2560","1440","en","er08em17","null","","","","learningBlock1","","","","<div style=""font-size:60px;""> </div>","null","FL","learning/Slide12.JPG","That was a dep.","",""
"","image-keyboard-response","43","233366","0.0-6.0-0.12","FL","dqehnfb6j7","2560","1440","en","er08em17","null","","","","","","","","learning/Slide13.JPG","null","","","","",""
"","html-keyboard-response","44","234519","0.0-6.0-1.12","FL","dqehnfb6j7","2560","1440","en","er08em17","null","","","","learningBlock1","","","","That was a bim.","null","","","","",""
"","html-keyboard-response","45","235520","0.0-6.0-2.12","FL","dqehnfb6j7","2560","1440","en","er08em17","null","","","","learningBlock1","","","","<div style=""font-size:60px;""> </div>","null","FL","learning/Slide13.JPG","That was a bim.","",""
"","image-keyboard-response","46","235696","0.0-6.0-0.13","FL","dqehnfb6j7","2560","1440","en","er08em17","null","","","","","","","","learning/Slide14.JPG","null","","","","",""
"","html-keyboard-response","47","236861","0.0-6.0-1.13","FL","dqehnfb6j7","2560","1440","en","er08em17","null","","","","learningBlock1","","","","That was a wug.","null","","","","",""
"","html-keyboard-response","48","237862","0.0-6.0-2.13","FL","dqehnfb6j7","2560","1440","en","er08em17","null","","","","learningBlock1","","","","<div style=""font-size:60px;""> </div>","null","FL","learning/Slide14.JPG","That was a wug.","",""
"","image-keyboard-response","49","238038","0.0-6.0-0.14","FL","dqehnfb6j7","2560","1440","en","er08em17","null","","","","","","","","learning/Slide15.JPG","null","","","","",""
"","html-keyboard-response","50","239190","0.0-6.0-1.14","FL","dqehnfb6j7","2560","1440","en","er08em17","null","","","","learningBlock1","","","","That was a tob.","null","","","","",""
"","html-keyboard-response","51","240191","0.0-6.0-2.14","FL","dqehnfb6j7","2560","1440","en","er08em17","null","","","","learningBlock1","","","","<div style=""font-size:60px;""> </div>","null","FL","learning/Slide15.JPG","That was a tob.","",""
"","image-keyboard-response","52","240367","0.0-6.0-0.15","FL","dqehnfb6j7","2560","1440","en","er08em17","null","","","","","","","","learning/Slide16.JPG","null","","","","",""
"","html-keyboard-response","53","241519","0.0-6.0-1.15","FL","dqehnfb6j7","2560","1440","en","er08em17","null","","","","learningBlock1","","","","That was a dep.","null","","","","",""
"","html-keyboard-response","54","242520","0.0-6.0-2.15","FL","dqehnfb6j7","2560","1440","en","er08em17","null","","","","learningBlock1","","","","<div style=""font-size:60px;""> </div>","null","FL","learning/Slide16.JPG","That was a dep.","",""
"","image-keyboard-response","55","242696","0.0-6.0-0.16","FL","dqehnfb6j7","2560","1440","en","er08em17","null","","","","","","","","learning/Slide17.JPG","null","","","","",""
"","html-keyboard-response","56","243848","0.0-6.0-1.16","FL","dqehnfb6j7","2560","1440","en","er08em17","null","","","","learningBlock1","","","","That was a bim.","null","","","","",""
"","html-keyboard-response","57","244850","0.0-6.0-2.16","FL","dqehnfb6j7","2560","1440","en","er08em17","null","","","","learningBlock1","","","","<div style=""font-size:60px;""> </div>","null","FL","learning/Slide17.JPG","That was a bim.","",""
"","image-keyboard-response","58","245026","0.0-6.0-0.17","FL","dqehnfb6j7","2560","1440","en","er08em17","null","","","","","","","","learning/Slide18.JPG","null","","","","",""
"","html-keyboard-response","59","246177","0.0-6.0-1.17","FL","dqehnfb6j7","2560","1440","en","er08em17","null","","","","learningBlock1","","","","That was a tob.","null","","","","",""
"","html-keyboard-response","60","247178","0.0-6.0-2.17","FL","dqehnfb6j7","2560","1440","en","er08em17","null","","","","learningBlock1","","","","<div style=""font-size:60px;""> </div>","null","FL","learning/Slide18.JPG","That was a tob.","",""
"","image-keyboard-response","61","247353","0.0-6.0-0.18","FL","dqehnfb6j7","2560","1440","en","er08em17","null","","","","","","","","learning/Slide19.JPG","null","","","","",""
"","html-keyboard-response","62","248505","0.0-6.0-1.18","FL","dqehnfb6j7","2560","1440","en","er08em17","null","","","","learningBlock1","","","","That was a wug.","null","","","","",""
"","html-keyboard-response","63","249506","0.0-6.0-2.18","FL","dqehnfb6j7","2560","1440","en","er08em17","null","","","","learningBlock1","","","","<div style=""font-size:60px;""> </div>","null","FL","learning/Slide19.JPG","That was a wug.","",""
"","image-keyboard-response","64","249682","0.0-6.0-0.19","FL","dqehnfb6j7","2560","1440","en","er08em17","null","","","","","","","","learning/Slide20.JPG","null","","","","",""
"","html-keyboard-response","65","250833","0.0-6.0-1.19","FL","dqehnfb6j7","2560","1440","en","er08em17","null","","","","learningBlock1","","","","That was a bim.","null","","","","",""
"","html-keyboard-response","66","251834","0.0-6.0-2.19","FL","dqehnfb6j7","2560","1440","en","er08em17","null","","","","learningBlock1","","","","<div style=""font-size:60px;""> </div>","null","FL","learning/Slide20.JPG","That was a bim.","",""
"","image-keyboard-response","67","252010","0.0-6.0-0.20","FL","dqehnfb6j7","2560","1440","en","er08em17","null","","","","","","","","learning/Slide21.JPG","null","","","","",""
"","html-keyboard-response","68","253162","0.0-6.0-1.20","FL","dqehnfb6j7","2560","1440","en","er08em17","null","","","","learningBlock1","","","","That was a dep.","null","","","","",""
"","html-keyboard-response","69","254163","0.0-6.0-2.20","FL","dqehnfb6j7","2560","1440","en","er08em17","null","","","","learningBlock1","","","","<div style=""font-size:60px;""> </div>","null","FL","learning/Slide21.JPG","That was a dep.","",""
"","image-keyboard-response","70","254340","0.0-6.0-0.21","FL","dqehnfb6j7","2560","1440","en","er08em17","null","","","","","","","","learning/Slide22.JPG","null","","","","",""
"","html-keyboard-response","71","255492","0.0-6.0-1.21","FL","dqehnfb6j7","2560","1440","en","er08em17","null","","","","learningBlock1","","","","That was a bim.","null","","","","",""
"","html-keyboard-response","72","256493","0.0-6.0-2.21","FL","dqehnfb6j7","2560","1440","en","er08em17","null","","","","learningBlock1","","","","<div style=""font-size:60px;""> </div>","null","FL","learning/Slide22.JPG","That was a bim.","",""
"","image-keyboard-response","73","256669","0.0-6.0-0.22","FL","dqehnfb6j7","2560","1440","en","er08em17","null","","","","","","","","learning/Slide23.JPG","null","","","","",""
"","html-keyboard-response","74","257821","0.0-6.0-1.22","FL","dqehnfb6j7","2560","1440","en","er08em17","null","","","","learningBlock1","","","","That was a tob.","null","","","","",""
"","html-keyboard-response","75","258822","0.0-6.0-2.22","FL","dqehnfb6j7","2560","1440","en","er08em17","null","","","","learningBlock1","","","","<div style=""font-size:60px;""> </div>","null","FL","learning/Slide23.JPG","That was a tob.","",""
"","image-keyboard-response","76","258998","0.0-6.0-0.23","FL","dqehnfb6j7","2560","1440","en","er08em17","null","","","","","","","","learning/Slide24.JPG","null","","","","",""
"","html-keyboard-response","77","260150","0.0-6.0-1.23","FL","dqehnfb6j7","2560","1440","en","er08em17","null","","","","learningBlock1","","","","That was a wug.","null","","","","",""
"","html-keyboard-response","78","261150","0.0-6.0-2.23","FL","dqehnfb6j7","2560","1440","en","er08em17","null","","","","learningBlock1","","","","<div style=""font-size:60px;""> </div>","null","FL","learning/Slide24.JPG","That was a wug.","",""
"","image-keyboard-response","79","261326","0.0-6.0-0.24","FL","dqehnfb6j7","2560","1440","en","er08em17","null","","","","","","","","learning/Slide25.JPG","null","","","","",""
"","html-keyboard-response","80","262478","0.0-6.0-1.24","FL","dqehnfb6j7","2560","1440","en","er08em17","null","","","","learningBlock1","","","","That was a dep.","null","","","","",""
"","html-keyboard-response","81","263479","0.0-6.0-2.24","FL","dqehnfb6j7","2560","1440","en","er08em17","null","","","","learningBlock1","","","","<div style=""font-size:60px;""> </div>","null","FL","learning/Slide25.JPG","That was a dep.","",""
"","image-keyboard-response","82","263655","0.0-6.0-0.25","FL","dqehnfb6j7","2560","1440","en","er08em17","null","","","","","","","","learning/Slide26.JPG","null","","","","",""
"","html-keyboard-response","83","264806","0.0-6.0-1.25","FL","dqehnfb6j7","2560","1440","en","er08em17","null","","","","learningBlock1","","","","That was a wug.","null","","","","",""
"","html-keyboard-response","84","265806","0.0-6.0-2.25","FL","dqehnfb6j7","2560","1440","en","er08em17","null","","","","learningBlock1","","","","<div style=""font-size:60px;""> </div>","null","FL","learning/Slide26.JPG","That was a wug.","",""
"","image-keyboard-response","85","265983","0.0-6.0-0.26","FL","dqehnfb6j7","2560","1440","en","er08em17","null","","","","","","","","learning/Slide27.JPG","null","","","","",""
"","html-keyboard-response","86","267135","0.0-6.0-1.26","FL","dqehnfb6j7","2560","1440","en","er08em17","null","","","","learningBlock1","","","","That was a bim.","null","","","","",""
"","html-keyboard-response","87","268136","0.0-6.0-2.26","FL","dqehnfb6j7","2560","1440","en","er08em17","null","","","","learningBlock1","","","","<div style=""font-size:60px;""> </div>","null","FL","learning/Slide27.JPG","That was a bim.","",""
"","image-keyboard-response","88","268311","0.0-6.0-0.27","FL","dqehnfb6j7","2560","1440","en","er08em17","null","","","","","","","","learning/Slide28.JPG","null","","","","",""
"","html-keyboard-response","89","269463","0.0-6.0-1.27","FL","dqehnfb6j7","2560","1440","en","er08em17","null","","","","learningBlock1","","","","That was a dep.","null","","","","",""
"","html-keyboard-response","90","270464","0.0-6.0-2.27","FL","dqehnfb6j7","2560","1440","en","er08em17","null","","","","learningBlock1","","","","<div style=""font-size:60px;""> </div>","null","FL","learning/Slide28.JPG","That was a dep.","",""
"","image-keyboard-response","91","270640","0.0-6.0-0.28","FL","dqehnfb6j7","2560","1440","en","er08em17","null","","","","","","","","learning/Slide29.JPG","null","","","","",""
"","html-keyboard-response","92","271791","0.0-6.0-1.28","FL","dqehnfb6j7","2560","1440","en","er08em17","null","","","","learningBlock1","","","","That was a tob.","null","","","","",""
"","html-keyboard-response","93","272792","0.0-6.0-2.28","FL","dqehnfb6j7","2560","1440","en","er08em17","null","","","","learningBlock1","","","","<div style=""font-size:60px;""> </div>","null","FL","learning/Slide29.JPG","That was a tob.","",""
"","image-keyboard-response","94","272969","0.0-6.0-0.29","FL","dqehnfb6j7","2560","1440","en","er08em17","null","","","","","","","","learning/Slide30.JPG","null","","","","",""
"","html-keyboard-response","95","274122","0.0-6.0-1.29","FL","dqehnfb6j7","2560","1440","en","er08em17","null","","","","learningBlock1","","","","That was a dep.","null","","","","",""
"","html-keyboard-response","96","275123","0.0-6.0-2.29","FL","dqehnfb6j7","2560","1440","en","er08em17","null","","","","learningBlock1","","","","<div style=""font-size:60px;""> </div>","null","FL","learning/Slide30.JPG","That was a dep.","",""
"","image-keyboard-response","97","275299","0.0-6.0-0.30","FL","dqehnfb6j7","2560","1440","en","er08em17","null","","","","","","","","learning/Slide31.JPG","null","","","","",""
"","html-keyboard-response","98","276451","0.0-6.0-1.30","FL","dqehnfb6j7","2560","1440","en","er08em17","null","","","","learningBlock1","","","","That was a wug.","null","","","","",""
"","html-keyboard-response","99","277452","0.0-6.0-2.30","FL","dqehnfb6j7","2560","1440","en","er08em17","null","","","","learningBlock1","","","","<div style=""font-size:60px;""> </div>","null","FL","learning/Slide31.JPG","That was a wug.","",""
"","image-keyboard-response","100","277629","0.0-6.0-0.31","FL","dqehnfb6j7","2560","1440","en","er08em17","null","","","","","","","","learning/Slide32.JPG","null","","","","",""
"","html-keyboard-response","101","278780","0.0-6.0-1.31","FL","dqehnfb6j7","2560","1440","en","er08em17","null","","","","learningBlock1","","","","That was a tob.","null","","","","",""
"","html-keyboard-response","102","279780","0.0-6.0-2.31","FL","dqehnfb6j7","2560","1440","en","er08em17","null","","","","learningBlock1","","","","<div style=""font-size:60px;""> </div>","null","FL","learning/Slide32.JPG","That was a tob.","",""
"","image-keyboard-response","103","279957","0.0-6.0-0.32","FL","dqehnfb6j7","2560","1440","en","er08em17","null","","","","","","","","learning/Slide33.JPG","null","","","","",""
"","html-keyboard-response","104","281108","0.0-6.0-1.32","FL","dqehnfb6j7","2560","1440","en","er08em17","null","","","","learningBlock1","","","","That was a bim.","null","","","","",""
"","html-keyboard-response","105","282109","0.0-6.0-2.32","FL","dqehnfb6j7","2560","1440","en","er08em17","null","","","","learningBlock1","","","","<div style=""font-size:60px;""> </div>","null","FL","learning/Slide33.JPG","That was a bim.","",""
"","image-keyboard-response","106","282285","0.0-6.0-0.33","FL","dqehnfb6j7","2560","1440","en","er08em17","null","","","","","","","","learning/Slide34.JPG","null","","","","",""
"","html-keyboard-response","107","283437","0.0-6.0-1.33","FL","dqehnfb6j7","2560","1440","en","er08em17","null","","","","learningBlock1","","","","That was a tob.","null","","","","",""
"","html-keyboard-response","108","284438","0.0-6.0-2.33","FL","dqehnfb6j7","2560","1440","en","er08em17","null","","","","learningBlock1","","","","<div style=""font-size:60px;""> </div>","null","FL","learning/Slide34.JPG","That was a tob.","",""
"","image-keyboard-response","109","284614","0.0-6.0-0.34","FL","dqehnfb6j7","2560","1440","en","er08em17","null","","","","","","","","learning/Slide35.JPG","null","","","","",""
"","html-keyboard-response","110","285766","0.0-6.0-1.34","FL","dqehnfb6j7","2560","1440","en","er08em17","null","","","","learningBlock1","","","","That was a bim.","null","","","","",""
"","html-keyboard-response","111","286767","0.0-6.0-2.34","FL","dqehnfb6j7","2560","1440","en","er08em17","null","","","","learningBlock1","","","","<div style=""font-size:60px;""> </div>","null","FL","learning/Slide35.JPG","That was a bim.","",""
"","image-keyboard-response","112","286943","0.0-6.0-0.35","FL","dqehnfb6j7","2560","1440","en","er08em17","null","","","","","","","","learning/Slide36.JPG","null","","","","",""
"","html-keyboard-response","113","288095","0.0-6.0-1.35","FL","dqehnfb6j7","2560","1440","en","er08em17","null","","","","learningBlock1","","","","That was a dep.","null","","","","",""
"","html-keyboard-response","114","289096","0.0-6.0-2.35","FL","dqehnfb6j7","2560","1440","en","er08em17","null","","","","learningBlock1","","","","<div style=""font-size:60px;""> </div>","null","FL","learning/Slide36.JPG","That was a dep.","",""
"","image-keyboard-response","115","289272","0.0-6.0-0.36","FL","dqehnfb6j7","2560","1440","en","er08em17","null","","","","","","","","learning/Slide37.JPG","null","","","","",""
"","html-keyboard-response","116","290423","0.0-6.0-1.36","FL","dqehnfb6j7","2560","1440","en","er08em17","null","","","","learningBlock1","","","","That was a tob.","null","","","","",""
"","html-keyboard-response","117","291424","0.0-6.0-2.36","FL","dqehnfb6j7","2560","1440","en","er08em17","null","","","","learningBlock1","","","","<div style=""font-size:60px;""> </div>","null","FL","learning/Slide37.JPG","That was a tob.","",""
"","image-keyboard-response","118","291600","0.0-6.0-0.37","FL","dqehnfb6j7","2560","1440","en","er08em17","null","","","","","","","","learning/Slide38.JPG","null","","","","",""
"","html-keyboard-response","119","292751","0.0-6.0-1.37","FL","dqehnfb6j7","2560","1440","en","er08em17","null","","","","learningBlock1","","","","That was a wug.","null","","","","",""
"","html-keyboard-response","120","293752","0.0-6.0-2.37","FL","dqehnfb6j7","2560","1440","en","er08em17","null","","","","learningBlock1","","","","<div style=""font-size:60px;""> </div>","null","FL","learning/Slide38.JPG","That was a wug.","",""
"","image-keyboard-response","121","293928","0.0-6.0-0.38","FL","dqehnfb6j7","2560","1440","en","er08em17","null","","","","","","","","learning/Slide39.JPG","null","","","","",""
"","html-keyboard-response","122","295079","0.0-6.0-1.38","FL","dqehnfb6j7","2560","1440","en","er08em17","null","","","","learningBlock1","","","","That was a bim.","null","","","","",""
"","html-keyboard-response","123","296080","0.0-6.0-2.38","FL","dqehnfb6j7","2560","1440","en","er08em17","null","","","","learningBlock1","","","","<div style=""font-size:60px;""> </div>","null","FL","learning/Slide39.JPG","That was a bim.","",""
"","image-keyboard-response","124","296255","0.0-6.0-0.39","FL","dqehnfb6j7","2560","1440","en","er08em17","null","","","","","","","","learning/Slide40.JPG","null","","","","",""
"","html-keyboard-response","125","297406","0.0-6.0-1.39","FL","dqehnfb6j7","2560","1440","en","er08em17","null","","","","learningBlock1","","","","That was a tob.","null","","","","",""
"","html-keyboard-response","126","298407","0.0-6.0-2.39","FL","dqehnfb6j7","2560","1440","en","er08em17","null","","","","learningBlock1","","","","<div style=""font-size:60px;""> </div>","null","FL","learning/Slide40.JPG","That was a tob.","",""
"","image-keyboard-response","127","298582","0.0-6.0-0.40","FL","dqehnfb6j7","2560","1440","en","er08em17","null","","","","","","","","learning/Slide41.JPG","null","","","","",""
"","html-keyboard-response","128","299734","0.0-6.0-1.40","FL","dqehnfb6j7","2560","1440","en","er08em17","null","","","","learningBlock1","","","","That was a bim.","null","","","","",""
"","html-keyboard-response","129","300735","0.0-6.0-2.40","FL","dqehnfb6j7","2560","1440","en","er08em17","null","","","","learningBlock1","","","","<div style=""font-size:60px;""> </div>","null","FL","learning/Slide41.JPG","That was a bim.","",""
"","image-keyboard-response","130","300911","0.0-6.0-0.41","FL","dqehnfb6j7","2560","1440","en","er08em17","null","","","","","","","","learning/Slide42.JPG","null","","","","",""
"","html-keyboard-response","131","302062","0.0-6.0-1.41","FL","dqehnfb6j7","2560","1440","en","er08em17","null","","","","learningBlock1","","","","That was a dep.","null","","","","",""
"","html-keyboard-response","132","303063","0.0-6.0-2.41","FL","dqehnfb6j7","2560","1440","en","er08em17","null","","","","learningBlock1","","","","<div style=""font-size:60px;""> </div>","null","FL","learning/Slide42.JPG","That was a dep.","",""
"","image-keyboard-response","133","303239","0.0-6.0-0.42","FL","dqehnfb6j7","2560","1440","en","er08em17","null","","","","","","","","learning/Slide43.JPG","null","","","","",""
"","html-keyboard-response","134","304391","0.0-6.0-1.42","FL","dqehnfb6j7","2560","1440","en","er08em17","null","","","","learningBlock1","","","","That was a wug.","null","","","","",""
"","html-keyboard-response","135","305391","0.0-6.0-2.42","FL","dqehnfb6j7","2560","1440","en","er08em17","null","","","","learningBlock1","","","","<div style=""font-size:60px;""> </div>","null","FL","learning/Slide43.JPG","That was a wug.","",""
"","image-keyboard-response","136","305567","0.0-6.0-0.43","FL","dqehnfb6j7","2560","1440","en","er08em17","null","","","","","","","","learning/Slide44.JPG","null","","","","",""
"","html-keyboard-response","137","306718","0.0-6.0-1.43","FL","dqehnfb6j7","2560","1440","en","er08em17","null","","","","learningBlock1","","","","That was a bim.","null","","","","",""
"","html-keyboard-response","138","307720","0.0-6.0-2.43","FL","dqehnfb6j7","2560","1440","en","er08em17","null","","","","learningBlock1","","","","<div style=""font-size:60px;""> </div>","null","FL","learning/Slide44.JPG","That was a bim.","",""
"","image-keyboard-response","139","307895","0.0-6.0-0.44","FL","dqehnfb6j7","2560","1440","en","er08em17","null","","","","","","","","learning/Slide45.JPG","null","","","","",""
"","html-keyboard-response","140","309048","0.0-6.0-1.44","FL","dqehnfb6j7","2560","1440","en","er08em17","null","","","","learningBlock1","","","","That was a wug.","null","","","","",""
"","html-keyboard-response","141","310049","0.0-6.0-2.44","FL","dqehnfb6j7","2560","1440","en","er08em17","null","","","","learningBlock1","","","","<div style=""font-size:60px;""> </div>","null","FL","learning/Slide45.JPG","That was a wug.","",""
"","image-keyboard-response","142","310226","0.0-6.0-0.45","FL","dqehnfb6j7","2560","1440","en","er08em17","null","","","","","","","","learning/Slide46.JPG","null","","","","",""
"","html-keyboard-response","143","311378","0.0-6.0-1.45","FL","dqehnfb6j7","2560","1440","en","er08em17","null","","","","learningBlock1","","","","That was a dep.","null","","","","",""
"","html-keyboard-response","144","312379","0.0-6.0-2.45","FL","dqehnfb6j7","2560","1440","en","er08em17","null","","","","learningBlock1","","","","<div style=""font-size:60px;""> </div>","null","FL","learning/Slide46.JPG","That was a dep.","",""
"","image-keyboard-response","145","312555","0.0-6.0-0.46","FL","dqehnfb6j7","2560","1440","en","er08em17","null","","","","","","","","learning/Slide47.JPG","null","","","","",""
"","html-keyboard-response","146","313707","0.0-6.0-1.46","FL","dqehnfb6j7","2560","1440","en","er08em17","null","","","","learningBlock1","","","","That was a tob.","null","","","","",""
"","html-keyboard-response","147","314707","0.0-6.0-2.46","FL","dqehnfb6j7","2560","1440","en","er08em17","null","","","","learningBlock1","","","","<div style=""font-size:60px;""> </div>","null","FL","learning/Slide47.JPG","That was a tob.","",""
"","image-keyboard-response","148","314883","0.0-6.0-0.47","FL","dqehnfb6j7","2560","1440","en","er08em17","null","","","","","","","","learning/Slide48.JPG","null","","","","",""
"","html-keyboard-response","149","316035","0.0-6.0-1.47","FL","dqehnfb6j7","2560","1440","en","er08em17","null","","","","learningBlock1","","","","That was a bim.","null","","","","",""
"","html-keyboard-response","150","317036","0.0-6.0-2.47","FL","dqehnfb6j7","2560","1440","en","er08em17","null","","","","learningBlock1","","","","<div style=""font-size:60px;""> </div>","null","FL","learning/Slide48.JPG","That was a bim.","",""
"","image-keyboard-response","151","317212","0.0-6.0-0.48","FL","dqehnfb6j7","2560","1440","en","er08em17","null","","","","","","","","learning/Slide49.JPG","null","","","","",""
"","html-keyboard-response","152","318364","0.0-6.0-1.48","FL","dqehnfb6j7","2560","1440","en","er08em17","null","","","","learningBlock1","","","","That was a dep.","null","","","","",""
"","html-keyboard-response","153","319365","0.0-6.0-2.48","FL","dqehnfb6j7","2560","1440","en","er08em17","null","","","","learningBlock1","","","","<div style=""font-size:60px;""> </div>","null","FL","learning/Slide49.JPG","That was a dep.","",""
"","image-keyboard-response","154","319542","0.0-6.0-0.49","FL","dqehnfb6j7","2560","1440","en","er08em17","null","","","","","","","","learning/Slide50.JPG","null","","","","",""
"","html-keyboard-response","155","320693","0.0-6.0-1.49","FL","dqehnfb6j7","2560","1440","en","er08em17","null","","","","learningBlock1","","","","That was a tob.","null","","","","",""
"","html-keyboard-response","156","321694","0.0-6.0-2.49","FL","dqehnfb6j7","2560","1440","en","er08em17","null","","","","learningBlock1","","","","<div style=""font-size:60px;""> </div>","null","FL","learning/Slide50.JPG","That was a tob.","",""
"","image-keyboard-response","157","321870","0.0-6.0-0.50","FL","dqehnfb6j7","2560","1440","en","er08em17","null","","","","","","","","learning/Slide51.JPG","null","","","","",""
"","html-keyboard-response","158","323022","0.0-6.0-1.50","FL","dqehnfb6j7","2560","1440","en","er08em17","null","","","","learningBlock1","","","","That was a bim.","null","","","","",""
"","html-keyboard-response","159","324023","0.0-6.0-2.50","FL","dqehnfb6j7","2560","1440","en","er08em17","null","","","","learningBlock1","","","","<div style=""font-size:60px;""> </div>","null","FL","learning/Slide51.JPG","That was a bim.","",""
"","image-keyboard-response","160","324199","0.0-6.0-0.51","FL","dqehnfb6j7","2560","1440","en","er08em17","null","","","","","","","","learning/Slide52.JPG","null","","","","",""
"","html-keyboard-response","161","325351","0.0-6.0-1.51","FL","dqehnfb6j7","2560","1440","en","er08em17","null","","","","learningBlock1","","","","That was a wug.","null","","","","",""
"","html-keyboard-response","162","326352","0.0-6.0-2.51","FL","dqehnfb6j7","2560","1440","en","er08em17","null","","","","learningBlock1","","","","<div style=""font-size:60px;""> </div>","null","FL","learning/Slide52.JPG","That was a wug.","",""
"","image-keyboard-response","163","326528","0.0-6.0-0.52","FL","dqehnfb6j7","2560","1440","en","er08em17","null","","","","","","","","learning/Slide53.JPG","null","","","","",""
"","html-keyboard-response","164","327681","0.0-6.0-1.52","FL","dqehnfb6j7","2560","1440","en","er08em17","null","","","","learningBlock1","","","","That was a tob.","null","","","","",""
"","html-keyboard-response","165","328682","0.0-6.0-2.52","FL","dqehnfb6j7","2560","1440","en","er08em17","null","","","","learningBlock1","","","","<div style=""font-size:60px;""> </div>","null","FL","learning/Slide53.JPG","That was a tob.","",""
"","image-keyboard-response","166","328857","0.0-6.0-0.53","FL","dqehnfb6j7","2560","1440","en","er08em17","null","","","","","","","","learning/Slide54.JPG","null","","","","",""
"","html-keyboard-response","167","330009","0.0-6.0-1.53","FL","dqehnfb6j7","2560","1440","en","er08em17","null","","","","learningBlock1","","","","That was a dep.","null","","","","",""
"","html-keyboard-response","168","331010","0.0-6.0-2.53","FL","dqehnfb6j7","2560","1440","en","er08em17","null","","","","learningBlock1","","","","<div style=""font-size:60px;""> </div>","null","FL","learning/Slide54.JPG","That was a dep.","",""
"","image-keyboard-response","169","331186","0.0-6.0-0.54","FL","dqehnfb6j7","2560","1440","en","er08em17","null","","","","","","","","learning/Slide55.JPG","null","","","","",""
"","html-keyboard-response","170","332338","0.0-6.0-1.54","FL","dqehnfb6j7","2560","1440","en","er08em17","null","","","","learningBlock1","","","","That was a bim.","null","","","","",""
"","html-keyboard-response","171","333340","0.0-6.0-2.54","FL","dqehnfb6j7","2560","1440","en","er08em17","null","","","","learningBlock1","","","","<div style=""font-size:60px;""> </div>","null","FL","learning/Slide55.JPG","That was a bim.","",""
"","image-keyboard-response","172","333516","0.0-6.0-0.55","FL","dqehnfb6j7","2560","1440","en","er08em17","null","","","","","","","","learning/Slide56.JPG","null","","","","",""
"","html-keyboard-response","173","334666","0.0-6.0-1.55","FL","dqehnfb6j7","2560","1440","en","er08em17","null","","","","learningBlock1","","","","That was a tob.","null","","","","",""
"","html-keyboard-response","174","335667","0.0-6.0-2.55","FL","dqehnfb6j7","2560","1440","en","er08em17","null","","","","learningBlock1","","","","<div style=""font-size:60px;""> </div>","null","FL","learning/Slide56.JPG","That was a tob.","",""
"","image-keyboard-response","175","335843","0.0-6.0-0.56","FL","dqehnfb6j7","2560","1440","en","er08em17","null","","","","","","","","learning/Slide57.JPG","null","","","","",""
"","html-keyboard-response","176","336995","0.0-6.0-1.56","FL","dqehnfb6j7","2560","1440","en","er08em17","null","","","","learningBlock1","","","","That was a dep.","null","","","","",""
"","html-keyboard-response","177","337996","0.0-6.0-2.56","FL","dqehnfb6j7","2560","1440","en","er08em17","null","","","","learningBlock1","","","","<div style=""font-size:60px;""> </div>","null","FL","learning/Slide57.JPG","That was a dep.","",""
"","image-keyboard-response","178","338173","0.0-6.0-0.57","FL","dqehnfb6j7","2560","1440","en","er08em17","null","","","","","","","","learning/Slide58.JPG","null","","","","",""
"","html-keyboard-response","179","339324","0.0-6.0-1.57","FL","dqehnfb6j7","2560","1440","en","er08em17","null","","","","learningBlock1","","","","That was a wug.","null","","","","",""
"","html-keyboard-response","180","340325","0.0-6.0-2.57","FL","dqehnfb6j7","2560","1440","en","er08em17","null","","","","learningBlock1","","","","<div style=""font-size:60px;""> </div>","null","FL","learning/Slide58.JPG","That was a wug.","",""
"","image-keyboard-response","181","340501","0.0-6.0-0.58","FL","dqehnfb6j7","2560","1440","en","er08em17","null","","","","","","","","learning/Slide59.JPG","null","","","","",""
"","html-keyboard-response","182","341652","0.0-6.0-1.58","FL","dqehnfb6j7","2560","1440","en","er08em17","null","","","","learningBlock1","","","","That was a dep.","null","","","","",""
"","html-keyboard-response","183","342654","0.0-6.0-2.58","FL","dqehnfb6j7","2560","1440","en","er08em17","null","","","","learningBlock1","","","","<div style=""font-size:60px;""> </div>","null","FL","learning/Slide59.JPG","That was a dep.","",""
"","image-keyboard-response","184","342830","0.0-6.0-0.59","FL","dqehnfb6j7","2560","1440","en","er08em17","null","","","","","","","","learning/Slide60.JPG","null","","","","",""
"","html-keyboard-response","185","343982","0.0-6.0-1.59","FL","dqehnfb6j7","2560","1440","en","er08em17","null","","","","learningBlock1","","","","That was a wug.","null","","","","",""
"","html-keyboard-response","186","344983","0.0-6.0-2.59","FL","dqehnfb6j7","2560","1440","en","er08em17","null","","","","learningBlock1","","","","<div style=""font-size:60px;""> </div>","null","FL","learning/Slide60.JPG","That was a wug.","",""
"","image-keyboard-response","187","345159","0.0-6.0-0.60","FL","dqehnfb6j7","2560","1440","en","er08em17","null","","","","","","","","learning/Slide61.JPG","null","","","","",""
"","html-keyboard-response","188","346311","0.0-6.0-1.60","FL","dqehnfb6j7","2560","1440","en","er08em17","null","","","","learningBlock1","","","","That was a bim.","null","","","","",""
"","html-keyboard-response","189","347313","0.0-6.0-2.60","FL","dqehnfb6j7","2560","1440","en","er08em17","null","","","","learningBlock1","","","","<div style=""font-size:60px;""> </div>","null","FL","learning/Slide61.JPG","That was a bim.","",""
"","image-keyboard-response","190","347489","0.0-6.0-0.61","FL","dqehnfb6j7","2560","1440","en","er08em17","null","","","","","","","","learning/Slide62.JPG","null","","","","",""
"","html-keyboard-response","191","348641","0.0-6.0-1.61","FL","dqehnfb6j7","2560","1440","en","er08em17","null","","","","learningBlock1","","","","That was a dep.","null","","","","",""
"","html-keyboard-response","192","349642","0.0-6.0-2.61","FL","dqehnfb6j7","2560","1440","en","er08em17","null","","","","learningBlock1","","","","<div style=""font-size:60px;""> </div>","null","FL","learning/Slide62.JPG","That was a dep.","",""
"","image-keyboard-response","193","349818","0.0-6.0-0.62","FL","dqehnfb6j7","2560","1440","en","er08em17","null","","","","","","","","learning/Slide63.JPG","null","","","","",""
"","html-keyboard-response","194","350971","0.0-6.0-1.62","FL","dqehnfb6j7","2560","1440","en","er08em17","null","","","","learningBlock1","","","","That was a bim.","null","","","","",""
"","html-keyboard-response","195","351972","0.0-6.0-2.62","FL","dqehnfb6j7","2560","1440","en","er08em17","null","","","","learningBlock1","","","","<div style=""font-size:60px;""> </div>","null","FL","learning/Slide63.JPG","That was a bim.","",""
"","image-keyboard-response","196","352148","0.0-6.0-0.63","FL","dqehnfb6j7","2560","1440","en","er08em17","null","","","","","","","","learning/Slide64.JPG","null","","","","",""
"","html-keyboard-response","197","353299","0.0-6.0-1.63","FL","dqehnfb6j7","2560","1440","en","er08em17","null","","","","learningBlock1","","","","That was a tob.","null","","","","",""
"","html-keyboard-response","198","354301","0.0-6.0-2.63","FL","dqehnfb6j7","2560","1440","en","er08em17","null","","","","learningBlock1","","","","<div style=""font-size:60px;""> </div>","null","FL","learning/Slide64.JPG","That was a tob.","",""
"","image-keyboard-response","199","354477","0.0-6.0-0.64","FL","dqehnfb6j7","2560","1440","en","er08em17","null","","","","","","","","learning/Slide65.JPG","null","","","","",""
"","html-keyboard-response","200","355628","0.0-6.0-1.64","FL","dqehnfb6j7","2560","1440","en","er08em17","null","","","","learningBlock1","","","","That was a wug.","null","","","","",""
"","html-keyboard-response","201","356629","0.0-6.0-2.64","FL","dqehnfb6j7","2560","1440","en","er08em17","null","","","","learningBlock1","","","","<div style=""font-size:60px;""> </div>","null","FL","learning/Slide65.JPG","That was a wug.","",""
"","image-keyboard-response","202","356805","0.0-6.0-0.65","FL","dqehnfb6j7","2560","1440","en","er08em17","null","","","","","","","","learning/Slide66.JPG","null","","","","",""
"","html-keyboard-response","203","357956","0.0-6.0-1.65","FL","dqehnfb6j7","2560","1440","en","er08em17","null","","","","learningBlock1","","","","That was a dep.","null","","","","",""
"","html-keyboard-response","204","358957","0.0-6.0-2.65","FL","dqehnfb6j7","2560","1440","en","er08em17","null","","","","learningBlock1","","","","<div style=""font-size:60px;""> </div>","null","FL","learning/Slide66.JPG","That was a dep.","",""
"","image-keyboard-response","205","359133","0.0-6.0-0.66","FL","dqehnfb6j7","2560","1440","en","er08em17","null","","","","","","","","learning/Slide67.JPG","null","","","","",""
"","html-keyboard-response","206","360284","0.0-6.0-1.66","FL","dqehnfb6j7","2560","1440","en","er08em17","null","","","","learningBlock1","","","","That was a tob.","null","","","","",""
"","html-keyboard-response","207","361285","0.0-6.0-2.66","FL","dqehnfb6j7","2560","1440","en","er08em17","null","","","","learningBlock1","","","","<div style=""font-size:60px;""> </div>","null","FL","learning/Slide67.JPG","That was a tob.","",""
"","image-keyboard-response","208","361461","0.0-6.0-0.67","FL","dqehnfb6j7","2560","1440","en","er08em17","null","","","","","","","","learning/Slide68.JPG","null","","","","",""
"","html-keyboard-response","209","362613","0.0-6.0-1.67","FL","dqehnfb6j7","2560","1440","en","er08em17","null","","","","learningBlock1","","","","That was a wug.","null","","","","",""
"","html-keyboard-response","210","363614","0.0-6.0-2.67","FL","dqehnfb6j7","2560","1440","en","er08em17","null","","","","learningBlock1","","","","<div style=""font-size:60px;""> </div>","null","FL","learning/Slide68.JPG","That was a wug.","",""
"","image-keyboard-response","211","363790","0.0-6.0-0.68","FL","dqehnfb6j7","2560","1440","en","er08em17","null","","","","","","","","learning/Slide69.JPG","null","","","","",""
"","html-keyboard-response","212","364941","0.0-6.0-1.68","FL","dqehnfb6j7","2560","1440","en","er08em17","null","","","","learningBlock1","","","","That was a tob.","null","","","","",""
"","html-keyboard-response","213","365942","0.0-6.0-2.68","FL","dqehnfb6j7","2560","1440","en","er08em17","null","","","","learningBlock1","","","","<div style=""font-size:60px;""> </div>","null","FL","learning/Slide69.JPG","That was a tob.","",""
"","image-keyboard-response","214","366119","0.0-6.0-0.69","FL","dqehnfb6j7","2560","1440","en","er08em17","null","","","","","","","","learning/Slide70.JPG","null","","","","",""
"","html-keyboard-response","215","367270","0.0-6.0-1.69","FL","dqehnfb6j7","2560","1440","en","er08em17","null","","","","learningBlock1","","","","That was a dep.","null","","","","",""
"","html-keyboard-response","216","368271","0.0-6.0-2.69","FL","dqehnfb6j7","2560","1440","en","er08em17","null","","","","learningBlock1","","","","<div style=""font-size:60px;""> </div>","null","FL","learning/Slide70.JPG","That was a dep.","",""
"","image-keyboard-response","217","368448","0.0-6.0-0.70","FL","dqehnfb6j7","2560","1440","en","er08em17","null","","","","","","","","learning/Slide71.JPG","null","","","","",""
"","html-keyboard-response","218","369599","0.0-6.0-1.70","FL","dqehnfb6j7","2560","1440","en","er08em17","null","","","","learningBlock1","","","","That was a wug.","null","","","","",""
"","html-keyboard-response","219","370600","0.0-6.0-2.70","FL","dqehnfb6j7","2560","1440","en","er08em17","null","","","","learningBlock1","","","","<div style=""font-size:60px;""> </div>","null","FL","learning/Slide71.JPG","That was a wug.","",""
"","image-keyboard-response","220","370776","0.0-6.0-0.71","FL","dqehnfb6j7","2560","1440","en","er08em17","null","","","","","","","","learning/Slide72.JPG","null","","","","",""
"","html-keyboard-response","221","371930","0.0-6.0-1.71","FL","dqehnfb6j7","2560","1440","en","er08em17","null","","","","learningBlock1","","","","That was a bim.","null","","","","",""
"","html-keyboard-response","222","372930","0.0-6.0-2.71","FL","dqehnfb6j7","2560","1440","en","er08em17","null","","","","learningBlock1","","","","<div style=""font-size:60px;""> </div>","null","FL","learning/Slide72.JPG","That was a bim.","",""
"","image-keyboard-response","223","373106","0.0-6.0-0.72","FL","dqehnfb6j7","2560","1440","en","er08em17","null","","","","","","","","learning/Slide73.JPG","null","","","","",""
"","html-keyboard-response","224","374257","0.0-6.0-1.72","FL","dqehnfb6j7","2560","1440","en","er08em17","null","","","","learningBlock1","","","","That was a wug.","null","","","","",""
"","html-keyboard-response","225","375258","0.0-6.0-2.72","FL","dqehnfb6j7","2560","1440","en","er08em17","null","","","","learningBlock1","","","","<div style=""font-size:60px;""> </div>","null","FL","learning/Slide73.JPG","That was a wug.","",""
"","image-keyboard-response","226","375435","0.0-6.0-0.73","FL","dqehnfb6j7","2560","1440","en","er08em17","null","","","","","","","","learning/Slide74.JPG","null","","","","",""
"","html-keyboard-response","227","376586","0.0-6.0-1.73","FL","dqehnfb6j7","2560","1440","en","er08em17","null","","","","learningBlock1","","","","That was a dep.","null","","","","",""
"","html-keyboard-response","228","377587","0.0-6.0-2.73","FL","dqehnfb6j7","2560","1440","en","er08em17","null","","","","learningBlock1","","","","<div style=""font-size:60px;""> </div>","null","FL","learning/Slide74.JPG","That was a dep.","",""
"","image-keyboard-response","229","377763","0.0-6.0-0.74","FL","dqehnfb6j7","2560","1440","en","er08em17","null","","","","","","","","learning/Slide75.JPG","null","","","","",""
"","html-keyboard-response","230","378915","0.0-6.0-1.74","FL","dqehnfb6j7","2560","1440","en","er08em17","null","","","","learningBlock1","","","","That was a tob.","null","","","","",""
"","html-keyboard-response","231","379916","0.0-6.0-2.74","FL","dqehnfb6j7","2560","1440","en","er08em17","null","","","","learningBlock1","","","","<div style=""font-size:60px;""> </div>","null","FL","learning/Slide75.JPG","That was a tob.","",""
"","image-keyboard-response","232","380100","0.0-6.0-0.75","FL","dqehnfb6j7","2560","1440","en","er08em17","null","","","","","","","","learning/Slide76.JPG","null","","","","",""
"","html-keyboard-response","233","381251","0.0-6.0-1.75","FL","dqehnfb6j7","2560","1440","en","er08em17","null","","","","learningBlock1","","","","That was a bim.","null","","","","",""
"","html-keyboard-response","234","382252","0.0-6.0-2.75","FL","dqehnfb6j7","2560","1440","en","er08em17","null","","","","learningBlock1","","","","<div style=""font-size:60px;""> </div>","null","FL","learning/Slide76.JPG","That was a bim.","",""
"","image-keyboard-response","235","382428","0.0-6.0-0.76","FL","dqehnfb6j7","2560","1440","en","er08em17","null","","","","","","","","learning/Slide77.JPG","null","","","","",""
"","html-keyboard-response","236","383580","0.0-6.0-1.76","FL","dqehnfb6j7","2560","1440","en","er08em17","null","","","","learningBlock1","","","","That was a tob.","null","","","","",""
"","html-keyboard-response","237","384580","0.0-6.0-2.76","FL","dqehnfb6j7","2560","1440","en","er08em17","null","","","","learningBlock1","","","","<div style=""font-size:60px;""> </div>","null","FL","learning/Slide77.JPG","That was a tob.","",""
"","image-keyboard-response","238","384756","0.0-6.0-0.77","FL","dqehnfb6j7","2560","1440","en","er08em17","null","","","","","","","","learning/Slide78.JPG","null","","","","",""
"","html-keyboard-response","239","385909","0.0-6.0-1.77","FL","dqehnfb6j7","2560","1440","en","er08em17","null","","","","learningBlock1","","","","That was a wug.","null","","","","",""
"","html-keyboard-response","240","386910","0.0-6.0-2.77","FL","dqehnfb6j7","2560","1440","en","er08em17","null","","","","learningBlock1","","","","<div style=""font-size:60px;""> </div>","null","FL","learning/Slide78.JPG","That was a wug.","",""
"","image-keyboard-response","241","387086","0.0-6.0-0.78","FL","dqehnfb6j7","2560","1440","en","er08em17","null","","","","","","","","learning/Slide79.JPG","null","","","","",""
"","html-keyboard-response","242","388239","0.0-6.0-1.78","FL","dqehnfb6j7","2560","1440","en","er08em17","null","","","","learningBlock1","","","","That was a bim.","null","","","","",""
"","html-keyboard-response","243","389239","0.0-6.0-2.78","FL","dqehnfb6j7","2560","1440","en","er08em17","null","","","","learningBlock1","","","","<div style=""font-size:60px;""> </div>","null","FL","learning/Slide79.JPG","That was a bim.","",""
"","image-keyboard-response","244","389416","0.0-6.0-0.79","FL","dqehnfb6j7","2560","1440","en","er08em17","null","","","","","","","","learning/Slide80.JPG","null","","","","",""
"","html-keyboard-response","245","390574","0.0-6.0-1.79","FL","dqehnfb6j7","2560","1440","en","er08em17","null","","","","learningBlock1","","","","That was a tob.","null","","","","",""
"","html-keyboard-response","246","391575","0.0-6.0-2.79","FL","dqehnfb6j7","2560","1440","en","er08em17","null","","","","learningBlock1","","","","<div style=""font-size:60px;""> </div>","null","FL","learning/Slide80.JPG","That was a tob.","",""
"","instructions","247","394232","0.0-7.0","FL","dqehnfb6j7","2560","1440","en","er08em17","NA","","","[{""page_index"":0,""viewing_time"":2656.144999957178}]","instructions","","","","","","","","","",""
"","image-keyboard-response","248","394408","0.0-8.0-0.0","FL","dqehnfb6j7","2560","1440","en","er08em17","null","","","","","","","","learning/Slide81.JPG","null","","","","",""
"","html-keyboard-response","249","395560","0.0-8.0-1.0","FL","dqehnfb6j7","2560","1440","en","er08em17","null","","","","learningBlock2","","","","That was a wug.","null","","","","",""
"","html-keyboard-response","250","396560","0.0-8.0-2.0","FL","dqehnfb6j7","2560","1440","en","er08em17","null","","","","learningBlock2","","","","<div style=""font-size:60px;""> </div>","null","FL","learning/Slide81.JPG","That was a wug.","",""
"","image-keyboard-response","251","396736","0.0-8.0-0.1","FL","dqehnfb6j7","2560","1440","en","er08em17","null","","","","","","","","learning/Slide82.JPG","null","","","","",""
"","html-keyboard-response","252","397888","0.0-8.0-1.1","FL","dqehnfb6j7","2560","1440","en","er08em17","null","","","","learningBlock2","","","","That was a bim.","null","","","","",""
"","html-keyboard-response","253","398889","0.0-8.0-2.1","FL","dqehnfb6j7","2560","1440","en","er08em17","null","","","","learningBlock2","","","","<div style=""font-size:60px;""> </div>","null","FL","learning/Slide82.JPG","That was a bim.","",""
"","image-keyboard-response","254","399065","0.0-8.0-0.2","FL","dqehnfb6j7","2560","1440","en","er08em17","null","","","","","","","","learning/Slide83.JPG","null","","","","",""
"","html-keyboard-response","255","400216","0.0-8.0-1.2","FL","dqehnfb6j7","2560","1440","en","er08em17","null","","","","learningBlock2","","","","That was a wug.","null","","","","",""
"","html-keyboard-response","256","401216","0.0-8.0-2.2","FL","dqehnfb6j7","2560","1440","en","er08em17","null","","","","learningBlock2","","","","<div style=""font-size:60px;""> </div>","null","FL","learning/Slide83.JPG","That was a wug.","",""
"","image-keyboard-response","257","401392","0.0-8.0-0.3","FL","dqehnfb6j7","2560","1440","en","er08em17","null","","","","","","","","learning/Slide84.JPG","null","","","","",""
"","html-keyboard-response","258","402544","0.0-8.0-1.3","FL","dqehnfb6j7","2560","1440","en","er08em17","null","","","","learningBlock2","","","","That was a dep.","null","","","","",""
"","html-keyboard-response","259","403545","0.0-8.0-2.3","FL","dqehnfb6j7","2560","1440","en","er08em17","null","","","","learningBlock2","","","","<div style=""font-size:60px;""> </div>","null","FL","learning/Slide84.JPG","That was a dep.","",""
"","image-keyboard-response","260","403721","0.0-8.0-0.4","FL","dqehnfb6j7","2560","1440","en","er08em17","null","","","","","","","","learning/Slide85.JPG","null","","","","",""
"","html-keyboard-response","261","404873","0.0-8.0-1.4","FL","dqehnfb6j7","2560","1440","en","er08em17","null","","","","learningBlock2","","","","That was a bim.","null","","","","",""
"","html-keyboard-response","262","405873","0.0-8.0-2.4","FL","dqehnfb6j7","2560","1440","en","er08em17","null","","","","learningBlock2","","","","<div style=""font-size:60px;""> </div>","null","FL","learning/Slide85.JPG","That was a bim.","",""
"","image-keyboard-response","263","406049","0.0-8.0-0.5","FL","dqehnfb6j7","2560","1440","en","er08em17","null","","","","","","","","learning/Slide86.JPG","null","","","","",""
"","html-keyboard-response","264","407201","0.0-8.0-1.5","FL","dqehnfb6j7","2560","1440","en","er08em17","null","","","","learningBlock2","","","","That was a tob.","null","","","","",""
"","html-keyboard-response","265","408203","0.0-8.0-2.5","FL","dqehnfb6j7","2560","1440","en","er08em17","null","","","","learningBlock2","","","","<div style=""font-size:60px;""> </div>","null","FL","learning/Slide86.JPG","That was a tob.","",""
"","image-keyboard-response","266","408379","0.0-8.0-0.6","FL","dqehnfb6j7","2560","1440","en","er08em17","null","","","","","","","","learning/Slide87.JPG","null","","","","",""
"","html-keyboard-response","267","409531","0.0-8.0-1.6","FL","dqehnfb6j7","2560","1440","en","er08em17","null","","","","learningBlock2","","","","That was a wug.","null","","","","",""
"","html-keyboard-response","268","410531","0.0-8.0-2.6","FL","dqehnfb6j7","2560","1440","en","er08em17","null","","","","learningBlock2","","","","<div style=""font-size:60px;""> </div>","null","FL","learning/Slide87.JPG","That was a wug.","",""
"","image-keyboard-response","269","410708","0.0-8.0-0.7","FL","dqehnfb6j7","2560","1440","en","er08em17","null","","","","","","","","learning/Slide88.JPG","null","","","","",""
"","html-keyboard-response","270","411859","0.0-8.0-1.7","FL","dqehnfb6j7","2560","1440","en","er08em17","null","","","","learningBlock2","","","","That was a tob.","null","","","","",""
"","html-keyboard-response","271","412860","0.0-8.0-2.7","FL","dqehnfb6j7","2560","1440","en","er08em17","null","","","","learningBlock2","","","","<div style=""font-size:60px;""> </div>","null","FL","learning/Slide88.JPG","That was a tob.","",""
"","image-keyboard-response","272","413036","0.0-8.0-0.8","FL","dqehnfb6j7","2560","1440","en","er08em17","null","","","","","","","","learning/Slide89.JPG","null","","","","",""
"","html-keyboard-response","273","414188","0.0-8.0-1.8","FL","dqehnfb6j7","2560","1440","en","er08em17","null","","","","learningBlock2","","","","That was a bim.","null","","","","",""
"","html-keyboard-response","274","415189","0.0-8.0-2.8","FL","dqehnfb6j7","2560","1440","en","er08em17","null","","","","learningBlock2","","","","<div style=""font-size:60px;""> </div>","null","FL","learning/Slide89.JPG","That was a bim.","",""
"","image-keyboard-response","275","415365","0.0-8.0-0.9","FL","dqehnfb6j7","2560","1440","en","er08em17","null","","","","","","","","learning/Slide90.JPG","null","","","","",""
"","html-keyboard-response","276","416516","0.0-8.0-1.9","FL","dqehnfb6j7","2560","1440","en","er08em17","null","","","","learningBlock2","","","","That was a dep.","null","","","","",""
"","html-keyboard-response","277","417517","0.0-8.0-2.9","FL","dqehnfb6j7","2560","1440","en","er08em17","null","","","","learningBlock2","","","","<div style=""font-size:60px;""> </div>","null","FL","learning/Slide90.JPG","That was a dep.","",""
"","image-keyboard-response","278","417693","0.0-8.0-0.10","FL","dqehnfb6j7","2560","1440","en","er08em17","null","","","","","","","","learning/Slide91.JPG","null","","","","",""
"","html-keyboard-response","279","418845","0.0-8.0-1.10","FL","dqehnfb6j7","2560","1440","en","er08em17","null","","","","learningBlock2","","","","That was a wug.","null","","","","",""
"","html-keyboard-response","280","419846","0.0-8.0-2.10","FL","dqehnfb6j7","2560","1440","en","er08em17","null","","","","learningBlock2","","","","<div style=""font-size:60px;""> </div>","null","FL","learning/Slide91.JPG","That was a wug.","",""
"","image-keyboard-response","281","420021","0.0-8.0-0.11","FL","dqehnfb6j7","2560","1440","en","er08em17","null","","","","","","","","learning/Slide92.JPG","null","","","","",""
"","html-keyboard-response","282","421174","0.0-8.0-1.11","FL","dqehnfb6j7","2560","1440","en","er08em17","null","","","","learningBlock2","","","","That was a tob.","null","","","","",""
"","html-keyboard-response","283","422174","0.0-8.0-2.11","FL","dqehnfb6j7","2560","1440","en","er08em17","null","","","","learningBlock2","","","","<div style=""font-size:60px;""> </div>","null","FL","learning/Slide92.JPG","That was a tob.","",""
"","image-keyboard-response","284","422350","0.0-8.0-0.12","FL","dqehnfb6j7","2560","1440","en","er08em17","null","","","","","","","","learning/Slide93.JPG","null","","","","",""
"","html-keyboard-response","285","423503","0.0-8.0-1.12","FL","dqehnfb6j7","2560","1440","en","er08em17","null","","","","learningBlock2","","","","That was a bim.","null","","","","",""
"","html-keyboard-response","286","424503","0.0-8.0-2.12","FL","dqehnfb6j7","2560","1440","en","er08em17","null","","","","learningBlock2","","","","<div style=""font-size:60px;""> </div>","null","FL","learning/Slide93.JPG","That was a bim.","",""
"","image-keyboard-response","287","424679","0.0-8.0-0.13","FL","dqehnfb6j7","2560","1440","en","er08em17","null","","","","","","","","learning/Slide94.JPG","null","","","","",""
"","html-keyboard-response","288","425831","0.0-8.0-1.13","FL","dqehnfb6j7","2560","1440","en","er08em17","null","","","","learningBlock2","","","","That was a tob.","null","","","","",""
"","html-keyboard-response","289","426832","0.0-8.0-2.13","FL","dqehnfb6j7","2560","1440","en","er08em17","null","","","","learningBlock2","","","","<div style=""font-size:60px;""> </div>","null","FL","learning/Slide94.JPG","That was a tob.","",""
"","image-keyboard-response","290","427008","0.0-8.0-0.14","FL","dqehnfb6j7","2560","1440","en","er08em17","null","","","","","","","","learning/Slide95.JPG","null","","","","",""
"","html-keyboard-response","291","428160","0.0-8.0-1.14","FL","dqehnfb6j7","2560","1440","en","er08em17","null","","","","learningBlock2","","","","That was a wug.","null","","","","",""
"","html-keyboard-response","292","429161","0.0-8.0-2.14","FL","dqehnfb6j7","2560","1440","en","er08em17","null","","","","learningBlock2","","","","<div style=""font-size:60px;""> </div>","null","FL","learning/Slide95.JPG","That was a wug.","",""
"","image-keyboard-response","293","429338","0.0-8.0-0.15","FL","dqehnfb6j7","2560","1440","en","er08em17","null","","","","","","","","learning/Slide96.JPG","null","","","","",""
"","html-keyboard-response","294","430489","0.0-8.0-1.15","FL","dqehnfb6j7","2560","1440","en","er08em17","null","","","","learningBlock2","","","","That was a tob.","null","","","","",""
"","html-keyboard-response","295","431490","0.0-8.0-2.15","FL","dqehnfb6j7","2560","1440","en","er08em17","null","","","","learningBlock2","","","","<div style=""font-size:60px;""> </div>","null","FL","learning/Slide96.JPG","That was a tob.","",""
"","image-keyboard-response","296","431666","0.0-8.0-0.16","FL","dqehnfb6j7","2560","1440","en","er08em17","null","","","","","","","","learning/Slide97.JPG","null","","","","",""
"","html-keyboard-response","297","432817","0.0-8.0-1.16","FL","dqehnfb6j7","2560","1440","en","er08em17","null","","","","learningBlock2","","","","That was a dep.","null","","","","",""
"","html-keyboard-response","298","433818","0.0-8.0-2.16","FL","dqehnfb6j7","2560","1440","en","er08em17","null","","","","learningBlock2","","","","<div style=""font-size:60px;""> </div>","null","FL","learning/Slide97.JPG","That was a dep.","",""
"","image-keyboard-response","299","433994","0.0-8.0-0.17","FL","dqehnfb6j7","2560","1440","en","er08em17","null","","","","","","","","learning/Slide98.JPG","null","","","","",""
"","html-keyboard-response","300","435146","0.0-8.0-1.17","FL","dqehnfb6j7","2560","1440","en","er08em17","null","","","","learningBlock2","","","","That was a bim.","null","","","","",""
"","html-keyboard-response","301","436147","0.0-8.0-2.17","FL","dqehnfb6j7","2560","1440","en","er08em17","null","","","","learningBlock2","","","","<div style=""font-size:60px;""> </div>","null","FL","learning/Slide98.JPG","That was a bim.","",""
"","image-keyboard-response","302","436323","0.0-8.0-0.18","FL","dqehnfb6j7","2560","1440","en","er08em17","null","","","","","","","","learning/Slide99.JPG","null","","","","",""
"","html-keyboard-response","303","437475","0.0-8.0-1.18","FL","dqehnfb6j7","2560","1440","en","er08em17","null","","","","learningBlock2","","","","That was a dep.","null","","","","",""
"","html-keyboard-response","304","438476","0.0-8.0-2.18","FL","dqehnfb6j7","2560","1440","en","er08em17","null","","","","learningBlock2","","","","<div style=""font-size:60px;""> </div>","null","FL","learning/Slide99.JPG","That was a dep.","",""
"","image-keyboard-response","305","438652","0.0-8.0-0.19","FL","dqehnfb6j7","2560","1440","en","er08em17","null","","","","","","","","learning/Slide100.JPG","null","","","","",""
"","html-keyboard-response","306","439804","0.0-8.0-1.19","FL","dqehnfb6j7","2560","1440","en","er08em17","null","","","","learningBlock2","","","","That was a bim.","null","","","","",""
"","html-keyboard-response","307","440805","0.0-8.0-2.19","FL","dqehnfb6j7","2560","1440","en","er08em17","null","","","","learningBlock2","","","","<div style=""font-size:60px;""> </div>","null","FL","learning/Slide100.JPG","That was a bim.","",""
"","image-keyboard-response","308","440981","0.0-8.0-0.20","FL","dqehnfb6j7","2560","1440","en","er08em17","null","","","","","","","","learning/Slide101.JPG","null","","","","",""
"","html-keyboard-response","309","442133","0.0-8.0-1.20","FL","dqehnfb6j7","2560","1440","en","er08em17","null","","","","learningBlock2","","","","That was a tob.","null","","","","",""
"","html-keyboard-response","310","443133","0.0-8.0-2.20","FL","dqehnfb6j7","2560","1440","en","er08em17","null","","","","learningBlock2","","","","<div style=""font-size:60px;""> </div>","null","FL","learning/Slide101.JPG","That was a tob.","",""
"","image-keyboard-response","311","443310","0.0-8.0-0.21","FL","dqehnfb6j7","2560","1440","en","er08em17","null","","","","","","","","learning/Slide102.JPG","null","","","","",""
"","html-keyboard-response","312","444462","0.0-8.0-1.21","FL","dqehnfb6j7","2560","1440","en","er08em17","null","","","","learningBlock2","","","","That was a bim.","null","","","","",""
"","html-keyboard-response","313","445463","0.0-8.0-2.21","FL","dqehnfb6j7","2560","1440","en","er08em17","null","","","","learningBlock2","","","","<div style=""font-size:60px;""> </div>","null","FL","learning/Slide102.JPG","That was a bim.","",""
"","image-keyboard-response","314","445639","0.0-8.0-0.22","FL","dqehnfb6j7","2560","1440","en","er08em17","null","","","","","","","","learning/Slide103.JPG","null","","","","",""
"","html-keyboard-response","315","446791","0.0-8.0-1.22","FL","dqehnfb6j7","2560","1440","en","er08em17","null","","","","learningBlock2","","","","That was a dep.","null","","","","",""
"","html-keyboard-response","316","447792","0.0-8.0-2.22","FL","dqehnfb6j7","2560","1440","en","er08em17","null","","","","learningBlock2","","","","<div style=""font-size:60px;""> </div>","null","FL","learning/Slide103.JPG","That was a dep.","",""
"","image-keyboard-response","317","447968","0.0-8.0-0.23","FL","dqehnfb6j7","2560","1440","en","er08em17","null","","","","","","","","learning/Slide104.JPG","null","","","","",""
"","html-keyboard-response","318","449119","0.0-8.0-1.23","FL","dqehnfb6j7","2560","1440","en","er08em17","null","","","","learningBlock2","","","","That was a tob.","null","","","","",""
"","html-keyboard-response","319","450121","0.0-8.0-2.23","FL","dqehnfb6j7","2560","1440","en","er08em17","null","","","","learningBlock2","","","","<div style=""font-size:60px;""> </div>","null","FL","learning/Slide104.JPG","That was a tob.","",""
"","image-keyboard-response","320","450297","0.0-8.0-0.24","FL","dqehnfb6j7","2560","1440","en","er08em17","null","","","","","","","","learning/Slide105.JPG","null","","","","",""
"","html-keyboard-response","321","451449","0.0-8.0-1.24","FL","dqehnfb6j7","2560","1440","en","er08em17","null","","","","learningBlock2","","","","That was a dep.","null","","","","",""
"","html-keyboard-response","322","452450","0.0-8.0-2.24","FL","dqehnfb6j7","2560","1440","en","er08em17","null","","","","learningBlock2","","","","<div style=""font-size:60px;""> </div>","null","FL","learning/Slide105.JPG","That was a dep.","",""
"","image-keyboard-response","323","452626","0.0-8.0-0.25","FL","dqehnfb6j7","2560","1440","en","er08em17","null","","","","","","","","learning/Slide106.JPG","null","","","","",""
"","html-keyboard-response","324","453777","0.0-8.0-1.25","FL","dqehnfb6j7","2560","1440","en","er08em17","null","","","","learningBlock2","","","","That was a wug.","null","","","","",""
"","html-keyboard-response","325","454778","0.0-8.0-2.25","FL","dqehnfb6j7","2560","1440","en","er08em17","null","","","","learningBlock2","","","","<div style=""font-size:60px;""> </div>","null","FL","learning/Slide106.JPG","That was a wug.","",""
"","image-keyboard-response","326","454954","0.0-8.0-0.26","FL","dqehnfb6j7","2560","1440","en","er08em17","null","","","","","","","","learning/Slide107.JPG","null","","","","",""
"","html-keyboard-response","327","456105","0.0-8.0-1.26","FL","dqehnfb6j7","2560","1440","en","er08em17","null","","","","learningBlock2","","","","That was a bim.","null","","","","",""
"","html-keyboard-response","328","457106","0.0-8.0-2.26","FL","dqehnfb6j7","2560","1440","en","er08em17","null","","","","learningBlock2","","","","<div style=""font-size:60px;""> </div>","null","FL","learning/Slide107.JPG","That was a bim.","",""
"","image-keyboard-response","329","457282","0.0-8.0-0.27","FL","dqehnfb6j7","2560","1440","en","er08em17","null","","","","","","","","learning/Slide108.JPG","null","","","","",""
"","html-keyboard-response","330","458435","0.0-8.0-1.27","FL","dqehnfb6j7","2560","1440","en","er08em17","null","","","","learningBlock2","","","","That was a dep.","null","","","","",""
"","html-keyboard-response","331","459436","0.0-8.0-2.27","FL","dqehnfb6j7","2560","1440","en","er08em17","null","","","","learningBlock2","","","","<div style=""font-size:60px;""> </div>","null","FL","learning/Slide108.JPG","That was a dep.","",""
"","image-keyboard-response","332","459612","0.0-8.0-0.28","FL","dqehnfb6j7","2560","1440","en","er08em17","null","","","","","","","","learning/Slide109.JPG","null","","","","",""
"","html-keyboard-response","333","460763","0.0-8.0-1.28","FL","dqehnfb6j7","2560","1440","en","er08em17","null","","","","learningBlock2","","","","That was a wug.","null","","","","",""
"","html-keyboard-response","334","461764","0.0-8.0-2.28","FL","dqehnfb6j7","2560","1440","en","er08em17","null","","","","learningBlock2","","","","<div style=""font-size:60px;""> </div>","null","FL","learning/Slide109.JPG","That was a wug.","",""
"","image-keyboard-response","335","461940","0.0-8.0-0.29","FL","dqehnfb6j7","2560","1440","en","er08em17","null","","","","","","","","learning/Slide110.JPG","null","","","","",""
"","html-keyboard-response","336","463090","0.0-8.0-1.29","FL","dqehnfb6j7","2560","1440","en","er08em17","null","","","","learningBlock2","","","","That was a bim.","null","","","","",""
"","html-keyboard-response","337","464091","0.0-8.0-2.29","FL","dqehnfb6j7","2560","1440","en","er08em17","null","","","","learningBlock2","","","","<div style=""font-size:60px;""> </div>","null","FL","learning/Slide110.JPG","That was a bim.","",""
"","image-keyboard-response","338","464267","0.0-8.0-0.30","FL","dqehnfb6j7","2560","1440","en","er08em17","null","","","","","","","","learning/Slide111.JPG","null","","","","",""
"","html-keyboard-response","339","465419","0.0-8.0-1.30","FL","dqehnfb6j7","2560","1440","en","er08em17","null","","","","learningBlock2","","","","That was a tob.","null","","","","",""
"","html-keyboard-response","340","466420","0.0-8.0-2.30","FL","dqehnfb6j7","2560","1440","en","er08em17","null","","","","learningBlock2","","","","<div style=""font-size:60px;""> </div>","null","FL","learning/Slide111.JPG","That was a tob.","",""
"","image-keyboard-response","341","466596","0.0-8.0-0.31","FL","dqehnfb6j7","2560","1440","en","er08em17","null","","","","","","","","learning/Slide112.JPG","null","","","","",""
"","html-keyboard-response","342","467749","0.0-8.0-1.31","FL","dqehnfb6j7","2560","1440","en","er08em17","null","","","","learningBlock2","","","","That was a wug.","null","","","","",""
"","html-keyboard-response","343","468749","0.0-8.0-2.31","FL","dqehnfb6j7","2560","1440","en","er08em17","null","","","","learningBlock2","","","","<div style=""font-size:60px;""> </div>","null","FL","learning/Slide112.JPG","That was a wug.","",""
"","image-keyboard-response","344","468925","0.0-8.0-0.32","FL","dqehnfb6j7","2560","1440","en","er08em17","null","","","","","","","","learning/Slide113.JPG","null","","","","",""
"","html-keyboard-response","345","470078","0.0-8.0-1.32","FL","dqehnfb6j7","2560","1440","en","er08em17","null","","","","learningBlock2","","","","That was a tob.","null","","","","",""
"","html-keyboard-response","346","471079","0.0-8.0-2.32","FL","dqehnfb6j7","2560","1440","en","er08em17","null","","","","learningBlock2","","","","<div style=""font-size:60px;""> </div>","null","FL","learning/Slide113.JPG","That was a tob.","",""
"","image-keyboard-response","347","471255","0.0-8.0-0.33","FL","dqehnfb6j7","2560","1440","en","er08em17","null","","","","","","","","learning/Slide114.JPG","null","","","","",""
"","html-keyboard-response","348","472406","0.0-8.0-1.33","FL","dqehnfb6j7","2560","1440","en","er08em17","null","","","","learningBlock2","","","","That was a wug.","null","","","","",""
"","html-keyboard-response","349","473407","0.0-8.0-2.33","FL","dqehnfb6j7","2560","1440","en","er08em17","null","","","","learningBlock2","","","","<div style=""font-size:60px;""> </div>","null","FL","learning/Slide114.JPG","That was a wug.","",""
"","image-keyboard-response","350","473583","0.0-8.0-0.34","FL","dqehnfb6j7","2560","1440","en","er08em17","null","","","","","","","","learning/Slide115.JPG","null","","","","",""
"","html-keyboard-response","351","474735","0.0-8.0-1.34","FL","dqehnfb6j7","2560","1440","en","er08em17","null","","","","learningBlock2","","","","That was a bim.","null","","","","",""
"","html-keyboard-response","352","475736","0.0-8.0-2.34","FL","dqehnfb6j7","2560","1440","en","er08em17","null","","","","learningBlock2","","","","<div style=""font-size:60px;""> </div>","null","FL","learning/Slide115.JPG","That was a bim.","",""
"","image-keyboard-response","353","475912","0.0-8.0-0.35","FL","dqehnfb6j7","2560","1440","en","er08em17","null","","","","","","","","learning/Slide116.JPG","null","","","","",""
"","html-keyboard-response","354","477064","0.0-8.0-1.35","FL","dqehnfb6j7","2560","1440","en","er08em17","null","","","","learningBlock2","","","","That was a dep.","null","","","","",""
"","html-keyboard-response","355","478065","0.0-8.0-2.35","FL","dqehnfb6j7","2560","1440","en","er08em17","null","","","","learningBlock2","","","","<div style=""font-size:60px;""> </div>","null","FL","learning/Slide116.JPG","That was a dep.","",""
"","image-keyboard-response","356","478241","0.0-8.0-0.36","FL","dqehnfb6j7","2560","1440","en","er08em17","null","","","","","","","","learning/Slide117.JPG","null","","","","",""
"","html-keyboard-response","357","479394","0.0-8.0-1.36","FL","dqehnfb6j7","2560","1440","en","er08em17","null","","","","learningBlock2","","","","That was a tob.","null","","","","",""
"","html-keyboard-response","358","480395","0.0-8.0-2.36","FL","dqehnfb6j7","2560","1440","en","er08em17","null","","","","learningBlock2","","","","<div style=""font-size:60px;""> </div>","null","FL","learning/Slide117.JPG","That was a tob.","",""
"","image-keyboard-response","359","480572","0.0-8.0-0.37","FL","dqehnfb6j7","2560","1440","en","er08em17","null","","","","","","","","learning/Slide118.JPG","null","","","","",""
"","html-keyboard-response","360","481723","0.0-8.0-1.37","FL","dqehnfb6j7","2560","1440","en","er08em17","null","","","","learningBlock2","","","","That was a dep.","null","","","","",""
"","html-keyboard-response","361","482724","0.0-8.0-2.37","FL","dqehnfb6j7","2560","1440","en","er08em17","null","","","","learningBlock2","","","","<div style=""font-size:60px;""> </div>","null","FL","learning/Slide118.JPG","That was a dep.","",""
"","image-keyboard-response","362","482900","0.0-8.0-0.38","FL","dqehnfb6j7","2560","1440","en","er08em17","null","","","","","","","","learning/Slide119.JPG","null","","","","",""
"","html-keyboard-response","363","484052","0.0-8.0-1.38","FL","dqehnfb6j7","2560","1440","en","er08em17","null","","","","learningBlock2","","","","That was a wug.","null","","","","",""
"","html-keyboard-response","364","485053","0.0-8.0-2.38","FL","dqehnfb6j7","2560","1440","en","er08em17","null","","","","learningBlock2","","","","<div style=""font-size:60px;""> </div>","null","FL","learning/Slide119.JPG","That was a wug.","",""
"","image-keyboard-response","365","485229","0.0-8.0-0.39","FL","dqehnfb6j7","2560","1440","en","er08em17","null","","","","","","","","learning/Slide120.JPG","null","","","","",""
"","html-keyboard-response","366","486380","0.0-8.0-1.39","FL","dqehnfb6j7","2560","1440","en","er08em17","null","","","","learningBlock2","","","","That was a dep.","null","","","","",""
"","html-keyboard-response","367","487382","0.0-8.0-2.39","FL","dqehnfb6j7","2560","1440","en","er08em17","null","","","","learningBlock2","","","","<div style=""font-size:60px;""> </div>","null","FL","learning/Slide120.JPG","That was a dep.","",""
"","image-keyboard-response","368","487558","0.0-8.0-0.40","FL","dqehnfb6j7","2560","1440","en","er08em17","null","","","","","","","","learning/Slide121.JPG","null","","","","",""
"","html-keyboard-response","369","488709","0.0-8.0-1.40","FL","dqehnfb6j7","2560","1440","en","er08em17","null","","","","learningBlock2","","","","That was a bim.","null","","","","",""
"","html-keyboard-response","370","489711","0.0-8.0-2.40","FL","dqehnfb6j7","2560","1440","en","er08em17","null","","","","learningBlock2","","","","<div style=""font-size:60px;""> </div>","null","FL","learning/Slide121.JPG","That was a bim.","",""
"","image-keyboard-response","371","489888","0.0-8.0-0.41","FL","dqehnfb6j7","2560","1440","en","er08em17","null","","","","","","","","learning/Slide122.JPG","null","","","","",""
"","html-keyboard-response","372","491040","0.0-8.0-1.41","FL","dqehnfb6j7","2560","1440","en","er08em17","null","","","","learningBlock2","","","","That was a wug.","null","","","","",""
"","html-keyboard-response","373","492040","0.0-8.0-2.41","FL","dqehnfb6j7","2560","1440","en","er08em17","null","","","","learningBlock2","","","","<div style=""font-size:60px;""> </div>","null","FL","learning/Slide122.JPG","That was a wug.","",""
"","image-keyboard-response","374","492217","0.0-8.0-0.42","FL","dqehnfb6j7","2560","1440","en","er08em17","null","","","","","","","","learning/Slide123.JPG","null","","","","",""
"","html-keyboard-response","375","493369","0.0-8.0-1.42","FL","dqehnfb6j7","2560","1440","en","er08em17","null","","","","learningBlock2","","","","That was a bim.","null","","","","",""
"","html-keyboard-response","376","494370","0.0-8.0-2.42","FL","dqehnfb6j7","2560","1440","en","er08em17","null","","","","learningBlock2","","","","<div style=""font-size:60px;""> </div>","null","FL","learning/Slide123.JPG","That was a bim.","",""
"","image-keyboard-response","377","494546","0.0-8.0-0.43","FL","dqehnfb6j7","2560","1440","en","er08em17","null","","","","","","","","learning/Slide124.JPG","null","","","","",""
"","html-keyboard-response","378","495697","0.0-8.0-1.43","FL","dqehnfb6j7","2560","1440","en","er08em17","null","","","","learningBlock2","","","","That was a tob.","null","","","","",""
"","html-keyboard-response","379","496699","0.0-8.0-2.43","FL","dqehnfb6j7","2560","1440","en","er08em17","null","","","","learningBlock2","","","","<div style=""font-size:60px;""> </div>","null","FL","learning/Slide124.JPG","That was a tob.","",""
"","image-keyboard-response","380","496874","0.0-8.0-0.44","FL","dqehnfb6j7","2560","1440","en","er08em17","null","","","","","","","","learning/Slide125.JPG","null","","","","",""
"","html-keyboard-response","381","498026","0.0-8.0-1.44","FL","dqehnfb6j7","2560","1440","en","er08em17","null","","","","learningBlock2","","","","That was a bim.","null","","","","",""
"","html-keyboard-response","382","499027","0.0-8.0-2.44","FL","dqehnfb6j7","2560","1440","en","er08em17","null","","","","learningBlock2","","","","<div style=""font-size:60px;""> </div>","null","FL","learning/Slide125.JPG","That was a bim.","",""
"","image-keyboard-response","383","499203","0.0-8.0-0.45","FL","dqehnfb6j7","2560","1440","en","er08em17","null","","","","","","","","learning/Slide126.JPG","null","","","","",""
"","html-keyboard-response","384","500355","0.0-8.0-1.45","FL","dqehnfb6j7","2560","1440","en","er08em17","null","","","","learningBlock2","","","","That was a tob.","null","","","","",""
"","html-keyboard-response","385","501357","0.0-8.0-2.45","FL","dqehnfb6j7","2560","1440","en","er08em17","null","","","","learningBlock2","","","","<div style=""font-size:60px;""> </div>","null","FL","learning/Slide126.JPG","That was a tob.","",""
"","image-keyboard-response","386","501533","0.0-8.0-0.46","FL","dqehnfb6j7","2560","1440","en","er08em17","null","","","","","","","","learning/Slide127.JPG","null","","","","",""
"","html-keyboard-response","387","502686","0.0-8.0-1.46","FL","dqehnfb6j7","2560","1440","en","er08em17","null","","","","learningBlock2","","","","That was a dep.","null","","","","",""
"","html-keyboard-response","388","503687","0.0-8.0-2.46","FL","dqehnfb6j7","2560","1440","en","er08em17","null","","","","learningBlock2","","","","<div style=""font-size:60px;""> </div>","null","FL","learning/Slide127.JPG","That was a dep.","",""
"","image-keyboard-response","389","503863","0.0-8.0-0.47","FL","dqehnfb6j7","2560","1440","en","er08em17","null","","","","","","","","learning/Slide128.JPG","null","","","","",""
"","html-keyboard-response","390","505014","0.0-8.0-1.47","FL","dqehnfb6j7","2560","1440","en","er08em17","null","","","","learningBlock2","","","","That was a wug.","null","","","","",""
"","html-keyboard-response","391","506016","0.0-8.0-2.47","FL","dqehnfb6j7","2560","1440","en","er08em17","null","","","","learningBlock2","","","","<div style=""font-size:60px;""> </div>","null","FL","learning/Slide128.JPG","That was a wug.","",""
"","image-keyboard-response","392","506192","0.0-8.0-0.48","FL","dqehnfb6j7","2560","1440","en","er08em17","null","","","","","","","","learning/Slide129.JPG","null","","","","",""
"","html-keyboard-response","393","507344","0.0-8.0-1.48","FL","dqehnfb6j7","2560","1440","en","er08em17","null","","","","learningBlock2","","","","That was a tob.","null","","","","",""
"","html-keyboard-response","394","508345","0.0-8.0-2.48","FL","dqehnfb6j7","2560","1440","en","er08em17","null","","","","learningBlock2","","","","<div style=""font-size:60px;""> </div>","null","FL","learning/Slide129.JPG","That was a tob.","",""
"","image-keyboard-response","395","508522","0.0-8.0-0.49","FL","dqehnfb6j7","2560","1440","en","er08em17","null","","","","","","","","learning/Slide130.JPG","null","","","","",""
"","html-keyboard-response","396","509674","0.0-8.0-1.49","FL","dqehnfb6j7","2560","1440","en","er08em17","null","","","","learningBlock2","","","","That was a wug.","null","","","","",""
"","html-keyboard-response","397","510675","0.0-8.0-2.49","FL","dqehnfb6j7","2560","1440","en","er08em17","null","","","","learningBlock2","","","","<div style=""font-size:60px;""> </div>","null","FL","learning/Slide130.JPG","That was a wug.","",""
"","image-keyboard-response","398","510851","0.0-8.0-0.50","FL","dqehnfb6j7","2560","1440","en","er08em17","null","","","","","","","","learning/Slide131.JPG","null","","","","",""
"","html-keyboard-response","399","512002","0.0-8.0-1.50","FL","dqehnfb6j7","2560","1440","en","er08em17","null","","","","learningBlock2","","","","That was a bim.","null","","","","",""
"","html-keyboard-response","400","513003","0.0-8.0-2.50","FL","dqehnfb6j7","2560","1440","en","er08em17","null","","","","learningBlock2","","","","<div style=""font-size:60px;""> </div>","null","FL","learning/Slide131.JPG","That was a bim.","",""
"","image-keyboard-response","401","513190","0.0-8.0-0.51","FL","dqehnfb6j7","2560","1440","en","er08em17","null","","","","","","","","learning/Slide132.JPG","null","","","","",""
"","html-keyboard-response","402","514341","0.0-8.0-1.51","FL","dqehnfb6j7","2560","1440","en","er08em17","null","","","","learningBlock2","","","","That was a dep.","null","","","","",""
"","html-keyboard-response","403","515343","0.0-8.0-2.51","FL","dqehnfb6j7","2560","1440","en","er08em17","null","","","","learningBlock2","","","","<div style=""font-size:60px;""> </div>","null","FL","learning/Slide132.JPG","That was a dep.","",""
"","image-keyboard-response","404","515519","0.0-8.0-0.52","FL","dqehnfb6j7","2560","1440","en","er08em17","null","","","","","","","","learning/Slide133.JPG","null","","","","",""
"","html-keyboard-response","405","516671","0.0-8.0-1.52","FL","dqehnfb6j7","2560","1440","en","er08em17","null","","","","learningBlock2","","","","That was a tob.","null","","","","",""
"","html-keyboard-response","406","517671","0.0-8.0-2.52","FL","dqehnfb6j7","2560","1440","en","er08em17","null","","","","learningBlock2","","","","<div style=""font-size:60px;""> </div>","null","FL","learning/Slide133.JPG","That was a tob.","",""
"","image-keyboard-response","407","517848","0.0-8.0-0.53","FL","dqehnfb6j7","2560","1440","en","er08em17","null","","","","","","","","learning/Slide134.JPG","null","","","","",""
"","html-keyboard-response","408","519000","0.0-8.0-1.53","FL","dqehnfb6j7","2560","1440","en","er08em17","null","","","","learningBlock2","","","","That was a dep.","null","","","","",""
"","html-keyboard-response","409","520002","0.0-8.0-2.53","FL","dqehnfb6j7","2560","1440","en","er08em17","null","","","","learningBlock2","","","","<div style=""font-size:60px;""> </div>","null","FL","learning/Slide134.JPG","That was a dep.","",""
"","image-keyboard-response","410","520178","0.0-8.0-0.54","FL","dqehnfb6j7","2560","1440","en","er08em17","null","","","","","","","","learning/Slide135.JPG","null","","","","",""
"","html-keyboard-response","411","521330","0.0-8.0-1.54","FL","dqehnfb6j7","2560","1440","en","er08em17","null","","","","learningBlock2","","","","That was a tob.","null","","","","",""
"","html-keyboard-response","412","522331","0.0-8.0-2.54","FL","dqehnfb6j7","2560","1440","en","er08em17","null","","","","learningBlock2","","","","<div style=""font-size:60px;""> </div>","null","FL","learning/Slide135.JPG","That was a tob.","",""
"","image-keyboard-response","413","522507","0.0-8.0-0.55","FL","dqehnfb6j7","2560","1440","en","er08em17","null","","","","","","","","learning/Slide136.JPG","null","","","","",""
"","html-keyboard-response","414","523659","0.0-8.0-1.55","FL","dqehnfb6j7","2560","1440","en","er08em17","null","","","","learningBlock2","","","","That was a wug.","null","","","","",""
"","html-keyboard-response","415","524661","0.0-8.0-2.55","FL","dqehnfb6j7","2560","1440","en","er08em17","null","","","","learningBlock2","","","","<div style=""font-size:60px;""> </div>","null","FL","learning/Slide136.JPG","That was a wug.","",""
"","image-keyboard-response","416","524838","0.0-8.0-0.56","FL","dqehnfb6j7","2560","1440","en","er08em17","null","","","","","","","","learning/Slide137.JPG","null","","","","",""
"","html-keyboard-response","417","525990","0.0-8.0-1.56","FL","dqehnfb6j7","2560","1440","en","er08em17","null","","","","learningBlock2","","","","That was a tob.","null","","","","",""
"","html-keyboard-response","418","526991","0.0-8.0-2.56","FL","dqehnfb6j7","2560","1440","en","er08em17","null","","","","learningBlock2","","","","<div style=""font-size:60px;""> </div>","null","FL","learning/Slide137.JPG","That was a tob.","",""
"","image-keyboard-response","419","527181","0.0-8.0-0.57","FL","dqehnfb6j7","2560","1440","en","er08em17","null","","","","","","","","learning/Slide138.JPG","null","","","","",""
"","html-keyboard-response","420","528333","0.0-8.0-1.57","FL","dqehnfb6j7","2560","1440","en","er08em17","null","","","","learningBlock2","","","","That was a bim.","null","","","","",""
"","html-keyboard-response","421","529333","0.0-8.0-2.57","FL","dqehnfb6j7","2560","1440","en","er08em17","null","","","","learningBlock2","","","","<div style=""font-size:60px;""> </div>","null","FL","learning/Slide138.JPG","That was a bim.","",""
"","image-keyboard-response","422","529509","0.0-8.0-0.58","FL","dqehnfb6j7","2560","1440","en","er08em17","null","","","","","","","","learning/Slide139.JPG","null","","","","",""
"","html-keyboard-response","423","530661","0.0-8.0-1.58","FL","dqehnfb6j7","2560","1440","en","er08em17","null","","","","learningBlock2","","","","That was a wug.","null","","","","",""
"","html-keyboard-response","424","531661","0.0-8.0-2.58","FL","dqehnfb6j7","2560","1440","en","er08em17","null","","","","learningBlock2","","","","<div style=""font-size:60px;""> </div>","null","FL","learning/Slide139.JPG","That was a wug.","",""
"","image-keyboard-response","425","531837","0.0-8.0-0.59","FL","dqehnfb6j7","2560","1440","en","er08em17","null","","","","","","","","learning/Slide140.JPG","null","","","","",""
"","html-keyboard-response","426","532989","0.0-8.0-1.59","FL","dqehnfb6j7","2560","1440","en","er08em17","null","","","","learningBlock2","","","","That was a dep.","null","","","","",""
"","html-keyboard-response","427","533991","0.0-8.0-2.59","FL","dqehnfb6j7","2560","1440","en","er08em17","null","","","","learningBlock2","","","","<div style=""font-size:60px;""> </div>","null","FL","learning/Slide140.JPG","That was a dep.","",""
"","image-keyboard-response","428","534168","0.0-8.0-0.60","FL","dqehnfb6j7","2560","1440","en","er08em17","null","","","","","","","","learning/Slide141.JPG","null","","","","",""
"","html-keyboard-response","429","535320","0.0-8.0-1.60","FL","dqehnfb6j7","2560","1440","en","er08em17","null","","","","learningBlock2","","","","That was a tob.","null","","","","",""
"","html-keyboard-response","430","536320","0.0-8.0-2.60","FL","dqehnfb6j7","2560","1440","en","er08em17","null","","","","learningBlock2","","","","<div style=""font-size:60px;""> </div>","null","FL","learning/Slide141.JPG","That was a tob.","",""
"","image-keyboard-response","431","536496","0.0-8.0-0.61","FL","dqehnfb6j7","2560","1440","en","er08em17","null","","","","","","","","learning/Slide142.JPG","null","","","","",""
"","html-keyboard-response","432","537648","0.0-8.0-1.61","FL","dqehnfb6j7","2560","1440","en","er08em17","null","","","","learningBlock2","","","","That was a wug.","null","","","","",""
"","html-keyboard-response","433","538649","0.0-8.0-2.61","FL","dqehnfb6j7","2560","1440","en","er08em17","null","","","","learningBlock2","","","","<div style=""font-size:60px;""> </div>","null","FL","learning/Slide142.JPG","That was a wug.","",""
"","image-keyboard-response","434","538825","0.0-8.0-0.62","FL","dqehnfb6j7","2560","1440","en","er08em17","null","","","","","","","","learning/Slide143.JPG","null","","","","",""
"","html-keyboard-response","435","539977","0.0-8.0-1.62","FL","dqehnfb6j7","2560","1440","en","er08em17","null","","","","learningBlock2","","","","That was a bim.","null","","","","",""
"","html-keyboard-response","436","540978","0.0-8.0-2.62","FL","dqehnfb6j7","2560","1440","en","er08em17","null","","","","learningBlock2","","","","<div style=""font-size:60px;""> </div>","null","FL","learning/Slide143.JPG","That was a bim.","",""
"","image-keyboard-response","437","541153","0.0-8.0-0.63","FL","dqehnfb6j7","2560","1440","en","er08em17","null","","","","","","","","learning/Slide144.JPG","null","","","","",""
"","html-keyboard-response","438","542304","0.0-8.0-1.63","FL","dqehnfb6j7","2560","1440","en","er08em17","null","","","","learningBlock2","","","","That was a dep.","null","","","","",""
"","html-keyboard-response","439","543306","0.0-8.0-2.63","FL","dqehnfb6j7","2560","1440","en","er08em17","null","","","","learningBlock2","","","","<div style=""font-size:60px;""> </div>","null","FL","learning/Slide144.JPG","That was a dep.","",""
"","image-keyboard-response","440","543481","0.0-8.0-0.64","FL","dqehnfb6j7","2560","1440","en","er08em17","null","","","","","","","","learning/Slide145.JPG","null","","","","",""
"","html-keyboard-response","441","544633","0.0-8.0-1.64","FL","dqehnfb6j7","2560","1440","en","er08em17","null","","","","learningBlock2","","","","That was a bim.","null","","","","",""
"","html-keyboard-response","442","545634","0.0-8.0-2.64","FL","dqehnfb6j7","2560","1440","en","er08em17","null","","","","learningBlock2","","","","<div style=""font-size:60px;""> </div>","null","FL","learning/Slide145.JPG","That was a bim.","",""
"","image-keyboard-response","443","545809","0.0-8.0-0.65","FL","dqehnfb6j7","2560","1440","en","er08em17","null","","","","","","","","learning/Slide146.JPG","null","","","","",""
"","html-keyboard-response","444","546961","0.0-8.0-1.65","FL","dqehnfb6j7","2560","1440","en","er08em17","null","","","","learningBlock2","","","","That was a tob.","null","","","","",""
"","html-keyboard-response","445","547962","0.0-8.0-2.65","FL","dqehnfb6j7","2560","1440","en","er08em17","null","","","","learningBlock2","","","","<div style=""font-size:60px;""> </div>","null","FL","learning/Slide146.JPG","That was a tob.","",""
"","image-keyboard-response","446","548139","0.0-8.0-0.66","FL","dqehnfb6j7","2560","1440","en","er08em17","null","","","","","","","","learning/Slide147.JPG","null","","","","",""
"","html-keyboard-response","447","549290","0.0-8.0-1.66","FL","dqehnfb6j7","2560","1440","en","er08em17","null","","","","learningBlock2","","","","That was a wug.","null","","","","",""
"","html-keyboard-response","448","550291","0.0-8.0-2.66","FL","dqehnfb6j7","2560","1440","en","er08em17","null","","","","learningBlock2","","","","<div style=""font-size:60px;""> </div>","null","FL","learning/Slide147.JPG","That was a wug.","",""
"","image-keyboard-response","449","550467","0.0-8.0-0.67","FL","dqehnfb6j7","2560","1440","en","er08em17","null","","","","","","","","learning/Slide148.JPG","null","","","","",""
"","html-keyboard-response","450","551618","0.0-8.0-1.67","FL","dqehnfb6j7","2560","1440","en","er08em17","null","","","","learningBlock2","","","","That was a bim.","null","","","","",""
"","html-keyboard-response","451","552619","0.0-8.0-2.67","FL","dqehnfb6j7","2560","1440","en","er08em17","null","","","","learningBlock2","","","","<div style=""font-size:60px;""> </div>","null","FL","learning/Slide148.JPG","That was a bim.","",""
"","image-keyboard-response","452","552796","0.0-8.0-0.68","FL","dqehnfb6j7","2560","1440","en","er08em17","null","","","","","","","","learning/Slide149.JPG","null","","","","",""
"","html-keyboard-response","453","553948","0.0-8.0-1.68","FL","dqehnfb6j7","2560","1440","en","er08em17","null","","","","learningBlock2","","","","That was a dep.","null","","","","",""
"","html-keyboard-response","454","554949","0.0-8.0-2.68","FL","dqehnfb6j7","2560","1440","en","er08em17","null","","","","learningBlock2","","","","<div style=""font-size:60px;""> </div>","null","FL","learning/Slide149.JPG","That was a dep.","",""
"","image-keyboard-response","455","555125","0.0-8.0-0.69","FL","dqehnfb6j7","2560","1440","en","er08em17","null","","","","","","","","learning/Slide150.JPG","null","","","","",""
"","html-keyboard-response","456","556277","0.0-8.0-1.69","FL","dqehnfb6j7","2560","1440","en","er08em17","null","","","","learningBlock2","","","","That was a wug.","null","","","","",""
"","html-keyboard-response","457","557279","0.0-8.0-2.69","FL","dqehnfb6j7","2560","1440","en","er08em17","null","","","","learningBlock2","","","","<div style=""font-size:60px;""> </div>","null","FL","learning/Slide150.JPG","That was a wug.","",""
"","image-keyboard-response","458","557455","0.0-8.0-0.70","FL","dqehnfb6j7","2560","1440","en","er08em17","null","","","","","","","","learning/Slide151.JPG","null","","","","",""
"","html-keyboard-response","459","558606","0.0-8.0-1.70","FL","dqehnfb6j7","2560","1440","en","er08em17","null","","","","learningBlock2","","","","That was a dep.","null","","","","",""
"","html-keyboard-response","460","559607","0.0-8.0-2.70","FL","dqehnfb6j7","2560","1440","en","er08em17","null","","","","learningBlock2","","","","<div style=""font-size:60px;""> </div>","null","FL","learning/Slide151.JPG","That was a dep.","",""
"","image-keyboard-response","461","559782","0.0-8.0-0.71","FL","dqehnfb6j7","2560","1440","en","er08em17","null","","","","","","","","learning/Slide152.JPG","null","","","","",""
"","html-keyboard-response","462","560933","0.0-8.0-1.71","FL","dqehnfb6j7","2560","1440","en","er08em17","null","","","","learningBlock2","","","","That was a wug.","null","","","","",""
"","html-keyboard-response","463","561934","0.0-8.0-2.71","FL","dqehnfb6j7","2560","1440","en","er08em17","null","","","","learningBlock2","","","","<div style=""font-size:60px;""> </div>","null","FL","learning/Slide152.JPG","That was a wug.","",""
"","image-keyboard-response","464","562110","0.0-8.0-0.72","FL","dqehnfb6j7","2560","1440","en","er08em17","null","","","","","","","","learning/Slide153.JPG","null","","","","",""
"","html-keyboard-response","465","563262","0.0-8.0-1.72","FL","dqehnfb6j7","2560","1440","en","er08em17","null","","","","learningBlock2","","","","That was a bim.","null","","","","",""
"","html-keyboard-response","466","564262","0.0-8.0-2.72","FL","dqehnfb6j7","2560","1440","en","er08em17","null","","","","learningBlock2","","","","<div style=""font-size:60px;""> </div>","null","FL","learning/Slide153.JPG","That was a bim.","",""
"","image-keyboard-response","467","564439","0.0-8.0-0.73","FL","dqehnfb6j7","2560","1440","en","er08em17","null","","","","","","","","learning/Slide154.JPG","null","","","","",""
"","html-keyboard-response","468","565590","0.0-8.0-1.73","FL","dqehnfb6j7","2560","1440","en","er08em17","null","","","","learningBlock2","","","","That was a tob.","null","","","","",""
"","html-keyboard-response","469","566591","0.0-8.0-2.73","FL","dqehnfb6j7","2560","1440","en","er08em17","null","","","","learningBlock2","","","","<div style=""font-size:60px;""> </div>","null","FL","learning/Slide154.JPG","That was a tob.","",""
"","image-keyboard-response","470","566767","0.0-8.0-0.74","FL","dqehnfb6j7","2560","1440","en","er08em17","null","","","","","","","","learning/Slide155.JPG","null","","","","",""
"","html-keyboard-response","471","567920","0.0-8.0-1.74","FL","dqehnfb6j7","2560","1440","en","er08em17","null","","","","learningBlock2","","","","That was a dep.","null","","","","",""
"","html-keyboard-response","472","568921","0.0-8.0-2.74","FL","dqehnfb6j7","2560","1440","en","er08em17","null","","","","learningBlock2","","","","<div style=""font-size:60px;""> </div>","null","FL","learning/Slide155.JPG","That was a dep.","",""
"","image-keyboard-response","473","569098","0.0-8.0-0.75","FL","dqehnfb6j7","2560","1440","en","er08em17","null","","","","","","","","learning/Slide156.JPG","null","","","","",""
"","html-keyboard-response","474","570249","0.0-8.0-1.75","FL","dqehnfb6j7","2560","1440","en","er08em17","null","","","","learningBlock2","","","","That was a bim.","null","","","","",""
"","html-keyboard-response","475","571250","0.0-8.0-2.75","FL","dqehnfb6j7","2560","1440","en","er08em17","null","","","","learningBlock2","","","","<div style=""font-size:60px;""> </div>","null","FL","learning/Slide156.JPG","That was a bim.","",""
"","image-keyboard-response","476","571427","0.0-8.0-0.76","FL","dqehnfb6j7","2560","1440","en","er08em17","null","","","","","","","","learning/Slide157.JPG","null","","","","",""
"","html-keyboard-response","477","572578","0.0-8.0-1.76","FL","dqehnfb6j7","2560","1440","en","er08em17","null","","","","learningBlock2","","","","That was a dep.","null","","","","",""
"","html-keyboard-response","478","573579","0.0-8.0-2.76","FL","dqehnfb6j7","2560","1440","en","er08em17","null","","","","learningBlock2","","","","<div style=""font-size:60px;""> </div>","null","FL","learning/Slide157.JPG","That was a dep.","",""
"","image-keyboard-response","479","573755","0.0-8.0-0.77","FL","dqehnfb6j7","2560","1440","en","er08em17","null","","","","","","","","learning/Slide158.JPG","null","","","","",""
"","html-keyboard-response","480","574907","0.0-8.0-1.77","FL","dqehnfb6j7","2560","1440","en","er08em17","null","","","","learningBlock2","","","","That was a tob.","null","","","","",""
"","html-keyboard-response","481","575908","0.0-8.0-2.77","FL","dqehnfb6j7","2560","1440","en","er08em17","null","","","","learningBlock2","","","","<div style=""font-size:60px;""> </div>","null","FL","learning/Slide158.JPG","That was a tob.","",""
"","image-keyboard-response","482","576084","0.0-8.0-0.78","FL","dqehnfb6j7","2560","1440","en","er08em17","null","","","","","","","","learning/Slide159.JPG","null","","","","",""
"","html-keyboard-response","483","577236","0.0-8.0-1.78","FL","dqehnfb6j7","2560","1440","en","er08em17","null","","","","learningBlock2","","","","That was a dep.","null","","","","",""
"","html-keyboard-response","484","578237","0.0-8.0-2.78","FL","dqehnfb6j7","2560","1440","en","er08em17","null","","","","learningBlock2","","","","<div style=""font-size:60px;""> </div>","null","FL","learning/Slide159.JPG","That was a dep.","",""
"","image-keyboard-response","485","578413","0.0-8.0-0.79","FL","dqehnfb6j7","2560","1440","en","er08em17","null","","","","","","","","learning/Slide160.JPG","null","","","","",""
