"success","trial_type","trial_index","time_elapsed","internal_node_id","condition","subject","screen_width","screen_height","language","codeword","rt","responses","url","view_history","test_part","final_height_px","final_width_px","scale_factor","stimulus","key_press","learningType","presentedImage","presentedLabel","button_pressed","response"
"true","fullscreen","0","4775","0.0-0.0","FL","cdnsgh8l6s","1440","900","de","RL05OR28","","","","","","","","","","","","","","",""
"","survey-html-form","1","13500","0.0-1.0","FL","cdnsgh8l6s","1440","900","de","RL05OR28","8720.104999999989","{""language"":""de""}","","","","","","","","","","","","",""
"","external-html","2","186269","0.0-2.0-0.0","FL","cdnsgh8l6s","1440","900","de","RL05OR28","172649.4550000001","","text/information.html","","","","","","","","","","","",""
"","external-html","3","230558","0.0-2.0-1.0","FL","cdnsgh8l6s","1440","900","de","RL05OR28","44174.654999999824","","text/consent.html","","","","","","","","","","","",""
"","survey-html-form","4","285939","0.0-2.0-2.0","FL","cdnsgh8l6s","1440","900","de","RL05OR28","55379.17500000002","{""codeword_enter"":""RL05OR28""}","","","","","","","","","","","","",""
"","instructions","5","305507","0.0-4.0","FL","cdnsgh8l6s","1440","900","de","RL05OR28","NA","","","[{""page_index"":0,""viewing_time"":2947.6650000001537},{""page_index"":1,""viewing_time"":15111.859999999986}]","instructions","","","","","","","","","",""
"","resize","6","344276","0.0-5.0","FL","cdnsgh8l6s","1440","900","de","RL05OR28","","","","","","","433","2.749206349206349","","","","","","",""
"","image-keyboard-response","7","344458","0.0-6.0-0.0","FL","cdnsgh8l6s","1440","900","de","RL05OR28","null","","","","","","","","learning/Slide1.JPG","null","","","","",""
"","html-keyboard-response","8","345615","0.0-6.0-1.0","FL","cdnsgh8l6s","1440","900","de","RL05OR28","null","","","","learningBlock1","","","","That was a tob.","null","","","","",""
"","html-keyboard-response","9","346621","0.0-6.0-2.0","FL","cdnsgh8l6s","1440","900","de","RL05OR28","null","","","","learningBlock1","","","","<div style=""font-size:60px;""> </div>","null","FL","learning/Slide1.JPG","That was a tob.","",""
"","image-keyboard-response","10","346803","0.0-6.0-0.1","FL","cdnsgh8l6s","1440","900","de","RL05OR28","null","","","","","","","","learning/Slide2.JPG","null","","","","",""
"","html-keyboard-response","11","347964","0.0-6.0-1.1","FL","cdnsgh8l6s","1440","900","de","RL05OR28","null","","","","learningBlock1","","","","That was a wug.","null","","","","",""
"","html-keyboard-response","12","348970","0.0-6.0-2.1","FL","cdnsgh8l6s","1440","900","de","RL05OR28","null","","","","learningBlock1","","","","<div style=""font-size:60px;""> </div>","null","FL","learning/Slide2.JPG","That was a wug.","",""
"","image-keyboard-response","13","349151","0.0-6.0-0.2","FL","cdnsgh8l6s","1440","900","de","RL05OR28","null","","","","","","","","learning/Slide3.JPG","null","","","","",""
"","html-keyboard-response","14","350312","0.0-6.0-1.2","FL","cdnsgh8l6s","1440","900","de","RL05OR28","null","","","","learningBlock1","","","","That was a bim.","null","","","","",""
"","html-keyboard-response","15","351318","0.0-6.0-2.2","FL","cdnsgh8l6s","1440","900","de","RL05OR28","null","","","","learningBlock1","","","","<div style=""font-size:60px;""> </div>","null","FL","learning/Slide3.JPG","That was a bim.","",""
"","image-keyboard-response","16","351499","0.0-6.0-0.3","FL","cdnsgh8l6s","1440","900","de","RL05OR28","null","","","","","","","","learning/Slide4.JPG","null","","","","",""
"","html-keyboard-response","17","352660","0.0-6.0-1.3","FL","cdnsgh8l6s","1440","900","de","RL05OR28","null","","","","learningBlock1","","","","That was a dep.","null","","","","",""
"","html-keyboard-response","18","353663","0.0-6.0-2.3","FL","cdnsgh8l6s","1440","900","de","RL05OR28","null","","","","learningBlock1","","","","<div style=""font-size:60px;""> </div>","null","FL","learning/Slide4.JPG","That was a dep.","",""
"","image-keyboard-response","19","353844","0.0-6.0-0.4","FL","cdnsgh8l6s","1440","900","de","RL05OR28","null","","","","","","","","learning/Slide5.JPG","null","","","","",""
"","html-keyboard-response","20","355005","0.0-6.0-1.4","FL","cdnsgh8l6s","1440","900","de","RL05OR28","null","","","","learningBlock1","","","","That was a wug.","null","","","","",""
"","html-keyboard-response","21","356011","0.0-6.0-2.4","FL","cdnsgh8l6s","1440","900","de","RL05OR28","null","","","","learningBlock1","","","","<div style=""font-size:60px;""> </div>","null","FL","learning/Slide5.JPG","That was a wug.","",""
"","image-keyboard-response","22","356192","0.0-6.0-0.5","FL","cdnsgh8l6s","1440","900","de","RL05OR28","null","","","","","","","","learning/Slide6.JPG","null","","","","",""
"","html-keyboard-response","23","357353","0.0-6.0-1.5","FL","cdnsgh8l6s","1440","900","de","RL05OR28","null","","","","learningBlock1","","","","That was a dep.","null","","","","",""
"","html-keyboard-response","24","358359","0.0-6.0-2.5","FL","cdnsgh8l6s","1440","900","de","RL05OR28","null","","","","learningBlock1","","","","<div style=""font-size:60px;""> </div>","null","FL","learning/Slide6.JPG","That was a dep.","",""
"","image-keyboard-response","25","358538","0.0-6.0-0.6","FL","cdnsgh8l6s","1440","900","de","RL05OR28","null","","","","","","","","learning/Slide7.JPG","null","","","","",""
"","html-keyboard-response","26","359699","0.0-6.0-1.6","FL","cdnsgh8l6s","1440","900","de","RL05OR28","null","","","","learningBlock1","","","","That was a wug.","null","","","","",""
"","html-keyboard-response","27","360705","0.0-6.0-2.6","FL","cdnsgh8l6s","1440","900","de","RL05OR28","null","","","","learningBlock1","","","","<div style=""font-size:60px;""> </div>","null","FL","learning/Slide7.JPG","That was a wug.","",""
"","image-keyboard-response","28","360886","0.0-6.0-0.7","FL","cdnsgh8l6s","1440","900","de","RL05OR28","null","","","","","","","","learning/Slide8.JPG","null","","","","",""
"","html-keyboard-response","29","362047","0.0-6.0-1.7","FL","cdnsgh8l6s","1440","900","de","RL05OR28","null","","","","learningBlock1","","","","That was a bim.","null","","","","",""
"","html-keyboard-response","30","363053","0.0-6.0-2.7","FL","cdnsgh8l6s","1440","900","de","RL05OR28","null","","","","learningBlock1","","","","<div style=""font-size:60px;""> </div>","null","FL","learning/Slide8.JPG","That was a bim.","",""
"","image-keyboard-response","31","363235","0.0-6.0-0.8","FL","cdnsgh8l6s","1440","900","de","RL05OR28","null","","","","","","","","learning/Slide9.JPG","null","","","","",""
"","html-keyboard-response","32","364397","0.0-6.0-1.8","FL","cdnsgh8l6s","1440","900","de","RL05OR28","null","","","","learningBlock1","","","","That was a wug.","null","","","","",""
"","html-keyboard-response","33","365403","0.0-6.0-2.8","FL","cdnsgh8l6s","1440","900","de","RL05OR28","null","","","","learningBlock1","","","","<div style=""font-size:60px;""> </div>","null","FL","learning/Slide9.JPG","That was a wug.","",""
"","image-keyboard-response","34","365585","0.0-6.0-0.9","FL","cdnsgh8l6s","1440","900","de","RL05OR28","null","","","","","","","","learning/Slide10.JPG","null","","","","",""
"","html-keyboard-response","35","366746","0.0-6.0-1.9","FL","cdnsgh8l6s","1440","900","de","RL05OR28","null","","","","learningBlock1","","","","That was a dep.","null","","","","",""
"","html-keyboard-response","36","367752","0.0-6.0-2.9","FL","cdnsgh8l6s","1440","900","de","RL05OR28","null","","","","learningBlock1","","","","<div style=""font-size:60px;""> </div>","null","FL","learning/Slide10.JPG","That was a dep.","",""
"","image-keyboard-response","37","367933","0.0-6.0-0.10","FL","cdnsgh8l6s","1440","900","de","RL05OR28","null","","","","","","","","learning/Slide11.JPG","null","","","","",""
"","html-keyboard-response","38","369092","0.0-6.0-1.10","FL","cdnsgh8l6s","1440","900","de","RL05OR28","null","","","","learningBlock1","","","","That was a tob.","null","","","","",""
"","html-keyboard-response","39","370098","0.0-6.0-2.10","FL","cdnsgh8l6s","1440","900","de","RL05OR28","null","","","","learningBlock1","","","","<div style=""font-size:60px;""> </div>","null","FL","learning/Slide11.JPG","That was a tob.","",""
"","image-keyboard-response","40","370280","0.0-6.0-0.11","FL","cdnsgh8l6s","1440","900","de","RL05OR28","null","","","","","","","","learning/Slide12.JPG","null","","","","",""
"","html-keyboard-response","41","371441","0.0-6.0-1.11","FL","cdnsgh8l6s","1440","900","de","RL05OR28","null","","","","learningBlock1","","","","That was a dep.","null","","","","",""
"","html-keyboard-response","42","372447","0.0-6.0-2.11","FL","cdnsgh8l6s","1440","900","de","RL05OR28","null","","","","learningBlock1","","","","<div style=""font-size:60px;""> </div>","null","FL","learning/Slide12.JPG","That was a dep.","",""
"","image-keyboard-response","43","372628","0.0-6.0-0.12","FL","cdnsgh8l6s","1440","900","de","RL05OR28","null","","","","","","","","learning/Slide13.JPG","null","","","","",""
"","html-keyboard-response","44","373789","0.0-6.0-1.12","FL","cdnsgh8l6s","1440","900","de","RL05OR28","null","","","","learningBlock1","","","","That was a bim.","null","","","","",""
"","html-keyboard-response","45","374791","0.0-6.0-2.12","FL","cdnsgh8l6s","1440","900","de","RL05OR28","null","","","","learningBlock1","","","","<div style=""font-size:60px;""> </div>","null","FL","learning/Slide13.JPG","That was a bim.","",""
"","image-keyboard-response","46","374972","0.0-6.0-0.13","FL","cdnsgh8l6s","1440","900","de","RL05OR28","null","","","","","","","","learning/Slide14.JPG","null","","","","",""
"","html-keyboard-response","47","376133","0.0-6.0-1.13","FL","cdnsgh8l6s","1440","900","de","RL05OR28","null","","","","learningBlock1","","","","That was a wug.","null","","","","",""
"","html-keyboard-response","48","377139","0.0-6.0-2.13","FL","cdnsgh8l6s","1440","900","de","RL05OR28","null","","","","learningBlock1","","","","<div style=""font-size:60px;""> </div>","null","FL","learning/Slide14.JPG","That was a wug.","",""
"","image-keyboard-response","49","377320","0.0-6.0-0.14","FL","cdnsgh8l6s","1440","900","de","RL05OR28","null","","","","","","","","learning/Slide15.JPG","null","","","","",""
"","html-keyboard-response","50","378481","0.0-6.0-1.14","FL","cdnsgh8l6s","1440","900","de","RL05OR28","null","","","","learningBlock1","","","","That was a tob.","null","","","","",""
"","html-keyboard-response","51","379487","0.0-6.0-2.14","FL","cdnsgh8l6s","1440","900","de","RL05OR28","null","","","","learningBlock1","","","","<div style=""font-size:60px;""> </div>","null","FL","learning/Slide15.JPG","That was a tob.","",""
"","image-keyboard-response","52","379669","0.0-6.0-0.15","FL","cdnsgh8l6s","1440","900","de","RL05OR28","null","","","","","","","","learning/Slide16.JPG","null","","","","",""
"","html-keyboard-response","53","380830","0.0-6.0-1.15","FL","cdnsgh8l6s","1440","900","de","RL05OR28","null","","","","learningBlock1","","","","That was a dep.","null","","","","",""
"","html-keyboard-response","54","381836","0.0-6.0-2.15","FL","cdnsgh8l6s","1440","900","de","RL05OR28","null","","","","learningBlock1","","","","<div style=""font-size:60px;""> </div>","null","FL","learning/Slide16.JPG","That was a dep.","",""
"","image-keyboard-response","55","382017","0.0-6.0-0.16","FL","cdnsgh8l6s","1440","900","de","RL05OR28","null","","","","","","","","learning/Slide17.JPG","null","","","","",""
"","html-keyboard-response","56","383173","0.0-6.0-1.16","FL","cdnsgh8l6s","1440","900","de","RL05OR28","null","","","","learningBlock1","","","","That was a bim.","null","","","","",""
"","html-keyboard-response","57","384179","0.0-6.0-2.16","FL","cdnsgh8l6s","1440","900","de","RL05OR28","null","","","","learningBlock1","","","","<div style=""font-size:60px;""> </div>","null","FL","learning/Slide17.JPG","That was a bim.","",""
"","image-keyboard-response","58","384360","0.0-6.0-0.17","FL","cdnsgh8l6s","1440","900","de","RL05OR28","null","","","","","","","","learning/Slide18.JPG","null","","","","",""
"","html-keyboard-response","59","385521","0.0-6.0-1.17","FL","cdnsgh8l6s","1440","900","de","RL05OR28","null","","","","learningBlock1","","","","That was a tob.","null","","","","",""
"","html-keyboard-response","60","386527","0.0-6.0-2.17","FL","cdnsgh8l6s","1440","900","de","RL05OR28","null","","","","learningBlock1","","","","<div style=""font-size:60px;""> </div>","null","FL","learning/Slide18.JPG","That was a tob.","",""
"","image-keyboard-response","61","386708","0.0-6.0-0.18","FL","cdnsgh8l6s","1440","900","de","RL05OR28","null","","","","","","","","learning/Slide19.JPG","null","","","","",""
"","html-keyboard-response","62","387868","0.0-6.0-1.18","FL","cdnsgh8l6s","1440","900","de","RL05OR28","null","","","","learningBlock1","","","","That was a wug.","null","","","","",""
"","html-keyboard-response","63","388869","0.0-6.0-2.18","FL","cdnsgh8l6s","1440","900","de","RL05OR28","null","","","","learningBlock1","","","","<div style=""font-size:60px;""> </div>","null","FL","learning/Slide19.JPG","That was a wug.","",""
"","image-keyboard-response","64","389050","0.0-6.0-0.19","FL","cdnsgh8l6s","1440","900","de","RL05OR28","null","","","","","","","","learning/Slide20.JPG","null","","","","",""
"","html-keyboard-response","65","390211","0.0-6.0-1.19","FL","cdnsgh8l6s","1440","900","de","RL05OR28","null","","","","learningBlock1","","","","That was a bim.","null","","","","",""
"","html-keyboard-response","66","391217","0.0-6.0-2.19","FL","cdnsgh8l6s","1440","900","de","RL05OR28","null","","","","learningBlock1","","","","<div style=""font-size:60px;""> </div>","null","FL","learning/Slide20.JPG","That was a bim.","",""
"","image-keyboard-response","67","391398","0.0-6.0-0.20","FL","cdnsgh8l6s","1440","900","de","RL05OR28","null","","","","","","","","learning/Slide21.JPG","null","","","","",""
"","html-keyboard-response","68","392559","0.0-6.0-1.20","FL","cdnsgh8l6s","1440","900","de","RL05OR28","null","","","","learningBlock1","","","","That was a dep.","null","","","","",""
"","html-keyboard-response","69","393568","0.0-6.0-2.20","FL","cdnsgh8l6s","1440","900","de","RL05OR28","null","","","","learningBlock1","","","","<div style=""font-size:60px;""> </div>","null","FL","learning/Slide21.JPG","That was a dep.","",""
"","image-keyboard-response","70","393749","0.0-6.0-0.21","FL","cdnsgh8l6s","1440","900","de","RL05OR28","null","","","","","","","","learning/Slide22.JPG","null","","","","",""
"","html-keyboard-response","71","394910","0.0-6.0-1.21","FL","cdnsgh8l6s","1440","900","de","RL05OR28","null","","","","learningBlock1","","","","That was a bim.","null","","","","",""
"","html-keyboard-response","72","395912","0.0-6.0-2.21","FL","cdnsgh8l6s","1440","900","de","RL05OR28","null","","","","learningBlock1","","","","<div style=""font-size:60px;""> </div>","null","FL","learning/Slide22.JPG","That was a bim.","",""
"","image-keyboard-response","73","396093","0.0-6.0-0.22","FL","cdnsgh8l6s","1440","900","de","RL05OR28","null","","","","","","","","learning/Slide23.JPG","null","","","","",""
"","html-keyboard-response","74","397254","0.0-6.0-1.22","FL","cdnsgh8l6s","1440","900","de","RL05OR28","null","","","","learningBlock1","","","","That was a tob.","null","","","","",""
"","html-keyboard-response","75","398260","0.0-6.0-2.22","FL","cdnsgh8l6s","1440","900","de","RL05OR28","null","","","","learningBlock1","","","","<div style=""font-size:60px;""> </div>","null","FL","learning/Slide23.JPG","That was a tob.","",""
"","image-keyboard-response","76","398440","0.0-6.0-0.23","FL","cdnsgh8l6s","1440","900","de","RL05OR28","null","","","","","","","","learning/Slide24.JPG","null","","","","",""
"","html-keyboard-response","77","399601","0.0-6.0-1.23","FL","cdnsgh8l6s","1440","900","de","RL05OR28","null","","","","learningBlock1","","","","That was a wug.","null","","","","",""
"","html-keyboard-response","78","400607","0.0-6.0-2.23","FL","cdnsgh8l6s","1440","900","de","RL05OR28","null","","","","learningBlock1","","","","<div style=""font-size:60px;""> </div>","null","FL","learning/Slide24.JPG","That was a wug.","",""
"","image-keyboard-response","79","400788","0.0-6.0-0.24","FL","cdnsgh8l6s","1440","900","de","RL05OR28","null","","","","","","","","learning/Slide25.JPG","null","","","","",""
"","html-keyboard-response","80","401945","0.0-6.0-1.24","FL","cdnsgh8l6s","1440","900","de","RL05OR28","null","","","","learningBlock1","","","","That was a dep.","null","","","","",""
"","html-keyboard-response","81","402951","0.0-6.0-2.24","FL","cdnsgh8l6s","1440","900","de","RL05OR28","null","","","","learningBlock1","","","","<div style=""font-size:60px;""> </div>","null","FL","learning/Slide25.JPG","That was a dep.","",""
"","image-keyboard-response","82","403132","0.0-6.0-0.25","FL","cdnsgh8l6s","1440","900","de","RL05OR28","null","","","","","","","","learning/Slide26.JPG","null","","","","",""
"","html-keyboard-response","83","404292","0.0-6.0-1.25","FL","cdnsgh8l6s","1440","900","de","RL05OR28","null","","","","learningBlock1","","","","That was a wug.","null","","","","",""
"","html-keyboard-response","84","405298","0.0-6.0-2.25","FL","cdnsgh8l6s","1440","900","de","RL05OR28","null","","","","learningBlock1","","","","<div style=""font-size:60px;""> </div>","null","FL","learning/Slide26.JPG","That was a wug.","",""
"","image-keyboard-response","85","405479","0.0-6.0-0.26","FL","cdnsgh8l6s","1440","900","de","RL05OR28","null","","","","","","","","learning/Slide27.JPG","null","","","","",""
"","html-keyboard-response","86","406640","0.0-6.0-1.26","FL","cdnsgh8l6s","1440","900","de","RL05OR28","null","","","","learningBlock1","","","","That was a bim.","null","","","","",""
"","html-keyboard-response","87","407642","0.0-6.0-2.26","FL","cdnsgh8l6s","1440","900","de","RL05OR28","null","","","","learningBlock1","","","","<div style=""font-size:60px;""> </div>","null","FL","learning/Slide27.JPG","That was a bim.","",""
"","image-keyboard-response","88","407823","0.0-6.0-0.27","FL","cdnsgh8l6s","1440","900","de","RL05OR28","null","","","","","","","","learning/Slide28.JPG","null","","","","",""
"","html-keyboard-response","89","408984","0.0-6.0-1.27","FL","cdnsgh8l6s","1440","900","de","RL05OR28","null","","","","learningBlock1","","","","That was a dep.","null","","","","",""
"","html-keyboard-response","90","409990","0.0-6.0-2.27","FL","cdnsgh8l6s","1440","900","de","RL05OR28","null","","","","learningBlock1","","","","<div style=""font-size:60px;""> </div>","null","FL","learning/Slide28.JPG","That was a dep.","",""
"","image-keyboard-response","91","410170","0.0-6.0-0.28","FL","cdnsgh8l6s","1440","900","de","RL05OR28","null","","","","","","","","learning/Slide29.JPG","null","","","","",""
"","html-keyboard-response","92","411331","0.0-6.0-1.28","FL","cdnsgh8l6s","1440","900","de","RL05OR28","null","","","","learningBlock1","","","","That was a tob.","null","","","","",""
"","html-keyboard-response","93","412337","0.0-6.0-2.28","FL","cdnsgh8l6s","1440","900","de","RL05OR28","null","","","","learningBlock1","","","","<div style=""font-size:60px;""> </div>","null","FL","learning/Slide29.JPG","That was a tob.","",""
"","image-keyboard-response","94","412518","0.0-6.0-0.29","FL","cdnsgh8l6s","1440","900","de","RL05OR28","null","","","","","","","","learning/Slide30.JPG","null","","","","",""
"","html-keyboard-response","95","413679","0.0-6.0-1.29","FL","cdnsgh8l6s","1440","900","de","RL05OR28","null","","","","learningBlock1","","","","That was a dep.","null","","","","",""
"","html-keyboard-response","96","414685","0.0-6.0-2.29","FL","cdnsgh8l6s","1440","900","de","RL05OR28","null","","","","learningBlock1","","","","<div style=""font-size:60px;""> </div>","null","FL","learning/Slide30.JPG","That was a dep.","",""
"","image-keyboard-response","97","414866","0.0-6.0-0.30","FL","cdnsgh8l6s","1440","900","de","RL05OR28","null","","","","","","","","learning/Slide31.JPG","null","","","","",""
"","html-keyboard-response","98","416027","0.0-6.0-1.30","FL","cdnsgh8l6s","1440","900","de","RL05OR28","null","","","","learningBlock1","","","","That was a wug.","null","","","","",""
"","html-keyboard-response","99","417033","0.0-6.0-2.30","FL","cdnsgh8l6s","1440","900","de","RL05OR28","null","","","","learningBlock1","","","","<div style=""font-size:60px;""> </div>","null","FL","learning/Slide31.JPG","That was a wug.","",""
"","image-keyboard-response","100","417215","0.0-6.0-0.31","FL","cdnsgh8l6s","1440","900","de","RL05OR28","null","","","","","","","","learning/Slide32.JPG","null","","","","",""
"","html-keyboard-response","101","418372","0.0-6.0-1.31","FL","cdnsgh8l6s","1440","900","de","RL05OR28","null","","","","learningBlock1","","","","That was a tob.","null","","","","",""
"","html-keyboard-response","102","419378","0.0-6.0-2.31","FL","cdnsgh8l6s","1440","900","de","RL05OR28","null","","","","learningBlock1","","","","<div style=""font-size:60px;""> </div>","null","FL","learning/Slide32.JPG","That was a tob.","",""
"","image-keyboard-response","103","419558","0.0-6.0-0.32","FL","cdnsgh8l6s","1440","900","de","RL05OR28","null","","","","","","","","learning/Slide33.JPG","null","","","","",""
"","html-keyboard-response","104","420716","0.0-6.0-1.32","FL","cdnsgh8l6s","1440","900","de","RL05OR28","null","","","","learningBlock1","","","","That was a bim.","null","","","","",""
"","html-keyboard-response","105","421720","0.0-6.0-2.32","FL","cdnsgh8l6s","1440","900","de","RL05OR28","null","","","","learningBlock1","","","","<div style=""font-size:60px;""> </div>","null","FL","learning/Slide33.JPG","That was a bim.","",""
"","image-keyboard-response","106","421902","0.0-6.0-0.33","FL","cdnsgh8l6s","1440","900","de","RL05OR28","null","","","","","","","","learning/Slide34.JPG","null","","","","",""
"","html-keyboard-response","107","423063","0.0-6.0-1.33","FL","cdnsgh8l6s","1440","900","de","RL05OR28","null","","","","learningBlock1","","","","That was a tob.","null","","","","",""
"","html-keyboard-response","108","424069","0.0-6.0-2.33","FL","cdnsgh8l6s","1440","900","de","RL05OR28","null","","","","learningBlock1","","","","<div style=""font-size:60px;""> </div>","null","FL","learning/Slide34.JPG","That was a tob.","",""
"","image-keyboard-response","109","424250","0.0-6.0-0.34","FL","cdnsgh8l6s","1440","900","de","RL05OR28","null","","","","","","","","learning/Slide35.JPG","null","","","","",""
"","html-keyboard-response","110","425411","0.0-6.0-1.34","FL","cdnsgh8l6s","1440","900","de","RL05OR28","null","","","","learningBlock1","","","","That was a bim.","null","","","","",""
"","html-keyboard-response","111","426417","0.0-6.0-2.34","FL","cdnsgh8l6s","1440","900","de","RL05OR28","null","","","","learningBlock1","","","","<div style=""font-size:60px;""> </div>","null","FL","learning/Slide35.JPG","That was a bim.","",""
"","image-keyboard-response","112","426598","0.0-6.0-0.35","FL","cdnsgh8l6s","1440","900","de","RL05OR28","null","","","","","","","","learning/Slide36.JPG","null","","","","",""
"","html-keyboard-response","113","427750","0.0-6.0-1.35","FL","cdnsgh8l6s","1440","900","de","RL05OR28","null","","","","learningBlock1","","","","That was a dep.","null","","","","",""
"","html-keyboard-response","114","428755","0.0-6.0-2.35","FL","cdnsgh8l6s","1440","900","de","RL05OR28","null","","","","learningBlock1","","","","<div style=""font-size:60px;""> </div>","null","FL","learning/Slide36.JPG","That was a dep.","",""
"","image-keyboard-response","115","428936","0.0-6.0-0.36","FL","cdnsgh8l6s","1440","900","de","RL05OR28","null","","","","","","","","learning/Slide37.JPG","null","","","","",""
"","html-keyboard-response","116","430097","0.0-6.0-1.36","FL","cdnsgh8l6s","1440","900","de","RL05OR28","null","","","","learningBlock1","","","","That was a tob.","null","","","","",""
"","html-keyboard-response","117","431103","0.0-6.0-2.36","FL","cdnsgh8l6s","1440","900","de","RL05OR28","null","","","","learningBlock1","","","","<div style=""font-size:60px;""> </div>","null","FL","learning/Slide37.JPG","That was a tob.","",""
"","image-keyboard-response","118","431284","0.0-6.0-0.37","FL","cdnsgh8l6s","1440","900","de","RL05OR28","null","","","","","","","","learning/Slide38.JPG","null","","","","",""
"","html-keyboard-response","119","432445","0.0-6.0-1.37","FL","cdnsgh8l6s","1440","900","de","RL05OR28","null","","","","learningBlock1","","","","That was a wug.","null","","","","",""
"","html-keyboard-response","120","433450","0.0-6.0-2.37","FL","cdnsgh8l6s","1440","900","de","RL05OR28","null","","","","learningBlock1","","","","<div style=""font-size:60px;""> </div>","null","FL","learning/Slide38.JPG","That was a wug.","",""
"","image-keyboard-response","121","433627","0.0-6.0-0.38","FL","cdnsgh8l6s","1440","900","de","RL05OR28","null","","","","","","","","learning/Slide39.JPG","null","","","","",""
"","html-keyboard-response","122","434783","0.0-6.0-1.38","FL","cdnsgh8l6s","1440","900","de","RL05OR28","null","","","","learningBlock1","","","","That was a bim.","null","","","","",""
"","html-keyboard-response","123","435788","0.0-6.0-2.38","FL","cdnsgh8l6s","1440","900","de","RL05OR28","null","","","","learningBlock1","","","","<div style=""font-size:60px;""> </div>","null","FL","learning/Slide39.JPG","That was a bim.","",""
"","image-keyboard-response","124","435969","0.0-6.0-0.39","FL","cdnsgh8l6s","1440","900","de","RL05OR28","null","","","","","","","","learning/Slide40.JPG","null","","","","",""
"","html-keyboard-response","125","437130","0.0-6.0-1.39","FL","cdnsgh8l6s","1440","900","de","RL05OR28","null","","","","learningBlock1","","","","That was a tob.","null","","","","",""
"","html-keyboard-response","126","438136","0.0-6.0-2.39","FL","cdnsgh8l6s","1440","900","de","RL05OR28","null","","","","learningBlock1","","","","<div style=""font-size:60px;""> </div>","null","FL","learning/Slide40.JPG","That was a tob.","",""
"","image-keyboard-response","127","438317","0.0-6.0-0.40","FL","cdnsgh8l6s","1440","900","de","RL05OR28","null","","","","","","","","learning/Slide41.JPG","null","","","","",""
"","html-keyboard-response","128","439471","0.0-6.0-1.40","FL","cdnsgh8l6s","1440","900","de","RL05OR28","null","","","","learningBlock1","","","","That was a bim.","null","","","","",""
"","html-keyboard-response","129","440473","0.0-6.0-2.40","FL","cdnsgh8l6s","1440","900","de","RL05OR28","null","","","","learningBlock1","","","","<div style=""font-size:60px;""> </div>","null","FL","learning/Slide41.JPG","That was a bim.","",""
"","image-keyboard-response","130","440654","0.0-6.0-0.41","FL","cdnsgh8l6s","1440","900","de","RL05OR28","null","","","","","","","","learning/Slide42.JPG","null","","","","",""
"","html-keyboard-response","131","441815","0.0-6.0-1.41","FL","cdnsgh8l6s","1440","900","de","RL05OR28","null","","","","learningBlock1","","","","That was a dep.","null","","","","",""
"","html-keyboard-response","132","442820","0.0-6.0-2.41","FL","cdnsgh8l6s","1440","900","de","RL05OR28","null","","","","learningBlock1","","","","<div style=""font-size:60px;""> </div>","null","FL","learning/Slide42.JPG","That was a dep.","",""
"","image-keyboard-response","133","443002","0.0-6.0-0.42","FL","cdnsgh8l6s","1440","900","de","RL05OR28","null","","","","","","","","learning/Slide43.JPG","null","","","","",""
"","html-keyboard-response","134","444163","0.0-6.0-1.42","FL","cdnsgh8l6s","1440","900","de","RL05OR28","null","","","","learningBlock1","","","","That was a wug.","null","","","","",""
"","html-keyboard-response","135","445169","0.0-6.0-2.42","FL","cdnsgh8l6s","1440","900","de","RL05OR28","null","","","","learningBlock1","","","","<div style=""font-size:60px;""> </div>","null","FL","learning/Slide43.JPG","That was a wug.","",""
"","image-keyboard-response","136","445350","0.0-6.0-0.43","FL","cdnsgh8l6s","1440","900","de","RL05OR28","null","","","","","","","","learning/Slide44.JPG","null","","","","",""
"","html-keyboard-response","137","446511","0.0-6.0-1.43","FL","cdnsgh8l6s","1440","900","de","RL05OR28","null","","","","learningBlock1","","","","That was a bim.","null","","","","",""
"","html-keyboard-response","138","447517","0.0-6.0-2.43","FL","cdnsgh8l6s","1440","900","de","RL05OR28","null","","","","learningBlock1","","","","<div style=""font-size:60px;""> </div>","null","FL","learning/Slide44.JPG","That was a bim.","",""
"","image-keyboard-response","139","447698","0.0-6.0-0.44","FL","cdnsgh8l6s","1440","900","de","RL05OR28","null","","","","","","","","learning/Slide45.JPG","null","","","","",""
"","html-keyboard-response","140","448859","0.0-6.0-1.44","FL","cdnsgh8l6s","1440","900","de","RL05OR28","null","","","","learningBlock1","","","","That was a wug.","null","","","","",""
"","html-keyboard-response","141","449865","0.0-6.0-2.44","FL","cdnsgh8l6s","1440","900","de","RL05OR28","null","","","","learningBlock1","","","","<div style=""font-size:60px;""> </div>","null","FL","learning/Slide45.JPG","That was a wug.","",""
"","image-keyboard-response","142","450047","0.0-6.0-0.45","FL","cdnsgh8l6s","1440","900","de","RL05OR28","null","","","","","","","","learning/Slide46.JPG","null","","","","",""
"","html-keyboard-response","143","451208","0.0-6.0-1.45","FL","cdnsgh8l6s","1440","900","de","RL05OR28","null","","","","learningBlock1","","","","That was a dep.","null","","","","",""
"","html-keyboard-response","144","452214","0.0-6.0-2.45","FL","cdnsgh8l6s","1440","900","de","RL05OR28","null","","","","learningBlock1","","","","<div style=""font-size:60px;""> </div>","null","FL","learning/Slide46.JPG","That was a dep.","",""
"","image-keyboard-response","145","452395","0.0-6.0-0.46","FL","cdnsgh8l6s","1440","900","de","RL05OR28","null","","","","","","","","learning/Slide47.JPG","null","","","","",""
"","html-keyboard-response","146","453556","0.0-6.0-1.46","FL","cdnsgh8l6s","1440","900","de","RL05OR28","null","","","","learningBlock1","","","","That was a tob.","null","","","","",""
"","html-keyboard-response","147","454562","0.0-6.0-2.46","FL","cdnsgh8l6s","1440","900","de","RL05OR28","null","","","","learningBlock1","","","","<div style=""font-size:60px;""> </div>","null","FL","learning/Slide47.JPG","That was a tob.","",""
"","image-keyboard-response","148","454743","0.0-6.0-0.47","FL","cdnsgh8l6s","1440","900","de","RL05OR28","null","","","","","","","","learning/Slide48.JPG","null","","","","",""
"","html-keyboard-response","149","455904","0.0-6.0-1.47","FL","cdnsgh8l6s","1440","900","de","RL05OR28","null","","","","learningBlock1","","","","That was a bim.","null","","","","",""
"","html-keyboard-response","150","456910","0.0-6.0-2.47","FL","cdnsgh8l6s","1440","900","de","RL05OR28","null","","","","learningBlock1","","","","<div style=""font-size:60px;""> </div>","null","FL","learning/Slide48.JPG","That was a bim.","",""
"","image-keyboard-response","151","457092","0.0-6.0-0.48","FL","cdnsgh8l6s","1440","900","de","RL05OR28","null","","","","","","","","learning/Slide49.JPG","null","","","","",""
"","html-keyboard-response","152","458253","0.0-6.0-1.48","FL","cdnsgh8l6s","1440","900","de","RL05OR28","null","","","","learningBlock1","","","","That was a dep.","null","","","","",""
"","html-keyboard-response","153","459259","0.0-6.0-2.48","FL","cdnsgh8l6s","1440","900","de","RL05OR28","null","","","","learningBlock1","","","","<div style=""font-size:60px;""> </div>","null","FL","learning/Slide49.JPG","That was a dep.","",""
"","image-keyboard-response","154","459440","0.0-6.0-0.49","FL","cdnsgh8l6s","1440","900","de","RL05OR28","null","","","","","","","","learning/Slide50.JPG","null","","","","",""
"","html-keyboard-response","155","460601","0.0-6.0-1.49","FL","cdnsgh8l6s","1440","900","de","RL05OR28","null","","","","learningBlock1","","","","That was a tob.","null","","","","",""
"","html-keyboard-response","156","461607","0.0-6.0-2.49","FL","cdnsgh8l6s","1440","900","de","RL05OR28","null","","","","learningBlock1","","","","<div style=""font-size:60px;""> </div>","null","FL","learning/Slide50.JPG","That was a tob.","",""
"","image-keyboard-response","157","461788","0.0-6.0-0.50","FL","cdnsgh8l6s","1440","900","de","RL05OR28","null","","","","","","","","learning/Slide51.JPG","null","","","","",""
"","html-keyboard-response","158","462950","0.0-6.0-1.50","FL","cdnsgh8l6s","1440","900","de","RL05OR28","null","","","","learningBlock1","","","","That was a bim.","null","","","","",""
"","html-keyboard-response","159","463954","0.0-6.0-2.50","FL","cdnsgh8l6s","1440","900","de","RL05OR28","null","","","","learningBlock1","","","","<div style=""font-size:60px;""> </div>","null","FL","learning/Slide51.JPG","That was a bim.","",""
"","image-keyboard-response","160","464135","0.0-6.0-0.51","FL","cdnsgh8l6s","1440","900","de","RL05OR28","null","","","","","","","","learning/Slide52.JPG","null","","","","",""
"","html-keyboard-response","161","465296","0.0-6.0-1.51","FL","cdnsgh8l6s","1440","900","de","RL05OR28","null","","","","learningBlock1","","","","That was a wug.","null","","","","",""
"","html-keyboard-response","162","466302","0.0-6.0-2.51","FL","cdnsgh8l6s","1440","900","de","RL05OR28","null","","","","learningBlock1","","","","<div style=""font-size:60px;""> </div>","null","FL","learning/Slide52.JPG","That was a wug.","",""
"","image-keyboard-response","163","466481","0.0-6.0-0.52","FL","cdnsgh8l6s","1440","900","de","RL05OR28","null","","","","","","","","learning/Slide53.JPG","null","","","","",""
"","html-keyboard-response","164","467643","0.0-6.0-1.52","FL","cdnsgh8l6s","1440","900","de","RL05OR28","null","","","","learningBlock1","","","","That was a tob.","null","","","","",""
"","html-keyboard-response","165","468649","0.0-6.0-2.52","FL","cdnsgh8l6s","1440","900","de","RL05OR28","null","","","","learningBlock1","","","","<div style=""font-size:60px;""> </div>","null","FL","learning/Slide53.JPG","That was a tob.","",""
"","image-keyboard-response","166","468831","0.0-6.0-0.53","FL","cdnsgh8l6s","1440","900","de","RL05OR28","null","","","","","","","","learning/Slide54.JPG","null","","","","",""
"","html-keyboard-response","167","469992","0.0-6.0-1.53","FL","cdnsgh8l6s","1440","900","de","RL05OR28","null","","","","learningBlock1","","","","That was a dep.","null","","","","",""
"","html-keyboard-response","168","470998","0.0-6.0-2.53","FL","cdnsgh8l6s","1440","900","de","RL05OR28","null","","","","learningBlock1","","","","<div style=""font-size:60px;""> </div>","null","FL","learning/Slide54.JPG","That was a dep.","",""
"","image-keyboard-response","169","471180","0.0-6.0-0.54","FL","cdnsgh8l6s","1440","900","de","RL05OR28","null","","","","","","","","learning/Slide55.JPG","null","","","","",""
"","html-keyboard-response","170","472340","0.0-6.0-1.54","FL","cdnsgh8l6s","1440","900","de","RL05OR28","null","","","","learningBlock1","","","","That was a bim.","null","","","","",""
"","html-keyboard-response","171","473346","0.0-6.0-2.54","FL","cdnsgh8l6s","1440","900","de","RL05OR28","null","","","","learningBlock1","","","","<div style=""font-size:60px;""> </div>","null","FL","learning/Slide55.JPG","That was a bim.","",""
"","image-keyboard-response","172","473527","0.0-6.0-0.55","FL","cdnsgh8l6s","1440","900","de","RL05OR28","null","","","","","","","","learning/Slide56.JPG","null","","","","",""
"","html-keyboard-response","173","474688","0.0-6.0-1.55","FL","cdnsgh8l6s","1440","900","de","RL05OR28","null","","","","learningBlock1","","","","That was a tob.","null","","","","",""
"","html-keyboard-response","174","475694","0.0-6.0-2.55","FL","cdnsgh8l6s","1440","900","de","RL05OR28","null","","","","learningBlock1","","","","<div style=""font-size:60px;""> </div>","null","FL","learning/Slide56.JPG","That was a tob.","",""
"","image-keyboard-response","175","475874","0.0-6.0-0.56","FL","cdnsgh8l6s","1440","900","de","RL05OR28","null","","","","","","","","learning/Slide57.JPG","null","","","","",""
"","html-keyboard-response","176","477035","0.0-6.0-1.56","FL","cdnsgh8l6s","1440","900","de","RL05OR28","null","","","","learningBlock1","","","","That was a dep.","null","","","","",""
"","html-keyboard-response","177","478041","0.0-6.0-2.56","FL","cdnsgh8l6s","1440","900","de","RL05OR28","null","","","","learningBlock1","","","","<div style=""font-size:60px;""> </div>","null","FL","learning/Slide57.JPG","That was a dep.","",""
"","image-keyboard-response","178","478217","0.0-6.0-0.57","FL","cdnsgh8l6s","1440","900","de","RL05OR28","null","","","","","","","","learning/Slide58.JPG","null","","","","",""
"","html-keyboard-response","179","479378","0.0-6.0-1.57","FL","cdnsgh8l6s","1440","900","de","RL05OR28","null","","","","learningBlock1","","","","That was a wug.","null","","","","",""
"","html-keyboard-response","180","480384","0.0-6.0-2.57","FL","cdnsgh8l6s","1440","900","de","RL05OR28","null","","","","learningBlock1","","","","<div style=""font-size:60px;""> </div>","null","FL","learning/Slide58.JPG","That was a wug.","",""
"","image-keyboard-response","181","480565","0.0-6.0-0.58","FL","cdnsgh8l6s","1440","900","de","RL05OR28","null","","","","","","","","learning/Slide59.JPG","null","","","","",""
"","html-keyboard-response","182","481726","0.0-6.0-1.58","FL","cdnsgh8l6s","1440","900","de","RL05OR28","null","","","","learningBlock1","","","","That was a dep.","null","","","","",""
"","html-keyboard-response","183","482732","0.0-6.0-2.58","FL","cdnsgh8l6s","1440","900","de","RL05OR28","null","","","","learningBlock1","","","","<div style=""font-size:60px;""> </div>","null","FL","learning/Slide59.JPG","That was a dep.","",""
"","image-keyboard-response","184","482913","0.0-6.0-0.59","FL","cdnsgh8l6s","1440","900","de","RL05OR28","null","","","","","","","","learning/Slide60.JPG","null","","","","",""
"","html-keyboard-response","185","484074","0.0-6.0-1.59","FL","cdnsgh8l6s","1440","900","de","RL05OR28","null","","","","learningBlock1","","","","That was a wug.","null","","","","",""
"","html-keyboard-response","186","485080","0.0-6.0-2.59","FL","cdnsgh8l6s","1440","900","de","RL05OR28","null","","","","learningBlock1","","","","<div style=""font-size:60px;""> </div>","null","FL","learning/Slide60.JPG","That was a wug.","",""
"","image-keyboard-response","187","485261","0.0-6.0-0.60","FL","cdnsgh8l6s","1440","900","de","RL05OR28","null","","","","","","","","learning/Slide61.JPG","null","","","","",""
"","html-keyboard-response","188","486422","0.0-6.0-1.60","FL","cdnsgh8l6s","1440","900","de","RL05OR28","null","","","","learningBlock1","","","","That was a bim.","null","","","","",""
"","html-keyboard-response","189","487428","0.0-6.0-2.60","FL","cdnsgh8l6s","1440","900","de","RL05OR28","null","","","","learningBlock1","","","","<div style=""font-size:60px;""> </div>","null","FL","learning/Slide61.JPG","That was a bim.","",""
"","image-keyboard-response","190","487609","0.0-6.0-0.61","FL","cdnsgh8l6s","1440","900","de","RL05OR28","null","","","","","","","","learning/Slide62.JPG","null","","","","",""
"","html-keyboard-response","191","488770","0.0-6.0-1.61","FL","cdnsgh8l6s","1440","900","de","RL05OR28","null","","","","learningBlock1","","","","That was a dep.","null","","","","",""
"","html-keyboard-response","192","489776","0.0-6.0-2.61","FL","cdnsgh8l6s","1440","900","de","RL05OR28","null","","","","learningBlock1","","","","<div style=""font-size:60px;""> </div>","null","FL","learning/Slide62.JPG","That was a dep.","",""
"","image-keyboard-response","193","489958","0.0-6.0-0.62","FL","cdnsgh8l6s","1440","900","de","RL05OR28","null","","","","","","","","learning/Slide63.JPG","null","","","","",""
"","html-keyboard-response","194","491118","0.0-6.0-1.62","FL","cdnsgh8l6s","1440","900","de","RL05OR28","null","","","","learningBlock1","","","","That was a bim.","null","","","","",""
"","html-keyboard-response","195","492125","0.0-6.0-2.62","FL","cdnsgh8l6s","1440","900","de","RL05OR28","null","","","","learningBlock1","","","","<div style=""font-size:60px;""> </div>","null","FL","learning/Slide63.JPG","That was a bim.","",""
"","image-keyboard-response","196","492304","0.0-6.0-0.63","FL","cdnsgh8l6s","1440","900","de","RL05OR28","null","","","","","","","","learning/Slide64.JPG","null","","","","",""
"","html-keyboard-response","197","493460","0.0-6.0-1.63","FL","cdnsgh8l6s","1440","900","de","RL05OR28","null","","","","learningBlock1","","","","That was a tob.","null","","","","",""
"","html-keyboard-response","198","494466","0.0-6.0-2.63","FL","cdnsgh8l6s","1440","900","de","RL05OR28","null","","","","learningBlock1","","","","<div style=""font-size:60px;""> </div>","null","FL","learning/Slide64.JPG","That was a tob.","",""
"","image-keyboard-response","199","494648","0.0-6.0-0.64","FL","cdnsgh8l6s","1440","900","de","RL05OR28","null","","","","","","","","learning/Slide65.JPG","null","","","","",""
"","html-keyboard-response","200","495809","0.0-6.0-1.64","FL","cdnsgh8l6s","1440","900","de","RL05OR28","null","","","","learningBlock1","","","","That was a wug.","null","","","","",""
"","html-keyboard-response","201","496811","0.0-6.0-2.64","FL","cdnsgh8l6s","1440","900","de","RL05OR28","null","","","","learningBlock1","","","","<div style=""font-size:60px;""> </div>","null","FL","learning/Slide65.JPG","That was a wug.","",""
"","image-keyboard-response","202","496992","0.0-6.0-0.65","FL","cdnsgh8l6s","1440","900","de","RL05OR28","null","","","","","","","","learning/Slide66.JPG","null","","","","",""
"","html-keyboard-response","203","498153","0.0-6.0-1.65","FL","cdnsgh8l6s","1440","900","de","RL05OR28","null","","","","learningBlock1","","","","That was a dep.","null","","","","",""
"","html-keyboard-response","204","499159","0.0-6.0-2.65","FL","cdnsgh8l6s","1440","900","de","RL05OR28","null","","","","learningBlock1","","","","<div style=""font-size:60px;""> </div>","null","FL","learning/Slide66.JPG","That was a dep.","",""
"","image-keyboard-response","205","499339","0.0-6.0-0.66","FL","cdnsgh8l6s","1440","900","de","RL05OR28","null","","","","","","","","learning/Slide67.JPG","null","","","","",""
"","html-keyboard-response","206","500500","0.0-6.0-1.66","FL","cdnsgh8l6s","1440","900","de","RL05OR28","null","","","","learningBlock1","","","","That was a tob.","null","","","","",""
"","html-keyboard-response","207","501506","0.0-6.0-2.66","FL","cdnsgh8l6s","1440","900","de","RL05OR28","null","","","","learningBlock1","","","","<div style=""font-size:60px;""> </div>","null","FL","learning/Slide67.JPG","That was a tob.","",""
"","image-keyboard-response","208","501687","0.0-6.0-0.67","FL","cdnsgh8l6s","1440","900","de","RL05OR28","null","","","","","","","","learning/Slide68.JPG","null","","","","",""
"","html-keyboard-response","209","502848","0.0-6.0-1.67","FL","cdnsgh8l6s","1440","900","de","RL05OR28","null","","","","learningBlock1","","","","That was a wug.","null","","","","",""
"","html-keyboard-response","210","503854","0.0-6.0-2.67","FL","cdnsgh8l6s","1440","900","de","RL05OR28","null","","","","learningBlock1","","","","<div style=""font-size:60px;""> </div>","null","FL","learning/Slide68.JPG","That was a wug.","",""
"","image-keyboard-response","211","504036","0.0-6.0-0.68","FL","cdnsgh8l6s","1440","900","de","RL05OR28","null","","","","","","","","learning/Slide69.JPG","null","","","","",""
"","html-keyboard-response","212","505197","0.0-6.0-1.68","FL","cdnsgh8l6s","1440","900","de","RL05OR28","null","","","","learningBlock1","","","","That was a tob.","null","","","","",""
"","html-keyboard-response","213","506202","0.0-6.0-2.68","FL","cdnsgh8l6s","1440","900","de","RL05OR28","null","","","","learningBlock1","","","","<div style=""font-size:60px;""> </div>","null","FL","learning/Slide69.JPG","That was a tob.","",""
"","image-keyboard-response","214","506383","0.0-6.0-0.69","FL","cdnsgh8l6s","1440","900","de","RL05OR28","null","","","","","","","","learning/Slide70.JPG","null","","","","",""
"","html-keyboard-response","215","507544","0.0-6.0-1.69","FL","cdnsgh8l6s","1440","900","de","RL05OR28","null","","","","learningBlock1","","","","That was a dep.","null","","","","",""
"","html-keyboard-response","216","508550","0.0-6.0-2.69","FL","cdnsgh8l6s","1440","900","de","RL05OR28","null","","","","learningBlock1","","","","<div style=""font-size:60px;""> </div>","null","FL","learning/Slide70.JPG","That was a dep.","",""
"","image-keyboard-response","217","508731","0.0-6.0-0.70","FL","cdnsgh8l6s","1440","900","de","RL05OR28","null","","","","","","","","learning/Slide71.JPG","null","","","","",""
"","html-keyboard-response","218","509888","0.0-6.0-1.70","FL","cdnsgh8l6s","1440","900","de","RL05OR28","null","","","","learningBlock1","","","","That was a wug.","null","","","","",""
"","html-keyboard-response","219","510893","0.0-6.0-2.70","FL","cdnsgh8l6s","1440","900","de","RL05OR28","null","","","","learningBlock1","","","","<div style=""font-size:60px;""> </div>","null","FL","learning/Slide71.JPG","That was a wug.","",""
"","image-keyboard-response","220","511074","0.0-6.0-0.71","FL","cdnsgh8l6s","1440","900","de","RL05OR28","null","","","","","","","","learning/Slide72.JPG","null","","","","",""
"","html-keyboard-response","221","512235","0.0-6.0-1.71","FL","cdnsgh8l6s","1440","900","de","RL05OR28","null","","","","learningBlock1","","","","That was a bim.","null","","","","",""
"","html-keyboard-response","222","513241","0.0-6.0-2.71","FL","cdnsgh8l6s","1440","900","de","RL05OR28","null","","","","learningBlock1","","","","<div style=""font-size:60px;""> </div>","null","FL","learning/Slide72.JPG","That was a bim.","",""
"","image-keyboard-response","223","513422","0.0-6.0-0.72","FL","cdnsgh8l6s","1440","900","de","RL05OR28","null","","","","","","","","learning/Slide73.JPG","null","","","","",""
"","html-keyboard-response","224","514583","0.0-6.0-1.72","FL","cdnsgh8l6s","1440","900","de","RL05OR28","null","","","","learningBlock1","","","","That was a wug.","null","","","","",""
"","html-keyboard-response","225","515588","0.0-6.0-2.72","FL","cdnsgh8l6s","1440","900","de","RL05OR28","null","","","","learningBlock1","","","","<div style=""font-size:60px;""> </div>","null","FL","learning/Slide73.JPG","That was a wug.","",""
"","image-keyboard-response","226","515769","0.0-6.0-0.73","FL","cdnsgh8l6s","1440","900","de","RL05OR28","null","","","","","","","","learning/Slide74.JPG","null","","","","",""
"","html-keyboard-response","227","516923","0.0-6.0-1.73","FL","cdnsgh8l6s","1440","900","de","RL05OR28","null","","","","learningBlock1","","","","That was a dep.","null","","","","",""
"","html-keyboard-response","228","517927","0.0-6.0-2.73","FL","cdnsgh8l6s","1440","900","de","RL05OR28","null","","","","learningBlock1","","","","<div style=""font-size:60px;""> </div>","null","FL","learning/Slide74.JPG","That was a dep.","",""
"","image-keyboard-response","229","518108","0.0-6.0-0.74","FL","cdnsgh8l6s","1440","900","de","RL05OR28","null","","","","","","","","learning/Slide75.JPG","null","","","","",""
"","html-keyboard-response","230","519269","0.0-6.0-1.74","FL","cdnsgh8l6s","1440","900","de","RL05OR28","null","","","","learningBlock1","","","","That was a tob.","null","","","","",""
"","html-keyboard-response","231","520275","0.0-6.0-2.74","FL","cdnsgh8l6s","1440","900","de","RL05OR28","null","","","","learningBlock1","","","","<div style=""font-size:60px;""> </div>","null","FL","learning/Slide75.JPG","That was a tob.","",""
"","image-keyboard-response","232","520457","0.0-6.0-0.75","FL","cdnsgh8l6s","1440","900","de","RL05OR28","null","","","","","","","","learning/Slide76.JPG","null","","","","",""
"","html-keyboard-response","233","521614","0.0-6.0-1.75","FL","cdnsgh8l6s","1440","900","de","RL05OR28","null","","","","learningBlock1","","","","That was a bim.","null","","","","",""
"","html-keyboard-response","234","522620","0.0-6.0-2.75","FL","cdnsgh8l6s","1440","900","de","RL05OR28","null","","","","learningBlock1","","","","<div style=""font-size:60px;""> </div>","null","FL","learning/Slide76.JPG","That was a bim.","",""
"","image-keyboard-response","235","522802","0.0-6.0-0.76","FL","cdnsgh8l6s","1440","900","de","RL05OR28","null","","","","","","","","learning/Slide77.JPG","null","","","","",""
"","html-keyboard-response","236","523960","0.0-6.0-1.76","FL","cdnsgh8l6s","1440","900","de","RL05OR28","null","","","","learningBlock1","","","","That was a tob.","null","","","","",""
"","html-keyboard-response","237","524961","0.0-6.0-2.76","FL","cdnsgh8l6s","1440","900","de","RL05OR28","null","","","","learningBlock1","","","","<div style=""font-size:60px;""> </div>","null","FL","learning/Slide77.JPG","That was a tob.","",""
"","image-keyboard-response","238","525142","0.0-6.0-0.77","FL","cdnsgh8l6s","1440","900","de","RL05OR28","null","","","","","","","","learning/Slide78.JPG","null","","","","",""
"","html-keyboard-response","239","526303","0.0-6.0-1.77","FL","cdnsgh8l6s","1440","900","de","RL05OR28","null","","","","learningBlock1","","","","That was a wug.","null","","","","",""
"","html-keyboard-response","240","527309","0.0-6.0-2.77","FL","cdnsgh8l6s","1440","900","de","RL05OR28","null","","","","learningBlock1","","","","<div style=""font-size:60px;""> </div>","null","FL","learning/Slide78.JPG","That was a wug.","",""
"","image-keyboard-response","241","527490","0.0-6.0-0.78","FL","cdnsgh8l6s","1440","900","de","RL05OR28","null","","","","","","","","learning/Slide79.JPG","null","","","","",""
"","html-keyboard-response","242","528643","0.0-6.0-1.78","FL","cdnsgh8l6s","1440","900","de","RL05OR28","null","","","","learningBlock1","","","","That was a bim.","null","","","","",""
"","html-keyboard-response","243","529649","0.0-6.0-2.78","FL","cdnsgh8l6s","1440","900","de","RL05OR28","null","","","","learningBlock1","","","","<div style=""font-size:60px;""> </div>","null","FL","learning/Slide79.JPG","That was a bim.","",""
"","image-keyboard-response","244","529830","0.0-6.0-0.79","FL","cdnsgh8l6s","1440","900","de","RL05OR28","null","","","","","","","","learning/Slide80.JPG","null","","","","",""
"","html-keyboard-response","245","530989","0.0-6.0-1.79","FL","cdnsgh8l6s","1440","900","de","RL05OR28","null","","","","learningBlock1","","","","That was a tob.","null","","","","",""
"","html-keyboard-response","246","531994","0.0-6.0-2.79","FL","cdnsgh8l6s","1440","900","de","RL05OR28","null","","","","learningBlock1","","","","<div style=""font-size:60px;""> </div>","null","FL","learning/Slide80.JPG","That was a tob.","",""
"","instructions","247","571555","0.0-7.0","FL","cdnsgh8l6s","1440","900","de","RL05OR28","NA","","","[{""page_index"":0,""viewing_time"":39559.96999999974}]","instructions","","","","","","","","","",""
"","image-keyboard-response","248","571737","0.0-8.0-0.0","FL","cdnsgh8l6s","1440","900","de","RL05OR28","null","","","","","","","","learning/Slide81.JPG","null","","","","",""
"","html-keyboard-response","249","572894","0.0-8.0-1.0","FL","cdnsgh8l6s","1440","900","de","RL05OR28","null","","","","learningBlock2","","","","That was a wug.","null","","","","",""
"","html-keyboard-response","250","573900","0.0-8.0-2.0","FL","cdnsgh8l6s","1440","900","de","RL05OR28","null","","","","learningBlock2","","","","<div style=""font-size:60px;""> </div>","null","FL","learning/Slide81.JPG","That was a wug.","",""
"","image-keyboard-response","251","574081","0.0-8.0-0.1","FL","cdnsgh8l6s","1440","900","de","RL05OR28","null","","","","","","","","learning/Slide82.JPG","null","","","","",""
"","html-keyboard-response","252","575242","0.0-8.0-1.1","FL","cdnsgh8l6s","1440","900","de","RL05OR28","null","","","","learningBlock2","","","","That was a bim.","null","","","","",""
"","html-keyboard-response","253","576248","0.0-8.0-2.1","FL","cdnsgh8l6s","1440","900","de","RL05OR28","null","","","","learningBlock2","","","","<div style=""font-size:60px;""> </div>","null","FL","learning/Slide82.JPG","That was a bim.","",""
"","image-keyboard-response","254","576425","0.0-8.0-0.2","FL","cdnsgh8l6s","1440","900","de","RL05OR28","null","","","","","","","","learning/Slide83.JPG","null","","","","",""
"","html-keyboard-response","255","577585","0.0-8.0-1.2","FL","cdnsgh8l6s","1440","900","de","RL05OR28","null","","","","learningBlock2","","","","That was a wug.","null","","","","",""
"","html-keyboard-response","256","578591","0.0-8.0-2.2","FL","cdnsgh8l6s","1440","900","de","RL05OR28","null","","","","learningBlock2","","","","<div style=""font-size:60px;""> </div>","null","FL","learning/Slide83.JPG","That was a wug.","",""
"","image-keyboard-response","257","578772","0.0-8.0-0.3","FL","cdnsgh8l6s","1440","900","de","RL05OR28","null","","","","","","","","learning/Slide84.JPG","null","","","","",""
"","html-keyboard-response","258","579933","0.0-8.0-1.3","FL","cdnsgh8l6s","1440","900","de","RL05OR28","null","","","","learningBlock2","","","","That was a dep.","null","","","","",""
"","html-keyboard-response","259","580939","0.0-8.0-2.3","FL","cdnsgh8l6s","1440","900","de","RL05OR28","null","","","","learningBlock2","","","","<div style=""font-size:60px;""> </div>","null","FL","learning/Slide84.JPG","That was a dep.","",""
"","image-keyboard-response","260","581117","0.0-8.0-0.4","FL","cdnsgh8l6s","1440","900","de","RL05OR28","null","","","","","","","","learning/Slide85.JPG","null","","","","",""
"","html-keyboard-response","261","582278","0.0-8.0-1.4","FL","cdnsgh8l6s","1440","900","de","RL05OR28","null","","","","learningBlock2","","","","That was a bim.","null","","","","",""
"","html-keyboard-response","262","583284","0.0-8.0-2.4","FL","cdnsgh8l6s","1440","900","de","RL05OR28","null","","","","learningBlock2","","","","<div style=""font-size:60px;""> </div>","null","FL","learning/Slide85.JPG","That was a bim.","",""
"","image-keyboard-response","263","583466","0.0-8.0-0.5","FL","cdnsgh8l6s","1440","900","de","RL05OR28","null","","","","","","","","learning/Slide86.JPG","null","","","","",""
"","html-keyboard-response","264","584628","0.0-8.0-1.5","FL","cdnsgh8l6s","1440","900","de","RL05OR28","null","","","","learningBlock2","","","","That was a tob.","null","","","","",""
"","html-keyboard-response","265","585634","0.0-8.0-2.5","FL","cdnsgh8l6s","1440","900","de","RL05OR28","null","","","","learningBlock2","","","","<div style=""font-size:60px;""> </div>","null","FL","learning/Slide86.JPG","That was a tob.","",""
"","image-keyboard-response","266","585815","0.0-8.0-0.6","FL","cdnsgh8l6s","1440","900","de","RL05OR28","null","","","","","","","","learning/Slide87.JPG","null","","","","",""
"","html-keyboard-response","267","586976","0.0-8.0-1.6","FL","cdnsgh8l6s","1440","900","de","RL05OR28","null","","","","learningBlock2","","","","That was a wug.","null","","","","",""
"","html-keyboard-response","268","587978","0.0-8.0-2.6","FL","cdnsgh8l6s","1440","900","de","RL05OR28","null","","","","learningBlock2","","","","<div style=""font-size:60px;""> </div>","null","FL","learning/Slide87.JPG","That was a wug.","",""
"","image-keyboard-response","269","588159","0.0-8.0-0.7","FL","cdnsgh8l6s","1440","900","de","RL05OR28","null","","","","","","","","learning/Slide88.JPG","null","","","","",""
"","html-keyboard-response","270","589320","0.0-8.0-1.7","FL","cdnsgh8l6s","1440","900","de","RL05OR28","null","","","","learningBlock2","","","","That was a tob.","null","","","","",""
"","html-keyboard-response","271","590326","0.0-8.0-2.7","FL","cdnsgh8l6s","1440","900","de","RL05OR28","null","","","","learningBlock2","","","","<div style=""font-size:60px;""> </div>","null","FL","learning/Slide88.JPG","That was a tob.","",""
"","image-keyboard-response","272","590507","0.0-8.0-0.8","FL","cdnsgh8l6s","1440","900","de","RL05OR28","null","","","","","","","","learning/Slide89.JPG","null","","","","",""
"","html-keyboard-response","273","591664","0.0-8.0-1.8","FL","cdnsgh8l6s","1440","900","de","RL05OR28","null","","","","learningBlock2","","","","That was a bim.","null","","","","",""
"","html-keyboard-response","274","592670","0.0-8.0-2.8","FL","cdnsgh8l6s","1440","900","de","RL05OR28","null","","","","learningBlock2","","","","<div style=""font-size:60px;""> </div>","null","FL","learning/Slide89.JPG","That was a bim.","",""
"","image-keyboard-response","275","592849","0.0-8.0-0.9","FL","cdnsgh8l6s","1440","900","de","RL05OR28","null","","","","","","","","learning/Slide90.JPG","null","","","","",""
"","html-keyboard-response","276","594005","0.0-8.0-1.9","FL","cdnsgh8l6s","1440","900","de","RL05OR28","null","","","","learningBlock2","","","","That was a dep.","null","","","","",""
"","html-keyboard-response","277","595011","0.0-8.0-2.9","FL","cdnsgh8l6s","1440","900","de","RL05OR28","null","","","","learningBlock2","","","","<div style=""font-size:60px;""> </div>","null","FL","learning/Slide90.JPG","That was a dep.","",""
"","image-keyboard-response","278","595192","0.0-8.0-0.10","FL","cdnsgh8l6s","1440","900","de","RL05OR28","null","","","","","","","","learning/Slide91.JPG","null","","","","",""
"","html-keyboard-response","279","596353","0.0-8.0-1.10","FL","cdnsgh8l6s","1440","900","de","RL05OR28","null","","","","learningBlock2","","","","That was a wug.","null","","","","",""
"","html-keyboard-response","280","597359","0.0-8.0-2.10","FL","cdnsgh8l6s","1440","900","de","RL05OR28","null","","","","learningBlock2","","","","<div style=""font-size:60px;""> </div>","null","FL","learning/Slide91.JPG","That was a wug.","",""
"","image-keyboard-response","281","597540","0.0-8.0-0.11","FL","cdnsgh8l6s","1440","900","de","RL05OR28","null","","","","","","","","learning/Slide92.JPG","null","","","","",""
"","html-keyboard-response","282","598701","0.0-8.0-1.11","FL","cdnsgh8l6s","1440","900","de","RL05OR28","null","","","","learningBlock2","","","","That was a tob.","null","","","","",""
"","html-keyboard-response","283","599707","0.0-8.0-2.11","FL","cdnsgh8l6s","1440","900","de","RL05OR28","null","","","","learningBlock2","","","","<div style=""font-size:60px;""> </div>","null","FL","learning/Slide92.JPG","That was a tob.","",""
"","image-keyboard-response","284","599888","0.0-8.0-0.12","FL","cdnsgh8l6s","1440","900","de","RL05OR28","null","","","","","","","","learning/Slide93.JPG","null","","","","",""
"","html-keyboard-response","285","601049","0.0-8.0-1.12","FL","cdnsgh8l6s","1440","900","de","RL05OR28","null","","","","learningBlock2","","","","That was a bim.","null","","","","",""
"","html-keyboard-response","286","602051","0.0-8.0-2.12","FL","cdnsgh8l6s","1440","900","de","RL05OR28","null","","","","learningBlock2","","","","<div style=""font-size:60px;""> </div>","null","FL","learning/Slide93.JPG","That was a bim.","",""
"","image-keyboard-response","287","602232","0.0-8.0-0.13","FL","cdnsgh8l6s","1440","900","de","RL05OR28","null","","","","","","","","learning/Slide94.JPG","null","","","","",""
"","html-keyboard-response","288","603393","0.0-8.0-1.13","FL","cdnsgh8l6s","1440","900","de","RL05OR28","null","","","","learningBlock2","","","","That was a tob.","null","","","","",""
"","html-keyboard-response","289","604399","0.0-8.0-2.13","FL","cdnsgh8l6s","1440","900","de","RL05OR28","null","","","","learningBlock2","","","","<div style=""font-size:60px;""> </div>","null","FL","learning/Slide94.JPG","That was a tob.","",""
"","image-keyboard-response","290","604578","0.0-8.0-0.14","FL","cdnsgh8l6s","1440","900","de","RL05OR28","null","","","","","","","","learning/Slide95.JPG","null","","","","",""
"","html-keyboard-response","291","605739","0.0-8.0-1.14","FL","cdnsgh8l6s","1440","900","de","RL05OR28","null","","","","learningBlock2","","","","That was a wug.","null","","","","",""
"","html-keyboard-response","292","606745","0.0-8.0-2.14","FL","cdnsgh8l6s","1440","900","de","RL05OR28","null","","","","learningBlock2","","","","<div style=""font-size:60px;""> </div>","null","FL","learning/Slide95.JPG","That was a wug.","",""
"","image-keyboard-response","293","606926","0.0-8.0-0.15","FL","cdnsgh8l6s","1440","900","de","RL05OR28","null","","","","","","","","learning/Slide96.JPG","null","","","","",""
"","html-keyboard-response","294","608087","0.0-8.0-1.15","FL","cdnsgh8l6s","1440","900","de","RL05OR28","null","","","","learningBlock2","","","","That was a tob.","null","","","","",""
"","html-keyboard-response","295","609093","0.0-8.0-2.15","FL","cdnsgh8l6s","1440","900","de","RL05OR28","null","","","","learningBlock2","","","","<div style=""font-size:60px;""> </div>","null","FL","learning/Slide96.JPG","That was a tob.","",""
"","image-keyboard-response","296","609274","0.0-8.0-0.16","FL","cdnsgh8l6s","1440","900","de","RL05OR28","null","","","","","","","","learning/Slide97.JPG","null","","","","",""
"","html-keyboard-response","297","610431","0.0-8.0-1.16","FL","cdnsgh8l6s","1440","900","de","RL05OR28","null","","","","learningBlock2","","","","That was a dep.","null","","","","",""
"","html-keyboard-response","298","611437","0.0-8.0-2.16","FL","cdnsgh8l6s","1440","900","de","RL05OR28","null","","","","learningBlock2","","","","<div style=""font-size:60px;""> </div>","null","FL","learning/Slide97.JPG","That was a dep.","",""
"","image-keyboard-response","299","611618","0.0-8.0-0.17","FL","cdnsgh8l6s","1440","900","de","RL05OR28","null","","","","","","","","learning/Slide98.JPG","null","","","","",""
"","html-keyboard-response","300","612779","0.0-8.0-1.17","FL","cdnsgh8l6s","1440","900","de","RL05OR28","null","","","","learningBlock2","","","","That was a bim.","null","","","","",""
"","html-keyboard-response","301","613785","0.0-8.0-2.17","FL","cdnsgh8l6s","1440","900","de","RL05OR28","null","","","","learningBlock2","","","","<div style=""font-size:60px;""> </div>","null","FL","learning/Slide98.JPG","That was a bim.","",""
"","image-keyboard-response","302","613966","0.0-8.0-0.18","FL","cdnsgh8l6s","1440","900","de","RL05OR28","null","","","","","","","","learning/Slide99.JPG","null","","","","",""
"","html-keyboard-response","303","615127","0.0-8.0-1.18","FL","cdnsgh8l6s","1440","900","de","RL05OR28","null","","","","learningBlock2","","","","That was a dep.","null","","","","",""
"","html-keyboard-response","304","616133","0.0-8.0-2.18","FL","cdnsgh8l6s","1440","900","de","RL05OR28","null","","","","learningBlock2","","","","<div style=""font-size:60px;""> </div>","null","FL","learning/Slide99.JPG","That was a dep.","",""
"","image-keyboard-response","305","616311","0.0-8.0-0.19","FL","cdnsgh8l6s","1440","900","de","RL05OR28","null","","","","","","","","learning/Slide100.JPG","null","","","","",""
"","html-keyboard-response","306","617472","0.0-8.0-1.19","FL","cdnsgh8l6s","1440","900","de","RL05OR28","null","","","","learningBlock2","","","","That was a bim.","null","","","","",""
"","html-keyboard-response","307","618478","0.0-8.0-2.19","FL","cdnsgh8l6s","1440","900","de","RL05OR28","null","","","","learningBlock2","","","","<div style=""font-size:60px;""> </div>","null","FL","learning/Slide100.JPG","That was a bim.","",""
"","image-keyboard-response","308","618659","0.0-8.0-0.20","FL","cdnsgh8l6s","1440","900","de","RL05OR28","null","","","","","","","","learning/Slide101.JPG","null","","","","",""
"","html-keyboard-response","309","619815","0.0-8.0-1.20","FL","cdnsgh8l6s","1440","900","de","RL05OR28","null","","","","learningBlock2","","","","That was a tob.","null","","","","",""
"","html-keyboard-response","310","620821","0.0-8.0-2.20","FL","cdnsgh8l6s","1440","900","de","RL05OR28","null","","","","learningBlock2","","","","<div style=""font-size:60px;""> </div>","null","FL","learning/Slide101.JPG","That was a tob.","",""
"","image-keyboard-response","311","621000","0.0-8.0-0.21","FL","cdnsgh8l6s","1440","900","de","RL05OR28","null","","","","","","","","learning/Slide102.JPG","null","","","","",""
"","html-keyboard-response","312","622158","0.0-8.0-1.21","FL","cdnsgh8l6s","1440","900","de","RL05OR28","null","","","","learningBlock2","","","","That was a bim.","null","","","","",""
"","html-keyboard-response","313","623164","0.0-8.0-2.21","FL","cdnsgh8l6s","1440","900","de","RL05OR28","null","","","","learningBlock2","","","","<div style=""font-size:60px;""> </div>","null","FL","learning/Slide102.JPG","That was a bim.","",""
"","image-keyboard-response","314","623345","0.0-8.0-0.22","FL","cdnsgh8l6s","1440","900","de","RL05OR28","null","","","","","","","","learning/Slide103.JPG","null","","","","",""
"","html-keyboard-response","315","624506","0.0-8.0-1.22","FL","cdnsgh8l6s","1440","900","de","RL05OR28","null","","","","learningBlock2","","","","That was a dep.","null","","","","",""
"","html-keyboard-response","316","625512","0.0-8.0-2.22","FL","cdnsgh8l6s","1440","900","de","RL05OR28","null","","","","learningBlock2","","","","<div style=""font-size:60px;""> </div>","null","FL","learning/Slide103.JPG","That was a dep.","",""
"","image-keyboard-response","317","625693","0.0-8.0-0.23","FL","cdnsgh8l6s","1440","900","de","RL05OR28","null","","","","","","","","learning/Slide104.JPG","null","","","","",""
"","html-keyboard-response","318","626854","0.0-8.0-1.23","FL","cdnsgh8l6s","1440","900","de","RL05OR28","null","","","","learningBlock2","","","","That was a tob.","null","","","","",""
"","html-keyboard-response","319","627857","0.0-8.0-2.23","FL","cdnsgh8l6s","1440","900","de","RL05OR28","null","","","","learningBlock2","","","","<div style=""font-size:60px;""> </div>","null","FL","learning/Slide104.JPG","That was a tob.","",""
"","image-keyboard-response","320","628035","0.0-8.0-0.24","FL","cdnsgh8l6s","1440","900","de","RL05OR28","null","","","","","","","","learning/Slide105.JPG","null","","","","",""
"","html-keyboard-response","321","629193","0.0-8.0-1.24","FL","cdnsgh8l6s","1440","900","de","RL05OR28","null","","","","learningBlock2","","","","That was a dep.","null","","","","",""
"","html-keyboard-response","322","630198","0.0-8.0-2.24","FL","cdnsgh8l6s","1440","900","de","RL05OR28","null","","","","learningBlock2","","","","<div style=""font-size:60px;""> </div>","null","FL","learning/Slide105.JPG","That was a dep.","",""
"","image-keyboard-response","323","630380","0.0-8.0-0.25","FL","cdnsgh8l6s","1440","900","de","RL05OR28","null","","","","","","","","learning/Slide106.JPG","null","","","","",""
"","html-keyboard-response","324","631541","0.0-8.0-1.25","FL","cdnsgh8l6s","1440","900","de","RL05OR28","null","","","","learningBlock2","","","","That was a wug.","null","","","","",""
"","html-keyboard-response","325","632547","0.0-8.0-2.25","FL","cdnsgh8l6s","1440","900","de","RL05OR28","null","","","","learningBlock2","","","","<div style=""font-size:60px;""> </div>","null","FL","learning/Slide106.JPG","That was a wug.","",""
"","image-keyboard-response","326","632728","0.0-8.0-0.26","FL","cdnsgh8l6s","1440","900","de","RL05OR28","null","","","","","","","","learning/Slide107.JPG","null","","","","",""
"","html-keyboard-response","327","633889","0.0-8.0-1.26","FL","cdnsgh8l6s","1440","900","de","RL05OR28","null","","","","learningBlock2","","","","That was a bim.","null","","","","",""
"","html-keyboard-response","328","634891","0.0-8.0-2.26","FL","cdnsgh8l6s","1440","900","de","RL05OR28","null","","","","learningBlock2","","","","<div style=""font-size:60px;""> </div>","null","FL","learning/Slide107.JPG","That was a bim.","",""
"","image-keyboard-response","329","635069","0.0-8.0-0.27","FL","cdnsgh8l6s","1440","900","de","RL05OR28","null","","","","","","","","learning/Slide108.JPG","null","","","","",""
"","html-keyboard-response","330","636230","0.0-8.0-1.27","FL","cdnsgh8l6s","1440","900","de","RL05OR28","null","","","","learningBlock2","","","","That was a dep.","null","","","","",""
"","html-keyboard-response","331","637236","0.0-8.0-2.27","FL","cdnsgh8l6s","1440","900","de","RL05OR28","null","","","","learningBlock2","","","","<div style=""font-size:60px;""> </div>","null","FL","learning/Slide108.JPG","That was a dep.","",""
"","image-keyboard-response","332","637413","0.0-8.0-0.28","FL","cdnsgh8l6s","1440","900","de","RL05OR28","null","","","","","","","","learning/Slide109.JPG","null","","","","",""
"","html-keyboard-response","333","638574","0.0-8.0-1.28","FL","cdnsgh8l6s","1440","900","de","RL05OR28","null","","","","learningBlock2","","","","That was a wug.","null","","","","",""
"","html-keyboard-response","334","639580","0.0-8.0-2.28","FL","cdnsgh8l6s","1440","900","de","RL05OR28","null","","","","learningBlock2","","","","<div style=""font-size:60px;""> </div>","null","FL","learning/Slide109.JPG","That was a wug.","",""
"","image-keyboard-response","335","639762","0.0-8.0-0.29","FL","cdnsgh8l6s","1440","900","de","RL05OR28","null","","","","","","","","learning/Slide110.JPG","null","","","","",""
"","html-keyboard-response","336","640920","0.0-8.0-1.29","FL","cdnsgh8l6s","1440","900","de","RL05OR28","null","","","","learningBlock2","","","","That was a bim.","null","","","","",""
"","html-keyboard-response","337","641922","0.0-8.0-2.29","FL","cdnsgh8l6s","1440","900","de","RL05OR28","null","","","","learningBlock2","","","","<div style=""font-size:60px;""> </div>","null","FL","learning/Slide110.JPG","That was a bim.","",""
"","image-keyboard-response","338","642104","0.0-8.0-0.30","FL","cdnsgh8l6s","1440","900","de","RL05OR28","null","","","","","","","","learning/Slide111.JPG","null","","","","",""
"","html-keyboard-response","339","643264","0.0-8.0-1.30","FL","cdnsgh8l6s","1440","900","de","RL05OR28","null","","","","learningBlock2","","","","That was a tob.","null","","","","",""
"","html-keyboard-response","340","644270","0.0-8.0-2.30","FL","cdnsgh8l6s","1440","900","de","RL05OR28","null","","","","learningBlock2","","","","<div style=""font-size:60px;""> </div>","null","FL","learning/Slide111.JPG","That was a tob.","",""
"","image-keyboard-response","341","644452","0.0-8.0-0.31","FL","cdnsgh8l6s","1440","900","de","RL05OR28","null","","","","","","","","learning/Slide112.JPG","null","","","","",""
"","html-keyboard-response","342","645613","0.0-8.0-1.31","FL","cdnsgh8l6s","1440","900","de","RL05OR28","null","","","","learningBlock2","","","","That was a wug.","null","","","","",""
"","html-keyboard-response","343","646619","0.0-8.0-2.31","FL","cdnsgh8l6s","1440","900","de","RL05OR28","null","","","","learningBlock2","","","","<div style=""font-size:60px;""> </div>","null","FL","learning/Slide112.JPG","That was a wug.","",""
"","image-keyboard-response","344","646800","0.0-8.0-0.32","FL","cdnsgh8l6s","1440","900","de","RL05OR28","null","","","","","","","","learning/Slide113.JPG","null","","","","",""
"","html-keyboard-response","345","647953","0.0-8.0-1.32","FL","cdnsgh8l6s","1440","900","de","RL05OR28","null","","","","learningBlock2","","","","That was a tob.","null","","","","",""
"","html-keyboard-response","346","648954","0.0-8.0-2.32","FL","cdnsgh8l6s","1440","900","de","RL05OR28","null","","","","learningBlock2","","","","<div style=""font-size:60px;""> </div>","null","FL","learning/Slide113.JPG","That was a tob.","",""
"","image-keyboard-response","347","649133","0.0-8.0-0.33","FL","cdnsgh8l6s","1440","900","de","RL05OR28","null","","","","","","","","learning/Slide114.JPG","null","","","","",""
"","html-keyboard-response","348","650294","0.0-8.0-1.33","FL","cdnsgh8l6s","1440","900","de","RL05OR28","null","","","","learningBlock2","","","","That was a wug.","null","","","","",""
"","html-keyboard-response","349","651300","0.0-8.0-2.33","FL","cdnsgh8l6s","1440","900","de","RL05OR28","null","","","","learningBlock2","","","","<div style=""font-size:60px;""> </div>","null","FL","learning/Slide114.JPG","That was a wug.","",""
"","image-keyboard-response","350","651481","0.0-8.0-0.34","FL","cdnsgh8l6s","1440","900","de","RL05OR28","null","","","","","","","","learning/Slide115.JPG","null","","","","",""
"","html-keyboard-response","351","652642","0.0-8.0-1.34","FL","cdnsgh8l6s","1440","900","de","RL05OR28","null","","","","learningBlock2","","","","That was a bim.","null","","","","",""
"","html-keyboard-response","352","653648","0.0-8.0-2.34","FL","cdnsgh8l6s","1440","900","de","RL05OR28","null","","","","learningBlock2","","","","<div style=""font-size:60px;""> </div>","null","FL","learning/Slide115.JPG","That was a bim.","",""
"","image-keyboard-response","353","653829","0.0-8.0-0.35","FL","cdnsgh8l6s","1440","900","de","RL05OR28","null","","","","","","","","learning/Slide116.JPG","null","","","","",""
"","html-keyboard-response","354","654990","0.0-8.0-1.35","FL","cdnsgh8l6s","1440","900","de","RL05OR28","null","","","","learningBlock2","","","","That was a dep.","null","","","","",""
"","html-keyboard-response","355","655996","0.0-8.0-2.35","FL","cdnsgh8l6s","1440","900","de","RL05OR28","null","","","","learningBlock2","","","","<div style=""font-size:60px;""> </div>","null","FL","learning/Slide116.JPG","That was a dep.","",""
"","image-keyboard-response","356","656176","0.0-8.0-0.36","FL","cdnsgh8l6s","1440","900","de","RL05OR28","null","","","","","","","","learning/Slide117.JPG","null","","","","",""
"","html-keyboard-response","357","657338","0.0-8.0-1.36","FL","cdnsgh8l6s","1440","900","de","RL05OR28","null","","","","learningBlock2","","","","That was a tob.","null","","","","",""
"","html-keyboard-response","358","658344","0.0-8.0-2.36","FL","cdnsgh8l6s","1440","900","de","RL05OR28","null","","","","learningBlock2","","","","<div style=""font-size:60px;""> </div>","null","FL","learning/Slide117.JPG","That was a tob.","",""
"","image-keyboard-response","359","658522","0.0-8.0-0.37","FL","cdnsgh8l6s","1440","900","de","RL05OR28","null","","","","","","","","learning/Slide118.JPG","null","","","","",""
"","html-keyboard-response","360","659680","0.0-8.0-1.37","FL","cdnsgh8l6s","1440","900","de","RL05OR28","null","","","","learningBlock2","","","","That was a dep.","null","","","","",""
"","html-keyboard-response","361","660686","0.0-8.0-2.37","FL","cdnsgh8l6s","1440","900","de","RL05OR28","null","","","","learningBlock2","","","","<div style=""font-size:60px;""> </div>","null","FL","learning/Slide118.JPG","That was a dep.","",""
"","image-keyboard-response","362","660867","0.0-8.0-0.38","FL","cdnsgh8l6s","1440","900","de","RL05OR28","null","","","","","","","","learning/Slide119.JPG","null","","","","",""
"","html-keyboard-response","363","662023","0.0-8.0-1.38","FL","cdnsgh8l6s","1440","900","de","RL05OR28","null","","","","learningBlock2","","","","That was a wug.","null","","","","",""
"","html-keyboard-response","364","663029","0.0-8.0-2.38","FL","cdnsgh8l6s","1440","900","de","RL05OR28","null","","","","learningBlock2","","","","<div style=""font-size:60px;""> </div>","null","FL","learning/Slide119.JPG","That was a wug.","",""
"","image-keyboard-response","365","663211","0.0-8.0-0.39","FL","cdnsgh8l6s","1440","900","de","RL05OR28","null","","","","","","","","learning/Slide120.JPG","null","","","","",""
"","html-keyboard-response","366","664368","0.0-8.0-1.39","FL","cdnsgh8l6s","1440","900","de","RL05OR28","null","","","","learningBlock2","","","","That was a dep.","null","","","","",""
"","html-keyboard-response","367","665374","0.0-8.0-2.39","FL","cdnsgh8l6s","1440","900","de","RL05OR28","null","","","","learningBlock2","","","","<div style=""font-size:60px;""> </div>","null","FL","learning/Slide120.JPG","That was a dep.","",""
"","image-keyboard-response","368","665555","0.0-8.0-0.40","FL","cdnsgh8l6s","1440","900","de","RL05OR28","null","","","","","","","","learning/Slide121.JPG","null","","","","",""
"","html-keyboard-response","369","666715","0.0-8.0-1.40","FL","cdnsgh8l6s","1440","900","de","RL05OR28","null","","","","learningBlock2","","","","That was a bim.","null","","","","",""
"","html-keyboard-response","370","667720","0.0-8.0-2.40","FL","cdnsgh8l6s","1440","900","de","RL05OR28","null","","","","learningBlock2","","","","<div style=""font-size:60px;""> </div>","null","FL","learning/Slide121.JPG","That was a bim.","",""
"","image-keyboard-response","371","667902","0.0-8.0-0.41","FL","cdnsgh8l6s","1440","900","de","RL05OR28","null","","","","","","","","learning/Slide122.JPG","null","","","","",""
"","html-keyboard-response","372","669063","0.0-8.0-1.41","FL","cdnsgh8l6s","1440","900","de","RL05OR28","null","","","","learningBlock2","","","","That was a wug.","null","","","","",""
"","html-keyboard-response","373","670069","0.0-8.0-2.41","FL","cdnsgh8l6s","1440","900","de","RL05OR28","null","","","","learningBlock2","","","","<div style=""font-size:60px;""> </div>","null","FL","learning/Slide122.JPG","That was a wug.","",""
"","image-keyboard-response","374","670250","0.0-8.0-0.42","FL","cdnsgh8l6s","1440","900","de","RL05OR28","null","","","","","","","","learning/Slide123.JPG","null","","","","",""
"","html-keyboard-response","375","671408","0.0-8.0-1.42","FL","cdnsgh8l6s","1440","900","de","RL05OR28","null","","","","learningBlock2","","","","That was a bim.","null","","","","",""
"","html-keyboard-response","376","672414","0.0-8.0-2.42","FL","cdnsgh8l6s","1440","900","de","RL05OR28","null","","","","learningBlock2","","","","<div style=""font-size:60px;""> </div>","null","FL","learning/Slide123.JPG","That was a bim.","",""
"","image-keyboard-response","377","672596","0.0-8.0-0.43","FL","cdnsgh8l6s","1440","900","de","RL05OR28","null","","","","","","","","learning/Slide124.JPG","null","","","","",""
"","html-keyboard-response","378","673757","0.0-8.0-1.43","FL","cdnsgh8l6s","1440","900","de","RL05OR28","null","","","","learningBlock2","","","","That was a tob.","null","","","","",""
"","html-keyboard-response","379","674763","0.0-8.0-2.43","FL","cdnsgh8l6s","1440","900","de","RL05OR28","null","","","","learningBlock2","","","","<div style=""font-size:60px;""> </div>","null","FL","learning/Slide124.JPG","That was a tob.","",""
"","image-keyboard-response","380","674944","0.0-8.0-0.44","FL","cdnsgh8l6s","1440","900","de","RL05OR28","null","","","","","","","","learning/Slide125.JPG","null","","","","",""
"","html-keyboard-response","381","676105","0.0-8.0-1.44","FL","cdnsgh8l6s","1440","900","de","RL05OR28","null","","","","learningBlock2","","","","That was a bim.","null","","","","",""
"","html-keyboard-response","382","677111","0.0-8.0-2.44","FL","cdnsgh8l6s","1440","900","de","RL05OR28","null","","","","learningBlock2","","","","<div style=""font-size:60px;""> </div>","null","FL","learning/Slide125.JPG","That was a bim.","",""
"","image-keyboard-response","383","677292","0.0-8.0-0.45","FL","cdnsgh8l6s","1440","900","de","RL05OR28","null","","","","","","","","learning/Slide126.JPG","null","","","","",""
"","html-keyboard-response","384","678453","0.0-8.0-1.45","FL","cdnsgh8l6s","1440","900","de","RL05OR28","null","","","","learningBlock2","","","","That was a tob.","null","","","","",""
"","html-keyboard-response","385","679459","0.0-8.0-2.45","FL","cdnsgh8l6s","1440","900","de","RL05OR28","null","","","","learningBlock2","","","","<div style=""font-size:60px;""> </div>","null","FL","learning/Slide126.JPG","That was a tob.","",""
"","image-keyboard-response","386","679641","0.0-8.0-0.46","FL","cdnsgh8l6s","1440","900","de","RL05OR28","null","","","","","","","","learning/Slide127.JPG","null","","","","",""
"","html-keyboard-response","387","680800","0.0-8.0-1.46","FL","cdnsgh8l6s","1440","900","de","RL05OR28","null","","","","learningBlock2","","","","That was a dep.","null","","","","",""
"","html-keyboard-response","388","681805","0.0-8.0-2.46","FL","cdnsgh8l6s","1440","900","de","RL05OR28","null","","","","learningBlock2","","","","<div style=""font-size:60px;""> </div>","null","FL","learning/Slide127.JPG","That was a dep.","",""
"","image-keyboard-response","389","681986","0.0-8.0-0.47","FL","cdnsgh8l6s","1440","900","de","RL05OR28","null","","","","","","","","learning/Slide128.JPG","null","","","","",""
"","html-keyboard-response","390","683147","0.0-8.0-1.47","FL","cdnsgh8l6s","1440","900","de","RL05OR28","null","","","","learningBlock2","","","","That was a wug.","null","","","","",""
"","html-keyboard-response","391","684153","0.0-8.0-2.47","FL","cdnsgh8l6s","1440","900","de","RL05OR28","null","","","","learningBlock2","","","","<div style=""font-size:60px;""> </div>","null","FL","learning/Slide128.JPG","That was a wug.","",""
"","image-keyboard-response","392","684332","0.0-8.0-0.48","FL","cdnsgh8l6s","1440","900","de","RL05OR28","null","","","","","","","","learning/Slide129.JPG","null","","","","",""
"","html-keyboard-response","393","685493","0.0-8.0-1.48","FL","cdnsgh8l6s","1440","900","de","RL05OR28","null","","","","learningBlock2","","","","That was a tob.","null","","","","",""
"","html-keyboard-response","394","686499","0.0-8.0-2.48","FL","cdnsgh8l6s","1440","900","de","RL05OR28","null","","","","learningBlock2","","","","<div style=""font-size:60px;""> </div>","null","FL","learning/Slide129.JPG","That was a tob.","",""
"","image-keyboard-response","395","686676","0.0-8.0-0.49","FL","cdnsgh8l6s","1440","900","de","RL05OR28","null","","","","","","","","learning/Slide130.JPG","null","","","","",""
"","html-keyboard-response","396","687837","0.0-8.0-1.49","FL","cdnsgh8l6s","1440","900","de","RL05OR28","null","","","","learningBlock2","","","","That was a wug.","null","","","","",""
"","html-keyboard-response","397","688843","0.0-8.0-2.49","FL","cdnsgh8l6s","1440","900","de","RL05OR28","null","","","","learningBlock2","","","","<div style=""font-size:60px;""> </div>","null","FL","learning/Slide130.JPG","That was a wug.","",""
"","image-keyboard-response","398","689025","0.0-8.0-0.50","FL","cdnsgh8l6s","1440","900","de","RL05OR28","null","","","","","","","","learning/Slide131.JPG","null","","","","",""
"","html-keyboard-response","399","690186","0.0-8.0-1.50","FL","cdnsgh8l6s","1440","900","de","RL05OR28","null","","","","learningBlock2","","","","That was a bim.","null","","","","",""
"","html-keyboard-response","400","691192","0.0-8.0-2.50","FL","cdnsgh8l6s","1440","900","de","RL05OR28","null","","","","learningBlock2","","","","<div style=""font-size:60px;""> </div>","null","FL","learning/Slide131.JPG","That was a bim.","",""
"","image-keyboard-response","401","691373","0.0-8.0-0.51","FL","cdnsgh8l6s","1440","900","de","RL05OR28","null","","","","","","","","learning/Slide132.JPG","null","","","","",""
"","html-keyboard-response","402","692531","0.0-8.0-1.51","FL","cdnsgh8l6s","1440","900","de","RL05OR28","null","","","","learningBlock2","","","","That was a dep.","null","","","","",""
"","html-keyboard-response","403","693537","0.0-8.0-2.51","FL","cdnsgh8l6s","1440","900","de","RL05OR28","null","","","","learningBlock2","","","","<div style=""font-size:60px;""> </div>","null","FL","learning/Slide132.JPG","That was a dep.","",""
"","image-keyboard-response","404","693721","0.0-8.0-0.52","FL","cdnsgh8l6s","1440","900","de","RL05OR28","null","","","","","","","","learning/Slide133.JPG","null","","","","",""
"","html-keyboard-response","405","694882","0.0-8.0-1.52","FL","cdnsgh8l6s","1440","900","de","RL05OR28","null","","","","learningBlock2","","","","That was a tob.","null","","","","",""
"","html-keyboard-response","406","695888","0.0-8.0-2.52","FL","cdnsgh8l6s","1440","900","de","RL05OR28","null","","","","learningBlock2","","","","<div style=""font-size:60px;""> </div>","null","FL","learning/Slide133.JPG","That was a tob.","",""
"","image-keyboard-response","407","696066","0.0-8.0-0.53","FL","cdnsgh8l6s","1440","900","de","RL05OR28","null","","","","","","","","learning/Slide134.JPG","null","","","","",""
"","html-keyboard-response","408","697227","0.0-8.0-1.53","FL","cdnsgh8l6s","1440","900","de","RL05OR28","null","","","","learningBlock2","","","","That was a dep.","null","","","","",""
"","html-keyboard-response","409","698233","0.0-8.0-2.53","FL","cdnsgh8l6s","1440","900","de","RL05OR28","null","","","","learningBlock2","","","","<div style=""font-size:60px;""> </div>","null","FL","learning/Slide134.JPG","That was a dep.","",""
"","image-keyboard-response","410","698414","0.0-8.0-0.54","FL","cdnsgh8l6s","1440","900","de","RL05OR28","null","","","","","","","","learning/Slide135.JPG","null","","","","",""
"","html-keyboard-response","411","699575","0.0-8.0-1.54","FL","cdnsgh8l6s","1440","900","de","RL05OR28","null","","","","learningBlock2","","","","That was a tob.","null","","","","",""
"","html-keyboard-response","412","700581","0.0-8.0-2.54","FL","cdnsgh8l6s","1440","900","de","RL05OR28","null","","","","learningBlock2","","","","<div style=""font-size:60px;""> </div>","null","FL","learning/Slide135.JPG","That was a tob.","",""
"","image-keyboard-response","413","700763","0.0-8.0-0.55","FL","cdnsgh8l6s","1440","900","de","RL05OR28","null","","","","","","","","learning/Slide136.JPG","null","","","","",""
"","html-keyboard-response","414","701923","0.0-8.0-1.55","FL","cdnsgh8l6s","1440","900","de","RL05OR28","null","","","","learningBlock2","","","","That was a wug.","null","","","","",""
"","html-keyboard-response","415","702929","0.0-8.0-2.55","FL","cdnsgh8l6s","1440","900","de","RL05OR28","null","","","","learningBlock2","","","","<div style=""font-size:60px;""> </div>","null","FL","learning/Slide136.JPG","That was a wug.","",""
"","image-keyboard-response","416","703110","0.0-8.0-0.56","FL","cdnsgh8l6s","1440","900","de","RL05OR28","null","","","","","","","","learning/Slide137.JPG","null","","","","",""
"","html-keyboard-response","417","704271","0.0-8.0-1.56","FL","cdnsgh8l6s","1440","900","de","RL05OR28","null","","","","learningBlock2","","","","That was a tob.","null","","","","",""
"","html-keyboard-response","418","705272","0.0-8.0-2.56","FL","cdnsgh8l6s","1440","900","de","RL05OR28","null","","","","learningBlock2","","","","<div style=""font-size:60px;""> </div>","null","FL","learning/Slide137.JPG","That was a tob.","",""
"","image-keyboard-response","419","705454","0.0-8.0-0.57","FL","cdnsgh8l6s","1440","900","de","RL05OR28","null","","","","","","","","learning/Slide138.JPG","null","","","","",""
"","html-keyboard-response","420","706615","0.0-8.0-1.57","FL","cdnsgh8l6s","1440","900","de","RL05OR28","null","","","","learningBlock2","","","","That was a bim.","null","","","","",""
"","html-keyboard-response","421","707621","0.0-8.0-2.57","FL","cdnsgh8l6s","1440","900","de","RL05OR28","null","","","","learningBlock2","","","","<div style=""font-size:60px;""> </div>","null","FL","learning/Slide138.JPG","That was a bim.","",""
"","image-keyboard-response","422","707801","0.0-8.0-0.58","FL","cdnsgh8l6s","1440","900","de","RL05OR28","null","","","","","","","","learning/Slide139.JPG","null","","","","",""
"","html-keyboard-response","423","708962","0.0-8.0-1.58","FL","cdnsgh8l6s","1440","900","de","RL05OR28","null","","","","learningBlock2","","","","That was a wug.","null","","","","",""
"","html-keyboard-response","424","709968","0.0-8.0-2.58","FL","cdnsgh8l6s","1440","900","de","RL05OR28","null","","","","learningBlock2","","","","<div style=""font-size:60px;""> </div>","null","FL","learning/Slide139.JPG","That was a wug.","",""
"","image-keyboard-response","425","710149","0.0-8.0-0.59","FL","cdnsgh8l6s","1440","900","de","RL05OR28","null","","","","","","","","learning/Slide140.JPG","null","","","","",""
"","html-keyboard-response","426","711310","0.0-8.0-1.59","FL","cdnsgh8l6s","1440","900","de","RL05OR28","null","","","","learningBlock2","","","","That was a dep.","null","","","","",""
"","html-keyboard-response","427","712316","0.0-8.0-2.59","FL","cdnsgh8l6s","1440","900","de","RL05OR28","null","","","","learningBlock2","","","","<div style=""font-size:60px;""> </div>","null","FL","learning/Slide140.JPG","That was a dep.","",""
"","image-keyboard-response","428","712497","0.0-8.0-0.60","FL","cdnsgh8l6s","1440","900","de","RL05OR28","null","","","","","","","","learning/Slide141.JPG","null","","","","",""
"","html-keyboard-response","429","713658","0.0-8.0-1.60","FL","cdnsgh8l6s","1440","900","de","RL05OR28","null","","","","learningBlock2","","","","That was a tob.","null","","","","",""
"","html-keyboard-response","430","714664","0.0-8.0-2.60","FL","cdnsgh8l6s","1440","900","de","RL05OR28","null","","","","learningBlock2","","","","<div style=""font-size:60px;""> </div>","null","FL","learning/Slide141.JPG","That was a tob.","",""
"","image-keyboard-response","431","714845","0.0-8.0-0.61","FL","cdnsgh8l6s","1440","900","de","RL05OR28","null","","","","","","","","learning/Slide142.JPG","null","","","","",""
"","html-keyboard-response","432","716006","0.0-8.0-1.61","FL","cdnsgh8l6s","1440","900","de","RL05OR28","null","","","","learningBlock2","","","","That was a wug.","null","","","","",""
"","html-keyboard-response","433","717012","0.0-8.0-2.61","FL","cdnsgh8l6s","1440","900","de","RL05OR28","null","","","","learningBlock2","","","","<div style=""font-size:60px;""> </div>","null","FL","learning/Slide142.JPG","That was a wug.","",""
"","image-keyboard-response","434","717194","0.0-8.0-0.62","FL","cdnsgh8l6s","1440","900","de","RL05OR28","null","","","","","","","","learning/Slide143.JPG","null","","","","",""
"","html-keyboard-response","435","718355","0.0-8.0-1.62","FL","cdnsgh8l6s","1440","900","de","RL05OR28","null","","","","learningBlock2","","","","That was a bim.","null","","","","",""
"","html-keyboard-response","436","719361","0.0-8.0-2.62","FL","cdnsgh8l6s","1440","900","de","RL05OR28","null","","","","learningBlock2","","","","<div style=""font-size:60px;""> </div>","null","FL","learning/Slide143.JPG","That was a bim.","",""
"","image-keyboard-response","437","719542","0.0-8.0-0.63","FL","cdnsgh8l6s","1440","900","de","RL05OR28","null","","","","","","","","learning/Slide144.JPG","null","","","","",""
"","html-keyboard-response","438","720699","0.0-8.0-1.63","FL","cdnsgh8l6s","1440","900","de","RL05OR28","null","","","","learningBlock2","","","","That was a dep.","null","","","","",""
"","html-keyboard-response","439","721705","0.0-8.0-2.63","FL","cdnsgh8l6s","1440","900","de","RL05OR28","null","","","","learningBlock2","","","","<div style=""font-size:60px;""> </div>","null","FL","learning/Slide144.JPG","That was a dep.","",""
"","image-keyboard-response","440","721882","0.0-8.0-0.64","FL","cdnsgh8l6s","1440","900","de","RL05OR28","null","","","","","","","","learning/Slide145.JPG","null","","","","",""
"","html-keyboard-response","441","723043","0.0-8.0-1.64","FL","cdnsgh8l6s","1440","900","de","RL05OR28","null","","","","learningBlock2","","","","That was a bim.","null","","","","",""
"","html-keyboard-response","442","724049","0.0-8.0-2.64","FL","cdnsgh8l6s","1440","900","de","RL05OR28","null","","","","learningBlock2","","","","<div style=""font-size:60px;""> </div>","null","FL","learning/Slide145.JPG","That was a bim.","",""
"","image-keyboard-response","443","724230","0.0-8.0-0.65","FL","cdnsgh8l6s","1440","900","de","RL05OR28","null","","","","","","","","learning/Slide146.JPG","null","","","","",""
"","html-keyboard-response","444","725389","0.0-8.0-1.65","FL","cdnsgh8l6s","1440","900","de","RL05OR28","null","","","","learningBlock2","","","","That was a tob.","null","","","","",""
"","html-keyboard-response","445","726395","0.0-8.0-2.65","FL","cdnsgh8l6s","1440","900","de","RL05OR28","null","","","","learningBlock2","","","","<div style=""font-size:60px;""> </div>","null","FL","learning/Slide146.JPG","That was a tob.","",""
"","image-keyboard-response","446","726577","0.0-8.0-0.66","FL","cdnsgh8l6s","1440","900","de","RL05OR28","null","","","","","","","","learning/Slide147.JPG","null","","","","",""
"","html-keyboard-response","447","727738","0.0-8.0-1.66","FL","cdnsgh8l6s","1440","900","de","RL05OR28","null","","","","learningBlock2","","","","That was a wug.","null","","","","",""
"","html-keyboard-response","448","728744","0.0-8.0-2.66","FL","cdnsgh8l6s","1440","900","de","RL05OR28","null","","","","learningBlock2","","","","<div style=""font-size:60px;""> </div>","null","FL","learning/Slide147.JPG","That was a wug.","",""
"","image-keyboard-response","449","728925","0.0-8.0-0.67","FL","cdnsgh8l6s","1440","900","de","RL05OR28","null","","","","","","","","learning/Slide148.JPG","null","","","","",""
"","html-keyboard-response","450","730086","0.0-8.0-1.67","FL","cdnsgh8l6s","1440","900","de","RL05OR28","null","","","","learningBlock2","","","","That was a bim.","null","","","","",""
"","html-keyboard-response","451","731092","0.0-8.0-2.67","FL","cdnsgh8l6s","1440","900","de","RL05OR28","null","","","","learningBlock2","","","","<div style=""font-size:60px;""> </div>","null","FL","learning/Slide148.JPG","That was a bim.","",""
"","image-keyboard-response","452","731273","0.0-8.0-0.68","FL","cdnsgh8l6s","1440","900","de","RL05OR28","null","","","","","","","","learning/Slide149.JPG","null","","","","",""
"","html-keyboard-response","453","732434","0.0-8.0-1.68","FL","cdnsgh8l6s","1440","900","de","RL05OR28","null","","","","learningBlock2","","","","That was a dep.","null","","","","",""
"","html-keyboard-response","454","733440","0.0-8.0-2.68","FL","cdnsgh8l6s","1440","900","de","RL05OR28","null","","","","learningBlock2","","","","<div style=""font-size:60px;""> </div>","null","FL","learning/Slide149.JPG","That was a dep.","",""
"","image-keyboard-response","455","733621","0.0-8.0-0.69","FL","cdnsgh8l6s","1440","900","de","RL05OR28","null","","","","","","","","learning/Slide150.JPG","null","","","","",""
"","html-keyboard-response","456","734782","0.0-8.0-1.69","FL","cdnsgh8l6s","1440","900","de","RL05OR28","null","","","","learningBlock2","","","","That was a wug.","null","","","","",""
"","html-keyboard-response","457","735788","0.0-8.0-2.69","FL","cdnsgh8l6s","1440","900","de","RL05OR28","null","","","","learningBlock2","","","","<div style=""font-size:60px;""> </div>","null","FL","learning/Slide150.JPG","That was a wug.","",""
"","image-keyboard-response","458","735970","0.0-8.0-0.70","FL","cdnsgh8l6s","1440","900","de","RL05OR28","null","","","","","","","","learning/Slide151.JPG","null","","","","",""
"","html-keyboard-response","459","737131","0.0-8.0-1.70","FL","cdnsgh8l6s","1440","900","de","RL05OR28","null","","","","learningBlock2","","","","That was a dep.","null","","","","",""
"","html-keyboard-response","460","738137","0.0-8.0-2.70","FL","cdnsgh8l6s","1440","900","de","RL05OR28","null","","","","learningBlock2","","","","<div style=""font-size:60px;""> </div>","null","FL","learning/Slide151.JPG","That was a dep.","",""
"","image-keyboard-response","461","738318","0.0-8.0-0.71","FL","cdnsgh8l6s","1440","900","de","RL05OR28","null","","","","","","","","learning/Slide152.JPG","null","","","","",""
"","html-keyboard-response","462","739479","0.0-8.0-1.71","FL","cdnsgh8l6s","1440","900","de","RL05OR28","null","","","","learningBlock2","","","","That was a wug.","null","","","","",""
"","html-keyboard-response","463","740485","0.0-8.0-2.71","FL","cdnsgh8l6s","1440","900","de","RL05OR28","null","","","","learningBlock2","","","","<div style=""font-size:60px;""> </div>","null","FL","learning/Slide152.JPG","That was a wug.","",""
"","image-keyboard-response","464","740666","0.0-8.0-0.72","FL","cdnsgh8l6s","1440","900","de","RL05OR28","null","","","","","","","","learning/Slide153.JPG","null","","","","",""
"","html-keyboard-response","465","741823","0.0-8.0-1.72","FL","cdnsgh8l6s","1440","900","de","RL05OR28","null","","","","learningBlock2","","","","That was a bim.","null","","","","",""
"","html-keyboard-response","466","742829","0.0-8.0-2.72","FL","cdnsgh8l6s","1440","900","de","RL05OR28","null","","","","learningBlock2","","","","<div style=""font-size:60px;""> </div>","null","FL","learning/Slide153.JPG","That was a bim.","",""
"","image-keyboard-response","467","743010","0.0-8.0-0.73","FL","cdnsgh8l6s","1440","900","de","RL05OR28","null","","","","","","","","learning/Slide154.JPG","null","","","","",""
"","html-keyboard-response","468","744171","0.0-8.0-1.73","FL","cdnsgh8l6s","1440","900","de","RL05OR28","null","","","","learningBlock2","","","","That was a tob.","null","","","","",""
"","html-keyboard-response","469","745177","0.0-8.0-2.73","FL","cdnsgh8l6s","1440","900","de","RL05OR28","null","","","","learningBlock2","","","","<div style=""font-size:60px;""> </div>","null","FL","learning/Slide154.JPG","That was a tob.","",""
"","image-keyboard-response","470","745359","0.0-8.0-0.74","FL","cdnsgh8l6s","1440","900","de","RL05OR28","null","","","","","","","","learning/Slide155.JPG","null","","","","",""
"","html-keyboard-response","471","746518","0.0-8.0-1.74","FL","cdnsgh8l6s","1440","900","de","RL05OR28","null","","","","learningBlock2","","","","That was a dep.","null","","","","",""
"","html-keyboard-response","472","747523","0.0-8.0-2.74","FL","cdnsgh8l6s","1440","900","de","RL05OR28","null","","","","learningBlock2","","","","<div style=""font-size:60px;""> </div>","null","FL","learning/Slide155.JPG","That was a dep.","",""
"","image-keyboard-response","473","747705","0.0-8.0-0.75","FL","cdnsgh8l6s","1440","900","de","RL05OR28","null","","","","","","","","learning/Slide156.JPG","null","","","","",""
"","html-keyboard-response","474","748866","0.0-8.0-1.75","FL","cdnsgh8l6s","1440","900","de","RL05OR28","null","","","","learningBlock2","","","","That was a bim.","null","","","","",""
"","html-keyboard-response","475","749872","0.0-8.0-2.75","FL","cdnsgh8l6s","1440","900","de","RL05OR28","null","","","","learningBlock2","","","","<div style=""font-size:60px;""> </div>","null","FL","learning/Slide156.JPG","That was a bim.","",""
"","image-keyboard-response","476","750053","0.0-8.0-0.76","FL","cdnsgh8l6s","1440","900","de","RL05OR28","null","","","","","","","","learning/Slide157.JPG","null","","","","",""
"","html-keyboard-response","477","751214","0.0-8.0-1.76","FL","cdnsgh8l6s","1440","900","de","RL05OR28","null","","","","learningBlock2","","","","That was a dep.","null","","","","",""
"","html-keyboard-response","478","752220","0.0-8.0-2.76","FL","cdnsgh8l6s","1440","900","de","RL05OR28","null","","","","learningBlock2","","","","<div style=""font-size:60px;""> </div>","null","FL","learning/Slide157.JPG","That was a dep.","",""
"","image-keyboard-response","479","752401","0.0-8.0-0.77","FL","cdnsgh8l6s","1440","900","de","RL05OR28","null","","","","","","","","learning/Slide158.JPG","null","","","","",""
"","html-keyboard-response","480","753562","0.0-8.0-1.77","FL","cdnsgh8l6s","1440","900","de","RL05OR28","null","","","","learningBlock2","","","","That was a tob.","null","","","","",""
"","html-keyboard-response","481","754568","0.0-8.0-2.77","FL","cdnsgh8l6s","1440","900","de","RL05OR28","null","","","","learningBlock2","","","","<div style=""font-size:60px;""> </div>","null","FL","learning/Slide158.JPG","That was a tob.","",""
"","image-keyboard-response","482","754750","0.0-8.0-0.78","FL","cdnsgh8l6s","1440","900","de","RL05OR28","null","","","","","","","","learning/Slide159.JPG","null","","","","",""
"","html-keyboard-response","483","755907","0.0-8.0-1.78","FL","cdnsgh8l6s","1440","900","de","RL05OR28","null","","","","learningBlock2","","","","That was a dep.","null","","","","",""
"","html-keyboard-response","484","756913","0.0-8.0-2.78","FL","cdnsgh8l6s","1440","900","de","RL05OR28","null","","","","learningBlock2","","","","<div style=""font-size:60px;""> </div>","null","FL","learning/Slide159.JPG","That was a dep.","",""
"","image-keyboard-response","485","757094","0.0-8.0-0.79","FL","cdnsgh8l6s","1440","900","de","RL05OR28","null","","","","","","","","learning/Slide160.JPG","null","","","","",""
"","html-keyboard-response","486","758251","0.0-8.0-1.79","FL","cdnsgh8l6s","1440","900","de","RL05OR28","null","","","","learningBlock2","","","","That was a wug.","null","","","","",""
"","html-keyboard-response","487","759257","0.0-8.0-2.79","FL","cdnsgh8l6s","1440","900","de","RL05OR28","null","","","","learningBlock2","","","","<div style=""font-size:60px;""> </div>","null","FL","learning/Slide160.JPG","That was a wug.","",""
"","resize2","488","763144","0.0-9.0","FL","cdnsgh8l6s","1440","900","de","RL05OR28","","","","","","","104","1.04","","","","","","",""
