"success","trial_type","trial_index","time_elapsed","internal_node_id","condition","subject","screen_width","screen_height","language","codeword","rt","responses","url","view_history","test_part","final_height_px","final_width_px","scale_factor","stimulus","key_press","learningType","presentedImage","presentedLabel","button_pressed","response"
"true","fullscreen","0","1096770","0.0-0.0","LF","kbwv2blq88","1536","864","de","el09rd31","","","","","","","","","","","","","","",""
"","survey-html-form","1","1106035","0.0-1.0","LF","kbwv2blq88","1536","864","de","el09rd31","9262","{""language"":""de""}","","","","","","","","","","","","",""
"","external-html","2","1147018","0.0-2.0-0.0","LF","kbwv2blq88","1536","864","de","el09rd31","40913","","text/information.html","","","","","","","","","","","",""
"","external-html","3","1152336","0.0-2.0-1.0","LF","kbwv2blq88","1536","864","de","el09rd31","5245","","text/consent.html","","","","","","","","","","","",""
"","survey-html-form","4","1199193","0.0-2.0-2.0","LF","kbwv2blq88","1536","864","de","el09rd31","46855","{""codeword_enter"":""el09rd31""}","","","","","","","","","","","","",""
"","instructions","5","1222586","0.0-4.0","LF","kbwv2blq88","1536","864","de","el09rd31","NA","","","[{""page_index"":0,""viewing_time"":7598},{""page_index"":1,""viewing_time"":14292}]","instructions","","","","","","","","","",""
"","resize","6","1271784","0.0-5.0","LF","kbwv2blq88","1536","864","de","el09rd31","","","","","","","383","2.431746031746032","","","","","","",""
"","html-keyboard-response","7","1272785","0.0-6.0-0.0","LF","kbwv2blq88","1536","864","de","el09rd31","null","","","","learningBlock1","","","","This is a tob:","null","","","","",""
"","image-keyboard-response","8","1273111","0.0-6.0-1.0","LF","kbwv2blq88","1536","864","de","el09rd31","null","","","","","","","","learning/Slide1.JPG","null","","","","",""
"","html-keyboard-response","9","1274114","0.0-6.0-2.0","LF","kbwv2blq88","1536","864","de","el09rd31","null","","","","learningBlock1","","","","<div style=""font-size:60px;""> </div>","null","LF","learning/Slide1.JPG","This is a tob:","",""
"","html-keyboard-response","10","1275116","0.0-6.0-0.1","LF","kbwv2blq88","1536","864","de","el09rd31","null","","","","learningBlock1","","","","This is a wug:","null","","","","",""
"","image-keyboard-response","11","1275442","0.0-6.0-1.1","LF","kbwv2blq88","1536","864","de","el09rd31","null","","","","","","","","learning/Slide2.JPG","null","","","","",""
"","html-keyboard-response","12","1276444","0.0-6.0-2.1","LF","kbwv2blq88","1536","864","de","el09rd31","null","","","","learningBlock1","","","","<div style=""font-size:60px;""> </div>","null","LF","learning/Slide2.JPG","This is a wug:","",""
"","html-keyboard-response","13","1277445","0.0-6.0-0.2","LF","kbwv2blq88","1536","864","de","el09rd31","null","","","","learningBlock1","","","","This is a bim:","null","","","","",""
"","image-keyboard-response","14","1277771","0.0-6.0-1.2","LF","kbwv2blq88","1536","864","de","el09rd31","null","","","","","","","","learning/Slide3.JPG","null","","","","",""
"","html-keyboard-response","15","1278773","0.0-6.0-2.2","LF","kbwv2blq88","1536","864","de","el09rd31","null","","","","learningBlock1","","","","<div style=""font-size:60px;""> </div>","null","LF","learning/Slide3.JPG","This is a bim:","",""
"","html-keyboard-response","16","1279774","0.0-6.0-0.3","LF","kbwv2blq88","1536","864","de","el09rd31","null","","","","learningBlock1","","","","This is a dep:","null","","","","",""
"","image-keyboard-response","17","1280100","0.0-6.0-1.3","LF","kbwv2blq88","1536","864","de","el09rd31","null","","","","","","","","learning/Slide4.JPG","null","","","","",""
"","html-keyboard-response","18","1281101","0.0-6.0-2.3","LF","kbwv2blq88","1536","864","de","el09rd31","null","","","","learningBlock1","","","","<div style=""font-size:60px;""> </div>","null","LF","learning/Slide4.JPG","This is a dep:","",""
"","html-keyboard-response","19","1282101","0.0-6.0-0.4","LF","kbwv2blq88","1536","864","de","el09rd31","null","","","","learningBlock1","","","","This is a wug:","null","","","","",""
"","image-keyboard-response","20","1282429","0.0-6.0-1.4","LF","kbwv2blq88","1536","864","de","el09rd31","null","","","","","","","","learning/Slide5.JPG","null","","","","",""
"","html-keyboard-response","21","1283430","0.0-6.0-2.4","LF","kbwv2blq88","1536","864","de","el09rd31","null","","","","learningBlock1","","","","<div style=""font-size:60px;""> </div>","null","LF","learning/Slide5.JPG","This is a wug:","",""
"","html-keyboard-response","22","1284431","0.0-6.0-0.5","LF","kbwv2blq88","1536","864","de","el09rd31","null","","","","learningBlock1","","","","This is a dep:","null","","","","",""
"","image-keyboard-response","23","1284758","0.0-6.0-1.5","LF","kbwv2blq88","1536","864","de","el09rd31","null","","","","","","","","learning/Slide6.JPG","null","","","","",""
"","html-keyboard-response","24","1285759","0.0-6.0-2.5","LF","kbwv2blq88","1536","864","de","el09rd31","null","","","","learningBlock1","","","","<div style=""font-size:60px;""> </div>","null","LF","learning/Slide6.JPG","This is a dep:","",""
"","html-keyboard-response","25","1286760","0.0-6.0-0.6","LF","kbwv2blq88","1536","864","de","el09rd31","null","","","","learningBlock1","","","","This is a wug:","null","","","","",""
"","image-keyboard-response","26","1287088","0.0-6.0-1.6","LF","kbwv2blq88","1536","864","de","el09rd31","null","","","","","","","","learning/Slide7.JPG","null","","","","",""
"","html-keyboard-response","27","1288089","0.0-6.0-2.6","LF","kbwv2blq88","1536","864","de","el09rd31","null","","","","learningBlock1","","","","<div style=""font-size:60px;""> </div>","null","LF","learning/Slide7.JPG","This is a wug:","",""
"","html-keyboard-response","28","1289090","0.0-6.0-0.7","LF","kbwv2blq88","1536","864","de","el09rd31","null","","","","learningBlock1","","","","This is a bim:","null","","","","",""
"","image-keyboard-response","29","1289417","0.0-6.0-1.7","LF","kbwv2blq88","1536","864","de","el09rd31","null","","","","","","","","learning/Slide8.JPG","null","","","","",""
"","html-keyboard-response","30","1290418","0.0-6.0-2.7","LF","kbwv2blq88","1536","864","de","el09rd31","null","","","","learningBlock1","","","","<div style=""font-size:60px;""> </div>","null","LF","learning/Slide8.JPG","This is a bim:","",""
"","html-keyboard-response","31","1291418","0.0-6.0-0.8","LF","kbwv2blq88","1536","864","de","el09rd31","null","","","","learningBlock1","","","","This is a wug:","null","","","","",""
"","image-keyboard-response","32","1291746","0.0-6.0-1.8","LF","kbwv2blq88","1536","864","de","el09rd31","null","","","","","","","","learning/Slide9.JPG","null","","","","",""
"","html-keyboard-response","33","1292746","0.0-6.0-2.8","LF","kbwv2blq88","1536","864","de","el09rd31","null","","","","learningBlock1","","","","<div style=""font-size:60px;""> </div>","null","LF","learning/Slide9.JPG","This is a wug:","",""
"","html-keyboard-response","34","1293747","0.0-6.0-0.9","LF","kbwv2blq88","1536","864","de","el09rd31","null","","","","learningBlock1","","","","This is a dep:","null","","","","",""
"","image-keyboard-response","35","1294073","0.0-6.0-1.9","LF","kbwv2blq88","1536","864","de","el09rd31","null","","","","","","","","learning/Slide10.JPG","null","","","","",""
"","html-keyboard-response","36","1295074","0.0-6.0-2.9","LF","kbwv2blq88","1536","864","de","el09rd31","null","","","","learningBlock1","","","","<div style=""font-size:60px;""> </div>","null","LF","learning/Slide10.JPG","This is a dep:","",""
"","html-keyboard-response","37","1296075","0.0-6.0-0.10","LF","kbwv2blq88","1536","864","de","el09rd31","null","","","","learningBlock1","","","","This is a tob:","null","","","","",""
"","image-keyboard-response","38","1296401","0.0-6.0-1.10","LF","kbwv2blq88","1536","864","de","el09rd31","null","","","","","","","","learning/Slide11.JPG","null","","","","",""
"","html-keyboard-response","39","1297402","0.0-6.0-2.10","LF","kbwv2blq88","1536","864","de","el09rd31","null","","","","learningBlock1","","","","<div style=""font-size:60px;""> </div>","null","LF","learning/Slide11.JPG","This is a tob:","",""
"","html-keyboard-response","40","1298404","0.0-6.0-0.11","LF","kbwv2blq88","1536","864","de","el09rd31","null","","","","learningBlock1","","","","This is a dep:","null","","","","",""
"","image-keyboard-response","41","1298730","0.0-6.0-1.11","LF","kbwv2blq88","1536","864","de","el09rd31","null","","","","","","","","learning/Slide12.JPG","null","","","","",""
"","html-keyboard-response","42","1299731","0.0-6.0-2.11","LF","kbwv2blq88","1536","864","de","el09rd31","null","","","","learningBlock1","","","","<div style=""font-size:60px;""> </div>","null","LF","learning/Slide12.JPG","This is a dep:","",""
"","html-keyboard-response","43","1300732","0.0-6.0-0.12","LF","kbwv2blq88","1536","864","de","el09rd31","null","","","","learningBlock1","","","","This is a bim:","null","","","","",""
"","image-keyboard-response","44","1301058","0.0-6.0-1.12","LF","kbwv2blq88","1536","864","de","el09rd31","null","","","","","","","","learning/Slide13.JPG","null","","","","",""
"","html-keyboard-response","45","1302059","0.0-6.0-2.12","LF","kbwv2blq88","1536","864","de","el09rd31","null","","","","learningBlock1","","","","<div style=""font-size:60px;""> </div>","null","LF","learning/Slide13.JPG","This is a bim:","",""
"","html-keyboard-response","46","1303060","0.0-6.0-0.13","LF","kbwv2blq88","1536","864","de","el09rd31","null","","","","learningBlock1","","","","This is a wug:","null","","","","",""
"","image-keyboard-response","47","1303387","0.0-6.0-1.13","LF","kbwv2blq88","1536","864","de","el09rd31","null","","","","","","","","learning/Slide14.JPG","null","","","","",""
"","html-keyboard-response","48","1304388","0.0-6.0-2.13","LF","kbwv2blq88","1536","864","de","el09rd31","null","","","","learningBlock1","","","","<div style=""font-size:60px;""> </div>","null","LF","learning/Slide14.JPG","This is a wug:","",""
"","html-keyboard-response","49","1305388","0.0-6.0-0.14","LF","kbwv2blq88","1536","864","de","el09rd31","null","","","","learningBlock1","","","","This is a tob:","null","","","","",""
"","image-keyboard-response","50","1305715","0.0-6.0-1.14","LF","kbwv2blq88","1536","864","de","el09rd31","null","","","","","","","","learning/Slide15.JPG","null","","","","",""
"","html-keyboard-response","51","1306717","0.0-6.0-2.14","LF","kbwv2blq88","1536","864","de","el09rd31","null","","","","learningBlock1","","","","<div style=""font-size:60px;""> </div>","null","LF","learning/Slide15.JPG","This is a tob:","",""
"","html-keyboard-response","52","1307718","0.0-6.0-0.15","LF","kbwv2blq88","1536","864","de","el09rd31","null","","","","learningBlock1","","","","This is a dep:","null","","","","",""
"","image-keyboard-response","53","1308044","0.0-6.0-1.15","LF","kbwv2blq88","1536","864","de","el09rd31","null","","","","","","","","learning/Slide16.JPG","null","","","","",""
"","html-keyboard-response","54","1309045","0.0-6.0-2.15","LF","kbwv2blq88","1536","864","de","el09rd31","null","","","","learningBlock1","","","","<div style=""font-size:60px;""> </div>","null","LF","learning/Slide16.JPG","This is a dep:","",""
"","html-keyboard-response","55","1310046","0.0-6.0-0.16","LF","kbwv2blq88","1536","864","de","el09rd31","null","","","","learningBlock1","","","","This is a bim:","null","","","","",""
"","image-keyboard-response","56","1310373","0.0-6.0-1.16","LF","kbwv2blq88","1536","864","de","el09rd31","null","","","","","","","","learning/Slide17.JPG","null","","","","",""
"","html-keyboard-response","57","1311374","0.0-6.0-2.16","LF","kbwv2blq88","1536","864","de","el09rd31","null","","","","learningBlock1","","","","<div style=""font-size:60px;""> </div>","null","LF","learning/Slide17.JPG","This is a bim:","",""
"","html-keyboard-response","58","1312375","0.0-6.0-0.17","LF","kbwv2blq88","1536","864","de","el09rd31","null","","","","learningBlock1","","","","This is a tob:","null","","","","",""
"","image-keyboard-response","59","1312701","0.0-6.0-1.17","LF","kbwv2blq88","1536","864","de","el09rd31","null","","","","","","","","learning/Slide18.JPG","null","","","","",""
"","html-keyboard-response","60","1313703","0.0-6.0-2.17","LF","kbwv2blq88","1536","864","de","el09rd31","null","","","","learningBlock1","","","","<div style=""font-size:60px;""> </div>","null","LF","learning/Slide18.JPG","This is a tob:","",""
"","html-keyboard-response","61","1314704","0.0-6.0-0.18","LF","kbwv2blq88","1536","864","de","el09rd31","null","","","","learningBlock1","","","","This is a wug:","null","","","","",""
"","image-keyboard-response","62","1315030","0.0-6.0-1.18","LF","kbwv2blq88","1536","864","de","el09rd31","null","","","","","","","","learning/Slide19.JPG","null","","","","",""
"","html-keyboard-response","63","1316031","0.0-6.0-2.18","LF","kbwv2blq88","1536","864","de","el09rd31","null","","","","learningBlock1","","","","<div style=""font-size:60px;""> </div>","null","LF","learning/Slide19.JPG","This is a wug:","",""
"","html-keyboard-response","64","1317032","0.0-6.0-0.19","LF","kbwv2blq88","1536","864","de","el09rd31","null","","","","learningBlock1","","","","This is a bim:","null","","","","",""
"","image-keyboard-response","65","1317360","0.0-6.0-1.19","LF","kbwv2blq88","1536","864","de","el09rd31","null","","","","","","","","learning/Slide20.JPG","null","","","","",""
"","html-keyboard-response","66","1318361","0.0-6.0-2.19","LF","kbwv2blq88","1536","864","de","el09rd31","null","","","","learningBlock1","","","","<div style=""font-size:60px;""> </div>","null","LF","learning/Slide20.JPG","This is a bim:","",""
"","html-keyboard-response","67","1319361","0.0-6.0-0.20","LF","kbwv2blq88","1536","864","de","el09rd31","null","","","","learningBlock1","","","","This is a dep:","null","","","","",""
"","image-keyboard-response","68","1319691","0.0-6.0-1.20","LF","kbwv2blq88","1536","864","de","el09rd31","null","","","","","","","","learning/Slide21.JPG","null","","","","",""
"","html-keyboard-response","69","1320691","0.0-6.0-2.20","LF","kbwv2blq88","1536","864","de","el09rd31","null","","","","learningBlock1","","","","<div style=""font-size:60px;""> </div>","null","LF","learning/Slide21.JPG","This is a dep:","",""
"","html-keyboard-response","70","1321692","0.0-6.0-0.21","LF","kbwv2blq88","1536","864","de","el09rd31","null","","","","learningBlock1","","","","This is a bim:","null","","","","",""
"","image-keyboard-response","71","1322019","0.0-6.0-1.21","LF","kbwv2blq88","1536","864","de","el09rd31","null","","","","","","","","learning/Slide22.JPG","null","","","","",""
"","html-keyboard-response","72","1323021","0.0-6.0-2.21","LF","kbwv2blq88","1536","864","de","el09rd31","null","","","","learningBlock1","","","","<div style=""font-size:60px;""> </div>","null","LF","learning/Slide22.JPG","This is a bim:","",""
"","html-keyboard-response","73","1324022","0.0-6.0-0.22","LF","kbwv2blq88","1536","864","de","el09rd31","null","","","","learningBlock1","","","","This is a tob:","null","","","","",""
"","image-keyboard-response","74","1324348","0.0-6.0-1.22","LF","kbwv2blq88","1536","864","de","el09rd31","null","","","","","","","","learning/Slide23.JPG","null","","","","",""
"","html-keyboard-response","75","1325349","0.0-6.0-2.22","LF","kbwv2blq88","1536","864","de","el09rd31","null","","","","learningBlock1","","","","<div style=""font-size:60px;""> </div>","null","LF","learning/Slide23.JPG","This is a tob:","",""
"","html-keyboard-response","76","1326350","0.0-6.0-0.23","LF","kbwv2blq88","1536","864","de","el09rd31","null","","","","learningBlock1","","","","This is a wug:","null","","","","",""
"","image-keyboard-response","77","1326677","0.0-6.0-1.23","LF","kbwv2blq88","1536","864","de","el09rd31","null","","","","","","","","learning/Slide24.JPG","null","","","","",""
"","html-keyboard-response","78","1327678","0.0-6.0-2.23","LF","kbwv2blq88","1536","864","de","el09rd31","null","","","","learningBlock1","","","","<div style=""font-size:60px;""> </div>","null","LF","learning/Slide24.JPG","This is a wug:","",""
"","html-keyboard-response","79","1328679","0.0-6.0-0.24","LF","kbwv2blq88","1536","864","de","el09rd31","null","","","","learningBlock1","","","","This is a dep:","null","","","","",""
"","image-keyboard-response","80","1329006","0.0-6.0-1.24","LF","kbwv2blq88","1536","864","de","el09rd31","null","","","","","","","","learning/Slide25.JPG","null","","","","",""
"","html-keyboard-response","81","1330006","0.0-6.0-2.24","LF","kbwv2blq88","1536","864","de","el09rd31","null","","","","learningBlock1","","","","<div style=""font-size:60px;""> </div>","null","LF","learning/Slide25.JPG","This is a dep:","",""
"","html-keyboard-response","82","1331007","0.0-6.0-0.25","LF","kbwv2blq88","1536","864","de","el09rd31","null","","","","learningBlock1","","","","This is a wug:","null","","","","",""
"","image-keyboard-response","83","1331333","0.0-6.0-1.25","LF","kbwv2blq88","1536","864","de","el09rd31","null","","","","","","","","learning/Slide26.JPG","null","","","","",""
"","html-keyboard-response","84","1332334","0.0-6.0-2.25","LF","kbwv2blq88","1536","864","de","el09rd31","null","","","","learningBlock1","","","","<div style=""font-size:60px;""> </div>","null","LF","learning/Slide26.JPG","This is a wug:","",""
"","html-keyboard-response","85","1333335","0.0-6.0-0.26","LF","kbwv2blq88","1536","864","de","el09rd31","null","","","","learningBlock1","","","","This is a bim:","null","","","","",""
"","image-keyboard-response","86","1333661","0.0-6.0-1.26","LF","kbwv2blq88","1536","864","de","el09rd31","null","","","","","","","","learning/Slide27.JPG","null","","","","",""
"","html-keyboard-response","87","1334665","0.0-6.0-2.26","LF","kbwv2blq88","1536","864","de","el09rd31","null","","","","learningBlock1","","","","<div style=""font-size:60px;""> </div>","null","LF","learning/Slide27.JPG","This is a bim:","",""
"","html-keyboard-response","88","1335669","0.0-6.0-0.27","LF","kbwv2blq88","1536","864","de","el09rd31","null","","","","learningBlock1","","","","This is a dep:","null","","","","",""
"","image-keyboard-response","89","1335996","0.0-6.0-1.27","LF","kbwv2blq88","1536","864","de","el09rd31","null","","","","","","","","learning/Slide28.JPG","null","","","","",""
"","html-keyboard-response","90","1336997","0.0-6.0-2.27","LF","kbwv2blq88","1536","864","de","el09rd31","null","","","","learningBlock1","","","","<div style=""font-size:60px;""> </div>","null","LF","learning/Slide28.JPG","This is a dep:","",""
"","html-keyboard-response","91","1337998","0.0-6.0-0.28","LF","kbwv2blq88","1536","864","de","el09rd31","null","","","","learningBlock1","","","","This is a tob:","null","","","","",""
"","image-keyboard-response","92","1338324","0.0-6.0-1.28","LF","kbwv2blq88","1536","864","de","el09rd31","null","","","","","","","","learning/Slide29.JPG","null","","","","",""
"","html-keyboard-response","93","1339325","0.0-6.0-2.28","LF","kbwv2blq88","1536","864","de","el09rd31","null","","","","learningBlock1","","","","<div style=""font-size:60px;""> </div>","null","LF","learning/Slide29.JPG","This is a tob:","",""
"","html-keyboard-response","94","1340326","0.0-6.0-0.29","LF","kbwv2blq88","1536","864","de","el09rd31","null","","","","learningBlock1","","","","This is a dep:","null","","","","",""
"","image-keyboard-response","95","1340653","0.0-6.0-1.29","LF","kbwv2blq88","1536","864","de","el09rd31","null","","","","","","","","learning/Slide30.JPG","null","","","","",""
"","html-keyboard-response","96","1341654","0.0-6.0-2.29","LF","kbwv2blq88","1536","864","de","el09rd31","null","","","","learningBlock1","","","","<div style=""font-size:60px;""> </div>","null","LF","learning/Slide30.JPG","This is a dep:","",""
"","html-keyboard-response","97","1342655","0.0-6.0-0.30","LF","kbwv2blq88","1536","864","de","el09rd31","null","","","","learningBlock1","","","","This is a wug:","null","","","","",""
"","image-keyboard-response","98","1342980","0.0-6.0-1.30","LF","kbwv2blq88","1536","864","de","el09rd31","null","","","","","","","","learning/Slide31.JPG","null","","","","",""
"","html-keyboard-response","99","1343981","0.0-6.0-2.30","LF","kbwv2blq88","1536","864","de","el09rd31","null","","","","learningBlock1","","","","<div style=""font-size:60px;""> </div>","null","LF","learning/Slide31.JPG","This is a wug:","",""
"","html-keyboard-response","100","1344981","0.0-6.0-0.31","LF","kbwv2blq88","1536","864","de","el09rd31","null","","","","learningBlock1","","","","This is a tob:","null","","","","",""
"","image-keyboard-response","101","1345309","0.0-6.0-1.31","LF","kbwv2blq88","1536","864","de","el09rd31","null","","","","","","","","learning/Slide32.JPG","null","","","","",""
"","html-keyboard-response","102","1346312","0.0-6.0-2.31","LF","kbwv2blq88","1536","864","de","el09rd31","null","","","","learningBlock1","","","","<div style=""font-size:60px;""> </div>","null","LF","learning/Slide32.JPG","This is a tob:","",""
"","html-keyboard-response","103","1347312","0.0-6.0-0.32","LF","kbwv2blq88","1536","864","de","el09rd31","null","","","","learningBlock1","","","","This is a bim:","null","","","","",""
"","image-keyboard-response","104","1347639","0.0-6.0-1.32","LF","kbwv2blq88","1536","864","de","el09rd31","null","","","","","","","","learning/Slide33.JPG","null","","","","",""
"","html-keyboard-response","105","1348639","0.0-6.0-2.32","LF","kbwv2blq88","1536","864","de","el09rd31","null","","","","learningBlock1","","","","<div style=""font-size:60px;""> </div>","null","LF","learning/Slide33.JPG","This is a bim:","",""
"","html-keyboard-response","106","1349640","0.0-6.0-0.33","LF","kbwv2blq88","1536","864","de","el09rd31","null","","","","learningBlock1","","","","This is a tob:","null","","","","",""
"","image-keyboard-response","107","1349966","0.0-6.0-1.33","LF","kbwv2blq88","1536","864","de","el09rd31","null","","","","","","","","learning/Slide34.JPG","null","","","","",""
"","html-keyboard-response","108","1350967","0.0-6.0-2.33","LF","kbwv2blq88","1536","864","de","el09rd31","null","","","","learningBlock1","","","","<div style=""font-size:60px;""> </div>","null","LF","learning/Slide34.JPG","This is a tob:","",""
"","html-keyboard-response","109","1351969","0.0-6.0-0.34","LF","kbwv2blq88","1536","864","de","el09rd31","null","","","","learningBlock1","","","","This is a bim:","null","","","","",""
"","image-keyboard-response","110","1352295","0.0-6.0-1.34","LF","kbwv2blq88","1536","864","de","el09rd31","null","","","","","","","","learning/Slide35.JPG","null","","","","",""
"","html-keyboard-response","111","1353296","0.0-6.0-2.34","LF","kbwv2blq88","1536","864","de","el09rd31","null","","","","learningBlock1","","","","<div style=""font-size:60px;""> </div>","null","LF","learning/Slide35.JPG","This is a bim:","",""
"","html-keyboard-response","112","1354297","0.0-6.0-0.35","LF","kbwv2blq88","1536","864","de","el09rd31","null","","","","learningBlock1","","","","This is a dep:","null","","","","",""
"","image-keyboard-response","113","1354623","0.0-6.0-1.35","LF","kbwv2blq88","1536","864","de","el09rd31","null","","","","","","","","learning/Slide36.JPG","null","","","","",""
"","html-keyboard-response","114","1355624","0.0-6.0-2.35","LF","kbwv2blq88","1536","864","de","el09rd31","null","","","","learningBlock1","","","","<div style=""font-size:60px;""> </div>","null","LF","learning/Slide36.JPG","This is a dep:","",""
"","html-keyboard-response","115","1356625","0.0-6.0-0.36","LF","kbwv2blq88","1536","864","de","el09rd31","null","","","","learningBlock1","","","","This is a tob:","null","","","","",""
"","image-keyboard-response","116","1356955","0.0-6.0-1.36","LF","kbwv2blq88","1536","864","de","el09rd31","null","","","","","","","","learning/Slide37.JPG","null","","","","",""
"","html-keyboard-response","117","1357955","0.0-6.0-2.36","LF","kbwv2blq88","1536","864","de","el09rd31","null","","","","learningBlock1","","","","<div style=""font-size:60px;""> </div>","null","LF","learning/Slide37.JPG","This is a tob:","",""
"","html-keyboard-response","118","1358957","0.0-6.0-0.37","LF","kbwv2blq88","1536","864","de","el09rd31","null","","","","learningBlock1","","","","This is a wug:","null","","","","",""
"","image-keyboard-response","119","1359285","0.0-6.0-1.37","LF","kbwv2blq88","1536","864","de","el09rd31","null","","","","","","","","learning/Slide38.JPG","null","","","","",""
"","html-keyboard-response","120","1360285","0.0-6.0-2.37","LF","kbwv2blq88","1536","864","de","el09rd31","null","","","","learningBlock1","","","","<div style=""font-size:60px;""> </div>","null","LF","learning/Slide38.JPG","This is a wug:","",""
"","html-keyboard-response","121","1361286","0.0-6.0-0.38","LF","kbwv2blq88","1536","864","de","el09rd31","null","","","","learningBlock1","","","","This is a bim:","null","","","","",""
"","image-keyboard-response","122","1361613","0.0-6.0-1.38","LF","kbwv2blq88","1536","864","de","el09rd31","null","","","","","","","","learning/Slide39.JPG","null","","","","",""
"","html-keyboard-response","123","1362615","0.0-6.0-2.38","LF","kbwv2blq88","1536","864","de","el09rd31","null","","","","learningBlock1","","","","<div style=""font-size:60px;""> </div>","null","LF","learning/Slide39.JPG","This is a bim:","",""
"","html-keyboard-response","124","1363616","0.0-6.0-0.39","LF","kbwv2blq88","1536","864","de","el09rd31","null","","","","learningBlock1","","","","This is a tob:","null","","","","",""
"","image-keyboard-response","125","1363943","0.0-6.0-1.39","LF","kbwv2blq88","1536","864","de","el09rd31","null","","","","","","","","learning/Slide40.JPG","null","","","","",""
"","html-keyboard-response","126","1364944","0.0-6.0-2.39","LF","kbwv2blq88","1536","864","de","el09rd31","null","","","","learningBlock1","","","","<div style=""font-size:60px;""> </div>","null","LF","learning/Slide40.JPG","This is a tob:","",""
"","html-keyboard-response","127","1365945","0.0-6.0-0.40","LF","kbwv2blq88","1536","864","de","el09rd31","null","","","","learningBlock1","","","","This is a bim:","null","","","","",""
"","image-keyboard-response","128","1366271","0.0-6.0-1.40","LF","kbwv2blq88","1536","864","de","el09rd31","null","","","","","","","","learning/Slide41.JPG","null","","","","",""
"","html-keyboard-response","129","1367271","0.0-6.0-2.40","LF","kbwv2blq88","1536","864","de","el09rd31","null","","","","learningBlock1","","","","<div style=""font-size:60px;""> </div>","null","LF","learning/Slide41.JPG","This is a bim:","",""
"","html-keyboard-response","130","1368274","0.0-6.0-0.41","LF","kbwv2blq88","1536","864","de","el09rd31","null","","","","learningBlock1","","","","This is a dep:","null","","","","",""
"","image-keyboard-response","131","1368599","0.0-6.0-1.41","LF","kbwv2blq88","1536","864","de","el09rd31","null","","","","","","","","learning/Slide42.JPG","null","","","","",""
"","html-keyboard-response","132","1369601","0.0-6.0-2.41","LF","kbwv2blq88","1536","864","de","el09rd31","null","","","","learningBlock1","","","","<div style=""font-size:60px;""> </div>","null","LF","learning/Slide42.JPG","This is a dep:","",""
"","html-keyboard-response","133","1370601","0.0-6.0-0.42","LF","kbwv2blq88","1536","864","de","el09rd31","null","","","","learningBlock1","","","","This is a wug:","null","","","","",""
"","image-keyboard-response","134","1370928","0.0-6.0-1.42","LF","kbwv2blq88","1536","864","de","el09rd31","null","","","","","","","","learning/Slide43.JPG","null","","","","",""
"","html-keyboard-response","135","1371929","0.0-6.0-2.42","LF","kbwv2blq88","1536","864","de","el09rd31","null","","","","learningBlock1","","","","<div style=""font-size:60px;""> </div>","null","LF","learning/Slide43.JPG","This is a wug:","",""
"","html-keyboard-response","136","1372930","0.0-6.0-0.43","LF","kbwv2blq88","1536","864","de","el09rd31","null","","","","learningBlock1","","","","This is a bim:","null","","","","",""
"","image-keyboard-response","137","1373256","0.0-6.0-1.43","LF","kbwv2blq88","1536","864","de","el09rd31","null","","","","","","","","learning/Slide44.JPG","null","","","","",""
"","html-keyboard-response","138","1374257","0.0-6.0-2.43","LF","kbwv2blq88","1536","864","de","el09rd31","null","","","","learningBlock1","","","","<div style=""font-size:60px;""> </div>","null","LF","learning/Slide44.JPG","This is a bim:","",""
"","html-keyboard-response","139","1375259","0.0-6.0-0.44","LF","kbwv2blq88","1536","864","de","el09rd31","null","","","","learningBlock1","","","","This is a wug:","null","","","","",""
"","image-keyboard-response","140","1375585","0.0-6.0-1.44","LF","kbwv2blq88","1536","864","de","el09rd31","null","","","","","","","","learning/Slide45.JPG","null","","","","",""
"","html-keyboard-response","141","1376586","0.0-6.0-2.44","LF","kbwv2blq88","1536","864","de","el09rd31","null","","","","learningBlock1","","","","<div style=""font-size:60px;""> </div>","null","LF","learning/Slide45.JPG","This is a wug:","",""
"","html-keyboard-response","142","1377586","0.0-6.0-0.45","LF","kbwv2blq88","1536","864","de","el09rd31","null","","","","learningBlock1","","","","This is a dep:","null","","","","",""
"","image-keyboard-response","143","1377912","0.0-6.0-1.45","LF","kbwv2blq88","1536","864","de","el09rd31","null","","","","","","","","learning/Slide46.JPG","null","","","","",""
"","html-keyboard-response","144","1378913","0.0-6.0-2.45","LF","kbwv2blq88","1536","864","de","el09rd31","null","","","","learningBlock1","","","","<div style=""font-size:60px;""> </div>","null","LF","learning/Slide46.JPG","This is a dep:","",""
"","html-keyboard-response","145","1379913","0.0-6.0-0.46","LF","kbwv2blq88","1536","864","de","el09rd31","null","","","","learningBlock1","","","","This is a tob:","null","","","","",""
"","image-keyboard-response","146","1380240","0.0-6.0-1.46","LF","kbwv2blq88","1536","864","de","el09rd31","null","","","","","","","","learning/Slide47.JPG","null","","","","",""
"","html-keyboard-response","147","1381241","0.0-6.0-2.46","LF","kbwv2blq88","1536","864","de","el09rd31","null","","","","learningBlock1","","","","<div style=""font-size:60px;""> </div>","null","LF","learning/Slide47.JPG","This is a tob:","",""
"","html-keyboard-response","148","1382241","0.0-6.0-0.47","LF","kbwv2blq88","1536","864","de","el09rd31","null","","","","learningBlock1","","","","This is a bim:","null","","","","",""
"","image-keyboard-response","149","1382567","0.0-6.0-1.47","LF","kbwv2blq88","1536","864","de","el09rd31","null","","","","","","","","learning/Slide48.JPG","null","","","","",""
"","html-keyboard-response","150","1383568","0.0-6.0-2.47","LF","kbwv2blq88","1536","864","de","el09rd31","null","","","","learningBlock1","","","","<div style=""font-size:60px;""> </div>","null","LF","learning/Slide48.JPG","This is a bim:","",""
"","html-keyboard-response","151","1384570","0.0-6.0-0.48","LF","kbwv2blq88","1536","864","de","el09rd31","null","","","","learningBlock1","","","","This is a dep:","null","","","","",""
"","image-keyboard-response","152","1384897","0.0-6.0-1.48","LF","kbwv2blq88","1536","864","de","el09rd31","null","","","","","","","","learning/Slide49.JPG","null","","","","",""
"","html-keyboard-response","153","1385898","0.0-6.0-2.48","LF","kbwv2blq88","1536","864","de","el09rd31","null","","","","learningBlock1","","","","<div style=""font-size:60px;""> </div>","null","LF","learning/Slide49.JPG","This is a dep:","",""
"","html-keyboard-response","154","1386900","0.0-6.0-0.49","LF","kbwv2blq88","1536","864","de","el09rd31","null","","","","learningBlock1","","","","This is a tob:","null","","","","",""
"","image-keyboard-response","155","1387227","0.0-6.0-1.49","LF","kbwv2blq88","1536","864","de","el09rd31","null","","","","","","","","learning/Slide50.JPG","null","","","","",""
"","html-keyboard-response","156","1388227","0.0-6.0-2.49","LF","kbwv2blq88","1536","864","de","el09rd31","null","","","","learningBlock1","","","","<div style=""font-size:60px;""> </div>","null","LF","learning/Slide50.JPG","This is a tob:","",""
"","html-keyboard-response","157","1389227","0.0-6.0-0.50","LF","kbwv2blq88","1536","864","de","el09rd31","null","","","","learningBlock1","","","","This is a bim:","null","","","","",""
"","image-keyboard-response","158","1389557","0.0-6.0-1.50","LF","kbwv2blq88","1536","864","de","el09rd31","null","","","","","","","","learning/Slide51.JPG","null","","","","",""
"","html-keyboard-response","159","1390557","0.0-6.0-2.50","LF","kbwv2blq88","1536","864","de","el09rd31","null","","","","learningBlock1","","","","<div style=""font-size:60px;""> </div>","null","LF","learning/Slide51.JPG","This is a bim:","",""
"","html-keyboard-response","160","1391559","0.0-6.0-0.51","LF","kbwv2blq88","1536","864","de","el09rd31","null","","","","learningBlock1","","","","This is a wug:","null","","","","",""
"","image-keyboard-response","161","1391887","0.0-6.0-1.51","LF","kbwv2blq88","1536","864","de","el09rd31","null","","","","","","","","learning/Slide52.JPG","null","","","","",""
"","html-keyboard-response","162","1392888","0.0-6.0-2.51","LF","kbwv2blq88","1536","864","de","el09rd31","null","","","","learningBlock1","","","","<div style=""font-size:60px;""> </div>","null","LF","learning/Slide52.JPG","This is a wug:","",""
"","html-keyboard-response","163","1393889","0.0-6.0-0.52","LF","kbwv2blq88","1536","864","de","el09rd31","null","","","","learningBlock1","","","","This is a tob:","null","","","","",""
"","image-keyboard-response","164","1394216","0.0-6.0-1.52","LF","kbwv2blq88","1536","864","de","el09rd31","null","","","","","","","","learning/Slide53.JPG","null","","","","",""
"","html-keyboard-response","165","1395216","0.0-6.0-2.52","LF","kbwv2blq88","1536","864","de","el09rd31","null","","","","learningBlock1","","","","<div style=""font-size:60px;""> </div>","null","LF","learning/Slide53.JPG","This is a tob:","",""
"","html-keyboard-response","166","1396218","0.0-6.0-0.53","LF","kbwv2blq88","1536","864","de","el09rd31","null","","","","learningBlock1","","","","This is a dep:","null","","","","",""
"","image-keyboard-response","167","1396544","0.0-6.0-1.53","LF","kbwv2blq88","1536","864","de","el09rd31","null","","","","","","","","learning/Slide54.JPG","null","","","","",""
"","html-keyboard-response","168","1397545","0.0-6.0-2.53","LF","kbwv2blq88","1536","864","de","el09rd31","null","","","","learningBlock1","","","","<div style=""font-size:60px;""> </div>","null","LF","learning/Slide54.JPG","This is a dep:","",""
"","html-keyboard-response","169","1398548","0.0-6.0-0.54","LF","kbwv2blq88","1536","864","de","el09rd31","null","","","","learningBlock1","","","","This is a bim:","null","","","","",""
"","image-keyboard-response","170","1398875","0.0-6.0-1.54","LF","kbwv2blq88","1536","864","de","el09rd31","null","","","","","","","","learning/Slide55.JPG","null","","","","",""
"","html-keyboard-response","171","1399876","0.0-6.0-2.54","LF","kbwv2blq88","1536","864","de","el09rd31","null","","","","learningBlock1","","","","<div style=""font-size:60px;""> </div>","null","LF","learning/Slide55.JPG","This is a bim:","",""
"","html-keyboard-response","172","1400877","0.0-6.0-0.55","LF","kbwv2blq88","1536","864","de","el09rd31","null","","","","learningBlock1","","","","This is a tob:","null","","","","",""
"","image-keyboard-response","173","1401203","0.0-6.0-1.55","LF","kbwv2blq88","1536","864","de","el09rd31","null","","","","","","","","learning/Slide56.JPG","null","","","","",""
"","html-keyboard-response","174","1402205","0.0-6.0-2.55","LF","kbwv2blq88","1536","864","de","el09rd31","null","","","","learningBlock1","","","","<div style=""font-size:60px;""> </div>","null","LF","learning/Slide56.JPG","This is a tob:","",""
"","html-keyboard-response","175","1403205","0.0-6.0-0.56","LF","kbwv2blq88","1536","864","de","el09rd31","null","","","","learningBlock1","","","","This is a dep:","null","","","","",""
"","image-keyboard-response","176","1403534","0.0-6.0-1.56","LF","kbwv2blq88","1536","864","de","el09rd31","null","","","","","","","","learning/Slide57.JPG","null","","","","",""
"","html-keyboard-response","177","1404534","0.0-6.0-2.56","LF","kbwv2blq88","1536","864","de","el09rd31","null","","","","learningBlock1","","","","<div style=""font-size:60px;""> </div>","null","LF","learning/Slide57.JPG","This is a dep:","",""
"","html-keyboard-response","178","1405535","0.0-6.0-0.57","LF","kbwv2blq88","1536","864","de","el09rd31","null","","","","learningBlock1","","","","This is a wug:","null","","","","",""
"","image-keyboard-response","179","1405863","0.0-6.0-1.57","LF","kbwv2blq88","1536","864","de","el09rd31","null","","","","","","","","learning/Slide58.JPG","null","","","","",""
"","html-keyboard-response","180","1406863","0.0-6.0-2.57","LF","kbwv2blq88","1536","864","de","el09rd31","null","","","","learningBlock1","","","","<div style=""font-size:60px;""> </div>","null","LF","learning/Slide58.JPG","This is a wug:","",""
"","html-keyboard-response","181","1407865","0.0-6.0-0.58","LF","kbwv2blq88","1536","864","de","el09rd31","null","","","","learningBlock1","","","","This is a dep:","null","","","","",""
"","image-keyboard-response","182","1408192","0.0-6.0-1.58","LF","kbwv2blq88","1536","864","de","el09rd31","null","","","","","","","","learning/Slide59.JPG","null","","","","",""
"","html-keyboard-response","183","1409194","0.0-6.0-2.58","LF","kbwv2blq88","1536","864","de","el09rd31","null","","","","learningBlock1","","","","<div style=""font-size:60px;""> </div>","null","LF","learning/Slide59.JPG","This is a dep:","",""
"","html-keyboard-response","184","1410194","0.0-6.0-0.59","LF","kbwv2blq88","1536","864","de","el09rd31","null","","","","learningBlock1","","","","This is a wug:","null","","","","",""
"","image-keyboard-response","185","1410522","0.0-6.0-1.59","LF","kbwv2blq88","1536","864","de","el09rd31","null","","","","","","","","learning/Slide60.JPG","null","","","","",""
"","html-keyboard-response","186","1411522","0.0-6.0-2.59","LF","kbwv2blq88","1536","864","de","el09rd31","null","","","","learningBlock1","","","","<div style=""font-size:60px;""> </div>","null","LF","learning/Slide60.JPG","This is a wug:","",""
"","html-keyboard-response","187","1412523","0.0-6.0-0.60","LF","kbwv2blq88","1536","864","de","el09rd31","null","","","","learningBlock1","","","","This is a bim:","null","","","","",""
"","image-keyboard-response","188","1412852","0.0-6.0-1.60","LF","kbwv2blq88","1536","864","de","el09rd31","null","","","","","","","","learning/Slide61.JPG","null","","","","",""
"","html-keyboard-response","189","1413852","0.0-6.0-2.60","LF","kbwv2blq88","1536","864","de","el09rd31","null","","","","learningBlock1","","","","<div style=""font-size:60px;""> </div>","null","LF","learning/Slide61.JPG","This is a bim:","",""
"","html-keyboard-response","190","1414854","0.0-6.0-0.61","LF","kbwv2blq88","1536","864","de","el09rd31","null","","","","learningBlock1","","","","This is a dep:","null","","","","",""
"","image-keyboard-response","191","1415180","0.0-6.0-1.61","LF","kbwv2blq88","1536","864","de","el09rd31","null","","","","","","","","learning/Slide62.JPG","null","","","","",""
"","html-keyboard-response","192","1416182","0.0-6.0-2.61","LF","kbwv2blq88","1536","864","de","el09rd31","null","","","","learningBlock1","","","","<div style=""font-size:60px;""> </div>","null","LF","learning/Slide62.JPG","This is a dep:","",""
"","html-keyboard-response","193","1417183","0.0-6.0-0.62","LF","kbwv2blq88","1536","864","de","el09rd31","null","","","","learningBlock1","","","","This is a bim:","null","","","","",""
"","image-keyboard-response","194","1417509","0.0-6.0-1.62","LF","kbwv2blq88","1536","864","de","el09rd31","null","","","","","","","","learning/Slide63.JPG","null","","","","",""
"","html-keyboard-response","195","1418509","0.0-6.0-2.62","LF","kbwv2blq88","1536","864","de","el09rd31","null","","","","learningBlock1","","","","<div style=""font-size:60px;""> </div>","null","LF","learning/Slide63.JPG","This is a bim:","",""
"","html-keyboard-response","196","1419511","0.0-6.0-0.63","LF","kbwv2blq88","1536","864","de","el09rd31","null","","","","learningBlock1","","","","This is a tob:","null","","","","",""
"","image-keyboard-response","197","1419838","0.0-6.0-1.63","LF","kbwv2blq88","1536","864","de","el09rd31","null","","","","","","","","learning/Slide64.JPG","null","","","","",""
"","html-keyboard-response","198","1420838","0.0-6.0-2.63","LF","kbwv2blq88","1536","864","de","el09rd31","null","","","","learningBlock1","","","","<div style=""font-size:60px;""> </div>","null","LF","learning/Slide64.JPG","This is a tob:","",""
"","html-keyboard-response","199","1421840","0.0-6.0-0.64","LF","kbwv2blq88","1536","864","de","el09rd31","null","","","","learningBlock1","","","","This is a wug:","null","","","","",""
"","image-keyboard-response","200","1422166","0.0-6.0-1.64","LF","kbwv2blq88","1536","864","de","el09rd31","null","","","","","","","","learning/Slide65.JPG","null","","","","",""
"","html-keyboard-response","201","1423167","0.0-6.0-2.64","LF","kbwv2blq88","1536","864","de","el09rd31","null","","","","learningBlock1","","","","<div style=""font-size:60px;""> </div>","null","LF","learning/Slide65.JPG","This is a wug:","",""
"","html-keyboard-response","202","1424168","0.0-6.0-0.65","LF","kbwv2blq88","1536","864","de","el09rd31","null","","","","learningBlock1","","","","This is a dep:","null","","","","",""
"","image-keyboard-response","203","1424495","0.0-6.0-1.65","LF","kbwv2blq88","1536","864","de","el09rd31","null","","","","","","","","learning/Slide66.JPG","null","","","","",""
"","html-keyboard-response","204","1425495","0.0-6.0-2.65","LF","kbwv2blq88","1536","864","de","el09rd31","null","","","","learningBlock1","","","","<div style=""font-size:60px;""> </div>","null","LF","learning/Slide66.JPG","This is a dep:","",""
"","html-keyboard-response","205","1426497","0.0-6.0-0.66","LF","kbwv2blq88","1536","864","de","el09rd31","null","","","","learningBlock1","","","","This is a tob:","null","","","","",""
"","image-keyboard-response","206","1426823","0.0-6.0-1.66","LF","kbwv2blq88","1536","864","de","el09rd31","null","","","","","","","","learning/Slide67.JPG","null","","","","",""
"","html-keyboard-response","207","1427825","0.0-6.0-2.66","LF","kbwv2blq88","1536","864","de","el09rd31","null","","","","learningBlock1","","","","<div style=""font-size:60px;""> </div>","null","LF","learning/Slide67.JPG","This is a tob:","",""
"","html-keyboard-response","208","1428826","0.0-6.0-0.67","LF","kbwv2blq88","1536","864","de","el09rd31","null","","","","learningBlock1","","","","This is a wug:","null","","","","",""
"","image-keyboard-response","209","1429153","0.0-6.0-1.67","LF","kbwv2blq88","1536","864","de","el09rd31","null","","","","","","","","learning/Slide68.JPG","null","","","","",""
"","html-keyboard-response","210","1430159","0.0-6.0-2.67","LF","kbwv2blq88","1536","864","de","el09rd31","null","","","","learningBlock1","","","","<div style=""font-size:60px;""> </div>","null","LF","learning/Slide68.JPG","This is a wug:","",""
"","html-keyboard-response","211","1431163","0.0-6.0-0.68","LF","kbwv2blq88","1536","864","de","el09rd31","null","","","","learningBlock1","","","","This is a tob:","null","","","","",""
"","image-keyboard-response","212","1431490","0.0-6.0-1.68","LF","kbwv2blq88","1536","864","de","el09rd31","null","","","","","","","","learning/Slide69.JPG","null","","","","",""
"","html-keyboard-response","213","1432490","0.0-6.0-2.68","LF","kbwv2blq88","1536","864","de","el09rd31","null","","","","learningBlock1","","","","<div style=""font-size:60px;""> </div>","null","LF","learning/Slide69.JPG","This is a tob:","",""
"","html-keyboard-response","214","1433491","0.0-6.0-0.69","LF","kbwv2blq88","1536","864","de","el09rd31","null","","","","learningBlock1","","","","This is a dep:","null","","","","",""
"","image-keyboard-response","215","1433818","0.0-6.0-1.69","LF","kbwv2blq88","1536","864","de","el09rd31","null","","","","","","","","learning/Slide70.JPG","null","","","","",""
"","html-keyboard-response","216","1434819","0.0-6.0-2.69","LF","kbwv2blq88","1536","864","de","el09rd31","null","","","","learningBlock1","","","","<div style=""font-size:60px;""> </div>","null","LF","learning/Slide70.JPG","This is a dep:","",""
"","html-keyboard-response","217","1435820","0.0-6.0-0.70","LF","kbwv2blq88","1536","864","de","el09rd31","null","","","","learningBlock1","","","","This is a wug:","null","","","","",""
"","image-keyboard-response","218","1436146","0.0-6.0-1.70","LF","kbwv2blq88","1536","864","de","el09rd31","null","","","","","","","","learning/Slide71.JPG","null","","","","",""
"","html-keyboard-response","219","1437147","0.0-6.0-2.70","LF","kbwv2blq88","1536","864","de","el09rd31","null","","","","learningBlock1","","","","<div style=""font-size:60px;""> </div>","null","LF","learning/Slide71.JPG","This is a wug:","",""
"","html-keyboard-response","220","1438148","0.0-6.0-0.71","LF","kbwv2blq88","1536","864","de","el09rd31","null","","","","learningBlock1","","","","This is a bim:","null","","","","",""
"","image-keyboard-response","221","1438475","0.0-6.0-1.71","LF","kbwv2blq88","1536","864","de","el09rd31","null","","","","","","","","learning/Slide72.JPG","null","","","","",""
"","html-keyboard-response","222","1439477","0.0-6.0-2.71","LF","kbwv2blq88","1536","864","de","el09rd31","null","","","","learningBlock1","","","","<div style=""font-size:60px;""> </div>","null","LF","learning/Slide72.JPG","This is a bim:","",""
"","html-keyboard-response","223","1440478","0.0-6.0-0.72","LF","kbwv2blq88","1536","864","de","el09rd31","null","","","","learningBlock1","","","","This is a wug:","null","","","","",""
"","image-keyboard-response","224","1440805","0.0-6.0-1.72","LF","kbwv2blq88","1536","864","de","el09rd31","null","","","","","","","","learning/Slide73.JPG","null","","","","",""
"","html-keyboard-response","225","1441806","0.0-6.0-2.72","LF","kbwv2blq88","1536","864","de","el09rd31","null","","","","learningBlock1","","","","<div style=""font-size:60px;""> </div>","null","LF","learning/Slide73.JPG","This is a wug:","",""
"","html-keyboard-response","226","1442806","0.0-6.0-0.73","LF","kbwv2blq88","1536","864","de","el09rd31","null","","","","learningBlock1","","","","This is a dep:","null","","","","",""
"","image-keyboard-response","227","1443133","0.0-6.0-1.73","LF","kbwv2blq88","1536","864","de","el09rd31","null","","","","","","","","learning/Slide74.JPG","null","","","","",""
"","html-keyboard-response","228","1444134","0.0-6.0-2.73","LF","kbwv2blq88","1536","864","de","el09rd31","null","","","","learningBlock1","","","","<div style=""font-size:60px;""> </div>","null","LF","learning/Slide74.JPG","This is a dep:","",""
"","html-keyboard-response","229","1445134","0.0-6.0-0.74","LF","kbwv2blq88","1536","864","de","el09rd31","null","","","","learningBlock1","","","","This is a tob:","null","","","","",""
"","image-keyboard-response","230","1445459","0.0-6.0-1.74","LF","kbwv2blq88","1536","864","de","el09rd31","null","","","","","","","","learning/Slide75.JPG","null","","","","",""
"","html-keyboard-response","231","1446461","0.0-6.0-2.74","LF","kbwv2blq88","1536","864","de","el09rd31","null","","","","learningBlock1","","","","<div style=""font-size:60px;""> </div>","null","LF","learning/Slide75.JPG","This is a tob:","",""
"","html-keyboard-response","232","1447463","0.0-6.0-0.75","LF","kbwv2blq88","1536","864","de","el09rd31","null","","","","learningBlock1","","","","This is a bim:","null","","","","",""
"","image-keyboard-response","233","1447789","0.0-6.0-1.75","LF","kbwv2blq88","1536","864","de","el09rd31","null","","","","","","","","learning/Slide76.JPG","null","","","","",""
"","html-keyboard-response","234","1448790","0.0-6.0-2.75","LF","kbwv2blq88","1536","864","de","el09rd31","null","","","","learningBlock1","","","","<div style=""font-size:60px;""> </div>","null","LF","learning/Slide76.JPG","This is a bim:","",""
"","html-keyboard-response","235","1449791","0.0-6.0-0.76","LF","kbwv2blq88","1536","864","de","el09rd31","null","","","","learningBlock1","","","","This is a tob:","null","","","","",""
"","image-keyboard-response","236","1450117","0.0-6.0-1.76","LF","kbwv2blq88","1536","864","de","el09rd31","null","","","","","","","","learning/Slide77.JPG","null","","","","",""
"","html-keyboard-response","237","1451118","0.0-6.0-2.76","LF","kbwv2blq88","1536","864","de","el09rd31","null","","","","learningBlock1","","","","<div style=""font-size:60px;""> </div>","null","LF","learning/Slide77.JPG","This is a tob:","",""
"","html-keyboard-response","238","1452118","0.0-6.0-0.77","LF","kbwv2blq88","1536","864","de","el09rd31","null","","","","learningBlock1","","","","This is a wug:","null","","","","",""
"","image-keyboard-response","239","1452451","0.0-6.0-1.77","LF","kbwv2blq88","1536","864","de","el09rd31","null","","","","","","","","learning/Slide78.JPG","null","","","","",""
"","html-keyboard-response","240","1453451","0.0-6.0-2.77","LF","kbwv2blq88","1536","864","de","el09rd31","null","","","","learningBlock1","","","","<div style=""font-size:60px;""> </div>","null","LF","learning/Slide78.JPG","This is a wug:","",""
"","html-keyboard-response","241","1454453","0.0-6.0-0.78","LF","kbwv2blq88","1536","864","de","el09rd31","null","","","","learningBlock1","","","","This is a bim:","null","","","","",""
"","image-keyboard-response","242","1454778","0.0-6.0-1.78","LF","kbwv2blq88","1536","864","de","el09rd31","null","","","","","","","","learning/Slide79.JPG","null","","","","",""
"","html-keyboard-response","243","1455779","0.0-6.0-2.78","LF","kbwv2blq88","1536","864","de","el09rd31","null","","","","learningBlock1","","","","<div style=""font-size:60px;""> </div>","null","LF","learning/Slide79.JPG","This is a bim:","",""
"","html-keyboard-response","244","1456780","0.0-6.0-0.79","LF","kbwv2blq88","1536","864","de","el09rd31","null","","","","learningBlock1","","","","This is a tob:","null","","","","",""
"","image-keyboard-response","245","1457107","0.0-6.0-1.79","LF","kbwv2blq88","1536","864","de","el09rd31","null","","","","","","","","learning/Slide80.JPG","null","","","","",""
"","html-keyboard-response","246","1458108","0.0-6.0-2.79","LF","kbwv2blq88","1536","864","de","el09rd31","null","","","","learningBlock1","","","","<div style=""font-size:60px;""> </div>","null","LF","learning/Slide80.JPG","This is a tob:","",""
"","instructions","247","1462297","0.0-7.0","LF","kbwv2blq88","1536","864","de","el09rd31","NA","","","[{""page_index"":0,""viewing_time"":4189}]","instructions","","","","","","","","","",""
"","html-keyboard-response","248","1463299","0.0-8.0-0.0","LF","kbwv2blq88","1536","864","de","el09rd31","null","","","","learningBlock2","","","","This is a wug:","null","","","","",""
"","image-keyboard-response","249","1463626","0.0-8.0-1.0","LF","kbwv2blq88","1536","864","de","el09rd31","null","","","","","","","","learning/Slide81.JPG","null","","","","",""
"","html-keyboard-response","250","1464627","0.0-8.0-2.0","LF","kbwv2blq88","1536","864","de","el09rd31","null","","","","learningBlock2","","","","<div style=""font-size:60px;""> </div>","null","LF","learning/Slide81.JPG","This is a wug:","",""
"","html-keyboard-response","251","1465628","0.0-8.0-0.1","LF","kbwv2blq88","1536","864","de","el09rd31","null","","","","learningBlock2","","","","This is a bim:","null","","","","",""
"","image-keyboard-response","252","1465954","0.0-8.0-1.1","LF","kbwv2blq88","1536","864","de","el09rd31","null","","","","","","","","learning/Slide82.JPG","null","","","","",""
"","html-keyboard-response","253","1466956","0.0-8.0-2.1","LF","kbwv2blq88","1536","864","de","el09rd31","null","","","","learningBlock2","","","","<div style=""font-size:60px;""> </div>","null","LF","learning/Slide82.JPG","This is a bim:","",""
"","html-keyboard-response","254","1467958","0.0-8.0-0.2","LF","kbwv2blq88","1536","864","de","el09rd31","null","","","","learningBlock2","","","","This is a wug:","null","","","","",""
"","image-keyboard-response","255","1468287","0.0-8.0-1.2","LF","kbwv2blq88","1536","864","de","el09rd31","null","","","","","","","","learning/Slide83.JPG","null","","","","",""
"","html-keyboard-response","256","1469288","0.0-8.0-2.2","LF","kbwv2blq88","1536","864","de","el09rd31","null","","","","learningBlock2","","","","<div style=""font-size:60px;""> </div>","null","LF","learning/Slide83.JPG","This is a wug:","",""
"","html-keyboard-response","257","1470288","0.0-8.0-0.3","LF","kbwv2blq88","1536","864","de","el09rd31","null","","","","learningBlock2","","","","This is a dep:","null","","","","",""
"","image-keyboard-response","258","1470615","0.0-8.0-1.3","LF","kbwv2blq88","1536","864","de","el09rd31","null","","","","","","","","learning/Slide84.JPG","null","","","","",""
"","html-keyboard-response","259","1471616","0.0-8.0-2.3","LF","kbwv2blq88","1536","864","de","el09rd31","null","","","","learningBlock2","","","","<div style=""font-size:60px;""> </div>","null","LF","learning/Slide84.JPG","This is a dep:","",""
"","html-keyboard-response","260","1472617","0.0-8.0-0.4","LF","kbwv2blq88","1536","864","de","el09rd31","null","","","","learningBlock2","","","","This is a bim:","null","","","","",""
"","image-keyboard-response","261","1472944","0.0-8.0-1.4","LF","kbwv2blq88","1536","864","de","el09rd31","null","","","","","","","","learning/Slide85.JPG","null","","","","",""
"","html-keyboard-response","262","1473944","0.0-8.0-2.4","LF","kbwv2blq88","1536","864","de","el09rd31","null","","","","learningBlock2","","","","<div style=""font-size:60px;""> </div>","null","LF","learning/Slide85.JPG","This is a bim:","",""
"","html-keyboard-response","263","1474946","0.0-8.0-0.5","LF","kbwv2blq88","1536","864","de","el09rd31","null","","","","learningBlock2","","","","This is a tob:","null","","","","",""
"","image-keyboard-response","264","1475274","0.0-8.0-1.5","LF","kbwv2blq88","1536","864","de","el09rd31","null","","","","","","","","learning/Slide86.JPG","null","","","","",""
"","html-keyboard-response","265","1476275","0.0-8.0-2.5","LF","kbwv2blq88","1536","864","de","el09rd31","null","","","","learningBlock2","","","","<div style=""font-size:60px;""> </div>","null","LF","learning/Slide86.JPG","This is a tob:","",""
"","html-keyboard-response","266","1477276","0.0-8.0-0.6","LF","kbwv2blq88","1536","864","de","el09rd31","null","","","","learningBlock2","","","","This is a wug:","null","","","","",""
"","image-keyboard-response","267","1477603","0.0-8.0-1.6","LF","kbwv2blq88","1536","864","de","el09rd31","null","","","","","","","","learning/Slide87.JPG","null","","","","",""
"","html-keyboard-response","268","1478603","0.0-8.0-2.6","LF","kbwv2blq88","1536","864","de","el09rd31","null","","","","learningBlock2","","","","<div style=""font-size:60px;""> </div>","null","LF","learning/Slide87.JPG","This is a wug:","",""
"","html-keyboard-response","269","1479606","0.0-8.0-0.7","LF","kbwv2blq88","1536","864","de","el09rd31","null","","","","learningBlock2","","","","This is a tob:","null","","","","",""
"","image-keyboard-response","270","1479934","0.0-8.0-1.7","LF","kbwv2blq88","1536","864","de","el09rd31","null","","","","","","","","learning/Slide88.JPG","null","","","","",""
"","html-keyboard-response","271","1480936","0.0-8.0-2.7","LF","kbwv2blq88","1536","864","de","el09rd31","null","","","","learningBlock2","","","","<div style=""font-size:60px;""> </div>","null","LF","learning/Slide88.JPG","This is a tob:","",""
"","html-keyboard-response","272","1481938","0.0-8.0-0.8","LF","kbwv2blq88","1536","864","de","el09rd31","null","","","","learningBlock2","","","","This is a bim:","null","","","","",""
"","image-keyboard-response","273","1482265","0.0-8.0-1.8","LF","kbwv2blq88","1536","864","de","el09rd31","null","","","","","","","","learning/Slide89.JPG","null","","","","",""
"","html-keyboard-response","274","1483265","0.0-8.0-2.8","LF","kbwv2blq88","1536","864","de","el09rd31","null","","","","learningBlock2","","","","<div style=""font-size:60px;""> </div>","null","LF","learning/Slide89.JPG","This is a bim:","",""
"","html-keyboard-response","275","1484266","0.0-8.0-0.9","LF","kbwv2blq88","1536","864","de","el09rd31","null","","","","learningBlock2","","","","This is a dep:","null","","","","",""
"","image-keyboard-response","276","1484594","0.0-8.0-1.9","LF","kbwv2blq88","1536","864","de","el09rd31","null","","","","","","","","learning/Slide90.JPG","null","","","","",""
"","html-keyboard-response","277","1485593","0.0-8.0-2.9","LF","kbwv2blq88","1536","864","de","el09rd31","null","","","","learningBlock2","","","","<div style=""font-size:60px;""> </div>","null","LF","learning/Slide90.JPG","This is a dep:","",""
"","html-keyboard-response","278","1486595","0.0-8.0-0.10","LF","kbwv2blq88","1536","864","de","el09rd31","null","","","","learningBlock2","","","","This is a wug:","null","","","","",""
"","image-keyboard-response","279","1486920","0.0-8.0-1.10","LF","kbwv2blq88","1536","864","de","el09rd31","null","","","","","","","","learning/Slide91.JPG","null","","","","",""
"","html-keyboard-response","280","1487922","0.0-8.0-2.10","LF","kbwv2blq88","1536","864","de","el09rd31","null","","","","learningBlock2","","","","<div style=""font-size:60px;""> </div>","null","LF","learning/Slide91.JPG","This is a wug:","",""
"","html-keyboard-response","281","1488924","0.0-8.0-0.11","LF","kbwv2blq88","1536","864","de","el09rd31","null","","","","learningBlock2","","","","This is a tob:","null","","","","",""
"","image-keyboard-response","282","1489249","0.0-8.0-1.11","LF","kbwv2blq88","1536","864","de","el09rd31","null","","","","","","","","learning/Slide92.JPG","null","","","","",""
"","html-keyboard-response","283","1490250","0.0-8.0-2.11","LF","kbwv2blq88","1536","864","de","el09rd31","null","","","","learningBlock2","","","","<div style=""font-size:60px;""> </div>","null","LF","learning/Slide92.JPG","This is a tob:","",""
"","html-keyboard-response","284","1491252","0.0-8.0-0.12","LF","kbwv2blq88","1536","864","de","el09rd31","null","","","","learningBlock2","","","","This is a bim:","null","","","","",""
"","image-keyboard-response","285","1491578","0.0-8.0-1.12","LF","kbwv2blq88","1536","864","de","el09rd31","null","","","","","","","","learning/Slide93.JPG","null","","","","",""
"","html-keyboard-response","286","1492579","0.0-8.0-2.12","LF","kbwv2blq88","1536","864","de","el09rd31","null","","","","learningBlock2","","","","<div style=""font-size:60px;""> </div>","null","LF","learning/Slide93.JPG","This is a bim:","",""
"","html-keyboard-response","287","1493579","0.0-8.0-0.13","LF","kbwv2blq88","1536","864","de","el09rd31","null","","","","learningBlock2","","","","This is a tob:","null","","","","",""
"","image-keyboard-response","288","1493906","0.0-8.0-1.13","LF","kbwv2blq88","1536","864","de","el09rd31","null","","","","","","","","learning/Slide94.JPG","null","","","","",""
"","html-keyboard-response","289","1494906","0.0-8.0-2.13","LF","kbwv2blq88","1536","864","de","el09rd31","null","","","","learningBlock2","","","","<div style=""font-size:60px;""> </div>","null","LF","learning/Slide94.JPG","This is a tob:","",""
"","html-keyboard-response","290","1495907","0.0-8.0-0.14","LF","kbwv2blq88","1536","864","de","el09rd31","null","","","","learningBlock2","","","","This is a wug:","null","","","","",""
"","image-keyboard-response","291","1496234","0.0-8.0-1.14","LF","kbwv2blq88","1536","864","de","el09rd31","null","","","","","","","","learning/Slide95.JPG","null","","","","",""
"","html-keyboard-response","292","1497236","0.0-8.0-2.14","LF","kbwv2blq88","1536","864","de","el09rd31","null","","","","learningBlock2","","","","<div style=""font-size:60px;""> </div>","null","LF","learning/Slide95.JPG","This is a wug:","",""
"","html-keyboard-response","293","1498237","0.0-8.0-0.15","LF","kbwv2blq88","1536","864","de","el09rd31","null","","","","learningBlock2","","","","This is a tob:","null","","","","",""
"","image-keyboard-response","294","1498565","0.0-8.0-1.15","LF","kbwv2blq88","1536","864","de","el09rd31","null","","","","","","","","learning/Slide96.JPG","null","","","","",""
"","html-keyboard-response","295","1499566","0.0-8.0-2.15","LF","kbwv2blq88","1536","864","de","el09rd31","null","","","","learningBlock2","","","","<div style=""font-size:60px;""> </div>","null","LF","learning/Slide96.JPG","This is a tob:","",""
"","html-keyboard-response","296","1500567","0.0-8.0-0.16","LF","kbwv2blq88","1536","864","de","el09rd31","null","","","","learningBlock2","","","","This is a dep:","null","","","","",""
"","image-keyboard-response","297","1500893","0.0-8.0-1.16","LF","kbwv2blq88","1536","864","de","el09rd31","null","","","","","","","","learning/Slide97.JPG","null","","","","",""
"","html-keyboard-response","298","1501895","0.0-8.0-2.16","LF","kbwv2blq88","1536","864","de","el09rd31","null","","","","learningBlock2","","","","<div style=""font-size:60px;""> </div>","null","LF","learning/Slide97.JPG","This is a dep:","",""
"","html-keyboard-response","299","1502896","0.0-8.0-0.17","LF","kbwv2blq88","1536","864","de","el09rd31","null","","","","learningBlock2","","","","This is a bim:","null","","","","",""
"","image-keyboard-response","300","1503221","0.0-8.0-1.17","LF","kbwv2blq88","1536","864","de","el09rd31","null","","","","","","","","learning/Slide98.JPG","null","","","","",""
"","html-keyboard-response","301","1504224","0.0-8.0-2.17","LF","kbwv2blq88","1536","864","de","el09rd31","null","","","","learningBlock2","","","","<div style=""font-size:60px;""> </div>","null","LF","learning/Slide98.JPG","This is a bim:","",""
"","html-keyboard-response","302","1505224","0.0-8.0-0.18","LF","kbwv2blq88","1536","864","de","el09rd31","null","","","","learningBlock2","","","","This is a dep:","null","","","","",""
"","image-keyboard-response","303","1505550","0.0-8.0-1.18","LF","kbwv2blq88","1536","864","de","el09rd31","null","","","","","","","","learning/Slide99.JPG","null","","","","",""
"","html-keyboard-response","304","1506550","0.0-8.0-2.18","LF","kbwv2blq88","1536","864","de","el09rd31","null","","","","learningBlock2","","","","<div style=""font-size:60px;""> </div>","null","LF","learning/Slide99.JPG","This is a dep:","",""
"","html-keyboard-response","305","1507558","0.0-8.0-0.19","LF","kbwv2blq88","1536","864","de","el09rd31","null","","","","learningBlock2","","","","This is a bim:","null","","","","",""
"","image-keyboard-response","306","1507884","0.0-8.0-1.19","LF","kbwv2blq88","1536","864","de","el09rd31","null","","","","","","","","learning/Slide100.JPG","null","","","","",""
"","html-keyboard-response","307","1508885","0.0-8.0-2.19","LF","kbwv2blq88","1536","864","de","el09rd31","null","","","","learningBlock2","","","","<div style=""font-size:60px;""> </div>","null","LF","learning/Slide100.JPG","This is a bim:","",""
"","html-keyboard-response","308","1509886","0.0-8.0-0.20","LF","kbwv2blq88","1536","864","de","el09rd31","null","","","","learningBlock2","","","","This is a tob:","null","","","","",""
"","image-keyboard-response","309","1510213","0.0-8.0-1.20","LF","kbwv2blq88","1536","864","de","el09rd31","null","","","","","","","","learning/Slide101.JPG","null","","","","",""
"","html-keyboard-response","310","1511213","0.0-8.0-2.20","LF","kbwv2blq88","1536","864","de","el09rd31","null","","","","learningBlock2","","","","<div style=""font-size:60px;""> </div>","null","LF","learning/Slide101.JPG","This is a tob:","",""
"","html-keyboard-response","311","1512214","0.0-8.0-0.21","LF","kbwv2blq88","1536","864","de","el09rd31","null","","","","learningBlock2","","","","This is a bim:","null","","","","",""
"","image-keyboard-response","312","1512543","0.0-8.0-1.21","LF","kbwv2blq88","1536","864","de","el09rd31","null","","","","","","","","learning/Slide102.JPG","null","","","","",""
"","html-keyboard-response","313","1513543","0.0-8.0-2.21","LF","kbwv2blq88","1536","864","de","el09rd31","null","","","","learningBlock2","","","","<div style=""font-size:60px;""> </div>","null","LF","learning/Slide102.JPG","This is a bim:","",""
"","html-keyboard-response","314","1514543","0.0-8.0-0.22","LF","kbwv2blq88","1536","864","de","el09rd31","null","","","","learningBlock2","","","","This is a dep:","null","","","","",""
"","image-keyboard-response","315","1514870","0.0-8.0-1.22","LF","kbwv2blq88","1536","864","de","el09rd31","null","","","","","","","","learning/Slide103.JPG","null","","","","",""
"","html-keyboard-response","316","1515871","0.0-8.0-2.22","LF","kbwv2blq88","1536","864","de","el09rd31","null","","","","learningBlock2","","","","<div style=""font-size:60px;""> </div>","null","LF","learning/Slide103.JPG","This is a dep:","",""
"","html-keyboard-response","317","1516873","0.0-8.0-0.23","LF","kbwv2blq88","1536","864","de","el09rd31","null","","","","learningBlock2","","","","This is a tob:","null","","","","",""
"","image-keyboard-response","318","1517199","0.0-8.0-1.23","LF","kbwv2blq88","1536","864","de","el09rd31","null","","","","","","","","learning/Slide104.JPG","null","","","","",""
"","html-keyboard-response","319","1518202","0.0-8.0-2.23","LF","kbwv2blq88","1536","864","de","el09rd31","null","","","","learningBlock2","","","","<div style=""font-size:60px;""> </div>","null","LF","learning/Slide104.JPG","This is a tob:","",""
"","html-keyboard-response","320","1519204","0.0-8.0-0.24","LF","kbwv2blq88","1536","864","de","el09rd31","null","","","","learningBlock2","","","","This is a dep:","null","","","","",""
"","image-keyboard-response","321","1519531","0.0-8.0-1.24","LF","kbwv2blq88","1536","864","de","el09rd31","null","","","","","","","","learning/Slide105.JPG","null","","","","",""
"","html-keyboard-response","322","1520531","0.0-8.0-2.24","LF","kbwv2blq88","1536","864","de","el09rd31","null","","","","learningBlock2","","","","<div style=""font-size:60px;""> </div>","null","LF","learning/Slide105.JPG","This is a dep:","",""
"","html-keyboard-response","323","1521532","0.0-8.0-0.25","LF","kbwv2blq88","1536","864","de","el09rd31","null","","","","learningBlock2","","","","This is a wug:","null","","","","",""
"","image-keyboard-response","324","1521858","0.0-8.0-1.25","LF","kbwv2blq88","1536","864","de","el09rd31","null","","","","","","","","learning/Slide106.JPG","null","","","","",""
"","html-keyboard-response","325","1522859","0.0-8.0-2.25","LF","kbwv2blq88","1536","864","de","el09rd31","null","","","","learningBlock2","","","","<div style=""font-size:60px;""> </div>","null","LF","learning/Slide106.JPG","This is a wug:","",""
"","html-keyboard-response","326","1523859","0.0-8.0-0.26","LF","kbwv2blq88","1536","864","de","el09rd31","null","","","","learningBlock2","","","","This is a bim:","null","","","","",""
"","image-keyboard-response","327","1524185","0.0-8.0-1.26","LF","kbwv2blq88","1536","864","de","el09rd31","null","","","","","","","","learning/Slide107.JPG","null","","","","",""
"","html-keyboard-response","328","1525186","0.0-8.0-2.26","LF","kbwv2blq88","1536","864","de","el09rd31","null","","","","learningBlock2","","","","<div style=""font-size:60px;""> </div>","null","LF","learning/Slide107.JPG","This is a bim:","",""
"","html-keyboard-response","329","1526187","0.0-8.0-0.27","LF","kbwv2blq88","1536","864","de","el09rd31","null","","","","learningBlock2","","","","This is a dep:","null","","","","",""
"","image-keyboard-response","330","1526516","0.0-8.0-1.27","LF","kbwv2blq88","1536","864","de","el09rd31","null","","","","","","","","learning/Slide108.JPG","null","","","","",""
"","html-keyboard-response","331","1527517","0.0-8.0-2.27","LF","kbwv2blq88","1536","864","de","el09rd31","null","","","","learningBlock2","","","","<div style=""font-size:60px;""> </div>","null","LF","learning/Slide108.JPG","This is a dep:","",""
"","html-keyboard-response","332","1528518","0.0-8.0-0.28","LF","kbwv2blq88","1536","864","de","el09rd31","null","","","","learningBlock2","","","","This is a wug:","null","","","","",""
"","image-keyboard-response","333","1528845","0.0-8.0-1.28","LF","kbwv2blq88","1536","864","de","el09rd31","null","","","","","","","","learning/Slide109.JPG","null","","","","",""
"","html-keyboard-response","334","1529846","0.0-8.0-2.28","LF","kbwv2blq88","1536","864","de","el09rd31","null","","","","learningBlock2","","","","<div style=""font-size:60px;""> </div>","null","LF","learning/Slide109.JPG","This is a wug:","",""
"","html-keyboard-response","335","1530847","0.0-8.0-0.29","LF","kbwv2blq88","1536","864","de","el09rd31","null","","","","learningBlock2","","","","This is a bim:","null","","","","",""
"","image-keyboard-response","336","1531175","0.0-8.0-1.29","LF","kbwv2blq88","1536","864","de","el09rd31","null","","","","","","","","learning/Slide110.JPG","null","","","","",""
"","html-keyboard-response","337","1532176","0.0-8.0-2.29","LF","kbwv2blq88","1536","864","de","el09rd31","null","","","","learningBlock2","","","","<div style=""font-size:60px;""> </div>","null","LF","learning/Slide110.JPG","This is a bim:","",""
"","html-keyboard-response","338","1533177","0.0-8.0-0.30","LF","kbwv2blq88","1536","864","de","el09rd31","null","","","","learningBlock2","","","","This is a tob:","null","","","","",""
"","image-keyboard-response","339","1533503","0.0-8.0-1.30","LF","kbwv2blq88","1536","864","de","el09rd31","null","","","","","","","","learning/Slide111.JPG","null","","","","",""
"","html-keyboard-response","340","1534505","0.0-8.0-2.30","LF","kbwv2blq88","1536","864","de","el09rd31","null","","","","learningBlock2","","","","<div style=""font-size:60px;""> </div>","null","LF","learning/Slide111.JPG","This is a tob:","",""
"","html-keyboard-response","341","1535505","0.0-8.0-0.31","LF","kbwv2blq88","1536","864","de","el09rd31","null","","","","learningBlock2","","","","This is a wug:","null","","","","",""
"","image-keyboard-response","342","1535835","0.0-8.0-1.31","LF","kbwv2blq88","1536","864","de","el09rd31","null","","","","","","","","learning/Slide112.JPG","null","","","","",""
"","html-keyboard-response","343","1536836","0.0-8.0-2.31","LF","kbwv2blq88","1536","864","de","el09rd31","null","","","","learningBlock2","","","","<div style=""font-size:60px;""> </div>","null","LF","learning/Slide112.JPG","This is a wug:","",""
"","html-keyboard-response","344","1537837","0.0-8.0-0.32","LF","kbwv2blq88","1536","864","de","el09rd31","null","","","","learningBlock2","","","","This is a tob:","null","","","","",""
"","image-keyboard-response","345","1538165","0.0-8.0-1.32","LF","kbwv2blq88","1536","864","de","el09rd31","null","","","","","","","","learning/Slide113.JPG","null","","","","",""
"","html-keyboard-response","346","1539167","0.0-8.0-2.32","LF","kbwv2blq88","1536","864","de","el09rd31","null","","","","learningBlock2","","","","<div style=""font-size:60px;""> </div>","null","LF","learning/Slide113.JPG","This is a tob:","",""
"","html-keyboard-response","347","1540167","0.0-8.0-0.33","LF","kbwv2blq88","1536","864","de","el09rd31","null","","","","learningBlock2","","","","This is a wug:","null","","","","",""
"","image-keyboard-response","348","1540495","0.0-8.0-1.33","LF","kbwv2blq88","1536","864","de","el09rd31","null","","","","","","","","learning/Slide114.JPG","null","","","","",""
"","html-keyboard-response","349","1541496","0.0-8.0-2.33","LF","kbwv2blq88","1536","864","de","el09rd31","null","","","","learningBlock2","","","","<div style=""font-size:60px;""> </div>","null","LF","learning/Slide114.JPG","This is a wug:","",""
"","html-keyboard-response","350","1542497","0.0-8.0-0.34","LF","kbwv2blq88","1536","864","de","el09rd31","null","","","","learningBlock2","","","","This is a bim:","null","","","","",""
"","image-keyboard-response","351","1542824","0.0-8.0-1.34","LF","kbwv2blq88","1536","864","de","el09rd31","null","","","","","","","","learning/Slide115.JPG","null","","","","",""
"","html-keyboard-response","352","1543825","0.0-8.0-2.34","LF","kbwv2blq88","1536","864","de","el09rd31","null","","","","learningBlock2","","","","<div style=""font-size:60px;""> </div>","null","LF","learning/Slide115.JPG","This is a bim:","",""
"","html-keyboard-response","353","1544827","0.0-8.0-0.35","LF","kbwv2blq88","1536","864","de","el09rd31","null","","","","learningBlock2","","","","This is a dep:","null","","","","",""
"","image-keyboard-response","354","1545155","0.0-8.0-1.35","LF","kbwv2blq88","1536","864","de","el09rd31","null","","","","","","","","learning/Slide116.JPG","null","","","","",""
"","html-keyboard-response","355","1546157","0.0-8.0-2.35","LF","kbwv2blq88","1536","864","de","el09rd31","null","","","","learningBlock2","","","","<div style=""font-size:60px;""> </div>","null","LF","learning/Slide116.JPG","This is a dep:","",""
"","html-keyboard-response","356","1547158","0.0-8.0-0.36","LF","kbwv2blq88","1536","864","de","el09rd31","null","","","","learningBlock2","","","","This is a tob:","null","","","","",""
"","image-keyboard-response","357","1547484","0.0-8.0-1.36","LF","kbwv2blq88","1536","864","de","el09rd31","null","","","","","","","","learning/Slide117.JPG","null","","","","",""
"","html-keyboard-response","358","1548486","0.0-8.0-2.36","LF","kbwv2blq88","1536","864","de","el09rd31","null","","","","learningBlock2","","","","<div style=""font-size:60px;""> </div>","null","LF","learning/Slide117.JPG","This is a tob:","",""
"","html-keyboard-response","359","1549487","0.0-8.0-0.37","LF","kbwv2blq88","1536","864","de","el09rd31","null","","","","learningBlock2","","","","This is a dep:","null","","","","",""
"","image-keyboard-response","360","1549814","0.0-8.0-1.37","LF","kbwv2blq88","1536","864","de","el09rd31","null","","","","","","","","learning/Slide118.JPG","null","","","","",""
"","html-keyboard-response","361","1550814","0.0-8.0-2.37","LF","kbwv2blq88","1536","864","de","el09rd31","null","","","","learningBlock2","","","","<div style=""font-size:60px;""> </div>","null","LF","learning/Slide118.JPG","This is a dep:","",""
"","html-keyboard-response","362","1551815","0.0-8.0-0.38","LF","kbwv2blq88","1536","864","de","el09rd31","null","","","","learningBlock2","","","","This is a wug:","null","","","","",""
"","image-keyboard-response","363","1552142","0.0-8.0-1.38","LF","kbwv2blq88","1536","864","de","el09rd31","null","","","","","","","","learning/Slide119.JPG","null","","","","",""
"","html-keyboard-response","364","1553143","0.0-8.0-2.38","LF","kbwv2blq88","1536","864","de","el09rd31","null","","","","learningBlock2","","","","<div style=""font-size:60px;""> </div>","null","LF","learning/Slide119.JPG","This is a wug:","",""
"","html-keyboard-response","365","1554144","0.0-8.0-0.39","LF","kbwv2blq88","1536","864","de","el09rd31","null","","","","learningBlock2","","","","This is a dep:","null","","","","",""
"","image-keyboard-response","366","1554469","0.0-8.0-1.39","LF","kbwv2blq88","1536","864","de","el09rd31","null","","","","","","","","learning/Slide120.JPG","null","","","","",""
"","html-keyboard-response","367","1555471","0.0-8.0-2.39","LF","kbwv2blq88","1536","864","de","el09rd31","null","","","","learningBlock2","","","","<div style=""font-size:60px;""> </div>","null","LF","learning/Slide120.JPG","This is a dep:","",""
"","html-keyboard-response","368","1556471","0.0-8.0-0.40","LF","kbwv2blq88","1536","864","de","el09rd31","null","","","","learningBlock2","","","","This is a bim:","null","","","","",""
"","image-keyboard-response","369","1556804","0.0-8.0-1.40","LF","kbwv2blq88","1536","864","de","el09rd31","null","","","","","","","","learning/Slide121.JPG","null","","","","",""
"","html-keyboard-response","370","1557808","0.0-8.0-2.40","LF","kbwv2blq88","1536","864","de","el09rd31","null","","","","learningBlock2","","","","<div style=""font-size:60px;""> </div>","null","LF","learning/Slide121.JPG","This is a bim:","",""
"","html-keyboard-response","371","1558814","0.0-8.0-0.41","LF","kbwv2blq88","1536","864","de","el09rd31","null","","","","learningBlock2","","","","This is a wug:","null","","","","",""
"","image-keyboard-response","372","1559141","0.0-8.0-1.41","LF","kbwv2blq88","1536","864","de","el09rd31","null","","","","","","","","learning/Slide122.JPG","null","","","","",""
"","html-keyboard-response","373","1560143","0.0-8.0-2.41","LF","kbwv2blq88","1536","864","de","el09rd31","null","","","","learningBlock2","","","","<div style=""font-size:60px;""> </div>","null","LF","learning/Slide122.JPG","This is a wug:","",""
"","html-keyboard-response","374","1561144","0.0-8.0-0.42","LF","kbwv2blq88","1536","864","de","el09rd31","null","","","","learningBlock2","","","","This is a bim:","null","","","","",""
"","image-keyboard-response","375","1561471","0.0-8.0-1.42","LF","kbwv2blq88","1536","864","de","el09rd31","null","","","","","","","","learning/Slide123.JPG","null","","","","",""
"","html-keyboard-response","376","1562472","0.0-8.0-2.42","LF","kbwv2blq88","1536","864","de","el09rd31","null","","","","learningBlock2","","","","<div style=""font-size:60px;""> </div>","null","LF","learning/Slide123.JPG","This is a bim:","",""
"","html-keyboard-response","377","1563473","0.0-8.0-0.43","LF","kbwv2blq88","1536","864","de","el09rd31","null","","","","learningBlock2","","","","This is a tob:","null","","","","",""
"","image-keyboard-response","378","1563801","0.0-8.0-1.43","LF","kbwv2blq88","1536","864","de","el09rd31","null","","","","","","","","learning/Slide124.JPG","null","","","","",""
"","html-keyboard-response","379","1564802","0.0-8.0-2.43","LF","kbwv2blq88","1536","864","de","el09rd31","null","","","","learningBlock2","","","","<div style=""font-size:60px;""> </div>","null","LF","learning/Slide124.JPG","This is a tob:","",""
"","html-keyboard-response","380","1565803","0.0-8.0-0.44","LF","kbwv2blq88","1536","864","de","el09rd31","null","","","","learningBlock2","","","","This is a bim:","null","","","","",""
"","image-keyboard-response","381","1566130","0.0-8.0-1.44","LF","kbwv2blq88","1536","864","de","el09rd31","null","","","","","","","","learning/Slide125.JPG","null","","","","",""
"","html-keyboard-response","382","1567131","0.0-8.0-2.44","LF","kbwv2blq88","1536","864","de","el09rd31","null","","","","learningBlock2","","","","<div style=""font-size:60px;""> </div>","null","LF","learning/Slide125.JPG","This is a bim:","",""
"","html-keyboard-response","383","1568132","0.0-8.0-0.45","LF","kbwv2blq88","1536","864","de","el09rd31","null","","","","learningBlock2","","","","This is a tob:","null","","","","",""
"","image-keyboard-response","384","1568460","0.0-8.0-1.45","LF","kbwv2blq88","1536","864","de","el09rd31","null","","","","","","","","learning/Slide126.JPG","null","","","","",""
"","html-keyboard-response","385","1569461","0.0-8.0-2.45","LF","kbwv2blq88","1536","864","de","el09rd31","null","","","","learningBlock2","","","","<div style=""font-size:60px;""> </div>","null","LF","learning/Slide126.JPG","This is a tob:","",""
"","html-keyboard-response","386","1570461","0.0-8.0-0.46","LF","kbwv2blq88","1536","864","de","el09rd31","null","","","","learningBlock2","","","","This is a dep:","null","","","","",""
"","image-keyboard-response","387","1570788","0.0-8.0-1.46","LF","kbwv2blq88","1536","864","de","el09rd31","null","","","","","","","","learning/Slide127.JPG","null","","","","",""
"","html-keyboard-response","388","1571788","0.0-8.0-2.46","LF","kbwv2blq88","1536","864","de","el09rd31","null","","","","learningBlock2","","","","<div style=""font-size:60px;""> </div>","null","LF","learning/Slide127.JPG","This is a dep:","",""
"","html-keyboard-response","389","1572789","0.0-8.0-0.47","LF","kbwv2blq88","1536","864","de","el09rd31","null","","","","learningBlock2","","","","This is a wug:","null","","","","",""
"","image-keyboard-response","390","1573118","0.0-8.0-1.47","LF","kbwv2blq88","1536","864","de","el09rd31","null","","","","","","","","learning/Slide128.JPG","null","","","","",""
"","html-keyboard-response","391","1574118","0.0-8.0-2.47","LF","kbwv2blq88","1536","864","de","el09rd31","null","","","","learningBlock2","","","","<div style=""font-size:60px;""> </div>","null","LF","learning/Slide128.JPG","This is a wug:","",""
"","html-keyboard-response","392","1575120","0.0-8.0-0.48","LF","kbwv2blq88","1536","864","de","el09rd31","null","","","","learningBlock2","","","","This is a tob:","null","","","","",""
"","image-keyboard-response","393","1575447","0.0-8.0-1.48","LF","kbwv2blq88","1536","864","de","el09rd31","null","","","","","","","","learning/Slide129.JPG","null","","","","",""
"","html-keyboard-response","394","1576449","0.0-8.0-2.48","LF","kbwv2blq88","1536","864","de","el09rd31","null","","","","learningBlock2","","","","<div style=""font-size:60px;""> </div>","null","LF","learning/Slide129.JPG","This is a tob:","",""
"","html-keyboard-response","395","1577449","0.0-8.0-0.49","LF","kbwv2blq88","1536","864","de","el09rd31","null","","","","learningBlock2","","","","This is a wug:","null","","","","",""
"","image-keyboard-response","396","1577778","0.0-8.0-1.49","LF","kbwv2blq88","1536","864","de","el09rd31","null","","","","","","","","learning/Slide130.JPG","null","","","","",""
"","html-keyboard-response","397","1578777","0.0-8.0-2.49","LF","kbwv2blq88","1536","864","de","el09rd31","null","","","","learningBlock2","","","","<div style=""font-size:60px;""> </div>","null","LF","learning/Slide130.JPG","This is a wug:","",""
"","html-keyboard-response","398","1579779","0.0-8.0-0.50","LF","kbwv2blq88","1536","864","de","el09rd31","null","","","","learningBlock2","","","","This is a bim:","null","","","","",""
"","image-keyboard-response","399","1580105","0.0-8.0-1.50","LF","kbwv2blq88","1536","864","de","el09rd31","null","","","","","","","","learning/Slide131.JPG","null","","","","",""
"","html-keyboard-response","400","1581107","0.0-8.0-2.50","LF","kbwv2blq88","1536","864","de","el09rd31","null","","","","learningBlock2","","","","<div style=""font-size:60px;""> </div>","null","LF","learning/Slide131.JPG","This is a bim:","",""
"","html-keyboard-response","401","1582109","0.0-8.0-0.51","LF","kbwv2blq88","1536","864","de","el09rd31","null","","","","learningBlock2","","","","This is a dep:","null","","","","",""
"","image-keyboard-response","402","1582435","0.0-8.0-1.51","LF","kbwv2blq88","1536","864","de","el09rd31","null","","","","","","","","learning/Slide132.JPG","null","","","","",""
"","html-keyboard-response","403","1583436","0.0-8.0-2.51","LF","kbwv2blq88","1536","864","de","el09rd31","null","","","","learningBlock2","","","","<div style=""font-size:60px;""> </div>","null","LF","learning/Slide132.JPG","This is a dep:","",""
"","html-keyboard-response","404","1584437","0.0-8.0-0.52","LF","kbwv2blq88","1536","864","de","el09rd31","null","","","","learningBlock2","","","","This is a tob:","null","","","","",""
"","image-keyboard-response","405","1584764","0.0-8.0-1.52","LF","kbwv2blq88","1536","864","de","el09rd31","null","","","","","","","","learning/Slide133.JPG","null","","","","",""
"","html-keyboard-response","406","1585764","0.0-8.0-2.52","LF","kbwv2blq88","1536","864","de","el09rd31","null","","","","learningBlock2","","","","<div style=""font-size:60px;""> </div>","null","LF","learning/Slide133.JPG","This is a tob:","",""
"","html-keyboard-response","407","1586765","0.0-8.0-0.53","LF","kbwv2blq88","1536","864","de","el09rd31","null","","","","learningBlock2","","","","This is a dep:","null","","","","",""
"","image-keyboard-response","408","1587091","0.0-8.0-1.53","LF","kbwv2blq88","1536","864","de","el09rd31","null","","","","","","","","learning/Slide134.JPG","null","","","","",""
"","html-keyboard-response","409","1588092","0.0-8.0-2.53","LF","kbwv2blq88","1536","864","de","el09rd31","null","","","","learningBlock2","","","","<div style=""font-size:60px;""> </div>","null","LF","learning/Slide134.JPG","This is a dep:","",""
"","html-keyboard-response","410","1589093","0.0-8.0-0.54","LF","kbwv2blq88","1536","864","de","el09rd31","null","","","","learningBlock2","","","","This is a tob:","null","","","","",""
"","image-keyboard-response","411","1589423","0.0-8.0-1.54","LF","kbwv2blq88","1536","864","de","el09rd31","null","","","","","","","","learning/Slide135.JPG","null","","","","",""
"","html-keyboard-response","412","1590424","0.0-8.0-2.54","LF","kbwv2blq88","1536","864","de","el09rd31","null","","","","learningBlock2","","","","<div style=""font-size:60px;""> </div>","null","LF","learning/Slide135.JPG","This is a tob:","",""
"","html-keyboard-response","413","1591424","0.0-8.0-0.55","LF","kbwv2blq88","1536","864","de","el09rd31","null","","","","learningBlock2","","","","This is a wug:","null","","","","",""
"","image-keyboard-response","414","1591752","0.0-8.0-1.55","LF","kbwv2blq88","1536","864","de","el09rd31","null","","","","","","","","learning/Slide136.JPG","null","","","","",""
"","html-keyboard-response","415","1592753","0.0-8.0-2.55","LF","kbwv2blq88","1536","864","de","el09rd31","null","","","","learningBlock2","","","","<div style=""font-size:60px;""> </div>","null","LF","learning/Slide136.JPG","This is a wug:","",""
"","html-keyboard-response","416","1593754","0.0-8.0-0.56","LF","kbwv2blq88","1536","864","de","el09rd31","null","","","","learningBlock2","","","","This is a tob:","null","","","","",""
"","image-keyboard-response","417","1594079","0.0-8.0-1.56","LF","kbwv2blq88","1536","864","de","el09rd31","null","","","","","","","","learning/Slide137.JPG","null","","","","",""
"","html-keyboard-response","418","1595080","0.0-8.0-2.56","LF","kbwv2blq88","1536","864","de","el09rd31","null","","","","learningBlock2","","","","<div style=""font-size:60px;""> </div>","null","LF","learning/Slide137.JPG","This is a tob:","",""
"","html-keyboard-response","419","1596081","0.0-8.0-0.57","LF","kbwv2blq88","1536","864","de","el09rd31","null","","","","learningBlock2","","","","This is a bim:","null","","","","",""
"","image-keyboard-response","420","1596408","0.0-8.0-1.57","LF","kbwv2blq88","1536","864","de","el09rd31","null","","","","","","","","learning/Slide138.JPG","null","","","","",""
"","html-keyboard-response","421","1597410","0.0-8.0-2.57","LF","kbwv2blq88","1536","864","de","el09rd31","null","","","","learningBlock2","","","","<div style=""font-size:60px;""> </div>","null","LF","learning/Slide138.JPG","This is a bim:","",""
"","html-keyboard-response","422","1598411","0.0-8.0-0.58","LF","kbwv2blq88","1536","864","de","el09rd31","null","","","","learningBlock2","","","","This is a wug:","null","","","","",""
"","image-keyboard-response","423","1598738","0.0-8.0-1.58","LF","kbwv2blq88","1536","864","de","el09rd31","null","","","","","","","","learning/Slide139.JPG","null","","","","",""
"","html-keyboard-response","424","1599739","0.0-8.0-2.58","LF","kbwv2blq88","1536","864","de","el09rd31","null","","","","learningBlock2","","","","<div style=""font-size:60px;""> </div>","null","LF","learning/Slide139.JPG","This is a wug:","",""
"","html-keyboard-response","425","1600740","0.0-8.0-0.59","LF","kbwv2blq88","1536","864","de","el09rd31","null","","","","learningBlock2","","","","This is a dep:","null","","","","",""
"","image-keyboard-response","426","1601066","0.0-8.0-1.59","LF","kbwv2blq88","1536","864","de","el09rd31","null","","","","","","","","learning/Slide140.JPG","null","","","","",""
"","html-keyboard-response","427","1602067","0.0-8.0-2.59","LF","kbwv2blq88","1536","864","de","el09rd31","null","","","","learningBlock2","","","","<div style=""font-size:60px;""> </div>","null","LF","learning/Slide140.JPG","This is a dep:","",""
"","html-keyboard-response","428","1603069","0.0-8.0-0.60","LF","kbwv2blq88","1536","864","de","el09rd31","null","","","","learningBlock2","","","","This is a tob:","null","","","","",""
"","image-keyboard-response","429","1603396","0.0-8.0-1.60","LF","kbwv2blq88","1536","864","de","el09rd31","null","","","","","","","","learning/Slide141.JPG","null","","","","",""
"","html-keyboard-response","430","1604397","0.0-8.0-2.60","LF","kbwv2blq88","1536","864","de","el09rd31","null","","","","learningBlock2","","","","<div style=""font-size:60px;""> </div>","null","LF","learning/Slide141.JPG","This is a tob:","",""
"","html-keyboard-response","431","1605398","0.0-8.0-0.61","LF","kbwv2blq88","1536","864","de","el09rd31","null","","","","learningBlock2","","","","This is a wug:","null","","","","",""
"","image-keyboard-response","432","1605724","0.0-8.0-1.61","LF","kbwv2blq88","1536","864","de","el09rd31","null","","","","","","","","learning/Slide142.JPG","null","","","","",""
"","html-keyboard-response","433","1606726","0.0-8.0-2.61","LF","kbwv2blq88","1536","864","de","el09rd31","null","","","","learningBlock2","","","","<div style=""font-size:60px;""> </div>","null","LF","learning/Slide142.JPG","This is a wug:","",""
"","html-keyboard-response","434","1607727","0.0-8.0-0.62","LF","kbwv2blq88","1536","864","de","el09rd31","null","","","","learningBlock2","","","","This is a bim:","null","","","","",""
"","image-keyboard-response","435","1608053","0.0-8.0-1.62","LF","kbwv2blq88","1536","864","de","el09rd31","null","","","","","","","","learning/Slide143.JPG","null","","","","",""
"","html-keyboard-response","436","1609054","0.0-8.0-2.62","LF","kbwv2blq88","1536","864","de","el09rd31","null","","","","learningBlock2","","","","<div style=""font-size:60px;""> </div>","null","LF","learning/Slide143.JPG","This is a bim:","",""
"","html-keyboard-response","437","1610055","0.0-8.0-0.63","LF","kbwv2blq88","1536","864","de","el09rd31","null","","","","learningBlock2","","","","This is a dep:","null","","","","",""
"","image-keyboard-response","438","1610382","0.0-8.0-1.63","LF","kbwv2blq88","1536","864","de","el09rd31","null","","","","","","","","learning/Slide144.JPG","null","","","","",""
"","html-keyboard-response","439","1611383","0.0-8.0-2.63","LF","kbwv2blq88","1536","864","de","el09rd31","null","","","","learningBlock2","","","","<div style=""font-size:60px;""> </div>","null","LF","learning/Slide144.JPG","This is a dep:","",""
"","html-keyboard-response","440","1612383","0.0-8.0-0.64","LF","kbwv2blq88","1536","864","de","el09rd31","null","","","","learningBlock2","","","","This is a bim:","null","","","","",""
"","image-keyboard-response","441","1612710","0.0-8.0-1.64","LF","kbwv2blq88","1536","864","de","el09rd31","null","","","","","","","","learning/Slide145.JPG","null","","","","",""
"","html-keyboard-response","442","1613712","0.0-8.0-2.64","LF","kbwv2blq88","1536","864","de","el09rd31","null","","","","learningBlock2","","","","<div style=""font-size:60px;""> </div>","null","LF","learning/Slide145.JPG","This is a bim:","",""
"","html-keyboard-response","443","1614712","0.0-8.0-0.65","LF","kbwv2blq88","1536","864","de","el09rd31","null","","","","learningBlock2","","","","This is a tob:","null","","","","",""
"","image-keyboard-response","444","1615038","0.0-8.0-1.65","LF","kbwv2blq88","1536","864","de","el09rd31","null","","","","","","","","learning/Slide146.JPG","null","","","","",""
"","html-keyboard-response","445","1616039","0.0-8.0-2.65","LF","kbwv2blq88","1536","864","de","el09rd31","null","","","","learningBlock2","","","","<div style=""font-size:60px;""> </div>","null","LF","learning/Slide146.JPG","This is a tob:","",""
"","html-keyboard-response","446","1617040","0.0-8.0-0.66","LF","kbwv2blq88","1536","864","de","el09rd31","null","","","","learningBlock2","","","","This is a wug:","null","","","","",""
"","image-keyboard-response","447","1617368","0.0-8.0-1.66","LF","kbwv2blq88","1536","864","de","el09rd31","null","","","","","","","","learning/Slide147.JPG","null","","","","",""
"","html-keyboard-response","448","1618369","0.0-8.0-2.66","LF","kbwv2blq88","1536","864","de","el09rd31","null","","","","learningBlock2","","","","<div style=""font-size:60px;""> </div>","null","LF","learning/Slide147.JPG","This is a wug:","",""
"","html-keyboard-response","449","1619369","0.0-8.0-0.67","LF","kbwv2blq88","1536","864","de","el09rd31","null","","","","learningBlock2","","","","This is a bim:","null","","","","",""
"","image-keyboard-response","450","1619697","0.0-8.0-1.67","LF","kbwv2blq88","1536","864","de","el09rd31","null","","","","","","","","learning/Slide148.JPG","null","","","","",""
"","html-keyboard-response","451","1620699","0.0-8.0-2.67","LF","kbwv2blq88","1536","864","de","el09rd31","null","","","","learningBlock2","","","","<div style=""font-size:60px;""> </div>","null","LF","learning/Slide148.JPG","This is a bim:","",""
"","html-keyboard-response","452","1621699","0.0-8.0-0.68","LF","kbwv2blq88","1536","864","de","el09rd31","null","","","","learningBlock2","","","","This is a dep:","null","","","","",""
"","image-keyboard-response","453","1622025","0.0-8.0-1.68","LF","kbwv2blq88","1536","864","de","el09rd31","null","","","","","","","","learning/Slide149.JPG","null","","","","",""
"","html-keyboard-response","454","1623026","0.0-8.0-2.68","LF","kbwv2blq88","1536","864","de","el09rd31","null","","","","learningBlock2","","","","<div style=""font-size:60px;""> </div>","null","LF","learning/Slide149.JPG","This is a dep:","",""
"","html-keyboard-response","455","1624027","0.0-8.0-0.69","LF","kbwv2blq88","1536","864","de","el09rd31","null","","","","learningBlock2","","","","This is a wug:","null","","","","",""
"","image-keyboard-response","456","1624353","0.0-8.0-1.69","LF","kbwv2blq88","1536","864","de","el09rd31","null","","","","","","","","learning/Slide150.JPG","null","","","","",""
"","html-keyboard-response","457","1625354","0.0-8.0-2.69","LF","kbwv2blq88","1536","864","de","el09rd31","null","","","","learningBlock2","","","","<div style=""font-size:60px;""> </div>","null","LF","learning/Slide150.JPG","This is a wug:","",""
"","html-keyboard-response","458","1626355","0.0-8.0-0.70","LF","kbwv2blq88","1536","864","de","el09rd31","null","","","","learningBlock2","","","","This is a dep:","null","","","","",""
"","image-keyboard-response","459","1626681","0.0-8.0-1.70","LF","kbwv2blq88","1536","864","de","el09rd31","null","","","","","","","","learning/Slide151.JPG","null","","","","",""
"","html-keyboard-response","460","1627682","0.0-8.0-2.70","LF","kbwv2blq88","1536","864","de","el09rd31","null","","","","learningBlock2","","","","<div style=""font-size:60px;""> </div>","null","LF","learning/Slide151.JPG","This is a dep:","",""
"","html-keyboard-response","461","1628682","0.0-8.0-0.71","LF","kbwv2blq88","1536","864","de","el09rd31","null","","","","learningBlock2","","","","This is a wug:","null","","","","",""
"","image-keyboard-response","462","1629011","0.0-8.0-1.71","LF","kbwv2blq88","1536","864","de","el09rd31","null","","","","","","","","learning/Slide152.JPG","null","","","","",""
"","html-keyboard-response","463","1630013","0.0-8.0-2.71","LF","kbwv2blq88","1536","864","de","el09rd31","null","","","","learningBlock2","","","","<div style=""font-size:60px;""> </div>","null","LF","learning/Slide152.JPG","This is a wug:","",""
"","html-keyboard-response","464","1631014","0.0-8.0-0.72","LF","kbwv2blq88","1536","864","de","el09rd31","null","","","","learningBlock2","","","","This is a bim:","null","","","","",""
"","image-keyboard-response","465","1631341","0.0-8.0-1.72","LF","kbwv2blq88","1536","864","de","el09rd31","null","","","","","","","","learning/Slide153.JPG","null","","","","",""
"","html-keyboard-response","466","1632340","0.0-8.0-2.72","LF","kbwv2blq88","1536","864","de","el09rd31","null","","","","learningBlock2","","","","<div style=""font-size:60px;""> </div>","null","LF","learning/Slide153.JPG","This is a bim:","",""
"","html-keyboard-response","467","1633342","0.0-8.0-0.73","LF","kbwv2blq88","1536","864","de","el09rd31","null","","","","learningBlock2","","","","This is a tob:","null","","","","",""
"","image-keyboard-response","468","1633669","0.0-8.0-1.73","LF","kbwv2blq88","1536","864","de","el09rd31","null","","","","","","","","learning/Slide154.JPG","null","","","","",""
"","html-keyboard-response","469","1634670","0.0-8.0-2.73","LF","kbwv2blq88","1536","864","de","el09rd31","null","","","","learningBlock2","","","","<div style=""font-size:60px;""> </div>","null","LF","learning/Slide154.JPG","This is a tob:","",""
"","html-keyboard-response","470","1635671","0.0-8.0-0.74","LF","kbwv2blq88","1536","864","de","el09rd31","null","","","","learningBlock2","","","","This is a dep:","null","","","","",""
"","image-keyboard-response","471","1635998","0.0-8.0-1.74","LF","kbwv2blq88","1536","864","de","el09rd31","null","","","","","","","","learning/Slide155.JPG","null","","","","",""
"","html-keyboard-response","472","1636998","0.0-8.0-2.74","LF","kbwv2blq88","1536","864","de","el09rd31","null","","","","learningBlock2","","","","<div style=""font-size:60px;""> </div>","null","LF","learning/Slide155.JPG","This is a dep:","",""
"","html-keyboard-response","473","1637999","0.0-8.0-0.75","LF","kbwv2blq88","1536","864","de","el09rd31","null","","","","learningBlock2","","","","This is a bim:","null","","","","",""
"","image-keyboard-response","474","1638327","0.0-8.0-1.75","LF","kbwv2blq88","1536","864","de","el09rd31","null","","","","","","","","learning/Slide156.JPG","null","","","","",""
"","html-keyboard-response","475","1639328","0.0-8.0-2.75","LF","kbwv2blq88","1536","864","de","el09rd31","null","","","","learningBlock2","","","","<div style=""font-size:60px;""> </div>","null","LF","learning/Slide156.JPG","This is a bim:","",""
"","html-keyboard-response","476","1640331","0.0-8.0-0.76","LF","kbwv2blq88","1536","864","de","el09rd31","null","","","","learningBlock2","","","","This is a dep:","null","","","","",""
"","image-keyboard-response","477","1640659","0.0-8.0-1.76","LF","kbwv2blq88","1536","864","de","el09rd31","null","","","","","","","","learning/Slide157.JPG","null","","","","",""
"","html-keyboard-response","478","1641662","0.0-8.0-2.76","LF","kbwv2blq88","1536","864","de","el09rd31","null","","","","learningBlock2","","","","<div style=""font-size:60px;""> </div>","null","LF","learning/Slide157.JPG","This is a dep:","",""
"","html-keyboard-response","479","1642662","0.0-8.0-0.77","LF","kbwv2blq88","1536","864","de","el09rd31","null","","","","learningBlock2","","","","This is a tob:","null","","","","",""
"","image-keyboard-response","480","1642991","0.0-8.0-1.77","LF","kbwv2blq88","1536","864","de","el09rd31","null","","","","","","","","learning/Slide158.JPG","null","","","","",""
"","html-keyboard-response","481","1643992","0.0-8.0-2.77","LF","kbwv2blq88","1536","864","de","el09rd31","null","","","","learningBlock2","","","","<div style=""font-size:60px;""> </div>","null","LF","learning/Slide158.JPG","This is a tob:","",""
"","html-keyboard-response","482","1644993","0.0-8.0-0.78","LF","kbwv2blq88","1536","864","de","el09rd31","null","","","","learningBlock2","","","","This is a dep:","null","","","","",""
"","image-keyboard-response","483","1645320","0.0-8.0-1.78","LF","kbwv2blq88","1536","864","de","el09rd31","null","","","","","","","","learning/Slide159.JPG","null","","","","",""
"","html-keyboard-response","484","1646321","0.0-8.0-2.78","LF","kbwv2blq88","1536","864","de","el09rd31","null","","","","learningBlock2","","","","<div style=""font-size:60px;""> </div>","null","LF","learning/Slide159.JPG","This is a dep:","",""
"","html-keyboard-response","485","1647323","0.0-8.0-0.79","LF","kbwv2blq88","1536","864","de","el09rd31","null","","","","learningBlock2","","","","This is a wug:","null","","","","",""
"","image-keyboard-response","486","1647650","0.0-8.0-1.79","LF","kbwv2blq88","1536","864","de","el09rd31","null","","","","","","","","learning/Slide160.JPG","null","","","","",""
"","html-keyboard-response","487","1648651","0.0-8.0-2.79","LF","kbwv2blq88","1536","864","de","el09rd31","null","","","","learningBlock2","","","","<div style=""font-size:60px;""> </div>","null","LF","learning/Slide160.JPG","This is a wug:","",""
