"success","trial_type","trial_index","time_elapsed","internal_node_id","condition","subject","screen_width","screen_height","language","codeword","rt","responses","url","view_history","test_part","final_height_px","final_width_px","scale_factor","stimulus","key_press","learningType","presentedImage","presentedLabel","button_pressed","response"
"true","fullscreen","0","141982","0.0-0.0","FL","tbo3kx7lyg","1366","768","de","ke06ng04","","","","","","","","","","","","","","",""
"","survey-html-form","1","149458","0.0-1.0","FL","tbo3kx7lyg","1366","768","de","ke06ng04","7468","{""language"":""de""}","","","","","","","","","","","","",""
"","external-html","2","256745","0.0-2.0-0.0","FL","tbo3kx7lyg","1366","768","de","ke06ng04","107182","","text/information.html","","","","","","","","","","","",""
"","external-html","3","288536","0.0-2.0-1.0","FL","tbo3kx7lyg","1366","768","de","ke06ng04","31674","","text/consent.html","","","","","","","","","","","",""
"","survey-html-form","4","332769","0.0-2.0-2.0","FL","tbo3kx7lyg","1366","768","de","ke06ng04","44230","{""codeword_enter"":""ke06ng04""}","","","","","","","","","","","","",""
"","instructions","5","366624","0.0-4.0","FL","tbo3kx7lyg","1366","768","de","ke06ng04","NA","","","[{""page_index"":0,""viewing_time"":17549},{""page_index"":1,""viewing_time"":14791}]","instructions","","","","","","","","","",""
"","resize","6","420183","0.0-5.0","FL","tbo3kx7lyg","1366","768","de","ke06ng04","","","","","","","340","2.1587301587301586","","","","","","",""
"","image-keyboard-response","7","420380","0.0-6.0-0.0","FL","tbo3kx7lyg","1366","768","de","ke06ng04","null","","","","","","","","learning/Slide1.JPG","null","","","","",""
"","html-keyboard-response","8","421559","0.0-6.0-1.0","FL","tbo3kx7lyg","1366","768","de","ke06ng04","null","","","","learningBlock1","","","","That was a tob.","null","","","","",""
"","html-keyboard-response","9","422579","0.0-6.0-2.0","FL","tbo3kx7lyg","1366","768","de","ke06ng04","null","","","","learningBlock1","","","","<div style=""font-size:60px;""> </div>","null","FL","learning/Slide1.JPG","That was a tob.","",""
"","image-keyboard-response","10","422759","0.0-6.0-0.1","FL","tbo3kx7lyg","1366","768","de","ke06ng04","null","","","","","","","","learning/Slide2.JPG","null","","","","",""
"","html-keyboard-response","11","423939","0.0-6.0-1.1","FL","tbo3kx7lyg","1366","768","de","ke06ng04","null","","","","learningBlock1","","","","That was a wug.","null","","","","",""
"","html-keyboard-response","12","424959","0.0-6.0-2.1","FL","tbo3kx7lyg","1366","768","de","ke06ng04","null","","","","learningBlock1","","","","<div style=""font-size:60px;""> </div>","null","FL","learning/Slide2.JPG","That was a wug.","",""
"","image-keyboard-response","13","425138","0.0-6.0-0.2","FL","tbo3kx7lyg","1366","768","de","ke06ng04","null","","","","","","","","learning/Slide3.JPG","null","","","","",""
"","html-keyboard-response","14","426319","0.0-6.0-1.2","FL","tbo3kx7lyg","1366","768","de","ke06ng04","null","","","","learningBlock1","","","","That was a bim.","null","","","","",""
"","html-keyboard-response","15","427338","0.0-6.0-2.2","FL","tbo3kx7lyg","1366","768","de","ke06ng04","null","","","","learningBlock1","","","","<div style=""font-size:60px;""> </div>","null","FL","learning/Slide3.JPG","That was a bim.","",""
"","image-keyboard-response","16","427519","0.0-6.0-0.3","FL","tbo3kx7lyg","1366","768","de","ke06ng04","null","","","","","","","","learning/Slide4.JPG","null","","","","",""
"","html-keyboard-response","17","428698","0.0-6.0-1.3","FL","tbo3kx7lyg","1366","768","de","ke06ng04","null","","","","learningBlock1","","","","That was a dep.","null","","","","",""
"","html-keyboard-response","18","429719","0.0-6.0-2.3","FL","tbo3kx7lyg","1366","768","de","ke06ng04","null","","","","learningBlock1","","","","<div style=""font-size:60px;""> </div>","null","FL","learning/Slide4.JPG","That was a dep.","",""
"","image-keyboard-response","19","429899","0.0-6.0-0.4","FL","tbo3kx7lyg","1366","768","de","ke06ng04","null","","","","","","","","learning/Slide5.JPG","null","","","","",""
"","html-keyboard-response","20","431079","0.0-6.0-1.4","FL","tbo3kx7lyg","1366","768","de","ke06ng04","null","","","","learningBlock1","","","","That was a wug.","null","","","","",""
"","html-keyboard-response","21","432099","0.0-6.0-2.4","FL","tbo3kx7lyg","1366","768","de","ke06ng04","null","","","","learningBlock1","","","","<div style=""font-size:60px;""> </div>","null","FL","learning/Slide5.JPG","That was a wug.","",""
"","image-keyboard-response","22","432279","0.0-6.0-0.5","FL","tbo3kx7lyg","1366","768","de","ke06ng04","null","","","","","","","","learning/Slide6.JPG","null","","","","",""
"","html-keyboard-response","23","433449","0.0-6.0-1.5","FL","tbo3kx7lyg","1366","768","de","ke06ng04","null","","","","learningBlock1","","","","That was a dep.","null","","","","",""
"","html-keyboard-response","24","434469","0.0-6.0-2.5","FL","tbo3kx7lyg","1366","768","de","ke06ng04","null","","","","learningBlock1","","","","<div style=""font-size:60px;""> </div>","null","FL","learning/Slide6.JPG","That was a dep.","",""
"","image-keyboard-response","25","434649","0.0-6.0-0.6","FL","tbo3kx7lyg","1366","768","de","ke06ng04","null","","","","","","","","learning/Slide7.JPG","null","","","","",""
"","html-keyboard-response","26","435829","0.0-6.0-1.6","FL","tbo3kx7lyg","1366","768","de","ke06ng04","null","","","","learningBlock1","","","","That was a wug.","null","","","","",""
"","html-keyboard-response","27","436849","0.0-6.0-2.6","FL","tbo3kx7lyg","1366","768","de","ke06ng04","null","","","","learningBlock1","","","","<div style=""font-size:60px;""> </div>","null","FL","learning/Slide7.JPG","That was a wug.","",""
"","image-keyboard-response","28","437029","0.0-6.0-0.7","FL","tbo3kx7lyg","1366","768","de","ke06ng04","null","","","","","","","","learning/Slide8.JPG","null","","","","",""
"","html-keyboard-response","29","438208","0.0-6.0-1.7","FL","tbo3kx7lyg","1366","768","de","ke06ng04","null","","","","learningBlock1","","","","That was a bim.","null","","","","",""
"","html-keyboard-response","30","439229","0.0-6.0-2.7","FL","tbo3kx7lyg","1366","768","de","ke06ng04","null","","","","learningBlock1","","","","<div style=""font-size:60px;""> </div>","null","FL","learning/Slide8.JPG","That was a bim.","",""
"","image-keyboard-response","31","439409","0.0-6.0-0.8","FL","tbo3kx7lyg","1366","768","de","ke06ng04","null","","","","","","","","learning/Slide9.JPG","null","","","","",""
"","html-keyboard-response","32","440589","0.0-6.0-1.8","FL","tbo3kx7lyg","1366","768","de","ke06ng04","null","","","","learningBlock1","","","","That was a wug.","null","","","","",""
"","html-keyboard-response","33","441608","0.0-6.0-2.8","FL","tbo3kx7lyg","1366","768","de","ke06ng04","null","","","","learningBlock1","","","","<div style=""font-size:60px;""> </div>","null","FL","learning/Slide9.JPG","That was a wug.","",""
"","image-keyboard-response","34","441789","0.0-6.0-0.9","FL","tbo3kx7lyg","1366","768","de","ke06ng04","null","","","","","","","","learning/Slide10.JPG","null","","","","",""
"","html-keyboard-response","35","442969","0.0-6.0-1.9","FL","tbo3kx7lyg","1366","768","de","ke06ng04","null","","","","learningBlock1","","","","That was a dep.","null","","","","",""
"","html-keyboard-response","36","443989","0.0-6.0-2.9","FL","tbo3kx7lyg","1366","768","de","ke06ng04","null","","","","learningBlock1","","","","<div style=""font-size:60px;""> </div>","null","FL","learning/Slide10.JPG","That was a dep.","",""
"","image-keyboard-response","37","444169","0.0-6.0-0.10","FL","tbo3kx7lyg","1366","768","de","ke06ng04","null","","","","","","","","learning/Slide11.JPG","null","","","","",""
"","html-keyboard-response","38","445349","0.0-6.0-1.10","FL","tbo3kx7lyg","1366","768","de","ke06ng04","null","","","","learningBlock1","","","","That was a tob.","null","","","","",""
"","html-keyboard-response","39","446369","0.0-6.0-2.10","FL","tbo3kx7lyg","1366","768","de","ke06ng04","null","","","","learningBlock1","","","","<div style=""font-size:60px;""> </div>","null","FL","learning/Slide11.JPG","That was a tob.","",""
"","image-keyboard-response","40","446569","0.0-6.0-0.11","FL","tbo3kx7lyg","1366","768","de","ke06ng04","null","","","","","","","","learning/Slide12.JPG","null","","","","",""
"","html-keyboard-response","41","447744","0.0-6.0-1.11","FL","tbo3kx7lyg","1366","768","de","ke06ng04","null","","","","learningBlock1","","","","That was a dep.","null","","","","",""
"","html-keyboard-response","42","448745","0.0-6.0-2.11","FL","tbo3kx7lyg","1366","768","de","ke06ng04","null","","","","learningBlock1","","","","<div style=""font-size:60px;""> </div>","null","FL","learning/Slide12.JPG","That was a dep.","",""
"","image-keyboard-response","43","448929","0.0-6.0-0.12","FL","tbo3kx7lyg","1366","768","de","ke06ng04","null","","","","","","","","learning/Slide13.JPG","null","","","","",""
"","html-keyboard-response","44","450109","0.0-6.0-1.12","FL","tbo3kx7lyg","1366","768","de","ke06ng04","null","","","","learningBlock1","","","","That was a bim.","null","","","","",""
"","html-keyboard-response","45","451129","0.0-6.0-2.12","FL","tbo3kx7lyg","1366","768","de","ke06ng04","null","","","","learningBlock1","","","","<div style=""font-size:60px;""> </div>","null","FL","learning/Slide13.JPG","That was a bim.","",""
"","image-keyboard-response","46","451309","0.0-6.0-0.13","FL","tbo3kx7lyg","1366","768","de","ke06ng04","null","","","","","","","","learning/Slide14.JPG","null","","","","",""
"","html-keyboard-response","47","452488","0.0-6.0-1.13","FL","tbo3kx7lyg","1366","768","de","ke06ng04","null","","","","learningBlock1","","","","That was a wug.","null","","","","",""
"","html-keyboard-response","48","453509","0.0-6.0-2.13","FL","tbo3kx7lyg","1366","768","de","ke06ng04","null","","","","learningBlock1","","","","<div style=""font-size:60px;""> </div>","null","FL","learning/Slide14.JPG","That was a wug.","",""
"","image-keyboard-response","49","453689","0.0-6.0-0.14","FL","tbo3kx7lyg","1366","768","de","ke06ng04","null","","","","","","","","learning/Slide15.JPG","null","","","","",""
"","html-keyboard-response","50","454847","0.0-6.0-1.14","FL","tbo3kx7lyg","1366","768","de","ke06ng04","null","","","","learningBlock1","","","","That was a tob.","null","","","","",""
"","html-keyboard-response","51","455868","0.0-6.0-2.14","FL","tbo3kx7lyg","1366","768","de","ke06ng04","null","","","","learningBlock1","","","","<div style=""font-size:60px;""> </div>","null","FL","learning/Slide15.JPG","That was a tob.","",""
"","image-keyboard-response","52","456049","0.0-6.0-0.15","FL","tbo3kx7lyg","1366","768","de","ke06ng04","null","","","","","","","","learning/Slide16.JPG","null","","","","",""
"","html-keyboard-response","53","457229","0.0-6.0-1.15","FL","tbo3kx7lyg","1366","768","de","ke06ng04","null","","","","learningBlock1","","","","That was a dep.","null","","","","",""
"","html-keyboard-response","54","458248","0.0-6.0-2.15","FL","tbo3kx7lyg","1366","768","de","ke06ng04","null","","","","learningBlock1","","","","<div style=""font-size:60px;""> </div>","null","FL","learning/Slide16.JPG","That was a dep.","",""
"","image-keyboard-response","55","458429","0.0-6.0-0.16","FL","tbo3kx7lyg","1366","768","de","ke06ng04","null","","","","","","","","learning/Slide17.JPG","null","","","","",""
"","html-keyboard-response","56","459608","0.0-6.0-1.16","FL","tbo3kx7lyg","1366","768","de","ke06ng04","null","","","","learningBlock1","","","","That was a bim.","null","","","","",""
"","html-keyboard-response","57","460629","0.0-6.0-2.16","FL","tbo3kx7lyg","1366","768","de","ke06ng04","null","","","","learningBlock1","","","","<div style=""font-size:60px;""> </div>","null","FL","learning/Slide17.JPG","That was a bim.","",""
"","image-keyboard-response","58","460808","0.0-6.0-0.17","FL","tbo3kx7lyg","1366","768","de","ke06ng04","null","","","","","","","","learning/Slide18.JPG","null","","","","",""
"","html-keyboard-response","59","461988","0.0-6.0-1.17","FL","tbo3kx7lyg","1366","768","de","ke06ng04","null","","","","learningBlock1","","","","That was a tob.","null","","","","",""
"","html-keyboard-response","60","463009","0.0-6.0-2.17","FL","tbo3kx7lyg","1366","768","de","ke06ng04","null","","","","learningBlock1","","","","<div style=""font-size:60px;""> </div>","null","FL","learning/Slide18.JPG","That was a tob.","",""
"","image-keyboard-response","61","463188","0.0-6.0-0.18","FL","tbo3kx7lyg","1366","768","de","ke06ng04","null","","","","","","","","learning/Slide19.JPG","null","","","","",""
"","html-keyboard-response","62","464368","0.0-6.0-1.18","FL","tbo3kx7lyg","1366","768","de","ke06ng04","null","","","","learningBlock1","","","","That was a wug.","null","","","","",""
"","html-keyboard-response","63","465389","0.0-6.0-2.18","FL","tbo3kx7lyg","1366","768","de","ke06ng04","null","","","","learningBlock1","","","","<div style=""font-size:60px;""> </div>","null","FL","learning/Slide19.JPG","That was a wug.","",""
"","image-keyboard-response","64","465568","0.0-6.0-0.19","FL","tbo3kx7lyg","1366","768","de","ke06ng04","null","","","","","","","","learning/Slide20.JPG","null","","","","",""
"","html-keyboard-response","65","466748","0.0-6.0-1.19","FL","tbo3kx7lyg","1366","768","de","ke06ng04","null","","","","learningBlock1","","","","That was a bim.","null","","","","",""
"","html-keyboard-response","66","467768","0.0-6.0-2.19","FL","tbo3kx7lyg","1366","768","de","ke06ng04","null","","","","learningBlock1","","","","<div style=""font-size:60px;""> </div>","null","FL","learning/Slide20.JPG","That was a bim.","",""
"","image-keyboard-response","67","467948","0.0-6.0-0.20","FL","tbo3kx7lyg","1366","768","de","ke06ng04","null","","","","","","","","learning/Slide21.JPG","null","","","","",""
"","html-keyboard-response","68","469128","0.0-6.0-1.20","FL","tbo3kx7lyg","1366","768","de","ke06ng04","null","","","","learningBlock1","","","","That was a dep.","null","","","","",""
"","html-keyboard-response","69","470148","0.0-6.0-2.20","FL","tbo3kx7lyg","1366","768","de","ke06ng04","null","","","","learningBlock1","","","","<div style=""font-size:60px;""> </div>","null","FL","learning/Slide21.JPG","That was a dep.","",""
"","image-keyboard-response","70","470329","0.0-6.0-0.21","FL","tbo3kx7lyg","1366","768","de","ke06ng04","null","","","","","","","","learning/Slide22.JPG","null","","","","",""
"","html-keyboard-response","71","471508","0.0-6.0-1.21","FL","tbo3kx7lyg","1366","768","de","ke06ng04","null","","","","learningBlock1","","","","That was a bim.","null","","","","",""
"","html-keyboard-response","72","472528","0.0-6.0-2.21","FL","tbo3kx7lyg","1366","768","de","ke06ng04","null","","","","learningBlock1","","","","<div style=""font-size:60px;""> </div>","null","FL","learning/Slide22.JPG","That was a bim.","",""
"","image-keyboard-response","73","472708","0.0-6.0-0.22","FL","tbo3kx7lyg","1366","768","de","ke06ng04","null","","","","","","","","learning/Slide23.JPG","null","","","","",""
"","html-keyboard-response","74","473888","0.0-6.0-1.22","FL","tbo3kx7lyg","1366","768","de","ke06ng04","null","","","","learningBlock1","","","","That was a tob.","null","","","","",""
"","html-keyboard-response","75","474908","0.0-6.0-2.22","FL","tbo3kx7lyg","1366","768","de","ke06ng04","null","","","","learningBlock1","","","","<div style=""font-size:60px;""> </div>","null","FL","learning/Slide23.JPG","That was a tob.","",""
"","image-keyboard-response","76","475088","0.0-6.0-0.23","FL","tbo3kx7lyg","1366","768","de","ke06ng04","null","","","","","","","","learning/Slide24.JPG","null","","","","",""
"","html-keyboard-response","77","476264","0.0-6.0-1.23","FL","tbo3kx7lyg","1366","768","de","ke06ng04","null","","","","learningBlock1","","","","That was a wug.","null","","","","",""
"","html-keyboard-response","78","477288","0.0-6.0-2.23","FL","tbo3kx7lyg","1366","768","de","ke06ng04","null","","","","learningBlock1","","","","<div style=""font-size:60px;""> </div>","null","FL","learning/Slide24.JPG","That was a wug.","",""
"","image-keyboard-response","79","477488","0.0-6.0-0.24","FL","tbo3kx7lyg","1366","768","de","ke06ng04","null","","","","","","","","learning/Slide25.JPG","null","","","","",""
"","html-keyboard-response","80","478665","0.0-6.0-1.24","FL","tbo3kx7lyg","1366","768","de","ke06ng04","null","","","","learningBlock1","","","","That was a dep.","null","","","","",""
"","html-keyboard-response","81","479688","0.0-6.0-2.24","FL","tbo3kx7lyg","1366","768","de","ke06ng04","null","","","","learningBlock1","","","","<div style=""font-size:60px;""> </div>","null","FL","learning/Slide25.JPG","That was a dep.","",""
"","image-keyboard-response","82","479866","0.0-6.0-0.25","FL","tbo3kx7lyg","1366","768","de","ke06ng04","null","","","","","","","","learning/Slide26.JPG","null","","","","",""
"","html-keyboard-response","83","481048","0.0-6.0-1.25","FL","tbo3kx7lyg","1366","768","de","ke06ng04","null","","","","learningBlock1","","","","That was a wug.","null","","","","",""
"","html-keyboard-response","84","482067","0.0-6.0-2.25","FL","tbo3kx7lyg","1366","768","de","ke06ng04","null","","","","learningBlock1","","","","<div style=""font-size:60px;""> </div>","null","FL","learning/Slide26.JPG","That was a wug.","",""
"","image-keyboard-response","85","482248","0.0-6.0-0.26","FL","tbo3kx7lyg","1366","768","de","ke06ng04","null","","","","","","","","learning/Slide27.JPG","null","","","","",""
"","html-keyboard-response","86","483428","0.0-6.0-1.26","FL","tbo3kx7lyg","1366","768","de","ke06ng04","null","","","","learningBlock1","","","","That was a bim.","null","","","","",""
"","html-keyboard-response","87","484448","0.0-6.0-2.26","FL","tbo3kx7lyg","1366","768","de","ke06ng04","null","","","","learningBlock1","","","","<div style=""font-size:60px;""> </div>","null","FL","learning/Slide27.JPG","That was a bim.","",""
"","image-keyboard-response","88","484629","0.0-6.0-0.27","FL","tbo3kx7lyg","1366","768","de","ke06ng04","null","","","","","","","","learning/Slide28.JPG","null","","","","",""
"","html-keyboard-response","89","485808","0.0-6.0-1.27","FL","tbo3kx7lyg","1366","768","de","ke06ng04","null","","","","learningBlock1","","","","That was a dep.","null","","","","",""
"","html-keyboard-response","90","486828","0.0-6.0-2.27","FL","tbo3kx7lyg","1366","768","de","ke06ng04","null","","","","learningBlock1","","","","<div style=""font-size:60px;""> </div>","null","FL","learning/Slide28.JPG","That was a dep.","",""
"","image-keyboard-response","91","487008","0.0-6.0-0.28","FL","tbo3kx7lyg","1366","768","de","ke06ng04","null","","","","","","","","learning/Slide29.JPG","null","","","","",""
"","html-keyboard-response","92","488189","0.0-6.0-1.28","FL","tbo3kx7lyg","1366","768","de","ke06ng04","null","","","","learningBlock1","","","","That was a tob.","null","","","","",""
"","html-keyboard-response","93","489208","0.0-6.0-2.28","FL","tbo3kx7lyg","1366","768","de","ke06ng04","null","","","","learningBlock1","","","","<div style=""font-size:60px;""> </div>","null","FL","learning/Slide29.JPG","That was a tob.","",""
"","image-keyboard-response","94","489388","0.0-6.0-0.29","FL","tbo3kx7lyg","1366","768","de","ke06ng04","null","","","","","","","","learning/Slide30.JPG","null","","","","",""
"","html-keyboard-response","95","490568","0.0-6.0-1.29","FL","tbo3kx7lyg","1366","768","de","ke06ng04","null","","","","learningBlock1","","","","That was a dep.","null","","","","",""
"","html-keyboard-response","96","491588","0.0-6.0-2.29","FL","tbo3kx7lyg","1366","768","de","ke06ng04","null","","","","learningBlock1","","","","<div style=""font-size:60px;""> </div>","null","FL","learning/Slide30.JPG","That was a dep.","",""
"","image-keyboard-response","97","491768","0.0-6.0-0.30","FL","tbo3kx7lyg","1366","768","de","ke06ng04","null","","","","","","","","learning/Slide31.JPG","null","","","","",""
"","html-keyboard-response","98","492948","0.0-6.0-1.30","FL","tbo3kx7lyg","1366","768","de","ke06ng04","null","","","","learningBlock1","","","","That was a wug.","null","","","","",""
"","html-keyboard-response","99","493968","0.0-6.0-2.30","FL","tbo3kx7lyg","1366","768","de","ke06ng04","null","","","","learningBlock1","","","","<div style=""font-size:60px;""> </div>","null","FL","learning/Slide31.JPG","That was a wug.","",""
"","image-keyboard-response","100","494148","0.0-6.0-0.31","FL","tbo3kx7lyg","1366","768","de","ke06ng04","null","","","","","","","","learning/Slide32.JPG","null","","","","",""
"","html-keyboard-response","101","495328","0.0-6.0-1.31","FL","tbo3kx7lyg","1366","768","de","ke06ng04","null","","","","learningBlock1","","","","That was a tob.","null","","","","",""
"","html-keyboard-response","102","496348","0.0-6.0-2.31","FL","tbo3kx7lyg","1366","768","de","ke06ng04","null","","","","learningBlock1","","","","<div style=""font-size:60px;""> </div>","null","FL","learning/Slide32.JPG","That was a tob.","",""
"","image-keyboard-response","103","496538","0.0-6.0-0.32","FL","tbo3kx7lyg","1366","768","de","ke06ng04","null","","","","","","","","learning/Slide33.JPG","null","","","","",""
"","html-keyboard-response","104","497719","0.0-6.0-1.32","FL","tbo3kx7lyg","1366","768","de","ke06ng04","null","","","","learningBlock1","","","","That was a bim.","null","","","","",""
"","html-keyboard-response","105","498738","0.0-6.0-2.32","FL","tbo3kx7lyg","1366","768","de","ke06ng04","null","","","","learningBlock1","","","","<div style=""font-size:60px;""> </div>","null","FL","learning/Slide33.JPG","That was a bim.","",""
"","image-keyboard-response","106","498918","0.0-6.0-0.33","FL","tbo3kx7lyg","1366","768","de","ke06ng04","null","","","","","","","","learning/Slide34.JPG","null","","","","",""
"","html-keyboard-response","107","500098","0.0-6.0-1.33","FL","tbo3kx7lyg","1366","768","de","ke06ng04","null","","","","learningBlock1","","","","That was a tob.","null","","","","",""
"","html-keyboard-response","108","501118","0.0-6.0-2.33","FL","tbo3kx7lyg","1366","768","de","ke06ng04","null","","","","learningBlock1","","","","<div style=""font-size:60px;""> </div>","null","FL","learning/Slide34.JPG","That was a tob.","",""
"","image-keyboard-response","109","501298","0.0-6.0-0.34","FL","tbo3kx7lyg","1366","768","de","ke06ng04","null","","","","","","","","learning/Slide35.JPG","null","","","","",""
"","html-keyboard-response","110","502478","0.0-6.0-1.34","FL","tbo3kx7lyg","1366","768","de","ke06ng04","null","","","","learningBlock1","","","","That was a bim.","null","","","","",""
"","html-keyboard-response","111","503498","0.0-6.0-2.34","FL","tbo3kx7lyg","1366","768","de","ke06ng04","null","","","","learningBlock1","","","","<div style=""font-size:60px;""> </div>","null","FL","learning/Slide35.JPG","That was a bim.","",""
"","image-keyboard-response","112","503677","0.0-6.0-0.35","FL","tbo3kx7lyg","1366","768","de","ke06ng04","null","","","","","","","","learning/Slide36.JPG","null","","","","",""
"","html-keyboard-response","113","504857","0.0-6.0-1.35","FL","tbo3kx7lyg","1366","768","de","ke06ng04","null","","","","learningBlock1","","","","That was a dep.","null","","","","",""
"","html-keyboard-response","114","505878","0.0-6.0-2.35","FL","tbo3kx7lyg","1366","768","de","ke06ng04","null","","","","learningBlock1","","","","<div style=""font-size:60px;""> </div>","null","FL","learning/Slide36.JPG","That was a dep.","",""
"","image-keyboard-response","115","506058","0.0-6.0-0.36","FL","tbo3kx7lyg","1366","768","de","ke06ng04","null","","","","","","","","learning/Slide37.JPG","null","","","","",""
"","html-keyboard-response","116","507238","0.0-6.0-1.36","FL","tbo3kx7lyg","1366","768","de","ke06ng04","null","","","","learningBlock1","","","","That was a tob.","null","","","","",""
"","html-keyboard-response","117","508258","0.0-6.0-2.36","FL","tbo3kx7lyg","1366","768","de","ke06ng04","null","","","","learningBlock1","","","","<div style=""font-size:60px;""> </div>","null","FL","learning/Slide37.JPG","That was a tob.","",""
"","image-keyboard-response","118","508438","0.0-6.0-0.37","FL","tbo3kx7lyg","1366","768","de","ke06ng04","null","","","","","","","","learning/Slide38.JPG","null","","","","",""
"","html-keyboard-response","119","509617","0.0-6.0-1.37","FL","tbo3kx7lyg","1366","768","de","ke06ng04","null","","","","learningBlock1","","","","That was a wug.","null","","","","",""
"","html-keyboard-response","120","510638","0.0-6.0-2.37","FL","tbo3kx7lyg","1366","768","de","ke06ng04","null","","","","learningBlock1","","","","<div style=""font-size:60px;""> </div>","null","FL","learning/Slide38.JPG","That was a wug.","",""
"","image-keyboard-response","121","510818","0.0-6.0-0.38","FL","tbo3kx7lyg","1366","768","de","ke06ng04","null","","","","","","","","learning/Slide39.JPG","null","","","","",""
"","html-keyboard-response","122","511998","0.0-6.0-1.38","FL","tbo3kx7lyg","1366","768","de","ke06ng04","null","","","","learningBlock1","","","","That was a bim.","null","","","","",""
"","html-keyboard-response","123","513018","0.0-6.0-2.38","FL","tbo3kx7lyg","1366","768","de","ke06ng04","null","","","","learningBlock1","","","","<div style=""font-size:60px;""> </div>","null","FL","learning/Slide39.JPG","That was a bim.","",""
"","image-keyboard-response","124","513198","0.0-6.0-0.39","FL","tbo3kx7lyg","1366","768","de","ke06ng04","null","","","","","","","","learning/Slide40.JPG","null","","","","",""
"","html-keyboard-response","125","514358","0.0-6.0-1.39","FL","tbo3kx7lyg","1366","768","de","ke06ng04","null","","","","learningBlock1","","","","That was a tob.","null","","","","",""
"","html-keyboard-response","126","515378","0.0-6.0-2.39","FL","tbo3kx7lyg","1366","768","de","ke06ng04","null","","","","learningBlock1","","","","<div style=""font-size:60px;""> </div>","null","FL","learning/Slide40.JPG","That was a tob.","",""
"","image-keyboard-response","127","515557","0.0-6.0-0.40","FL","tbo3kx7lyg","1366","768","de","ke06ng04","null","","","","","","","","learning/Slide41.JPG","null","","","","",""
"","html-keyboard-response","128","516738","0.0-6.0-1.40","FL","tbo3kx7lyg","1366","768","de","ke06ng04","null","","","","learningBlock1","","","","That was a bim.","null","","","","",""
"","html-keyboard-response","129","517757","0.0-6.0-2.40","FL","tbo3kx7lyg","1366","768","de","ke06ng04","null","","","","learningBlock1","","","","<div style=""font-size:60px;""> </div>","null","FL","learning/Slide41.JPG","That was a bim.","",""
"","image-keyboard-response","130","517938","0.0-6.0-0.41","FL","tbo3kx7lyg","1366","768","de","ke06ng04","null","","","","","","","","learning/Slide42.JPG","null","","","","",""
"","html-keyboard-response","131","519118","0.0-6.0-1.41","FL","tbo3kx7lyg","1366","768","de","ke06ng04","null","","","","learningBlock1","","","","That was a dep.","null","","","","",""
"","html-keyboard-response","132","520137","0.0-6.0-2.41","FL","tbo3kx7lyg","1366","768","de","ke06ng04","null","","","","learningBlock1","","","","<div style=""font-size:60px;""> </div>","null","FL","learning/Slide42.JPG","That was a dep.","",""
"","image-keyboard-response","133","520318","0.0-6.0-0.42","FL","tbo3kx7lyg","1366","768","de","ke06ng04","null","","","","","","","","learning/Slide43.JPG","null","","","","",""
"","html-keyboard-response","134","521497","0.0-6.0-1.42","FL","tbo3kx7lyg","1366","768","de","ke06ng04","null","","","","learningBlock1","","","","That was a wug.","null","","","","",""
"","html-keyboard-response","135","522518","0.0-6.0-2.42","FL","tbo3kx7lyg","1366","768","de","ke06ng04","null","","","","learningBlock1","","","","<div style=""font-size:60px;""> </div>","null","FL","learning/Slide43.JPG","That was a wug.","",""
"","image-keyboard-response","136","522718","0.0-6.0-0.43","FL","tbo3kx7lyg","1366","768","de","ke06ng04","null","","","","","","","","learning/Slide44.JPG","null","","","","",""
"","html-keyboard-response","137","523888","0.0-6.0-1.43","FL","tbo3kx7lyg","1366","768","de","ke06ng04","null","","","","learningBlock1","","","","That was a bim.","null","","","","",""
"","html-keyboard-response","138","524908","0.0-6.0-2.43","FL","tbo3kx7lyg","1366","768","de","ke06ng04","null","","","","learningBlock1","","","","<div style=""font-size:60px;""> </div>","null","FL","learning/Slide44.JPG","That was a bim.","",""
"","image-keyboard-response","139","525088","0.0-6.0-0.44","FL","tbo3kx7lyg","1366","768","de","ke06ng04","null","","","","","","","","learning/Slide45.JPG","null","","","","",""
"","html-keyboard-response","140","526268","0.0-6.0-1.44","FL","tbo3kx7lyg","1366","768","de","ke06ng04","null","","","","learningBlock1","","","","That was a wug.","null","","","","",""
"","html-keyboard-response","141","527288","0.0-6.0-2.44","FL","tbo3kx7lyg","1366","768","de","ke06ng04","null","","","","learningBlock1","","","","<div style=""font-size:60px;""> </div>","null","FL","learning/Slide45.JPG","That was a wug.","",""
"","image-keyboard-response","142","527468","0.0-6.0-0.45","FL","tbo3kx7lyg","1366","768","de","ke06ng04","null","","","","","","","","learning/Slide46.JPG","null","","","","",""
"","html-keyboard-response","143","528648","0.0-6.0-1.45","FL","tbo3kx7lyg","1366","768","de","ke06ng04","null","","","","learningBlock1","","","","That was a dep.","null","","","","",""
"","html-keyboard-response","144","529668","0.0-6.0-2.45","FL","tbo3kx7lyg","1366","768","de","ke06ng04","null","","","","learningBlock1","","","","<div style=""font-size:60px;""> </div>","null","FL","learning/Slide46.JPG","That was a dep.","",""
"","image-keyboard-response","145","529848","0.0-6.0-0.46","FL","tbo3kx7lyg","1366","768","de","ke06ng04","null","","","","","","","","learning/Slide47.JPG","null","","","","",""
"","html-keyboard-response","146","531028","0.0-6.0-1.46","FL","tbo3kx7lyg","1366","768","de","ke06ng04","null","","","","learningBlock1","","","","That was a tob.","null","","","","",""
"","html-keyboard-response","147","532048","0.0-6.0-2.46","FL","tbo3kx7lyg","1366","768","de","ke06ng04","null","","","","learningBlock1","","","","<div style=""font-size:60px;""> </div>","null","FL","learning/Slide47.JPG","That was a tob.","",""
"","image-keyboard-response","148","532228","0.0-6.0-0.47","FL","tbo3kx7lyg","1366","768","de","ke06ng04","null","","","","","","","","learning/Slide48.JPG","null","","","","",""
"","html-keyboard-response","149","533408","0.0-6.0-1.47","FL","tbo3kx7lyg","1366","768","de","ke06ng04","null","","","","learningBlock1","","","","That was a bim.","null","","","","",""
"","html-keyboard-response","150","534428","0.0-6.0-2.47","FL","tbo3kx7lyg","1366","768","de","ke06ng04","null","","","","learningBlock1","","","","<div style=""font-size:60px;""> </div>","null","FL","learning/Slide48.JPG","That was a bim.","",""
"","image-keyboard-response","151","534608","0.0-6.0-0.48","FL","tbo3kx7lyg","1366","768","de","ke06ng04","null","","","","","","","","learning/Slide49.JPG","null","","","","",""
"","html-keyboard-response","152","535788","0.0-6.0-1.48","FL","tbo3kx7lyg","1366","768","de","ke06ng04","null","","","","learningBlock1","","","","That was a dep.","null","","","","",""
"","html-keyboard-response","153","536808","0.0-6.0-2.48","FL","tbo3kx7lyg","1366","768","de","ke06ng04","null","","","","learningBlock1","","","","<div style=""font-size:60px;""> </div>","null","FL","learning/Slide49.JPG","That was a dep.","",""
"","image-keyboard-response","154","536988","0.0-6.0-0.49","FL","tbo3kx7lyg","1366","768","de","ke06ng04","null","","","","","","","","learning/Slide50.JPG","null","","","","",""
"","html-keyboard-response","155","538168","0.0-6.0-1.49","FL","tbo3kx7lyg","1366","768","de","ke06ng04","null","","","","learningBlock1","","","","That was a tob.","null","","","","",""
"","html-keyboard-response","156","539188","0.0-6.0-2.49","FL","tbo3kx7lyg","1366","768","de","ke06ng04","null","","","","learningBlock1","","","","<div style=""font-size:60px;""> </div>","null","FL","learning/Slide50.JPG","That was a tob.","",""
"","image-keyboard-response","157","539368","0.0-6.0-0.50","FL","tbo3kx7lyg","1366","768","de","ke06ng04","null","","","","","","","","learning/Slide51.JPG","null","","","","",""
"","html-keyboard-response","158","540547","0.0-6.0-1.50","FL","tbo3kx7lyg","1366","768","de","ke06ng04","null","","","","learningBlock1","","","","That was a bim.","null","","","","",""
"","html-keyboard-response","159","541567","0.0-6.0-2.50","FL","tbo3kx7lyg","1366","768","de","ke06ng04","null","","","","learningBlock1","","","","<div style=""font-size:60px;""> </div>","null","FL","learning/Slide51.JPG","That was a bim.","",""
"","image-keyboard-response","160","541748","0.0-6.0-0.51","FL","tbo3kx7lyg","1366","768","de","ke06ng04","null","","","","","","","","learning/Slide52.JPG","null","","","","",""
"","html-keyboard-response","161","542906","0.0-6.0-1.51","FL","tbo3kx7lyg","1366","768","de","ke06ng04","null","","","","learningBlock1","","","","That was a wug.","null","","","","",""
"","html-keyboard-response","162","543928","0.0-6.0-2.51","FL","tbo3kx7lyg","1366","768","de","ke06ng04","null","","","","learningBlock1","","","","<div style=""font-size:60px;""> </div>","null","FL","learning/Slide52.JPG","That was a wug.","",""
"","image-keyboard-response","163","544107","0.0-6.0-0.52","FL","tbo3kx7lyg","1366","768","de","ke06ng04","null","","","","","","","","learning/Slide53.JPG","null","","","","",""
"","html-keyboard-response","164","545287","0.0-6.0-1.52","FL","tbo3kx7lyg","1366","768","de","ke06ng04","null","","","","learningBlock1","","","","That was a tob.","null","","","","",""
"","html-keyboard-response","165","546308","0.0-6.0-2.52","FL","tbo3kx7lyg","1366","768","de","ke06ng04","null","","","","learningBlock1","","","","<div style=""font-size:60px;""> </div>","null","FL","learning/Slide53.JPG","That was a tob.","",""
"","image-keyboard-response","166","546487","0.0-6.0-0.53","FL","tbo3kx7lyg","1366","768","de","ke06ng04","null","","","","","","","","learning/Slide54.JPG","null","","","","",""
"","html-keyboard-response","167","547667","0.0-6.0-1.53","FL","tbo3kx7lyg","1366","768","de","ke06ng04","null","","","","learningBlock1","","","","That was a dep.","null","","","","",""
"","html-keyboard-response","168","548688","0.0-6.0-2.53","FL","tbo3kx7lyg","1366","768","de","ke06ng04","null","","","","learningBlock1","","","","<div style=""font-size:60px;""> </div>","null","FL","learning/Slide54.JPG","That was a dep.","",""
"","image-keyboard-response","169","548868","0.0-6.0-0.54","FL","tbo3kx7lyg","1366","768","de","ke06ng04","null","","","","","","","","learning/Slide55.JPG","null","","","","",""
"","html-keyboard-response","170","550047","0.0-6.0-1.54","FL","tbo3kx7lyg","1366","768","de","ke06ng04","null","","","","learningBlock1","","","","That was a bim.","null","","","","",""
"","html-keyboard-response","171","551067","0.0-6.0-2.54","FL","tbo3kx7lyg","1366","768","de","ke06ng04","null","","","","learningBlock1","","","","<div style=""font-size:60px;""> </div>","null","FL","learning/Slide55.JPG","That was a bim.","",""
"","image-keyboard-response","172","551247","0.0-6.0-0.55","FL","tbo3kx7lyg","1366","768","de","ke06ng04","null","","","","","","","","learning/Slide56.JPG","null","","","","",""
"","html-keyboard-response","173","552427","0.0-6.0-1.55","FL","tbo3kx7lyg","1366","768","de","ke06ng04","null","","","","learningBlock1","","","","That was a tob.","null","","","","",""
"","html-keyboard-response","174","553447","0.0-6.0-2.55","FL","tbo3kx7lyg","1366","768","de","ke06ng04","null","","","","learningBlock1","","","","<div style=""font-size:60px;""> </div>","null","FL","learning/Slide56.JPG","That was a tob.","",""
"","image-keyboard-response","175","553627","0.0-6.0-0.56","FL","tbo3kx7lyg","1366","768","de","ke06ng04","null","","","","","","","","learning/Slide57.JPG","null","","","","",""
"","html-keyboard-response","176","554808","0.0-6.0-1.56","FL","tbo3kx7lyg","1366","768","de","ke06ng04","null","","","","learningBlock1","","","","That was a dep.","null","","","","",""
"","html-keyboard-response","177","555828","0.0-6.0-2.56","FL","tbo3kx7lyg","1366","768","de","ke06ng04","null","","","","learningBlock1","","","","<div style=""font-size:60px;""> </div>","null","FL","learning/Slide57.JPG","That was a dep.","",""
"","image-keyboard-response","178","556007","0.0-6.0-0.57","FL","tbo3kx7lyg","1366","768","de","ke06ng04","null","","","","","","","","learning/Slide58.JPG","null","","","","",""
"","html-keyboard-response","179","557187","0.0-6.0-1.57","FL","tbo3kx7lyg","1366","768","de","ke06ng04","null","","","","learningBlock1","","","","That was a wug.","null","","","","",""
"","html-keyboard-response","180","558207","0.0-6.0-2.57","FL","tbo3kx7lyg","1366","768","de","ke06ng04","null","","","","learningBlock1","","","","<div style=""font-size:60px;""> </div>","null","FL","learning/Slide58.JPG","That was a wug.","",""
"","image-keyboard-response","181","558387","0.0-6.0-0.58","FL","tbo3kx7lyg","1366","768","de","ke06ng04","null","","","","","","","","learning/Slide59.JPG","null","","","","",""
"","html-keyboard-response","182","559567","0.0-6.0-1.58","FL","tbo3kx7lyg","1366","768","de","ke06ng04","null","","","","learningBlock1","","","","That was a dep.","null","","","","",""
"","html-keyboard-response","183","560587","0.0-6.0-2.58","FL","tbo3kx7lyg","1366","768","de","ke06ng04","null","","","","learningBlock1","","","","<div style=""font-size:60px;""> </div>","null","FL","learning/Slide59.JPG","That was a dep.","",""
"","image-keyboard-response","184","560767","0.0-6.0-0.59","FL","tbo3kx7lyg","1366","768","de","ke06ng04","null","","","","","","","","learning/Slide60.JPG","null","","","","",""
"","html-keyboard-response","185","561948","0.0-6.0-1.59","FL","tbo3kx7lyg","1366","768","de","ke06ng04","null","","","","learningBlock1","","","","That was a wug.","null","","","","",""
"","html-keyboard-response","186","562967","0.0-6.0-2.59","FL","tbo3kx7lyg","1366","768","de","ke06ng04","null","","","","learningBlock1","","","","<div style=""font-size:60px;""> </div>","null","FL","learning/Slide60.JPG","That was a wug.","",""
"","image-keyboard-response","187","563147","0.0-6.0-0.60","FL","tbo3kx7lyg","1366","768","de","ke06ng04","null","","","","","","","","learning/Slide61.JPG","null","","","","",""
"","html-keyboard-response","188","564327","0.0-6.0-1.60","FL","tbo3kx7lyg","1366","768","de","ke06ng04","null","","","","learningBlock1","","","","That was a bim.","null","","","","",""
"","html-keyboard-response","189","565347","0.0-6.0-2.60","FL","tbo3kx7lyg","1366","768","de","ke06ng04","null","","","","learningBlock1","","","","<div style=""font-size:60px;""> </div>","null","FL","learning/Slide61.JPG","That was a bim.","",""
"","image-keyboard-response","190","565547","0.0-6.0-0.61","FL","tbo3kx7lyg","1366","768","de","ke06ng04","null","","","","","","","","learning/Slide62.JPG","null","","","","",""
"","html-keyboard-response","191","566722","0.0-6.0-1.61","FL","tbo3kx7lyg","1366","768","de","ke06ng04","null","","","","learningBlock1","","","","That was a dep.","null","","","","",""
"","html-keyboard-response","192","567724","0.0-6.0-2.61","FL","tbo3kx7lyg","1366","768","de","ke06ng04","null","","","","learningBlock1","","","","<div style=""font-size:60px;""> </div>","null","FL","learning/Slide62.JPG","That was a dep.","",""
"","image-keyboard-response","193","567908","0.0-6.0-0.62","FL","tbo3kx7lyg","1366","768","de","ke06ng04","null","","","","","","","","learning/Slide63.JPG","null","","","","",""
"","html-keyboard-response","194","569087","0.0-6.0-1.62","FL","tbo3kx7lyg","1366","768","de","ke06ng04","null","","","","learningBlock1","","","","That was a bim.","null","","","","",""
"","html-keyboard-response","195","570107","0.0-6.0-2.62","FL","tbo3kx7lyg","1366","768","de","ke06ng04","null","","","","learningBlock1","","","","<div style=""font-size:60px;""> </div>","null","FL","learning/Slide63.JPG","That was a bim.","",""
"","image-keyboard-response","196","570287","0.0-6.0-0.63","FL","tbo3kx7lyg","1366","768","de","ke06ng04","null","","","","","","","","learning/Slide64.JPG","null","","","","",""
"","html-keyboard-response","197","571467","0.0-6.0-1.63","FL","tbo3kx7lyg","1366","768","de","ke06ng04","null","","","","learningBlock1","","","","That was a tob.","null","","","","",""
"","html-keyboard-response","198","572488","0.0-6.0-2.63","FL","tbo3kx7lyg","1366","768","de","ke06ng04","null","","","","learningBlock1","","","","<div style=""font-size:60px;""> </div>","null","FL","learning/Slide64.JPG","That was a tob.","",""
"","image-keyboard-response","199","572668","0.0-6.0-0.64","FL","tbo3kx7lyg","1366","768","de","ke06ng04","null","","","","","","","","learning/Slide65.JPG","null","","","","",""
"","html-keyboard-response","200","573847","0.0-6.0-1.64","FL","tbo3kx7lyg","1366","768","de","ke06ng04","null","","","","learningBlock1","","","","That was a wug.","null","","","","",""
"","html-keyboard-response","201","574867","0.0-6.0-2.64","FL","tbo3kx7lyg","1366","768","de","ke06ng04","null","","","","learningBlock1","","","","<div style=""font-size:60px;""> </div>","null","FL","learning/Slide65.JPG","That was a wug.","",""
"","image-keyboard-response","202","575048","0.0-6.0-0.65","FL","tbo3kx7lyg","1366","768","de","ke06ng04","null","","","","","","","","learning/Slide66.JPG","null","","","","",""
"","html-keyboard-response","203","576227","0.0-6.0-1.65","FL","tbo3kx7lyg","1366","768","de","ke06ng04","null","","","","learningBlock1","","","","That was a dep.","null","","","","",""
"","html-keyboard-response","204","577247","0.0-6.0-2.65","FL","tbo3kx7lyg","1366","768","de","ke06ng04","null","","","","learningBlock1","","","","<div style=""font-size:60px;""> </div>","null","FL","learning/Slide66.JPG","That was a dep.","",""
"","image-keyboard-response","205","577428","0.0-6.0-0.66","FL","tbo3kx7lyg","1366","768","de","ke06ng04","null","","","","","","","","learning/Slide67.JPG","null","","","","",""
"","html-keyboard-response","206","578607","0.0-6.0-1.66","FL","tbo3kx7lyg","1366","768","de","ke06ng04","null","","","","learningBlock1","","","","That was a tob.","null","","","","",""
"","html-keyboard-response","207","579627","0.0-6.0-2.66","FL","tbo3kx7lyg","1366","768","de","ke06ng04","null","","","","learningBlock1","","","","<div style=""font-size:60px;""> </div>","null","FL","learning/Slide67.JPG","That was a tob.","",""
"","image-keyboard-response","208","579807","0.0-6.0-0.67","FL","tbo3kx7lyg","1366","768","de","ke06ng04","null","","","","","","","","learning/Slide68.JPG","null","","","","",""
"","html-keyboard-response","209","580967","0.0-6.0-1.67","FL","tbo3kx7lyg","1366","768","de","ke06ng04","null","","","","learningBlock1","","","","That was a wug.","null","","","","",""
"","html-keyboard-response","210","581988","0.0-6.0-2.67","FL","tbo3kx7lyg","1366","768","de","ke06ng04","null","","","","learningBlock1","","","","<div style=""font-size:60px;""> </div>","null","FL","learning/Slide68.JPG","That was a wug.","",""
"","image-keyboard-response","211","582167","0.0-6.0-0.68","FL","tbo3kx7lyg","1366","768","de","ke06ng04","null","","","","","","","","learning/Slide69.JPG","null","","","","",""
"","html-keyboard-response","212","583347","0.0-6.0-1.68","FL","tbo3kx7lyg","1366","768","de","ke06ng04","null","","","","learningBlock1","","","","That was a tob.","null","","","","",""
"","html-keyboard-response","213","584367","0.0-6.0-2.68","FL","tbo3kx7lyg","1366","768","de","ke06ng04","null","","","","learningBlock1","","","","<div style=""font-size:60px;""> </div>","null","FL","learning/Slide69.JPG","That was a tob.","",""
"","image-keyboard-response","214","584547","0.0-6.0-0.69","FL","tbo3kx7lyg","1366","768","de","ke06ng04","null","","","","","","","","learning/Slide70.JPG","null","","","","",""
"","html-keyboard-response","215","585727","0.0-6.0-1.69","FL","tbo3kx7lyg","1366","768","de","ke06ng04","null","","","","learningBlock1","","","","That was a dep.","null","","","","",""
"","html-keyboard-response","216","586747","0.0-6.0-2.69","FL","tbo3kx7lyg","1366","768","de","ke06ng04","null","","","","learningBlock1","","","","<div style=""font-size:60px;""> </div>","null","FL","learning/Slide70.JPG","That was a dep.","",""
"","image-keyboard-response","217","586928","0.0-6.0-0.70","FL","tbo3kx7lyg","1366","768","de","ke06ng04","null","","","","","","","","learning/Slide71.JPG","null","","","","",""
"","html-keyboard-response","218","588107","0.0-6.0-1.70","FL","tbo3kx7lyg","1366","768","de","ke06ng04","null","","","","learningBlock1","","","","That was a wug.","null","","","","",""
"","html-keyboard-response","219","589127","0.0-6.0-2.70","FL","tbo3kx7lyg","1366","768","de","ke06ng04","null","","","","learningBlock1","","","","<div style=""font-size:60px;""> </div>","null","FL","learning/Slide71.JPG","That was a wug.","",""
"","image-keyboard-response","220","589307","0.0-6.0-0.71","FL","tbo3kx7lyg","1366","768","de","ke06ng04","null","","","","","","","","learning/Slide72.JPG","null","","","","",""
"","html-keyboard-response","221","590487","0.0-6.0-1.71","FL","tbo3kx7lyg","1366","768","de","ke06ng04","null","","","","learningBlock1","","","","That was a bim.","null","","","","",""
"","html-keyboard-response","222","591507","0.0-6.0-2.71","FL","tbo3kx7lyg","1366","768","de","ke06ng04","null","","","","learningBlock1","","","","<div style=""font-size:60px;""> </div>","null","FL","learning/Slide72.JPG","That was a bim.","",""
"","image-keyboard-response","223","591687","0.0-6.0-0.72","FL","tbo3kx7lyg","1366","768","de","ke06ng04","null","","","","","","","","learning/Slide73.JPG","null","","","","",""
"","html-keyboard-response","224","592848","0.0-6.0-1.72","FL","tbo3kx7lyg","1366","768","de","ke06ng04","null","","","","learningBlock1","","","","That was a wug.","null","","","","",""
"","html-keyboard-response","225","593867","0.0-6.0-2.72","FL","tbo3kx7lyg","1366","768","de","ke06ng04","null","","","","learningBlock1","","","","<div style=""font-size:60px;""> </div>","null","FL","learning/Slide73.JPG","That was a wug.","",""
"","image-keyboard-response","226","594067","0.0-6.0-0.73","FL","tbo3kx7lyg","1366","768","de","ke06ng04","null","","","","","","","","learning/Slide74.JPG","null","","","","",""
"","html-keyboard-response","227","595243","0.0-6.0-1.73","FL","tbo3kx7lyg","1366","768","de","ke06ng04","null","","","","learningBlock1","","","","That was a dep.","null","","","","",""
"","html-keyboard-response","228","596245","0.0-6.0-2.73","FL","tbo3kx7lyg","1366","768","de","ke06ng04","null","","","","learningBlock1","","","","<div style=""font-size:60px;""> </div>","null","FL","learning/Slide74.JPG","That was a dep.","",""
"","image-keyboard-response","229","596427","0.0-6.0-0.74","FL","tbo3kx7lyg","1366","768","de","ke06ng04","null","","","","","","","","learning/Slide75.JPG","null","","","","",""
"","html-keyboard-response","230","597607","0.0-6.0-1.74","FL","tbo3kx7lyg","1366","768","de","ke06ng04","null","","","","learningBlock1","","","","That was a tob.","null","","","","",""
"","html-keyboard-response","231","598627","0.0-6.0-2.74","FL","tbo3kx7lyg","1366","768","de","ke06ng04","null","","","","learningBlock1","","","","<div style=""font-size:60px;""> </div>","null","FL","learning/Slide75.JPG","That was a tob.","",""
"","image-keyboard-response","232","598808","0.0-6.0-0.75","FL","tbo3kx7lyg","1366","768","de","ke06ng04","null","","","","","","","","learning/Slide76.JPG","null","","","","",""
"","html-keyboard-response","233","599987","0.0-6.0-1.75","FL","tbo3kx7lyg","1366","768","de","ke06ng04","null","","","","learningBlock1","","","","That was a bim.","null","","","","",""
"","html-keyboard-response","234","601007","0.0-6.0-2.75","FL","tbo3kx7lyg","1366","768","de","ke06ng04","null","","","","learningBlock1","","","","<div style=""font-size:60px;""> </div>","null","FL","learning/Slide76.JPG","That was a bim.","",""
"","image-keyboard-response","235","601187","0.0-6.0-0.76","FL","tbo3kx7lyg","1366","768","de","ke06ng04","null","","","","","","","","learning/Slide77.JPG","null","","","","",""
"","html-keyboard-response","236","602367","0.0-6.0-1.76","FL","tbo3kx7lyg","1366","768","de","ke06ng04","null","","","","learningBlock1","","","","That was a tob.","null","","","","",""
"","html-keyboard-response","237","603387","0.0-6.0-2.76","FL","tbo3kx7lyg","1366","768","de","ke06ng04","null","","","","learningBlock1","","","","<div style=""font-size:60px;""> </div>","null","FL","learning/Slide77.JPG","That was a tob.","",""
"","image-keyboard-response","238","603567","0.0-6.0-0.77","FL","tbo3kx7lyg","1366","768","de","ke06ng04","null","","","","","","","","learning/Slide78.JPG","null","","","","",""
"","html-keyboard-response","239","604746","0.0-6.0-1.77","FL","tbo3kx7lyg","1366","768","de","ke06ng04","null","","","","learningBlock1","","","","That was a wug.","null","","","","",""
"","html-keyboard-response","240","605767","0.0-6.0-2.77","FL","tbo3kx7lyg","1366","768","de","ke06ng04","null","","","","learningBlock1","","","","<div style=""font-size:60px;""> </div>","null","FL","learning/Slide78.JPG","That was a wug.","",""
"","image-keyboard-response","241","605947","0.0-6.0-0.78","FL","tbo3kx7lyg","1366","768","de","ke06ng04","null","","","","","","","","learning/Slide79.JPG","null","","","","",""
"","html-keyboard-response","242","607127","0.0-6.0-1.78","FL","tbo3kx7lyg","1366","768","de","ke06ng04","null","","","","learningBlock1","","","","That was a bim.","null","","","","",""
"","html-keyboard-response","243","608147","0.0-6.0-2.78","FL","tbo3kx7lyg","1366","768","de","ke06ng04","null","","","","learningBlock1","","","","<div style=""font-size:60px;""> </div>","null","FL","learning/Slide79.JPG","That was a bim.","",""
"","image-keyboard-response","244","608327","0.0-6.0-0.79","FL","tbo3kx7lyg","1366","768","de","ke06ng04","null","","","","","","","","learning/Slide80.JPG","null","","","","",""
"","html-keyboard-response","245","609507","0.0-6.0-1.79","FL","tbo3kx7lyg","1366","768","de","ke06ng04","null","","","","learningBlock1","","","","That was a tob.","null","","","","",""
"","html-keyboard-response","246","610526","0.0-6.0-2.79","FL","tbo3kx7lyg","1366","768","de","ke06ng04","null","","","","learningBlock1","","","","<div style=""font-size:60px;""> </div>","null","FL","learning/Slide80.JPG","That was a tob.","",""
"","instructions","247","616693","0.0-7.0","FL","tbo3kx7lyg","1366","768","de","ke06ng04","NA","","","[{""page_index"":0,""viewing_time"":6164}]","instructions","","","","","","","","","",""
"","image-keyboard-response","248","616876","0.0-8.0-0.0","FL","tbo3kx7lyg","1366","768","de","ke06ng04","null","","","","","","","","learning/Slide81.JPG","null","","","","",""
"","html-keyboard-response","249","618056","0.0-8.0-1.0","FL","tbo3kx7lyg","1366","768","de","ke06ng04","null","","","","learningBlock2","","","","That was a wug.","null","","","","",""
"","html-keyboard-response","250","619077","0.0-8.0-2.0","FL","tbo3kx7lyg","1366","768","de","ke06ng04","null","","","","learningBlock2","","","","<div style=""font-size:60px;""> </div>","null","FL","learning/Slide81.JPG","That was a wug.","",""
"","image-keyboard-response","251","619257","0.0-8.0-0.1","FL","tbo3kx7lyg","1366","768","de","ke06ng04","null","","","","","","","","learning/Slide82.JPG","null","","","","",""
"","html-keyboard-response","252","620426","0.0-8.0-1.1","FL","tbo3kx7lyg","1366","768","de","ke06ng04","null","","","","learningBlock2","","","","That was a bim.","null","","","","",""
"","html-keyboard-response","253","621447","0.0-8.0-2.1","FL","tbo3kx7lyg","1366","768","de","ke06ng04","null","","","","learningBlock2","","","","<div style=""font-size:60px;""> </div>","null","FL","learning/Slide82.JPG","That was a bim.","",""
"","image-keyboard-response","254","621627","0.0-8.0-0.2","FL","tbo3kx7lyg","1366","768","de","ke06ng04","null","","","","","","","","learning/Slide83.JPG","null","","","","",""
"","html-keyboard-response","255","622807","0.0-8.0-1.2","FL","tbo3kx7lyg","1366","768","de","ke06ng04","null","","","","learningBlock2","","","","That was a wug.","null","","","","",""
"","html-keyboard-response","256","623826","0.0-8.0-2.2","FL","tbo3kx7lyg","1366","768","de","ke06ng04","null","","","","learningBlock2","","","","<div style=""font-size:60px;""> </div>","null","FL","learning/Slide83.JPG","That was a wug.","",""
"","image-keyboard-response","257","624006","0.0-8.0-0.3","FL","tbo3kx7lyg","1366","768","de","ke06ng04","null","","","","","","","","learning/Slide84.JPG","null","","","","",""
"","html-keyboard-response","258","625186","0.0-8.0-1.3","FL","tbo3kx7lyg","1366","768","de","ke06ng04","null","","","","learningBlock2","","","","That was a dep.","null","","","","",""
"","html-keyboard-response","259","626206","0.0-8.0-2.3","FL","tbo3kx7lyg","1366","768","de","ke06ng04","null","","","","learningBlock2","","","","<div style=""font-size:60px;""> </div>","null","FL","learning/Slide84.JPG","That was a dep.","",""
"","image-keyboard-response","260","626386","0.0-8.0-0.4","FL","tbo3kx7lyg","1366","768","de","ke06ng04","null","","","","","","","","learning/Slide85.JPG","null","","","","",""
"","html-keyboard-response","261","627566","0.0-8.0-1.4","FL","tbo3kx7lyg","1366","768","de","ke06ng04","null","","","","learningBlock2","","","","That was a bim.","null","","","","",""
"","html-keyboard-response","262","628587","0.0-8.0-2.4","FL","tbo3kx7lyg","1366","768","de","ke06ng04","null","","","","learningBlock2","","","","<div style=""font-size:60px;""> </div>","null","FL","learning/Slide85.JPG","That was a bim.","",""
"","image-keyboard-response","263","628767","0.0-8.0-0.5","FL","tbo3kx7lyg","1366","768","de","ke06ng04","null","","","","","","","","learning/Slide86.JPG","null","","","","",""
"","html-keyboard-response","264","629947","0.0-8.0-1.5","FL","tbo3kx7lyg","1366","768","de","ke06ng04","null","","","","learningBlock2","","","","That was a tob.","null","","","","",""
"","html-keyboard-response","265","630966","0.0-8.0-2.5","FL","tbo3kx7lyg","1366","768","de","ke06ng04","null","","","","learningBlock2","","","","<div style=""font-size:60px;""> </div>","null","FL","learning/Slide86.JPG","That was a tob.","",""
"","image-keyboard-response","266","631146","0.0-8.0-0.6","FL","tbo3kx7lyg","1366","768","de","ke06ng04","null","","","","","","","","learning/Slide87.JPG","null","","","","",""
"","html-keyboard-response","267","632327","0.0-8.0-1.6","FL","tbo3kx7lyg","1366","768","de","ke06ng04","null","","","","learningBlock2","","","","That was a wug.","null","","","","",""
"","html-keyboard-response","268","633346","0.0-8.0-2.6","FL","tbo3kx7lyg","1366","768","de","ke06ng04","null","","","","learningBlock2","","","","<div style=""font-size:60px;""> </div>","null","FL","learning/Slide87.JPG","That was a wug.","",""
"","image-keyboard-response","269","633526","0.0-8.0-0.7","FL","tbo3kx7lyg","1366","768","de","ke06ng04","null","","","","","","","","learning/Slide88.JPG","null","","","","",""
"","html-keyboard-response","270","634706","0.0-8.0-1.7","FL","tbo3kx7lyg","1366","768","de","ke06ng04","null","","","","learningBlock2","","","","That was a tob.","null","","","","",""
"","html-keyboard-response","271","635726","0.0-8.0-2.7","FL","tbo3kx7lyg","1366","768","de","ke06ng04","null","","","","learningBlock2","","","","<div style=""font-size:60px;""> </div>","null","FL","learning/Slide88.JPG","That was a tob.","",""
"","image-keyboard-response","272","635906","0.0-8.0-0.8","FL","tbo3kx7lyg","1366","768","de","ke06ng04","null","","","","","","","","learning/Slide89.JPG","null","","","","",""
"","html-keyboard-response","273","637086","0.0-8.0-1.8","FL","tbo3kx7lyg","1366","768","de","ke06ng04","null","","","","learningBlock2","","","","That was a bim.","null","","","","",""
"","html-keyboard-response","274","638106","0.0-8.0-2.8","FL","tbo3kx7lyg","1366","768","de","ke06ng04","null","","","","learningBlock2","","","","<div style=""font-size:60px;""> </div>","null","FL","learning/Slide89.JPG","That was a bim.","",""
"","image-keyboard-response","275","638296","0.0-8.0-0.9","FL","tbo3kx7lyg","1366","768","de","ke06ng04","null","","","","","","","","learning/Slide90.JPG","null","","","","",""
"","html-keyboard-response","276","639477","0.0-8.0-1.9","FL","tbo3kx7lyg","1366","768","de","ke06ng04","null","","","","learningBlock2","","","","That was a dep.","null","","","","",""
"","html-keyboard-response","277","640497","0.0-8.0-2.9","FL","tbo3kx7lyg","1366","768","de","ke06ng04","null","","","","learningBlock2","","","","<div style=""font-size:60px;""> </div>","null","FL","learning/Slide90.JPG","That was a dep.","",""
"","image-keyboard-response","278","640676","0.0-8.0-0.10","FL","tbo3kx7lyg","1366","768","de","ke06ng04","null","","","","","","","","learning/Slide91.JPG","null","","","","",""
"","html-keyboard-response","279","641857","0.0-8.0-1.10","FL","tbo3kx7lyg","1366","768","de","ke06ng04","null","","","","learningBlock2","","","","That was a wug.","null","","","","",""
"","html-keyboard-response","280","642867","0.0-8.0-2.10","FL","tbo3kx7lyg","1366","768","de","ke06ng04","null","","","","learningBlock2","","","","<div style=""font-size:60px;""> </div>","null","FL","learning/Slide91.JPG","That was a wug.","",""
"","image-keyboard-response","281","643047","0.0-8.0-0.11","FL","tbo3kx7lyg","1366","768","de","ke06ng04","null","","","","","","","","learning/Slide92.JPG","null","","","","",""
"","html-keyboard-response","282","644227","0.0-8.0-1.11","FL","tbo3kx7lyg","1366","768","de","ke06ng04","null","","","","learningBlock2","","","","That was a tob.","null","","","","",""
"","html-keyboard-response","283","645246","0.0-8.0-2.11","FL","tbo3kx7lyg","1366","768","de","ke06ng04","null","","","","learningBlock2","","","","<div style=""font-size:60px;""> </div>","null","FL","learning/Slide92.JPG","That was a tob.","",""
"","image-keyboard-response","284","645426","0.0-8.0-0.12","FL","tbo3kx7lyg","1366","768","de","ke06ng04","null","","","","","","","","learning/Slide93.JPG","null","","","","",""
"","html-keyboard-response","285","646607","0.0-8.0-1.12","FL","tbo3kx7lyg","1366","768","de","ke06ng04","null","","","","learningBlock2","","","","That was a bim.","null","","","","",""
"","html-keyboard-response","286","647626","0.0-8.0-2.12","FL","tbo3kx7lyg","1366","768","de","ke06ng04","null","","","","learningBlock2","","","","<div style=""font-size:60px;""> </div>","null","FL","learning/Slide93.JPG","That was a bim.","",""
"","image-keyboard-response","287","647807","0.0-8.0-0.13","FL","tbo3kx7lyg","1366","768","de","ke06ng04","null","","","","","","","","learning/Slide94.JPG","null","","","","",""
"","html-keyboard-response","288","648986","0.0-8.0-1.13","FL","tbo3kx7lyg","1366","768","de","ke06ng04","null","","","","learningBlock2","","","","That was a tob.","null","","","","",""
"","html-keyboard-response","289","650006","0.0-8.0-2.13","FL","tbo3kx7lyg","1366","768","de","ke06ng04","null","","","","learningBlock2","","","","<div style=""font-size:60px;""> </div>","null","FL","learning/Slide94.JPG","That was a tob.","",""
"","image-keyboard-response","290","650186","0.0-8.0-0.14","FL","tbo3kx7lyg","1366","768","de","ke06ng04","null","","","","","","","","learning/Slide95.JPG","null","","","","",""
"","html-keyboard-response","291","651366","0.0-8.0-1.14","FL","tbo3kx7lyg","1366","768","de","ke06ng04","null","","","","learningBlock2","","","","That was a wug.","null","","","","",""
"","html-keyboard-response","292","652386","0.0-8.0-2.14","FL","tbo3kx7lyg","1366","768","de","ke06ng04","null","","","","learningBlock2","","","","<div style=""font-size:60px;""> </div>","null","FL","learning/Slide95.JPG","That was a wug.","",""
"","image-keyboard-response","293","652566","0.0-8.0-0.15","FL","tbo3kx7lyg","1366","768","de","ke06ng04","null","","","","","","","","learning/Slide96.JPG","null","","","","",""
"","html-keyboard-response","294","653747","0.0-8.0-1.15","FL","tbo3kx7lyg","1366","768","de","ke06ng04","null","","","","learningBlock2","","","","That was a tob.","null","","","","",""
"","html-keyboard-response","295","654766","0.0-8.0-2.15","FL","tbo3kx7lyg","1366","768","de","ke06ng04","null","","","","learningBlock2","","","","<div style=""font-size:60px;""> </div>","null","FL","learning/Slide96.JPG","That was a tob.","",""
"","image-keyboard-response","296","654947","0.0-8.0-0.16","FL","tbo3kx7lyg","1366","768","de","ke06ng04","null","","","","","","","","learning/Slide97.JPG","null","","","","",""
"","html-keyboard-response","297","656126","0.0-8.0-1.16","FL","tbo3kx7lyg","1366","768","de","ke06ng04","null","","","","learningBlock2","","","","That was a dep.","null","","","","",""
"","html-keyboard-response","298","657146","0.0-8.0-2.16","FL","tbo3kx7lyg","1366","768","de","ke06ng04","null","","","","learningBlock2","","","","<div style=""font-size:60px;""> </div>","null","FL","learning/Slide97.JPG","That was a dep.","",""
"","image-keyboard-response","299","657326","0.0-8.0-0.17","FL","tbo3kx7lyg","1366","768","de","ke06ng04","null","","","","","","","","learning/Slide98.JPG","null","","","","",""
"","html-keyboard-response","300","658506","0.0-8.0-1.17","FL","tbo3kx7lyg","1366","768","de","ke06ng04","null","","","","learningBlock2","","","","That was a bim.","null","","","","",""
"","html-keyboard-response","301","659526","0.0-8.0-2.17","FL","tbo3kx7lyg","1366","768","de","ke06ng04","null","","","","learningBlock2","","","","<div style=""font-size:60px;""> </div>","null","FL","learning/Slide98.JPG","That was a bim.","",""
"","image-keyboard-response","302","659707","0.0-8.0-0.18","FL","tbo3kx7lyg","1366","768","de","ke06ng04","null","","","","","","","","learning/Slide99.JPG","null","","","","",""
"","html-keyboard-response","303","660866","0.0-8.0-1.18","FL","tbo3kx7lyg","1366","768","de","ke06ng04","null","","","","learningBlock2","","","","That was a dep.","null","","","","",""
"","html-keyboard-response","304","661886","0.0-8.0-2.18","FL","tbo3kx7lyg","1366","768","de","ke06ng04","null","","","","learningBlock2","","","","<div style=""font-size:60px;""> </div>","null","FL","learning/Slide99.JPG","That was a dep.","",""
"","image-keyboard-response","305","662066","0.0-8.0-0.19","FL","tbo3kx7lyg","1366","768","de","ke06ng04","null","","","","","","","","learning/Slide100.JPG","null","","","","",""
"","html-keyboard-response","306","663246","0.0-8.0-1.19","FL","tbo3kx7lyg","1366","768","de","ke06ng04","null","","","","learningBlock2","","","","That was a bim.","null","","","","",""
"","html-keyboard-response","307","664266","0.0-8.0-2.19","FL","tbo3kx7lyg","1366","768","de","ke06ng04","null","","","","learningBlock2","","","","<div style=""font-size:60px;""> </div>","null","FL","learning/Slide100.JPG","That was a bim.","",""
"","image-keyboard-response","308","664446","0.0-8.0-0.20","FL","tbo3kx7lyg","1366","768","de","ke06ng04","null","","","","","","","","learning/Slide101.JPG","null","","","","",""
"","html-keyboard-response","309","665605","0.0-8.0-1.20","FL","tbo3kx7lyg","1366","768","de","ke06ng04","null","","","","learningBlock2","","","","That was a tob.","null","","","","",""
"","html-keyboard-response","310","666606","0.0-8.0-2.20","FL","tbo3kx7lyg","1366","768","de","ke06ng04","null","","","","learningBlock2","","","","<div style=""font-size:60px;""> </div>","null","FL","learning/Slide101.JPG","That was a tob.","",""
"","image-keyboard-response","311","666786","0.0-8.0-0.21","FL","tbo3kx7lyg","1366","768","de","ke06ng04","null","","","","","","","","learning/Slide102.JPG","null","","","","",""
"","html-keyboard-response","312","667966","0.0-8.0-1.21","FL","tbo3kx7lyg","1366","768","de","ke06ng04","null","","","","learningBlock2","","","","That was a bim.","null","","","","",""
"","html-keyboard-response","313","668986","0.0-8.0-2.21","FL","tbo3kx7lyg","1366","768","de","ke06ng04","null","","","","learningBlock2","","","","<div style=""font-size:60px;""> </div>","null","FL","learning/Slide102.JPG","That was a bim.","",""
"","image-keyboard-response","314","669166","0.0-8.0-0.22","FL","tbo3kx7lyg","1366","768","de","ke06ng04","null","","","","","","","","learning/Slide103.JPG","null","","","","",""
"","html-keyboard-response","315","670346","0.0-8.0-1.22","FL","tbo3kx7lyg","1366","768","de","ke06ng04","null","","","","learningBlock2","","","","That was a dep.","null","","","","",""
"","html-keyboard-response","316","671366","0.0-8.0-2.22","FL","tbo3kx7lyg","1366","768","de","ke06ng04","null","","","","learningBlock2","","","","<div style=""font-size:60px;""> </div>","null","FL","learning/Slide103.JPG","That was a dep.","",""
"","image-keyboard-response","317","671546","0.0-8.0-0.23","FL","tbo3kx7lyg","1366","768","de","ke06ng04","null","","","","","","","","learning/Slide104.JPG","null","","","","",""
"","html-keyboard-response","318","672726","0.0-8.0-1.23","FL","tbo3kx7lyg","1366","768","de","ke06ng04","null","","","","learningBlock2","","","","That was a tob.","null","","","","",""
"","html-keyboard-response","319","673746","0.0-8.0-2.23","FL","tbo3kx7lyg","1366","768","de","ke06ng04","null","","","","learningBlock2","","","","<div style=""font-size:60px;""> </div>","null","FL","learning/Slide104.JPG","That was a tob.","",""
"","image-keyboard-response","320","673926","0.0-8.0-0.24","FL","tbo3kx7lyg","1366","768","de","ke06ng04","null","","","","","","","","learning/Slide105.JPG","null","","","","",""
"","html-keyboard-response","321","675106","0.0-8.0-1.24","FL","tbo3kx7lyg","1366","768","de","ke06ng04","null","","","","learningBlock2","","","","That was a dep.","null","","","","",""
"","html-keyboard-response","322","676126","0.0-8.0-2.24","FL","tbo3kx7lyg","1366","768","de","ke06ng04","null","","","","learningBlock2","","","","<div style=""font-size:60px;""> </div>","null","FL","learning/Slide105.JPG","That was a dep.","",""
"","image-keyboard-response","323","676306","0.0-8.0-0.25","FL","tbo3kx7lyg","1366","768","de","ke06ng04","null","","","","","","","","learning/Slide106.JPG","null","","","","",""
"","html-keyboard-response","324","677486","0.0-8.0-1.25","FL","tbo3kx7lyg","1366","768","de","ke06ng04","null","","","","learningBlock2","","","","That was a wug.","null","","","","",""
"","html-keyboard-response","325","678507","0.0-8.0-2.25","FL","tbo3kx7lyg","1366","768","de","ke06ng04","null","","","","learningBlock2","","","","<div style=""font-size:60px;""> </div>","null","FL","learning/Slide106.JPG","That was a wug.","",""
"","image-keyboard-response","326","678686","0.0-8.0-0.26","FL","tbo3kx7lyg","1366","768","de","ke06ng04","null","","","","","","","","learning/Slide107.JPG","null","","","","",""
"","html-keyboard-response","327","679866","0.0-8.0-1.26","FL","tbo3kx7lyg","1366","768","de","ke06ng04","null","","","","learningBlock2","","","","That was a bim.","null","","","","",""
"","html-keyboard-response","328","680886","0.0-8.0-2.26","FL","tbo3kx7lyg","1366","768","de","ke06ng04","null","","","","learningBlock2","","","","<div style=""font-size:60px;""> </div>","null","FL","learning/Slide107.JPG","That was a bim.","",""
"","image-keyboard-response","329","681066","0.0-8.0-0.27","FL","tbo3kx7lyg","1366","768","de","ke06ng04","null","","","","","","","","learning/Slide108.JPG","null","","","","",""
"","html-keyboard-response","330","682246","0.0-8.0-1.27","FL","tbo3kx7lyg","1366","768","de","ke06ng04","null","","","","learningBlock2","","","","That was a dep.","null","","","","",""
"","html-keyboard-response","331","683266","0.0-8.0-2.27","FL","tbo3kx7lyg","1366","768","de","ke06ng04","null","","","","learningBlock2","","","","<div style=""font-size:60px;""> </div>","null","FL","learning/Slide108.JPG","That was a dep.","",""
"","image-keyboard-response","332","683446","0.0-8.0-0.28","FL","tbo3kx7lyg","1366","768","de","ke06ng04","null","","","","","","","","learning/Slide109.JPG","null","","","","",""
"","html-keyboard-response","333","684626","0.0-8.0-1.28","FL","tbo3kx7lyg","1366","768","de","ke06ng04","null","","","","learningBlock2","","","","That was a wug.","null","","","","",""
"","html-keyboard-response","334","685646","0.0-8.0-2.28","FL","tbo3kx7lyg","1366","768","de","ke06ng04","null","","","","learningBlock2","","","","<div style=""font-size:60px;""> </div>","null","FL","learning/Slide109.JPG","That was a wug.","",""
"","image-keyboard-response","335","685826","0.0-8.0-0.29","FL","tbo3kx7lyg","1366","768","de","ke06ng04","null","","","","","","","","learning/Slide110.JPG","null","","","","",""
"","html-keyboard-response","336","687006","0.0-8.0-1.29","FL","tbo3kx7lyg","1366","768","de","ke06ng04","null","","","","learningBlock2","","","","That was a bim.","null","","","","",""
"","html-keyboard-response","337","688026","0.0-8.0-2.29","FL","tbo3kx7lyg","1366","768","de","ke06ng04","null","","","","learningBlock2","","","","<div style=""font-size:60px;""> </div>","null","FL","learning/Slide110.JPG","That was a bim.","",""
"","image-keyboard-response","338","688206","0.0-8.0-0.30","FL","tbo3kx7lyg","1366","768","de","ke06ng04","null","","","","","","","","learning/Slide111.JPG","null","","","","",""
"","html-keyboard-response","339","689376","0.0-8.0-1.30","FL","tbo3kx7lyg","1366","768","de","ke06ng04","null","","","","learningBlock2","","","","That was a tob.","null","","","","",""
"","html-keyboard-response","340","690396","0.0-8.0-2.30","FL","tbo3kx7lyg","1366","768","de","ke06ng04","null","","","","learningBlock2","","","","<div style=""font-size:60px;""> </div>","null","FL","learning/Slide111.JPG","That was a tob.","",""
"","image-keyboard-response","341","690576","0.0-8.0-0.31","FL","tbo3kx7lyg","1366","768","de","ke06ng04","null","","","","","","","","learning/Slide112.JPG","null","","","","",""
"","html-keyboard-response","342","691756","0.0-8.0-1.31","FL","tbo3kx7lyg","1366","768","de","ke06ng04","null","","","","learningBlock2","","","","That was a wug.","null","","","","",""
"","html-keyboard-response","343","692776","0.0-8.0-2.31","FL","tbo3kx7lyg","1366","768","de","ke06ng04","null","","","","learningBlock2","","","","<div style=""font-size:60px;""> </div>","null","FL","learning/Slide112.JPG","That was a wug.","",""
"","image-keyboard-response","344","692956","0.0-8.0-0.32","FL","tbo3kx7lyg","1366","768","de","ke06ng04","null","","","","","","","","learning/Slide113.JPG","null","","","","",""
"","html-keyboard-response","345","694136","0.0-8.0-1.32","FL","tbo3kx7lyg","1366","768","de","ke06ng04","null","","","","learningBlock2","","","","That was a tob.","null","","","","",""
"","html-keyboard-response","346","695156","0.0-8.0-2.32","FL","tbo3kx7lyg","1366","768","de","ke06ng04","null","","","","learningBlock2","","","","<div style=""font-size:60px;""> </div>","null","FL","learning/Slide113.JPG","That was a tob.","",""
"","image-keyboard-response","347","695336","0.0-8.0-0.33","FL","tbo3kx7lyg","1366","768","de","ke06ng04","null","","","","","","","","learning/Slide114.JPG","null","","","","",""
"","html-keyboard-response","348","696516","0.0-8.0-1.33","FL","tbo3kx7lyg","1366","768","de","ke06ng04","null","","","","learningBlock2","","","","That was a wug.","null","","","","",""
"","html-keyboard-response","349","697536","0.0-8.0-2.33","FL","tbo3kx7lyg","1366","768","de","ke06ng04","null","","","","learningBlock2","","","","<div style=""font-size:60px;""> </div>","null","FL","learning/Slide114.JPG","That was a wug.","",""
"","image-keyboard-response","350","697716","0.0-8.0-0.34","FL","tbo3kx7lyg","1366","768","de","ke06ng04","null","","","","","","","","learning/Slide115.JPG","null","","","","",""
"","html-keyboard-response","351","698896","0.0-8.0-1.34","FL","tbo3kx7lyg","1366","768","de","ke06ng04","null","","","","learningBlock2","","","","That was a bim.","null","","","","",""
"","html-keyboard-response","352","699916","0.0-8.0-2.34","FL","tbo3kx7lyg","1366","768","de","ke06ng04","null","","","","learningBlock2","","","","<div style=""font-size:60px;""> </div>","null","FL","learning/Slide115.JPG","That was a bim.","",""
"","image-keyboard-response","353","700096","0.0-8.0-0.35","FL","tbo3kx7lyg","1366","768","de","ke06ng04","null","","","","","","","","learning/Slide116.JPG","null","","","","",""
"","html-keyboard-response","354","701275","0.0-8.0-1.35","FL","tbo3kx7lyg","1366","768","de","ke06ng04","null","","","","learningBlock2","","","","That was a dep.","null","","","","",""
"","html-keyboard-response","355","702296","0.0-8.0-2.35","FL","tbo3kx7lyg","1366","768","de","ke06ng04","null","","","","learningBlock2","","","","<div style=""font-size:60px;""> </div>","null","FL","learning/Slide116.JPG","That was a dep.","",""
"","image-keyboard-response","356","702476","0.0-8.0-0.36","FL","tbo3kx7lyg","1366","768","de","ke06ng04","null","","","","","","","","learning/Slide117.JPG","null","","","","",""
"","html-keyboard-response","357","703666","0.0-8.0-1.36","FL","tbo3kx7lyg","1366","768","de","ke06ng04","null","","","","learningBlock2","","","","That was a tob.","null","","","","",""
"","html-keyboard-response","358","704686","0.0-8.0-2.36","FL","tbo3kx7lyg","1366","768","de","ke06ng04","null","","","","learningBlock2","","","","<div style=""font-size:60px;""> </div>","null","FL","learning/Slide117.JPG","That was a tob.","",""
"","image-keyboard-response","359","704865","0.0-8.0-0.37","FL","tbo3kx7lyg","1366","768","de","ke06ng04","null","","","","","","","","learning/Slide118.JPG","null","","","","",""
"","html-keyboard-response","360","706045","0.0-8.0-1.37","FL","tbo3kx7lyg","1366","768","de","ke06ng04","null","","","","learningBlock2","","","","That was a dep.","null","","","","",""
"","html-keyboard-response","361","707065","0.0-8.0-2.37","FL","tbo3kx7lyg","1366","768","de","ke06ng04","null","","","","learningBlock2","","","","<div style=""font-size:60px;""> </div>","null","FL","learning/Slide118.JPG","That was a dep.","",""
"","image-keyboard-response","362","707245","0.0-8.0-0.38","FL","tbo3kx7lyg","1366","768","de","ke06ng04","null","","","","","","","","learning/Slide119.JPG","null","","","","",""
"","html-keyboard-response","363","708426","0.0-8.0-1.38","FL","tbo3kx7lyg","1366","768","de","ke06ng04","null","","","","learningBlock2","","","","That was a wug.","null","","","","",""
"","html-keyboard-response","364","709446","0.0-8.0-2.38","FL","tbo3kx7lyg","1366","768","de","ke06ng04","null","","","","learningBlock2","","","","<div style=""font-size:60px;""> </div>","null","FL","learning/Slide119.JPG","That was a wug.","",""
"","image-keyboard-response","365","709626","0.0-8.0-0.39","FL","tbo3kx7lyg","1366","768","de","ke06ng04","null","","","","","","","","learning/Slide120.JPG","null","","","","",""
"","html-keyboard-response","366","710805","0.0-8.0-1.39","FL","tbo3kx7lyg","1366","768","de","ke06ng04","null","","","","learningBlock2","","","","That was a dep.","null","","","","",""
"","html-keyboard-response","367","711826","0.0-8.0-2.39","FL","tbo3kx7lyg","1366","768","de","ke06ng04","null","","","","learningBlock2","","","","<div style=""font-size:60px;""> </div>","null","FL","learning/Slide120.JPG","That was a dep.","",""
"","image-keyboard-response","368","712006","0.0-8.0-0.40","FL","tbo3kx7lyg","1366","768","de","ke06ng04","null","","","","","","","","learning/Slide121.JPG","null","","","","",""
"","html-keyboard-response","369","713186","0.0-8.0-1.40","FL","tbo3kx7lyg","1366","768","de","ke06ng04","null","","","","learningBlock2","","","","That was a bim.","null","","","","",""
"","html-keyboard-response","370","714206","0.0-8.0-2.40","FL","tbo3kx7lyg","1366","768","de","ke06ng04","null","","","","learningBlock2","","","","<div style=""font-size:60px;""> </div>","null","FL","learning/Slide121.JPG","That was a bim.","",""
"","image-keyboard-response","371","714386","0.0-8.0-0.41","FL","tbo3kx7lyg","1366","768","de","ke06ng04","null","","","","","","","","learning/Slide122.JPG","null","","","","",""
"","html-keyboard-response","372","715566","0.0-8.0-1.41","FL","tbo3kx7lyg","1366","768","de","ke06ng04","null","","","","learningBlock2","","","","That was a wug.","null","","","","",""
"","html-keyboard-response","373","716586","0.0-8.0-2.41","FL","tbo3kx7lyg","1366","768","de","ke06ng04","null","","","","learningBlock2","","","","<div style=""font-size:60px;""> </div>","null","FL","learning/Slide122.JPG","That was a wug.","",""
"","image-keyboard-response","374","716766","0.0-8.0-0.42","FL","tbo3kx7lyg","1366","768","de","ke06ng04","null","","","","","","","","learning/Slide123.JPG","null","","","","",""
"","html-keyboard-response","375","717946","0.0-8.0-1.42","FL","tbo3kx7lyg","1366","768","de","ke06ng04","null","","","","learningBlock2","","","","That was a bim.","null","","","","",""
"","html-keyboard-response","376","718965","0.0-8.0-2.42","FL","tbo3kx7lyg","1366","768","de","ke06ng04","null","","","","learningBlock2","","","","<div style=""font-size:60px;""> </div>","null","FL","learning/Slide123.JPG","That was a bim.","",""
"","image-keyboard-response","377","719146","0.0-8.0-0.43","FL","tbo3kx7lyg","1366","768","de","ke06ng04","null","","","","","","","","learning/Slide124.JPG","null","","","","",""
"","html-keyboard-response","378","720326","0.0-8.0-1.43","FL","tbo3kx7lyg","1366","768","de","ke06ng04","null","","","","learningBlock2","","","","That was a tob.","null","","","","",""
"","html-keyboard-response","379","721341","0.0-8.0-2.43","FL","tbo3kx7lyg","1366","768","de","ke06ng04","null","","","","learningBlock2","","","","<div style=""font-size:60px;""> </div>","null","FL","learning/Slide124.JPG","That was a tob.","",""
"","image-keyboard-response","380","721526","0.0-8.0-0.44","FL","tbo3kx7lyg","1366","768","de","ke06ng04","null","","","","","","","","learning/Slide125.JPG","null","","","","",""
"","html-keyboard-response","381","722716","0.0-8.0-1.44","FL","tbo3kx7lyg","1366","768","de","ke06ng04","null","","","","learningBlock2","","","","That was a bim.","null","","","","",""
"","html-keyboard-response","382","723736","0.0-8.0-2.44","FL","tbo3kx7lyg","1366","768","de","ke06ng04","null","","","","learningBlock2","","","","<div style=""font-size:60px;""> </div>","null","FL","learning/Slide125.JPG","That was a bim.","",""
"","image-keyboard-response","383","723915","0.0-8.0-0.45","FL","tbo3kx7lyg","1366","768","de","ke06ng04","null","","","","","","","","learning/Slide126.JPG","null","","","","",""
"","html-keyboard-response","384","725096","0.0-8.0-1.45","FL","tbo3kx7lyg","1366","768","de","ke06ng04","null","","","","learningBlock2","","","","That was a tob.","null","","","","",""
"","html-keyboard-response","385","726115","0.0-8.0-2.45","FL","tbo3kx7lyg","1366","768","de","ke06ng04","null","","","","learningBlock2","","","","<div style=""font-size:60px;""> </div>","null","FL","learning/Slide126.JPG","That was a tob.","",""
"","image-keyboard-response","386","726296","0.0-8.0-0.46","FL","tbo3kx7lyg","1366","768","de","ke06ng04","null","","","","","","","","learning/Slide127.JPG","null","","","","",""
"","html-keyboard-response","387","727456","0.0-8.0-1.46","FL","tbo3kx7lyg","1366","768","de","ke06ng04","null","","","","learningBlock2","","","","That was a dep.","null","","","","",""
"","html-keyboard-response","388","728475","0.0-8.0-2.46","FL","tbo3kx7lyg","1366","768","de","ke06ng04","null","","","","learningBlock2","","","","<div style=""font-size:60px;""> </div>","null","FL","learning/Slide127.JPG","That was a dep.","",""
"","image-keyboard-response","389","728656","0.0-8.0-0.47","FL","tbo3kx7lyg","1366","768","de","ke06ng04","null","","","","","","","","learning/Slide128.JPG","null","","","","",""
"","html-keyboard-response","390","729836","0.0-8.0-1.47","FL","tbo3kx7lyg","1366","768","de","ke06ng04","null","","","","learningBlock2","","","","That was a wug.","null","","","","",""
"","html-keyboard-response","391","730846","0.0-8.0-2.47","FL","tbo3kx7lyg","1366","768","de","ke06ng04","null","","","","learningBlock2","","","","<div style=""font-size:60px;""> </div>","null","FL","learning/Slide128.JPG","That was a wug.","",""
"","image-keyboard-response","392","731026","0.0-8.0-0.48","FL","tbo3kx7lyg","1366","768","de","ke06ng04","null","","","","","","","","learning/Slide129.JPG","null","","","","",""
"","html-keyboard-response","393","732206","0.0-8.0-1.48","FL","tbo3kx7lyg","1366","768","de","ke06ng04","null","","","","learningBlock2","","","","That was a tob.","null","","","","",""
"","html-keyboard-response","394","733225","0.0-8.0-2.48","FL","tbo3kx7lyg","1366","768","de","ke06ng04","null","","","","learningBlock2","","","","<div style=""font-size:60px;""> </div>","null","FL","learning/Slide129.JPG","That was a tob.","",""
"","image-keyboard-response","395","733406","0.0-8.0-0.49","FL","tbo3kx7lyg","1366","768","de","ke06ng04","null","","","","","","","","learning/Slide130.JPG","null","","","","",""
"","html-keyboard-response","396","734566","0.0-8.0-1.49","FL","tbo3kx7lyg","1366","768","de","ke06ng04","null","","","","learningBlock2","","","","That was a wug.","null","","","","",""
"","html-keyboard-response","397","735585","0.0-8.0-2.49","FL","tbo3kx7lyg","1366","768","de","ke06ng04","null","","","","learningBlock2","","","","<div style=""font-size:60px;""> </div>","null","FL","learning/Slide130.JPG","That was a wug.","",""
"","image-keyboard-response","398","735766","0.0-8.0-0.50","FL","tbo3kx7lyg","1366","768","de","ke06ng04","null","","","","","","","","learning/Slide131.JPG","null","","","","",""
"","html-keyboard-response","399","736946","0.0-8.0-1.50","FL","tbo3kx7lyg","1366","768","de","ke06ng04","null","","","","learningBlock2","","","","That was a bim.","null","","","","",""
"","html-keyboard-response","400","737966","0.0-8.0-2.50","FL","tbo3kx7lyg","1366","768","de","ke06ng04","null","","","","learningBlock2","","","","<div style=""font-size:60px;""> </div>","null","FL","learning/Slide131.JPG","That was a bim.","",""
"","image-keyboard-response","401","738145","0.0-8.0-0.51","FL","tbo3kx7lyg","1366","768","de","ke06ng04","null","","","","","","","","learning/Slide132.JPG","null","","","","",""
"","html-keyboard-response","402","739325","0.0-8.0-1.51","FL","tbo3kx7lyg","1366","768","de","ke06ng04","null","","","","learningBlock2","","","","That was a dep.","null","","","","",""
"","html-keyboard-response","403","740346","0.0-8.0-2.51","FL","tbo3kx7lyg","1366","768","de","ke06ng04","null","","","","learningBlock2","","","","<div style=""font-size:60px;""> </div>","null","FL","learning/Slide132.JPG","That was a dep.","",""
"","image-keyboard-response","404","740526","0.0-8.0-0.52","FL","tbo3kx7lyg","1366","768","de","ke06ng04","null","","","","","","","","learning/Slide133.JPG","null","","","","",""
"","html-keyboard-response","405","741706","0.0-8.0-1.52","FL","tbo3kx7lyg","1366","768","de","ke06ng04","null","","","","learningBlock2","","","","That was a tob.","null","","","","",""
"","html-keyboard-response","406","742725","0.0-8.0-2.52","FL","tbo3kx7lyg","1366","768","de","ke06ng04","null","","","","learningBlock2","","","","<div style=""font-size:60px;""> </div>","null","FL","learning/Slide133.JPG","That was a tob.","",""
"","image-keyboard-response","407","742906","0.0-8.0-0.53","FL","tbo3kx7lyg","1366","768","de","ke06ng04","null","","","","","","","","learning/Slide134.JPG","null","","","","",""
"","html-keyboard-response","408","744085","0.0-8.0-1.53","FL","tbo3kx7lyg","1366","768","de","ke06ng04","null","","","","learningBlock2","","","","That was a dep.","null","","","","",""
"","html-keyboard-response","409","745106","0.0-8.0-2.53","FL","tbo3kx7lyg","1366","768","de","ke06ng04","null","","","","learningBlock2","","","","<div style=""font-size:60px;""> </div>","null","FL","learning/Slide134.JPG","That was a dep.","",""
"","image-keyboard-response","410","745285","0.0-8.0-0.54","FL","tbo3kx7lyg","1366","768","de","ke06ng04","null","","","","","","","","learning/Slide135.JPG","null","","","","",""
"","html-keyboard-response","411","746466","0.0-8.0-1.54","FL","tbo3kx7lyg","1366","768","de","ke06ng04","null","","","","learningBlock2","","","","That was a tob.","null","","","","",""
"","html-keyboard-response","412","747485","0.0-8.0-2.54","FL","tbo3kx7lyg","1366","768","de","ke06ng04","null","","","","learningBlock2","","","","<div style=""font-size:60px;""> </div>","null","FL","learning/Slide135.JPG","That was a tob.","",""
"","image-keyboard-response","413","747666","0.0-8.0-0.55","FL","tbo3kx7lyg","1366","768","de","ke06ng04","null","","","","","","","","learning/Slide136.JPG","null","","","","",""
"","html-keyboard-response","414","748846","0.0-8.0-1.55","FL","tbo3kx7lyg","1366","768","de","ke06ng04","null","","","","learningBlock2","","","","That was a wug.","null","","","","",""
"","html-keyboard-response","415","749866","0.0-8.0-2.55","FL","tbo3kx7lyg","1366","768","de","ke06ng04","null","","","","learningBlock2","","","","<div style=""font-size:60px;""> </div>","null","FL","learning/Slide136.JPG","That was a wug.","",""
"","image-keyboard-response","416","750045","0.0-8.0-0.56","FL","tbo3kx7lyg","1366","768","de","ke06ng04","null","","","","","","","","learning/Slide137.JPG","null","","","","",""
"","html-keyboard-response","417","751225","0.0-8.0-1.56","FL","tbo3kx7lyg","1366","768","de","ke06ng04","null","","","","learningBlock2","","","","That was a tob.","null","","","","",""
"","html-keyboard-response","418","752245","0.0-8.0-2.56","FL","tbo3kx7lyg","1366","768","de","ke06ng04","null","","","","learningBlock2","","","","<div style=""font-size:60px;""> </div>","null","FL","learning/Slide137.JPG","That was a tob.","",""
"","image-keyboard-response","419","752425","0.0-8.0-0.57","FL","tbo3kx7lyg","1366","768","de","ke06ng04","null","","","","","","","","learning/Slide138.JPG","null","","","","",""
"","html-keyboard-response","420","753606","0.0-8.0-1.57","FL","tbo3kx7lyg","1366","768","de","ke06ng04","null","","","","learningBlock2","","","","That was a bim.","null","","","","",""
"","html-keyboard-response","421","754625","0.0-8.0-2.57","FL","tbo3kx7lyg","1366","768","de","ke06ng04","null","","","","learningBlock2","","","","<div style=""font-size:60px;""> </div>","null","FL","learning/Slide138.JPG","That was a bim.","",""
"","image-keyboard-response","422","754805","0.0-8.0-0.58","FL","tbo3kx7lyg","1366","768","de","ke06ng04","null","","","","","","","","learning/Slide139.JPG","null","","","","",""
"","html-keyboard-response","423","755975","0.0-8.0-1.58","FL","tbo3kx7lyg","1366","768","de","ke06ng04","null","","","","learningBlock2","","","","That was a wug.","null","","","","",""
"","html-keyboard-response","424","756996","0.0-8.0-2.58","FL","tbo3kx7lyg","1366","768","de","ke06ng04","null","","","","learningBlock2","","","","<div style=""font-size:60px;""> </div>","null","FL","learning/Slide139.JPG","That was a wug.","",""
"","image-keyboard-response","425","757176","0.0-8.0-0.59","FL","tbo3kx7lyg","1366","768","de","ke06ng04","null","","","","","","","","learning/Slide140.JPG","null","","","","",""
"","html-keyboard-response","426","758355","0.0-8.0-1.59","FL","tbo3kx7lyg","1366","768","de","ke06ng04","null","","","","learningBlock2","","","","That was a dep.","null","","","","",""
"","html-keyboard-response","427","759375","0.0-8.0-2.59","FL","tbo3kx7lyg","1366","768","de","ke06ng04","null","","","","learningBlock2","","","","<div style=""font-size:60px;""> </div>","null","FL","learning/Slide140.JPG","That was a dep.","",""
"","image-keyboard-response","428","759555","0.0-8.0-0.60","FL","tbo3kx7lyg","1366","768","de","ke06ng04","null","","","","","","","","learning/Slide141.JPG","null","","","","",""
"","html-keyboard-response","429","760735","0.0-8.0-1.60","FL","tbo3kx7lyg","1366","768","de","ke06ng04","null","","","","learningBlock2","","","","That was a tob.","null","","","","",""
"","html-keyboard-response","430","761756","0.0-8.0-2.60","FL","tbo3kx7lyg","1366","768","de","ke06ng04","null","","","","learningBlock2","","","","<div style=""font-size:60px;""> </div>","null","FL","learning/Slide141.JPG","That was a tob.","",""
"","image-keyboard-response","431","761935","0.0-8.0-0.61","FL","tbo3kx7lyg","1366","768","de","ke06ng04","null","","","","","","","","learning/Slide142.JPG","null","","","","",""
"","html-keyboard-response","432","763105","0.0-8.0-1.61","FL","tbo3kx7lyg","1366","768","de","ke06ng04","null","","","","learningBlock2","","","","That was a wug.","null","","","","",""
"","html-keyboard-response","433","764125","0.0-8.0-2.61","FL","tbo3kx7lyg","1366","768","de","ke06ng04","null","","","","learningBlock2","","","","<div style=""font-size:60px;""> </div>","null","FL","learning/Slide142.JPG","That was a wug.","",""
"","image-keyboard-response","434","764305","0.0-8.0-0.62","FL","tbo3kx7lyg","1366","768","de","ke06ng04","null","","","","","","","","learning/Slide143.JPG","null","","","","",""
"","html-keyboard-response","435","765485","0.0-8.0-1.62","FL","tbo3kx7lyg","1366","768","de","ke06ng04","null","","","","learningBlock2","","","","That was a bim.","null","","","","",""
"","html-keyboard-response","436","766505","0.0-8.0-2.62","FL","tbo3kx7lyg","1366","768","de","ke06ng04","null","","","","learningBlock2","","","","<div style=""font-size:60px;""> </div>","null","FL","learning/Slide143.JPG","That was a bim.","",""
"","image-keyboard-response","437","766686","0.0-8.0-0.63","FL","tbo3kx7lyg","1366","768","de","ke06ng04","null","","","","","","","","learning/Slide144.JPG","null","","","","",""
"","html-keyboard-response","438","767865","0.0-8.0-1.63","FL","tbo3kx7lyg","1366","768","de","ke06ng04","null","","","","learningBlock2","","","","That was a dep.","null","","","","",""
"","html-keyboard-response","439","768885","0.0-8.0-2.63","FL","tbo3kx7lyg","1366","768","de","ke06ng04","null","","","","learningBlock2","","","","<div style=""font-size:60px;""> </div>","null","FL","learning/Slide144.JPG","That was a dep.","",""
"","image-keyboard-response","440","769065","0.0-8.0-0.64","FL","tbo3kx7lyg","1366","768","de","ke06ng04","null","","","","","","","","learning/Slide145.JPG","null","","","","",""
"","html-keyboard-response","441","770245","0.0-8.0-1.64","FL","tbo3kx7lyg","1366","768","de","ke06ng04","null","","","","learningBlock2","","","","That was a bim.","null","","","","",""
"","html-keyboard-response","442","771265","0.0-8.0-2.64","FL","tbo3kx7lyg","1366","768","de","ke06ng04","null","","","","learningBlock2","","","","<div style=""font-size:60px;""> </div>","null","FL","learning/Slide145.JPG","That was a bim.","",""
"","image-keyboard-response","443","771445","0.0-8.0-0.65","FL","tbo3kx7lyg","1366","768","de","ke06ng04","null","","","","","","","","learning/Slide146.JPG","null","","","","",""
"","html-keyboard-response","444","772625","0.0-8.0-1.65","FL","tbo3kx7lyg","1366","768","de","ke06ng04","null","","","","learningBlock2","","","","That was a tob.","null","","","","",""
"","html-keyboard-response","445","773645","0.0-8.0-2.65","FL","tbo3kx7lyg","1366","768","de","ke06ng04","null","","","","learningBlock2","","","","<div style=""font-size:60px;""> </div>","null","FL","learning/Slide146.JPG","That was a tob.","",""
"","image-keyboard-response","446","773825","0.0-8.0-0.66","FL","tbo3kx7lyg","1366","768","de","ke06ng04","null","","","","","","","","learning/Slide147.JPG","null","","","","",""
"","html-keyboard-response","447","775005","0.0-8.0-1.66","FL","tbo3kx7lyg","1366","768","de","ke06ng04","null","","","","learningBlock2","","","","That was a wug.","null","","","","",""
"","html-keyboard-response","448","776025","0.0-8.0-2.66","FL","tbo3kx7lyg","1366","768","de","ke06ng04","null","","","","learningBlock2","","","","<div style=""font-size:60px;""> </div>","null","FL","learning/Slide147.JPG","That was a wug.","",""
"","image-keyboard-response","449","776205","0.0-8.0-0.67","FL","tbo3kx7lyg","1366","768","de","ke06ng04","null","","","","","","","","learning/Slide148.JPG","null","","","","",""
"","html-keyboard-response","450","777385","0.0-8.0-1.67","FL","tbo3kx7lyg","1366","768","de","ke06ng04","null","","","","learningBlock2","","","","That was a bim.","null","","","","",""
"","html-keyboard-response","451","778405","0.0-8.0-2.67","FL","tbo3kx7lyg","1366","768","de","ke06ng04","null","","","","learningBlock2","","","","<div style=""font-size:60px;""> </div>","null","FL","learning/Slide148.JPG","That was a bim.","",""
"","image-keyboard-response","452","778585","0.0-8.0-0.68","FL","tbo3kx7lyg","1366","768","de","ke06ng04","null","","","","","","","","learning/Slide149.JPG","null","","","","",""
"","html-keyboard-response","453","779765","0.0-8.0-1.68","FL","tbo3kx7lyg","1366","768","de","ke06ng04","null","","","","learningBlock2","","","","That was a dep.","null","","","","",""
"","html-keyboard-response","454","780786","0.0-8.0-2.68","FL","tbo3kx7lyg","1366","768","de","ke06ng04","null","","","","learningBlock2","","","","<div style=""font-size:60px;""> </div>","null","FL","learning/Slide149.JPG","That was a dep.","",""
"","image-keyboard-response","455","780965","0.0-8.0-0.69","FL","tbo3kx7lyg","1366","768","de","ke06ng04","null","","","","","","","","learning/Slide150.JPG","null","","","","",""
"","html-keyboard-response","456","782145","0.0-8.0-1.69","FL","tbo3kx7lyg","1366","768","de","ke06ng04","null","","","","learningBlock2","","","","That was a wug.","null","","","","",""
"","html-keyboard-response","457","783166","0.0-8.0-2.69","FL","tbo3kx7lyg","1366","768","de","ke06ng04","null","","","","learningBlock2","","","","<div style=""font-size:60px;""> </div>","null","FL","learning/Slide150.JPG","That was a wug.","",""
"","image-keyboard-response","458","783346","0.0-8.0-0.70","FL","tbo3kx7lyg","1366","768","de","ke06ng04","null","","","","","","","","learning/Slide151.JPG","null","","","","",""
"","html-keyboard-response","459","784525","0.0-8.0-1.70","FL","tbo3kx7lyg","1366","768","de","ke06ng04","null","","","","learningBlock2","","","","That was a dep.","null","","","","",""
"","html-keyboard-response","460","785545","0.0-8.0-2.70","FL","tbo3kx7lyg","1366","768","de","ke06ng04","null","","","","learningBlock2","","","","<div style=""font-size:60px;""> </div>","null","FL","learning/Slide151.JPG","That was a dep.","",""
"","image-keyboard-response","461","785725","0.0-8.0-0.71","FL","tbo3kx7lyg","1366","768","de","ke06ng04","null","","","","","","","","learning/Slide152.JPG","null","","","","",""
"","html-keyboard-response","462","786885","0.0-8.0-1.71","FL","tbo3kx7lyg","1366","768","de","ke06ng04","null","","","","learningBlock2","","","","That was a wug.","null","","","","",""
"","html-keyboard-response","463","787905","0.0-8.0-2.71","FL","tbo3kx7lyg","1366","768","de","ke06ng04","null","","","","learningBlock2","","","","<div style=""font-size:60px;""> </div>","null","FL","learning/Slide152.JPG","That was a wug.","",""
"","image-keyboard-response","464","788084","0.0-8.0-0.72","FL","tbo3kx7lyg","1366","768","de","ke06ng04","null","","","","","","","","learning/Slide153.JPG","null","","","","",""
"","html-keyboard-response","465","789264","0.0-8.0-1.72","FL","tbo3kx7lyg","1366","768","de","ke06ng04","null","","","","learningBlock2","","","","That was a bim.","null","","","","",""
"","html-keyboard-response","466","790285","0.0-8.0-2.72","FL","tbo3kx7lyg","1366","768","de","ke06ng04","null","","","","learningBlock2","","","","<div style=""font-size:60px;""> </div>","null","FL","learning/Slide153.JPG","That was a bim.","",""
"","image-keyboard-response","467","790464","0.0-8.0-0.73","FL","tbo3kx7lyg","1366","768","de","ke06ng04","null","","","","","","","","learning/Slide154.JPG","null","","","","",""
"","html-keyboard-response","468","791645","0.0-8.0-1.73","FL","tbo3kx7lyg","1366","768","de","ke06ng04","null","","","","learningBlock2","","","","That was a tob.","null","","","","",""
"","html-keyboard-response","469","792665","0.0-8.0-2.73","FL","tbo3kx7lyg","1366","768","de","ke06ng04","null","","","","learningBlock2","","","","<div style=""font-size:60px;""> </div>","null","FL","learning/Slide154.JPG","That was a tob.","",""
"","image-keyboard-response","470","792845","0.0-8.0-0.74","FL","tbo3kx7lyg","1366","768","de","ke06ng04","null","","","","","","","","learning/Slide155.JPG","null","","","","",""
"","html-keyboard-response","471","794025","0.0-8.0-1.74","FL","tbo3kx7lyg","1366","768","de","ke06ng04","null","","","","learningBlock2","","","","That was a dep.","null","","","","",""
"","html-keyboard-response","472","795045","0.0-8.0-2.74","FL","tbo3kx7lyg","1366","768","de","ke06ng04","null","","","","learningBlock2","","","","<div style=""font-size:60px;""> </div>","null","FL","learning/Slide155.JPG","That was a dep.","",""
"","image-keyboard-response","473","795225","0.0-8.0-0.75","FL","tbo3kx7lyg","1366","768","de","ke06ng04","null","","","","","","","","learning/Slide156.JPG","null","","","","",""
"","html-keyboard-response","474","796405","0.0-8.0-1.75","FL","tbo3kx7lyg","1366","768","de","ke06ng04","null","","","","learningBlock2","","","","That was a bim.","null","","","","",""
"","html-keyboard-response","475","797425","0.0-8.0-2.75","FL","tbo3kx7lyg","1366","768","de","ke06ng04","null","","","","learningBlock2","","","","<div style=""font-size:60px;""> </div>","null","FL","learning/Slide156.JPG","That was a bim.","",""
"","image-keyboard-response","476","797605","0.0-8.0-0.76","FL","tbo3kx7lyg","1366","768","de","ke06ng04","null","","","","","","","","learning/Slide157.JPG","null","","","","",""
"","html-keyboard-response","477","798785","0.0-8.0-1.76","FL","tbo3kx7lyg","1366","768","de","ke06ng04","null","","","","learningBlock2","","","","That was a dep.","null","","","","",""
"","html-keyboard-response","478","799805","0.0-8.0-2.76","FL","tbo3kx7lyg","1366","768","de","ke06ng04","null","","","","learningBlock2","","","","<div style=""font-size:60px;""> </div>","null","FL","learning/Slide157.JPG","That was a dep.","",""
"","image-keyboard-response","479","799984","0.0-8.0-0.77","FL","tbo3kx7lyg","1366","768","de","ke06ng04","null","","","","","","","","learning/Slide158.JPG","null","","","","",""
"","html-keyboard-response","480","801165","0.0-8.0-1.77","FL","tbo3kx7lyg","1366","768","de","ke06ng04","null","","","","learningBlock2","","","","That was a tob.","null","","","","",""
"","html-keyboard-response","481","802185","0.0-8.0-2.77","FL","tbo3kx7lyg","1366","768","de","ke06ng04","null","","","","learningBlock2","","","","<div style=""font-size:60px;""> </div>","null","FL","learning/Slide158.JPG","That was a tob.","",""
"","image-keyboard-response","482","802364","0.0-8.0-0.78","FL","tbo3kx7lyg","1366","768","de","ke06ng04","null","","","","","","","","learning/Slide159.JPG","null","","","","",""
"","html-keyboard-response","483","803545","0.0-8.0-1.78","FL","tbo3kx7lyg","1366","768","de","ke06ng04","null","","","","learningBlock2","","","","That was a dep.","null","","","","",""
"","html-keyboard-response","484","804565","0.0-8.0-2.78","FL","tbo3kx7lyg","1366","768","de","ke06ng04","null","","","","learningBlock2","","","","<div style=""font-size:60px;""> </div>","null","FL","learning/Slide159.JPG","That was a dep.","",""
"","image-keyboard-response","485","804745","0.0-8.0-0.79","FL","tbo3kx7lyg","1366","768","de","ke06ng04","null","","","","","","","","learning/Slide160.JPG","null","","","","",""
"","html-keyboard-response","486","805925","0.0-8.0-1.79","FL","tbo3kx7lyg","1366","768","de","ke06ng04","null","","","","learningBlock2","","","","That was a wug.","null","","","","",""
"","html-keyboard-response","487","806945","0.0-8.0-2.79","FL","tbo3kx7lyg","1366","768","de","ke06ng04","null","","","","learningBlock2","","","","<div style=""font-size:60px;""> </div>","null","FL","learning/Slide160.JPG","That was a wug.","",""
"","resize2","488","812212","0.0-9.0","FL","tbo3kx7lyg","1366","768","de","ke06ng04","","","","","","","104","1.04","","","","","","",""
