"success","trial_type","trial_index","time_elapsed","internal_node_id","condition","subject","screen_width","screen_height","language","codeword","rt","responses","url","view_history","test_part","final_height_px","final_width_px","scale_factor","stimulus","key_press","learningType","presentedImage","presentedLabel","button_pressed","response"
"true","fullscreen","0","10667","0.0-0.0","LF","ty0rq2vzkd","1280","720","en","eh06in06","","","","","","","","","","","","","","",""
"","survey-html-form","1","11837","0.0-1.0","LF","ty0rq2vzkd","1280","720","en","eh06in06","1165.4349998570979","{""language"":""en""}","","","","","","","","","","","","",""
"","external-html","2","13916","0.0-3.0-0.0","LF","ty0rq2vzkd","1280","720","en","eh06in06","2069.729999639094","","text/information_english.html","","","","","","","","","","","",""
"","external-html","3","16934","0.0-3.0-1.0","LF","ty0rq2vzkd","1280","720","en","eh06in06","3007.3049999773502","","text/consent_english.html","","","","","","","","","","","",""
"","survey-html-form","4","19965","0.0-3.0-2.0","LF","ty0rq2vzkd","1280","720","en","eh06in06","3027.089999988675","{""codeword_enter"":""eh06in06""}","","","","","","","","","","","","",""
"","instructions","5","24819","0.0-4.0","LF","ty0rq2vzkd","1280","720","en","eh06in06","NA","","","[{""page_index"":0,""viewing_time"":1786.4850000478327},{""page_index"":1,""viewing_time"":1563.9500003308058}]","instructions","","","","","","","","","",""
"","resize","6","46939","0.0-5.0","LF","ty0rq2vzkd","1280","720","en","eh06in06","","","","","","","390","2.4761904761904763","","","","","","",""
"","html-keyboard-response","7","47942","0.0-6.0-0.0","LF","ty0rq2vzkd","1280","720","en","eh06in06","null","","","","learningBlock1","","","","This is a tob:","null","","","","",""
"","image-keyboard-response","8","48271","0.0-6.0-1.0","LF","ty0rq2vzkd","1280","720","en","eh06in06","null","","","","","","","","learning/Slide1.JPG","null","","","","",""
"","html-keyboard-response","9","49274","0.0-6.0-2.0","LF","ty0rq2vzkd","1280","720","en","eh06in06","null","","","","learningBlock1","","","","<div style=""font-size:60px;""> </div>","null","LF","learning/Slide1.JPG","This is a tob:","",""
"","html-keyboard-response","10","50277","0.0-6.0-0.1","LF","ty0rq2vzkd","1280","720","en","eh06in06","null","","","","learningBlock1","","","","This is a wug:","null","","","","",""
"","image-keyboard-response","11","50604","0.0-6.0-1.1","LF","ty0rq2vzkd","1280","720","en","eh06in06","null","","","","","","","","learning/Slide2.JPG","null","","","","",""
"","html-keyboard-response","12","51607","0.0-6.0-2.1","LF","ty0rq2vzkd","1280","720","en","eh06in06","null","","","","learningBlock1","","","","<div style=""font-size:60px;""> </div>","null","LF","learning/Slide2.JPG","This is a wug:","",""
"","html-keyboard-response","13","52610","0.0-6.0-0.2","LF","ty0rq2vzkd","1280","720","en","eh06in06","null","","","","learningBlock1","","","","This is a bim:","null","","","","",""
"","image-keyboard-response","14","52939","0.0-6.0-1.2","LF","ty0rq2vzkd","1280","720","en","eh06in06","null","","","","","","","","learning/Slide3.JPG","null","","","","",""
"","html-keyboard-response","15","53943","0.0-6.0-2.2","LF","ty0rq2vzkd","1280","720","en","eh06in06","null","","","","learningBlock1","","","","<div style=""font-size:60px;""> </div>","null","LF","learning/Slide3.JPG","This is a bim:","",""
"","html-keyboard-response","16","54945","0.0-6.0-0.3","LF","ty0rq2vzkd","1280","720","en","eh06in06","null","","","","learningBlock1","","","","This is a dep:","null","","","","",""
"","image-keyboard-response","17","55273","0.0-6.0-1.3","LF","ty0rq2vzkd","1280","720","en","eh06in06","null","","","","","","","","learning/Slide4.JPG","null","","","","",""
"","html-keyboard-response","18","56275","0.0-6.0-2.3","LF","ty0rq2vzkd","1280","720","en","eh06in06","null","","","","learningBlock1","","","","<div style=""font-size:60px;""> </div>","null","LF","learning/Slide4.JPG","This is a dep:","",""
"","html-keyboard-response","19","57276","0.0-6.0-0.4","LF","ty0rq2vzkd","1280","720","en","eh06in06","null","","","","learningBlock1","","","","This is a wug:","null","","","","",""
"","image-keyboard-response","20","57606","0.0-6.0-1.4","LF","ty0rq2vzkd","1280","720","en","eh06in06","null","","","","","","","","learning/Slide5.JPG","null","","","","",""
"","html-keyboard-response","21","58608","0.0-6.0-2.4","LF","ty0rq2vzkd","1280","720","en","eh06in06","null","","","","learningBlock1","","","","<div style=""font-size:60px;""> </div>","null","LF","learning/Slide5.JPG","This is a wug:","",""
"","html-keyboard-response","22","59611","0.0-6.0-0.5","LF","ty0rq2vzkd","1280","720","en","eh06in06","null","","","","learningBlock1","","","","This is a dep:","null","","","","",""
"","image-keyboard-response","23","59939","0.0-6.0-1.5","LF","ty0rq2vzkd","1280","720","en","eh06in06","null","","","","","","","","learning/Slide6.JPG","null","","","","",""
"","html-keyboard-response","24","60940","0.0-6.0-2.5","LF","ty0rq2vzkd","1280","720","en","eh06in06","null","","","","learningBlock1","","","","<div style=""font-size:60px;""> </div>","null","LF","learning/Slide6.JPG","This is a dep:","",""
"","html-keyboard-response","25","61957","0.0-6.0-0.6","LF","ty0rq2vzkd","1280","720","en","eh06in06","null","","","","learningBlock1","","","","This is a wug:","null","","","","",""
"","image-keyboard-response","26","62286","0.0-6.0-1.6","LF","ty0rq2vzkd","1280","720","en","eh06in06","null","","","","","","","","learning/Slide7.JPG","null","","","","",""
"","html-keyboard-response","27","63293","0.0-6.0-2.6","LF","ty0rq2vzkd","1280","720","en","eh06in06","null","","","","learningBlock1","","","","<div style=""font-size:60px;""> </div>","null","LF","learning/Slide7.JPG","This is a wug:","",""
"","html-keyboard-response","28","64294","0.0-6.0-0.7","LF","ty0rq2vzkd","1280","720","en","eh06in06","null","","","","learningBlock1","","","","This is a bim:","null","","","","",""
"","image-keyboard-response","29","64622","0.0-6.0-1.7","LF","ty0rq2vzkd","1280","720","en","eh06in06","null","","","","","","","","learning/Slide8.JPG","null","","","","",""
"","html-keyboard-response","30","65625","0.0-6.0-2.7","LF","ty0rq2vzkd","1280","720","en","eh06in06","null","","","","learningBlock1","","","","<div style=""font-size:60px;""> </div>","null","LF","learning/Slide8.JPG","This is a bim:","",""
"","html-keyboard-response","31","66627","0.0-6.0-0.8","LF","ty0rq2vzkd","1280","720","en","eh06in06","null","","","","learningBlock1","","","","This is a wug:","null","","","","",""
"","image-keyboard-response","32","66956","0.0-6.0-1.8","LF","ty0rq2vzkd","1280","720","en","eh06in06","null","","","","","","","","learning/Slide9.JPG","null","","","","",""
"","html-keyboard-response","33","67958","0.0-6.0-2.8","LF","ty0rq2vzkd","1280","720","en","eh06in06","null","","","","learningBlock1","","","","<div style=""font-size:60px;""> </div>","null","LF","learning/Slide9.JPG","This is a wug:","",""
"","html-keyboard-response","34","68966","0.0-6.0-0.9","LF","ty0rq2vzkd","1280","720","en","eh06in06","null","","","","learningBlock1","","","","This is a dep:","null","","","","",""
"","image-keyboard-response","35","69294","0.0-6.0-1.9","LF","ty0rq2vzkd","1280","720","en","eh06in06","null","","","","","","","","learning/Slide10.JPG","null","","","","",""
"","html-keyboard-response","36","70297","0.0-6.0-2.9","LF","ty0rq2vzkd","1280","720","en","eh06in06","null","","","","learningBlock1","","","","<div style=""font-size:60px;""> </div>","null","LF","learning/Slide10.JPG","This is a dep:","",""
"","html-keyboard-response","37","71300","0.0-6.0-0.10","LF","ty0rq2vzkd","1280","720","en","eh06in06","null","","","","learningBlock1","","","","This is a tob:","null","","","","",""
"","image-keyboard-response","38","71627","0.0-6.0-1.10","LF","ty0rq2vzkd","1280","720","en","eh06in06","null","","","","","","","","learning/Slide11.JPG","null","","","","",""
"","html-keyboard-response","39","72630","0.0-6.0-2.10","LF","ty0rq2vzkd","1280","720","en","eh06in06","null","","","","learningBlock1","","","","<div style=""font-size:60px;""> </div>","null","LF","learning/Slide11.JPG","This is a tob:","",""
"","html-keyboard-response","40","73631","0.0-6.0-0.11","LF","ty0rq2vzkd","1280","720","en","eh06in06","null","","","","learningBlock1","","","","This is a dep:","null","","","","",""
"","image-keyboard-response","41","73958","0.0-6.0-1.11","LF","ty0rq2vzkd","1280","720","en","eh06in06","null","","","","","","","","learning/Slide12.JPG","null","","","","",""
"","html-keyboard-response","42","74960","0.0-6.0-2.11","LF","ty0rq2vzkd","1280","720","en","eh06in06","null","","","","learningBlock1","","","","<div style=""font-size:60px;""> </div>","null","LF","learning/Slide12.JPG","This is a dep:","",""
"","html-keyboard-response","43","75962","0.0-6.0-0.12","LF","ty0rq2vzkd","1280","720","en","eh06in06","null","","","","learningBlock1","","","","This is a bim:","null","","","","",""
"","image-keyboard-response","44","76290","0.0-6.0-1.12","LF","ty0rq2vzkd","1280","720","en","eh06in06","null","","","","","","","","learning/Slide13.JPG","null","","","","",""
"","html-keyboard-response","45","77292","0.0-6.0-2.12","LF","ty0rq2vzkd","1280","720","en","eh06in06","null","","","","learningBlock1","","","","<div style=""font-size:60px;""> </div>","null","LF","learning/Slide13.JPG","This is a bim:","",""
"","html-keyboard-response","46","78295","0.0-6.0-0.13","LF","ty0rq2vzkd","1280","720","en","eh06in06","null","","","","learningBlock1","","","","This is a wug:","null","","","","",""
"","image-keyboard-response","47","78622","0.0-6.0-1.13","LF","ty0rq2vzkd","1280","720","en","eh06in06","null","","","","","","","","learning/Slide14.JPG","null","","","","",""
"","html-keyboard-response","48","79625","0.0-6.0-2.13","LF","ty0rq2vzkd","1280","720","en","eh06in06","null","","","","learningBlock1","","","","<div style=""font-size:60px;""> </div>","null","LF","learning/Slide14.JPG","This is a wug:","",""
"","html-keyboard-response","49","80627","0.0-6.0-0.14","LF","ty0rq2vzkd","1280","720","en","eh06in06","null","","","","learningBlock1","","","","This is a tob:","null","","","","",""
"","image-keyboard-response","50","80956","0.0-6.0-1.14","LF","ty0rq2vzkd","1280","720","en","eh06in06","null","","","","","","","","learning/Slide15.JPG","null","","","","",""
"","html-keyboard-response","51","81958","0.0-6.0-2.14","LF","ty0rq2vzkd","1280","720","en","eh06in06","null","","","","learningBlock1","","","","<div style=""font-size:60px;""> </div>","null","LF","learning/Slide15.JPG","This is a tob:","",""
"","html-keyboard-response","52","82961","0.0-6.0-0.15","LF","ty0rq2vzkd","1280","720","en","eh06in06","null","","","","learningBlock1","","","","This is a dep:","null","","","","",""
"","image-keyboard-response","53","83290","0.0-6.0-1.15","LF","ty0rq2vzkd","1280","720","en","eh06in06","null","","","","","","","","learning/Slide16.JPG","null","","","","",""
"","html-keyboard-response","54","84292","0.0-6.0-2.15","LF","ty0rq2vzkd","1280","720","en","eh06in06","null","","","","learningBlock1","","","","<div style=""font-size:60px;""> </div>","null","LF","learning/Slide16.JPG","This is a dep:","",""
"","html-keyboard-response","55","85295","0.0-6.0-0.16","LF","ty0rq2vzkd","1280","720","en","eh06in06","null","","","","learningBlock1","","","","This is a bim:","null","","","","",""
"","image-keyboard-response","56","85623","0.0-6.0-1.16","LF","ty0rq2vzkd","1280","720","en","eh06in06","null","","","","","","","","learning/Slide17.JPG","null","","","","",""
"","html-keyboard-response","57","86626","0.0-6.0-2.16","LF","ty0rq2vzkd","1280","720","en","eh06in06","null","","","","learningBlock1","","","","<div style=""font-size:60px;""> </div>","null","LF","learning/Slide17.JPG","This is a bim:","",""
"","html-keyboard-response","58","87629","0.0-6.0-0.17","LF","ty0rq2vzkd","1280","720","en","eh06in06","null","","","","learningBlock1","","","","This is a tob:","null","","","","",""
"","image-keyboard-response","59","87957","0.0-6.0-1.17","LF","ty0rq2vzkd","1280","720","en","eh06in06","null","","","","","","","","learning/Slide18.JPG","null","","","","",""
"","html-keyboard-response","60","88960","0.0-6.0-2.17","LF","ty0rq2vzkd","1280","720","en","eh06in06","null","","","","learningBlock1","","","","<div style=""font-size:60px;""> </div>","null","LF","learning/Slide18.JPG","This is a tob:","",""
"","html-keyboard-response","61","89963","0.0-6.0-0.18","LF","ty0rq2vzkd","1280","720","en","eh06in06","null","","","","learningBlock1","","","","This is a wug:","null","","","","",""
"","image-keyboard-response","62","90292","0.0-6.0-1.18","LF","ty0rq2vzkd","1280","720","en","eh06in06","null","","","","","","","","learning/Slide19.JPG","null","","","","",""
"","html-keyboard-response","63","91295","0.0-6.0-2.18","LF","ty0rq2vzkd","1280","720","en","eh06in06","null","","","","learningBlock1","","","","<div style=""font-size:60px;""> </div>","null","LF","learning/Slide19.JPG","This is a wug:","",""
"","html-keyboard-response","64","92298","0.0-6.0-0.19","LF","ty0rq2vzkd","1280","720","en","eh06in06","null","","","","learningBlock1","","","","This is a bim:","null","","","","",""
"","image-keyboard-response","65","92625","0.0-6.0-1.19","LF","ty0rq2vzkd","1280","720","en","eh06in06","null","","","","","","","","learning/Slide20.JPG","null","","","","",""
"","html-keyboard-response","66","93628","0.0-6.0-2.19","LF","ty0rq2vzkd","1280","720","en","eh06in06","null","","","","learningBlock1","","","","<div style=""font-size:60px;""> </div>","null","LF","learning/Slide20.JPG","This is a bim:","",""
"","html-keyboard-response","67","94630","0.0-6.0-0.20","LF","ty0rq2vzkd","1280","720","en","eh06in06","null","","","","learningBlock1","","","","This is a dep:","null","","","","",""
"","image-keyboard-response","68","94958","0.0-6.0-1.20","LF","ty0rq2vzkd","1280","720","en","eh06in06","null","","","","","","","","learning/Slide21.JPG","null","","","","",""
"","html-keyboard-response","69","95964","0.0-6.0-2.20","LF","ty0rq2vzkd","1280","720","en","eh06in06","null","","","","learningBlock1","","","","<div style=""font-size:60px;""> </div>","null","LF","learning/Slide21.JPG","This is a dep:","",""
"","html-keyboard-response","70","96966","0.0-6.0-0.21","LF","ty0rq2vzkd","1280","720","en","eh06in06","null","","","","learningBlock1","","","","This is a bim:","null","","","","",""
"","image-keyboard-response","71","97294","0.0-6.0-1.21","LF","ty0rq2vzkd","1280","720","en","eh06in06","null","","","","","","","","learning/Slide22.JPG","null","","","","",""
"","html-keyboard-response","72","98296","0.0-6.0-2.21","LF","ty0rq2vzkd","1280","720","en","eh06in06","null","","","","learningBlock1","","","","<div style=""font-size:60px;""> </div>","null","LF","learning/Slide22.JPG","This is a bim:","",""
"","html-keyboard-response","73","99298","0.0-6.0-0.22","LF","ty0rq2vzkd","1280","720","en","eh06in06","null","","","","learningBlock1","","","","This is a tob:","null","","","","",""
"","image-keyboard-response","74","99625","0.0-6.0-1.22","LF","ty0rq2vzkd","1280","720","en","eh06in06","null","","","","","","","","learning/Slide23.JPG","null","","","","",""
"","html-keyboard-response","75","100628","0.0-6.0-2.22","LF","ty0rq2vzkd","1280","720","en","eh06in06","null","","","","learningBlock1","","","","<div style=""font-size:60px;""> </div>","null","LF","learning/Slide23.JPG","This is a tob:","",""
"","html-keyboard-response","76","101644","0.0-6.0-0.23","LF","ty0rq2vzkd","1280","720","en","eh06in06","null","","","","learningBlock1","","","","This is a wug:","null","","","","",""
"","image-keyboard-response","77","101973","0.0-6.0-1.23","LF","ty0rq2vzkd","1280","720","en","eh06in06","null","","","","","","","","learning/Slide24.JPG","null","","","","",""
"","html-keyboard-response","78","102976","0.0-6.0-2.23","LF","ty0rq2vzkd","1280","720","en","eh06in06","null","","","","learningBlock1","","","","<div style=""font-size:60px;""> </div>","null","LF","learning/Slide24.JPG","This is a wug:","",""
"","html-keyboard-response","79","103978","0.0-6.0-0.24","LF","ty0rq2vzkd","1280","720","en","eh06in06","null","","","","learningBlock1","","","","This is a dep:","null","","","","",""
"","image-keyboard-response","80","104306","0.0-6.0-1.24","LF","ty0rq2vzkd","1280","720","en","eh06in06","null","","","","","","","","learning/Slide25.JPG","null","","","","",""
"","html-keyboard-response","81","105308","0.0-6.0-2.24","LF","ty0rq2vzkd","1280","720","en","eh06in06","null","","","","learningBlock1","","","","<div style=""font-size:60px;""> </div>","null","LF","learning/Slide25.JPG","This is a dep:","",""
"","html-keyboard-response","82","106310","0.0-6.0-0.25","LF","ty0rq2vzkd","1280","720","en","eh06in06","null","","","","learningBlock1","","","","This is a wug:","null","","","","",""
"","image-keyboard-response","83","106638","0.0-6.0-1.25","LF","ty0rq2vzkd","1280","720","en","eh06in06","null","","","","","","","","learning/Slide26.JPG","null","","","","",""
"","html-keyboard-response","84","107640","0.0-6.0-2.25","LF","ty0rq2vzkd","1280","720","en","eh06in06","null","","","","learningBlock1","","","","<div style=""font-size:60px;""> </div>","null","LF","learning/Slide26.JPG","This is a wug:","",""
"","html-keyboard-response","85","108643","0.0-6.0-0.26","LF","ty0rq2vzkd","1280","720","en","eh06in06","null","","","","learningBlock1","","","","This is a bim:","null","","","","",""
"","image-keyboard-response","86","108971","0.0-6.0-1.26","LF","ty0rq2vzkd","1280","720","en","eh06in06","null","","","","","","","","learning/Slide27.JPG","null","","","","",""
"","html-keyboard-response","87","109973","0.0-6.0-2.26","LF","ty0rq2vzkd","1280","720","en","eh06in06","null","","","","learningBlock1","","","","<div style=""font-size:60px;""> </div>","null","LF","learning/Slide27.JPG","This is a bim:","",""
"","html-keyboard-response","88","110975","0.0-6.0-0.27","LF","ty0rq2vzkd","1280","720","en","eh06in06","null","","","","learningBlock1","","","","This is a dep:","null","","","","",""
"","image-keyboard-response","89","111303","0.0-6.0-1.27","LF","ty0rq2vzkd","1280","720","en","eh06in06","null","","","","","","","","learning/Slide28.JPG","null","","","","",""
"","html-keyboard-response","90","112305","0.0-6.0-2.27","LF","ty0rq2vzkd","1280","720","en","eh06in06","null","","","","learningBlock1","","","","<div style=""font-size:60px;""> </div>","null","LF","learning/Slide28.JPG","This is a dep:","",""
"","html-keyboard-response","91","113307","0.0-6.0-0.28","LF","ty0rq2vzkd","1280","720","en","eh06in06","null","","","","learningBlock1","","","","This is a tob:","null","","","","",""
"","image-keyboard-response","92","113635","0.0-6.0-1.28","LF","ty0rq2vzkd","1280","720","en","eh06in06","null","","","","","","","","learning/Slide29.JPG","null","","","","",""
"","html-keyboard-response","93","114638","0.0-6.0-2.28","LF","ty0rq2vzkd","1280","720","en","eh06in06","null","","","","learningBlock1","","","","<div style=""font-size:60px;""> </div>","null","LF","learning/Slide29.JPG","This is a tob:","",""
"","html-keyboard-response","94","115641","0.0-6.0-0.29","LF","ty0rq2vzkd","1280","720","en","eh06in06","null","","","","learningBlock1","","","","This is a dep:","null","","","","",""
"","image-keyboard-response","95","115970","0.0-6.0-1.29","LF","ty0rq2vzkd","1280","720","en","eh06in06","null","","","","","","","","learning/Slide30.JPG","null","","","","",""
"","html-keyboard-response","96","116973","0.0-6.0-2.29","LF","ty0rq2vzkd","1280","720","en","eh06in06","null","","","","learningBlock1","","","","<div style=""font-size:60px;""> </div>","null","LF","learning/Slide30.JPG","This is a dep:","",""
"","html-keyboard-response","97","117989","0.0-6.0-0.30","LF","ty0rq2vzkd","1280","720","en","eh06in06","null","","","","learningBlock1","","","","This is a wug:","null","","","","",""
"","image-keyboard-response","98","118317","0.0-6.0-1.30","LF","ty0rq2vzkd","1280","720","en","eh06in06","null","","","","","","","","learning/Slide31.JPG","null","","","","",""
"","html-keyboard-response","99","119320","0.0-6.0-2.30","LF","ty0rq2vzkd","1280","720","en","eh06in06","null","","","","learningBlock1","","","","<div style=""font-size:60px;""> </div>","null","LF","learning/Slide31.JPG","This is a wug:","",""
"","html-keyboard-response","100","120322","0.0-6.0-0.31","LF","ty0rq2vzkd","1280","720","en","eh06in06","null","","","","learningBlock1","","","","This is a tob:","null","","","","",""
"","image-keyboard-response","101","120650","0.0-6.0-1.31","LF","ty0rq2vzkd","1280","720","en","eh06in06","null","","","","","","","","learning/Slide32.JPG","null","","","","",""
"","html-keyboard-response","102","121653","0.0-6.0-2.31","LF","ty0rq2vzkd","1280","720","en","eh06in06","null","","","","learningBlock1","","","","<div style=""font-size:60px;""> </div>","null","LF","learning/Slide32.JPG","This is a tob:","",""
"","html-keyboard-response","103","122654","0.0-6.0-0.32","LF","ty0rq2vzkd","1280","720","en","eh06in06","null","","","","learningBlock1","","","","This is a bim:","null","","","","",""
"","image-keyboard-response","104","122984","0.0-6.0-1.32","LF","ty0rq2vzkd","1280","720","en","eh06in06","null","","","","","","","","learning/Slide33.JPG","null","","","","",""
"","html-keyboard-response","105","123987","0.0-6.0-2.32","LF","ty0rq2vzkd","1280","720","en","eh06in06","null","","","","learningBlock1","","","","<div style=""font-size:60px;""> </div>","null","LF","learning/Slide33.JPG","This is a bim:","",""
"","html-keyboard-response","106","124990","0.0-6.0-0.33","LF","ty0rq2vzkd","1280","720","en","eh06in06","null","","","","learningBlock1","","","","This is a tob:","null","","","","",""
"","image-keyboard-response","107","125318","0.0-6.0-1.33","LF","ty0rq2vzkd","1280","720","en","eh06in06","null","","","","","","","","learning/Slide34.JPG","null","","","","",""
"","html-keyboard-response","108","126321","0.0-6.0-2.33","LF","ty0rq2vzkd","1280","720","en","eh06in06","null","","","","learningBlock1","","","","<div style=""font-size:60px;""> </div>","null","LF","learning/Slide34.JPG","This is a tob:","",""
"","html-keyboard-response","109","127323","0.0-6.0-0.34","LF","ty0rq2vzkd","1280","720","en","eh06in06","null","","","","learningBlock1","","","","This is a bim:","null","","","","",""
"","image-keyboard-response","110","127651","0.0-6.0-1.34","LF","ty0rq2vzkd","1280","720","en","eh06in06","null","","","","","","","","learning/Slide35.JPG","null","","","","",""
"","html-keyboard-response","111","128654","0.0-6.0-2.34","LF","ty0rq2vzkd","1280","720","en","eh06in06","null","","","","learningBlock1","","","","<div style=""font-size:60px;""> </div>","null","LF","learning/Slide35.JPG","This is a bim:","",""
"","html-keyboard-response","112","129656","0.0-6.0-0.35","LF","ty0rq2vzkd","1280","720","en","eh06in06","null","","","","learningBlock1","","","","This is a dep:","null","","","","",""
"","image-keyboard-response","113","129985","0.0-6.0-1.35","LF","ty0rq2vzkd","1280","720","en","eh06in06","null","","","","","","","","learning/Slide36.JPG","null","","","","",""
"","html-keyboard-response","114","130987","0.0-6.0-2.35","LF","ty0rq2vzkd","1280","720","en","eh06in06","null","","","","learningBlock1","","","","<div style=""font-size:60px;""> </div>","null","LF","learning/Slide36.JPG","This is a dep:","",""
"","html-keyboard-response","115","131990","0.0-6.0-0.36","LF","ty0rq2vzkd","1280","720","en","eh06in06","null","","","","learningBlock1","","","","This is a tob:","null","","","","",""
"","image-keyboard-response","116","132319","0.0-6.0-1.36","LF","ty0rq2vzkd","1280","720","en","eh06in06","null","","","","","","","","learning/Slide37.JPG","null","","","","",""
"","html-keyboard-response","117","133322","0.0-6.0-2.36","LF","ty0rq2vzkd","1280","720","en","eh06in06","null","","","","learningBlock1","","","","<div style=""font-size:60px;""> </div>","null","LF","learning/Slide37.JPG","This is a tob:","",""
"","html-keyboard-response","118","134324","0.0-6.0-0.37","LF","ty0rq2vzkd","1280","720","en","eh06in06","null","","","","learningBlock1","","","","This is a wug:","null","","","","",""
"","image-keyboard-response","119","134651","0.0-6.0-1.37","LF","ty0rq2vzkd","1280","720","en","eh06in06","null","","","","","","","","learning/Slide38.JPG","null","","","","",""
"","html-keyboard-response","120","135653","0.0-6.0-2.37","LF","ty0rq2vzkd","1280","720","en","eh06in06","null","","","","learningBlock1","","","","<div style=""font-size:60px;""> </div>","null","LF","learning/Slide38.JPG","This is a wug:","",""
"","html-keyboard-response","121","136655","0.0-6.0-0.38","LF","ty0rq2vzkd","1280","720","en","eh06in06","null","","","","learningBlock1","","","","This is a bim:","null","","","","",""
"","image-keyboard-response","122","136982","0.0-6.0-1.38","LF","ty0rq2vzkd","1280","720","en","eh06in06","null","","","","","","","","learning/Slide39.JPG","null","","","","",""
"","html-keyboard-response","123","137985","0.0-6.0-2.38","LF","ty0rq2vzkd","1280","720","en","eh06in06","null","","","","learningBlock1","","","","<div style=""font-size:60px;""> </div>","null","LF","learning/Slide39.JPG","This is a bim:","",""
"","html-keyboard-response","124","138988","0.0-6.0-0.39","LF","ty0rq2vzkd","1280","720","en","eh06in06","null","","","","learningBlock1","","","","This is a tob:","null","","","","",""
"","image-keyboard-response","125","139316","0.0-6.0-1.39","LF","ty0rq2vzkd","1280","720","en","eh06in06","null","","","","","","","","learning/Slide40.JPG","null","","","","",""
"","html-keyboard-response","126","140319","0.0-6.0-2.39","LF","ty0rq2vzkd","1280","720","en","eh06in06","null","","","","learningBlock1","","","","<div style=""font-size:60px;""> </div>","null","LF","learning/Slide40.JPG","This is a tob:","",""
"","html-keyboard-response","127","141321","0.0-6.0-0.40","LF","ty0rq2vzkd","1280","720","en","eh06in06","null","","","","learningBlock1","","","","This is a bim:","null","","","","",""
"","image-keyboard-response","128","141649","0.0-6.0-1.40","LF","ty0rq2vzkd","1280","720","en","eh06in06","null","","","","","","","","learning/Slide41.JPG","null","","","","",""
"","html-keyboard-response","129","142651","0.0-6.0-2.40","LF","ty0rq2vzkd","1280","720","en","eh06in06","null","","","","learningBlock1","","","","<div style=""font-size:60px;""> </div>","null","LF","learning/Slide41.JPG","This is a bim:","",""
"","html-keyboard-response","130","143653","0.0-6.0-0.41","LF","ty0rq2vzkd","1280","720","en","eh06in06","null","","","","learningBlock1","","","","This is a dep:","null","","","","",""
"","image-keyboard-response","131","143982","0.0-6.0-1.41","LF","ty0rq2vzkd","1280","720","en","eh06in06","null","","","","","","","","learning/Slide42.JPG","null","","","","",""
"","html-keyboard-response","132","144984","0.0-6.0-2.41","LF","ty0rq2vzkd","1280","720","en","eh06in06","null","","","","learningBlock1","","","","<div style=""font-size:60px;""> </div>","null","LF","learning/Slide42.JPG","This is a dep:","",""
"","html-keyboard-response","133","145986","0.0-6.0-0.42","LF","ty0rq2vzkd","1280","720","en","eh06in06","null","","","","learningBlock1","","","","This is a wug:","null","","","","",""
"","image-keyboard-response","134","146314","0.0-6.0-1.42","LF","ty0rq2vzkd","1280","720","en","eh06in06","null","","","","","","","","learning/Slide43.JPG","null","","","","",""
"","html-keyboard-response","135","147328","0.0-6.0-2.42","LF","ty0rq2vzkd","1280","720","en","eh06in06","null","","","","learningBlock1","","","","<div style=""font-size:60px;""> </div>","null","LF","learning/Slide43.JPG","This is a wug:","",""
"","html-keyboard-response","136","148331","0.0-6.0-0.43","LF","ty0rq2vzkd","1280","720","en","eh06in06","null","","","","learningBlock1","","","","This is a bim:","null","","","","",""
"","image-keyboard-response","137","148660","0.0-6.0-1.43","LF","ty0rq2vzkd","1280","720","en","eh06in06","null","","","","","","","","learning/Slide44.JPG","null","","","","",""
"","html-keyboard-response","138","149663","0.0-6.0-2.43","LF","ty0rq2vzkd","1280","720","en","eh06in06","null","","","","learningBlock1","","","","<div style=""font-size:60px;""> </div>","null","LF","learning/Slide44.JPG","This is a bim:","",""
"","html-keyboard-response","139","150665","0.0-6.0-0.44","LF","ty0rq2vzkd","1280","720","en","eh06in06","null","","","","learningBlock1","","","","This is a wug:","null","","","","",""
"","image-keyboard-response","140","150992","0.0-6.0-1.44","LF","ty0rq2vzkd","1280","720","en","eh06in06","null","","","","","","","","learning/Slide45.JPG","null","","","","",""
"","html-keyboard-response","141","151995","0.0-6.0-2.44","LF","ty0rq2vzkd","1280","720","en","eh06in06","null","","","","learningBlock1","","","","<div style=""font-size:60px;""> </div>","null","LF","learning/Slide45.JPG","This is a wug:","",""
"","html-keyboard-response","142","152997","0.0-6.0-0.45","LF","ty0rq2vzkd","1280","720","en","eh06in06","null","","","","learningBlock1","","","","This is a dep:","null","","","","",""
"","image-keyboard-response","143","153325","0.0-6.0-1.45","LF","ty0rq2vzkd","1280","720","en","eh06in06","null","","","","","","","","learning/Slide46.JPG","null","","","","",""
"","html-keyboard-response","144","154340","0.0-6.0-2.45","LF","ty0rq2vzkd","1280","720","en","eh06in06","null","","","","learningBlock1","","","","<div style=""font-size:60px;""> </div>","null","LF","learning/Slide46.JPG","This is a dep:","",""
"","html-keyboard-response","145","155342","0.0-6.0-0.46","LF","ty0rq2vzkd","1280","720","en","eh06in06","null","","","","learningBlock1","","","","This is a tob:","null","","","","",""
"","image-keyboard-response","146","155671","0.0-6.0-1.46","LF","ty0rq2vzkd","1280","720","en","eh06in06","null","","","","","","","","learning/Slide47.JPG","null","","","","",""
"","html-keyboard-response","147","156673","0.0-6.0-2.46","LF","ty0rq2vzkd","1280","720","en","eh06in06","null","","","","learningBlock1","","","","<div style=""font-size:60px;""> </div>","null","LF","learning/Slide47.JPG","This is a tob:","",""
"","html-keyboard-response","148","157675","0.0-6.0-0.47","LF","ty0rq2vzkd","1280","720","en","eh06in06","null","","","","learningBlock1","","","","This is a bim:","null","","","","",""
"","image-keyboard-response","149","158003","0.0-6.0-1.47","LF","ty0rq2vzkd","1280","720","en","eh06in06","null","","","","","","","","learning/Slide48.JPG","null","","","","",""
"","html-keyboard-response","150","159005","0.0-6.0-2.47","LF","ty0rq2vzkd","1280","720","en","eh06in06","null","","","","learningBlock1","","","","<div style=""font-size:60px;""> </div>","null","LF","learning/Slide48.JPG","This is a bim:","",""
"","html-keyboard-response","151","160007","0.0-6.0-0.48","LF","ty0rq2vzkd","1280","720","en","eh06in06","null","","","","learningBlock1","","","","This is a dep:","null","","","","",""
"","image-keyboard-response","152","160334","0.0-6.0-1.48","LF","ty0rq2vzkd","1280","720","en","eh06in06","null","","","","","","","","learning/Slide49.JPG","null","","","","",""
"","html-keyboard-response","153","161336","0.0-6.0-2.48","LF","ty0rq2vzkd","1280","720","en","eh06in06","null","","","","learningBlock1","","","","<div style=""font-size:60px;""> </div>","null","LF","learning/Slide49.JPG","This is a dep:","",""
"","html-keyboard-response","154","162339","0.0-6.0-0.49","LF","ty0rq2vzkd","1280","720","en","eh06in06","null","","","","learningBlock1","","","","This is a tob:","null","","","","",""
"","image-keyboard-response","155","162667","0.0-6.0-1.49","LF","ty0rq2vzkd","1280","720","en","eh06in06","null","","","","","","","","learning/Slide50.JPG","null","","","","",""
"","html-keyboard-response","156","163670","0.0-6.0-2.49","LF","ty0rq2vzkd","1280","720","en","eh06in06","null","","","","learningBlock1","","","","<div style=""font-size:60px;""> </div>","null","LF","learning/Slide50.JPG","This is a tob:","",""
"","html-keyboard-response","157","164672","0.0-6.0-0.50","LF","ty0rq2vzkd","1280","720","en","eh06in06","null","","","","learningBlock1","","","","This is a bim:","null","","","","",""
"","image-keyboard-response","158","165001","0.0-6.0-1.50","LF","ty0rq2vzkd","1280","720","en","eh06in06","null","","","","","","","","learning/Slide51.JPG","null","","","","",""
"","html-keyboard-response","159","166002","0.0-6.0-2.50","LF","ty0rq2vzkd","1280","720","en","eh06in06","null","","","","learningBlock1","","","","<div style=""font-size:60px;""> </div>","null","LF","learning/Slide51.JPG","This is a bim:","",""
"","html-keyboard-response","160","167004","0.0-6.0-0.51","LF","ty0rq2vzkd","1280","720","en","eh06in06","null","","","","learningBlock1","","","","This is a wug:","null","","","","",""
"","image-keyboard-response","161","167331","0.0-6.0-1.51","LF","ty0rq2vzkd","1280","720","en","eh06in06","null","","","","","","","","learning/Slide52.JPG","null","","","","",""
"","html-keyboard-response","162","168334","0.0-6.0-2.51","LF","ty0rq2vzkd","1280","720","en","eh06in06","null","","","","learningBlock1","","","","<div style=""font-size:60px;""> </div>","null","LF","learning/Slide52.JPG","This is a wug:","",""
"","html-keyboard-response","163","169336","0.0-6.0-0.52","LF","ty0rq2vzkd","1280","720","en","eh06in06","null","","","","learningBlock1","","","","This is a tob:","null","","","","",""
"","image-keyboard-response","164","169665","0.0-6.0-1.52","LF","ty0rq2vzkd","1280","720","en","eh06in06","null","","","","","","","","learning/Slide53.JPG","null","","","","",""
"","html-keyboard-response","165","170680","0.0-6.0-2.52","LF","ty0rq2vzkd","1280","720","en","eh06in06","null","","","","learningBlock1","","","","<div style=""font-size:60px;""> </div>","null","LF","learning/Slide53.JPG","This is a tob:","",""
"","html-keyboard-response","166","171684","0.0-6.0-0.53","LF","ty0rq2vzkd","1280","720","en","eh06in06","null","","","","learningBlock1","","","","This is a dep:","null","","","","",""
"","image-keyboard-response","167","172011","0.0-6.0-1.53","LF","ty0rq2vzkd","1280","720","en","eh06in06","null","","","","","","","","learning/Slide54.JPG","null","","","","",""
"","html-keyboard-response","168","173013","0.0-6.0-2.53","LF","ty0rq2vzkd","1280","720","en","eh06in06","null","","","","learningBlock1","","","","<div style=""font-size:60px;""> </div>","null","LF","learning/Slide54.JPG","This is a dep:","",""
"","html-keyboard-response","169","174015","0.0-6.0-0.54","LF","ty0rq2vzkd","1280","720","en","eh06in06","null","","","","learningBlock1","","","","This is a bim:","null","","","","",""
"","image-keyboard-response","170","174342","0.0-6.0-1.54","LF","ty0rq2vzkd","1280","720","en","eh06in06","null","","","","","","","","learning/Slide55.JPG","null","","","","",""
"","html-keyboard-response","171","175345","0.0-6.0-2.54","LF","ty0rq2vzkd","1280","720","en","eh06in06","null","","","","learningBlock1","","","","<div style=""font-size:60px;""> </div>","null","LF","learning/Slide55.JPG","This is a bim:","",""
"","html-keyboard-response","172","176347","0.0-6.0-0.55","LF","ty0rq2vzkd","1280","720","en","eh06in06","null","","","","learningBlock1","","","","This is a tob:","null","","","","",""
"","image-keyboard-response","173","176676","0.0-6.0-1.55","LF","ty0rq2vzkd","1280","720","en","eh06in06","null","","","","","","","","learning/Slide56.JPG","null","","","","",""
"","html-keyboard-response","174","177678","0.0-6.0-2.55","LF","ty0rq2vzkd","1280","720","en","eh06in06","null","","","","learningBlock1","","","","<div style=""font-size:60px;""> </div>","null","LF","learning/Slide56.JPG","This is a tob:","",""
"","html-keyboard-response","175","178681","0.0-6.0-0.56","LF","ty0rq2vzkd","1280","720","en","eh06in06","null","","","","learningBlock1","","","","This is a dep:","null","","","","",""
"","image-keyboard-response","176","179009","0.0-6.0-1.56","LF","ty0rq2vzkd","1280","720","en","eh06in06","null","","","","","","","","learning/Slide57.JPG","null","","","","",""
"","html-keyboard-response","177","180012","0.0-6.0-2.56","LF","ty0rq2vzkd","1280","720","en","eh06in06","null","","","","learningBlock1","","","","<div style=""font-size:60px;""> </div>","null","LF","learning/Slide57.JPG","This is a dep:","",""
"","html-keyboard-response","178","181014","0.0-6.0-0.57","LF","ty0rq2vzkd","1280","720","en","eh06in06","null","","","","learningBlock1","","","","This is a wug:","null","","","","",""
"","image-keyboard-response","179","181341","0.0-6.0-1.57","LF","ty0rq2vzkd","1280","720","en","eh06in06","null","","","","","","","","learning/Slide58.JPG","null","","","","",""
"","html-keyboard-response","180","182344","0.0-6.0-2.57","LF","ty0rq2vzkd","1280","720","en","eh06in06","null","","","","learningBlock1","","","","<div style=""font-size:60px;""> </div>","null","LF","learning/Slide58.JPG","This is a wug:","",""
"","html-keyboard-response","181","183345","0.0-6.0-0.58","LF","ty0rq2vzkd","1280","720","en","eh06in06","null","","","","learningBlock1","","","","This is a dep:","null","","","","",""
"","image-keyboard-response","182","183673","0.0-6.0-1.58","LF","ty0rq2vzkd","1280","720","en","eh06in06","null","","","","","","","","learning/Slide59.JPG","null","","","","",""
"","html-keyboard-response","183","184676","0.0-6.0-2.58","LF","ty0rq2vzkd","1280","720","en","eh06in06","null","","","","learningBlock1","","","","<div style=""font-size:60px;""> </div>","null","LF","learning/Slide59.JPG","This is a dep:","",""
"","html-keyboard-response","184","185678","0.0-6.0-0.59","LF","ty0rq2vzkd","1280","720","en","eh06in06","null","","","","learningBlock1","","","","This is a wug:","null","","","","",""
"","image-keyboard-response","185","186006","0.0-6.0-1.59","LF","ty0rq2vzkd","1280","720","en","eh06in06","null","","","","","","","","learning/Slide60.JPG","null","","","","",""
"","html-keyboard-response","186","187008","0.0-6.0-2.59","LF","ty0rq2vzkd","1280","720","en","eh06in06","null","","","","learningBlock1","","","","<div style=""font-size:60px;""> </div>","null","LF","learning/Slide60.JPG","This is a wug:","",""
"","html-keyboard-response","187","188011","0.0-6.0-0.60","LF","ty0rq2vzkd","1280","720","en","eh06in06","null","","","","learningBlock1","","","","This is a bim:","null","","","","",""
"","image-keyboard-response","188","188340","0.0-6.0-1.60","LF","ty0rq2vzkd","1280","720","en","eh06in06","null","","","","","","","","learning/Slide61.JPG","null","","","","",""
"","html-keyboard-response","189","189342","0.0-6.0-2.60","LF","ty0rq2vzkd","1280","720","en","eh06in06","null","","","","learningBlock1","","","","<div style=""font-size:60px;""> </div>","null","LF","learning/Slide61.JPG","This is a bim:","",""
"","html-keyboard-response","190","190344","0.0-6.0-0.61","LF","ty0rq2vzkd","1280","720","en","eh06in06","null","","","","learningBlock1","","","","This is a dep:","null","","","","",""
"","image-keyboard-response","191","190672","0.0-6.0-1.61","LF","ty0rq2vzkd","1280","720","en","eh06in06","null","","","","","","","","learning/Slide62.JPG","null","","","","",""
"","html-keyboard-response","192","191676","0.0-6.0-2.61","LF","ty0rq2vzkd","1280","720","en","eh06in06","null","","","","learningBlock1","","","","<div style=""font-size:60px;""> </div>","null","LF","learning/Slide62.JPG","This is a dep:","",""
"","html-keyboard-response","193","192689","0.0-6.0-0.62","LF","ty0rq2vzkd","1280","720","en","eh06in06","null","","","","learningBlock1","","","","This is a bim:","null","","","","",""
"","image-keyboard-response","194","193017","0.0-6.0-1.62","LF","ty0rq2vzkd","1280","720","en","eh06in06","null","","","","","","","","learning/Slide63.JPG","null","","","","",""
"","html-keyboard-response","195","194019","0.0-6.0-2.62","LF","ty0rq2vzkd","1280","720","en","eh06in06","null","","","","learningBlock1","","","","<div style=""font-size:60px;""> </div>","null","LF","learning/Slide63.JPG","This is a bim:","",""
"","html-keyboard-response","196","195030","0.0-6.0-0.63","LF","ty0rq2vzkd","1280","720","en","eh06in06","null","","","","learningBlock1","","","","This is a tob:","null","","","","",""
"","image-keyboard-response","197","195358","0.0-6.0-1.63","LF","ty0rq2vzkd","1280","720","en","eh06in06","null","","","","","","","","learning/Slide64.JPG","null","","","","",""
"","html-keyboard-response","198","196361","0.0-6.0-2.63","LF","ty0rq2vzkd","1280","720","en","eh06in06","null","","","","learningBlock1","","","","<div style=""font-size:60px;""> </div>","null","LF","learning/Slide64.JPG","This is a tob:","",""
"","html-keyboard-response","199","197363","0.0-6.0-0.64","LF","ty0rq2vzkd","1280","720","en","eh06in06","null","","","","learningBlock1","","","","This is a wug:","null","","","","",""
"","image-keyboard-response","200","197692","0.0-6.0-1.64","LF","ty0rq2vzkd","1280","720","en","eh06in06","null","","","","","","","","learning/Slide65.JPG","null","","","","",""
"","html-keyboard-response","201","198694","0.0-6.0-2.64","LF","ty0rq2vzkd","1280","720","en","eh06in06","null","","","","learningBlock1","","","","<div style=""font-size:60px;""> </div>","null","LF","learning/Slide65.JPG","This is a wug:","",""
"","html-keyboard-response","202","199696","0.0-6.0-0.65","LF","ty0rq2vzkd","1280","720","en","eh06in06","null","","","","learningBlock1","","","","This is a dep:","null","","","","",""
"","image-keyboard-response","203","200025","0.0-6.0-1.65","LF","ty0rq2vzkd","1280","720","en","eh06in06","null","","","","","","","","learning/Slide66.JPG","null","","","","",""
"","html-keyboard-response","204","201038","0.0-6.0-2.65","LF","ty0rq2vzkd","1280","720","en","eh06in06","null","","","","learningBlock1","","","","<div style=""font-size:60px;""> </div>","null","LF","learning/Slide66.JPG","This is a dep:","",""
"","html-keyboard-response","205","202039","0.0-6.0-0.66","LF","ty0rq2vzkd","1280","720","en","eh06in06","null","","","","learningBlock1","","","","This is a tob:","null","","","","",""
"","image-keyboard-response","206","202367","0.0-6.0-1.66","LF","ty0rq2vzkd","1280","720","en","eh06in06","null","","","","","","","","learning/Slide67.JPG","null","","","","",""
"","html-keyboard-response","207","203371","0.0-6.0-2.66","LF","ty0rq2vzkd","1280","720","en","eh06in06","null","","","","learningBlock1","","","","<div style=""font-size:60px;""> </div>","null","LF","learning/Slide67.JPG","This is a tob:","",""
"","html-keyboard-response","208","204373","0.0-6.0-0.67","LF","ty0rq2vzkd","1280","720","en","eh06in06","null","","","","learningBlock1","","","","This is a wug:","null","","","","",""
"","image-keyboard-response","209","204700","0.0-6.0-1.67","LF","ty0rq2vzkd","1280","720","en","eh06in06","null","","","","","","","","learning/Slide68.JPG","null","","","","",""
"","html-keyboard-response","210","205703","0.0-6.0-2.67","LF","ty0rq2vzkd","1280","720","en","eh06in06","null","","","","learningBlock1","","","","<div style=""font-size:60px;""> </div>","null","LF","learning/Slide68.JPG","This is a wug:","",""
"","html-keyboard-response","211","206706","0.0-6.0-0.68","LF","ty0rq2vzkd","1280","720","en","eh06in06","null","","","","learningBlock1","","","","This is a tob:","null","","","","",""
"","image-keyboard-response","212","207035","0.0-6.0-1.68","LF","ty0rq2vzkd","1280","720","en","eh06in06","null","","","","","","","","learning/Slide69.JPG","null","","","","",""
"","html-keyboard-response","213","208038","0.0-6.0-2.68","LF","ty0rq2vzkd","1280","720","en","eh06in06","null","","","","learningBlock1","","","","<div style=""font-size:60px;""> </div>","null","LF","learning/Slide69.JPG","This is a tob:","",""
"","html-keyboard-response","214","209041","0.0-6.0-0.69","LF","ty0rq2vzkd","1280","720","en","eh06in06","null","","","","learningBlock1","","","","This is a dep:","null","","","","",""
"","image-keyboard-response","215","209369","0.0-6.0-1.69","LF","ty0rq2vzkd","1280","720","en","eh06in06","null","","","","","","","","learning/Slide70.JPG","null","","","","",""
"","html-keyboard-response","216","210372","0.0-6.0-2.69","LF","ty0rq2vzkd","1280","720","en","eh06in06","null","","","","learningBlock1","","","","<div style=""font-size:60px;""> </div>","null","LF","learning/Slide70.JPG","This is a dep:","",""
"","html-keyboard-response","217","211374","0.0-6.0-0.70","LF","ty0rq2vzkd","1280","720","en","eh06in06","null","","","","learningBlock1","","","","This is a wug:","null","","","","",""
"","image-keyboard-response","218","211702","0.0-6.0-1.70","LF","ty0rq2vzkd","1280","720","en","eh06in06","null","","","","","","","","learning/Slide71.JPG","null","","","","",""
"","html-keyboard-response","219","212704","0.0-6.0-2.70","LF","ty0rq2vzkd","1280","720","en","eh06in06","null","","","","learningBlock1","","","","<div style=""font-size:60px;""> </div>","null","LF","learning/Slide71.JPG","This is a wug:","",""
"","html-keyboard-response","220","213706","0.0-6.0-0.71","LF","ty0rq2vzkd","1280","720","en","eh06in06","null","","","","learningBlock1","","","","This is a bim:","null","","","","",""
"","image-keyboard-response","221","214034","0.0-6.0-1.71","LF","ty0rq2vzkd","1280","720","en","eh06in06","null","","","","","","","","learning/Slide72.JPG","null","","","","",""
"","html-keyboard-response","222","215037","0.0-6.0-2.71","LF","ty0rq2vzkd","1280","720","en","eh06in06","null","","","","learningBlock1","","","","<div style=""font-size:60px;""> </div>","null","LF","learning/Slide72.JPG","This is a bim:","",""
"","html-keyboard-response","223","216039","0.0-6.0-0.72","LF","ty0rq2vzkd","1280","720","en","eh06in06","null","","","","learningBlock1","","","","This is a wug:","null","","","","",""
"","image-keyboard-response","224","216367","0.0-6.0-1.72","LF","ty0rq2vzkd","1280","720","en","eh06in06","null","","","","","","","","learning/Slide73.JPG","null","","","","",""
"","html-keyboard-response","225","217370","0.0-6.0-2.72","LF","ty0rq2vzkd","1280","720","en","eh06in06","null","","","","learningBlock1","","","","<div style=""font-size:60px;""> </div>","null","LF","learning/Slide73.JPG","This is a wug:","",""
"","html-keyboard-response","226","218371","0.0-6.0-0.73","LF","ty0rq2vzkd","1280","720","en","eh06in06","null","","","","learningBlock1","","","","This is a dep:","null","","","","",""
"","image-keyboard-response","227","218710","0.0-6.0-1.73","LF","ty0rq2vzkd","1280","720","en","eh06in06","null","","","","","","","","learning/Slide74.JPG","null","","","","",""
"","html-keyboard-response","228","219717","0.0-6.0-2.73","LF","ty0rq2vzkd","1280","720","en","eh06in06","null","","","","learningBlock1","","","","<div style=""font-size:60px;""> </div>","null","LF","learning/Slide74.JPG","This is a dep:","",""
"","html-keyboard-response","229","220725","0.0-6.0-0.74","LF","ty0rq2vzkd","1280","720","en","eh06in06","null","","","","learningBlock1","","","","This is a tob:","null","","","","",""
"","image-keyboard-response","230","221068","0.0-6.0-1.74","LF","ty0rq2vzkd","1280","720","en","eh06in06","null","","","","","","","","learning/Slide75.JPG","null","","","","",""
"","html-keyboard-response","231","222070","0.0-6.0-2.74","LF","ty0rq2vzkd","1280","720","en","eh06in06","null","","","","learningBlock1","","","","<div style=""font-size:60px;""> </div>","null","LF","learning/Slide75.JPG","This is a tob:","",""
"","html-keyboard-response","232","223072","0.0-6.0-0.75","LF","ty0rq2vzkd","1280","720","en","eh06in06","null","","","","learningBlock1","","","","This is a bim:","null","","","","",""
"","image-keyboard-response","233","223400","0.0-6.0-1.75","LF","ty0rq2vzkd","1280","720","en","eh06in06","null","","","","","","","","learning/Slide76.JPG","null","","","","",""
"","html-keyboard-response","234","224402","0.0-6.0-2.75","LF","ty0rq2vzkd","1280","720","en","eh06in06","null","","","","learningBlock1","","","","<div style=""font-size:60px;""> </div>","null","LF","learning/Slide76.JPG","This is a bim:","",""
"","html-keyboard-response","235","225405","0.0-6.0-0.76","LF","ty0rq2vzkd","1280","720","en","eh06in06","null","","","","learningBlock1","","","","This is a tob:","null","","","","",""
"","image-keyboard-response","236","225733","0.0-6.0-1.76","LF","ty0rq2vzkd","1280","720","en","eh06in06","null","","","","","","","","learning/Slide77.JPG","null","","","","",""
"","html-keyboard-response","237","226736","0.0-6.0-2.76","LF","ty0rq2vzkd","1280","720","en","eh06in06","null","","","","learningBlock1","","","","<div style=""font-size:60px;""> </div>","null","LF","learning/Slide77.JPG","This is a tob:","",""
"","html-keyboard-response","238","227738","0.0-6.0-0.77","LF","ty0rq2vzkd","1280","720","en","eh06in06","null","","","","learningBlock1","","","","This is a wug:","null","","","","",""
"","image-keyboard-response","239","228067","0.0-6.0-1.77","LF","ty0rq2vzkd","1280","720","en","eh06in06","null","","","","","","","","learning/Slide78.JPG","null","","","","",""
"","html-keyboard-response","240","229069","0.0-6.0-2.77","LF","ty0rq2vzkd","1280","720","en","eh06in06","null","","","","learningBlock1","","","","<div style=""font-size:60px;""> </div>","null","LF","learning/Slide78.JPG","This is a wug:","",""
"","html-keyboard-response","241","230071","0.0-6.0-0.78","LF","ty0rq2vzkd","1280","720","en","eh06in06","null","","","","learningBlock1","","","","This is a bim:","null","","","","",""
"","image-keyboard-response","242","230400","0.0-6.0-1.78","LF","ty0rq2vzkd","1280","720","en","eh06in06","null","","","","","","","","learning/Slide79.JPG","null","","","","",""
"","html-keyboard-response","243","231403","0.0-6.0-2.78","LF","ty0rq2vzkd","1280","720","en","eh06in06","null","","","","learningBlock1","","","","<div style=""font-size:60px;""> </div>","null","LF","learning/Slide79.JPG","This is a bim:","",""
"","html-keyboard-response","244","232405","0.0-6.0-0.79","LF","ty0rq2vzkd","1280","720","en","eh06in06","null","","","","learningBlock1","","","","This is a tob:","null","","","","",""
"","image-keyboard-response","245","232733","0.0-6.0-1.79","LF","ty0rq2vzkd","1280","720","en","eh06in06","null","","","","","","","","learning/Slide80.JPG","null","","","","",""
"","html-keyboard-response","246","233736","0.0-6.0-2.79","LF","ty0rq2vzkd","1280","720","en","eh06in06","null","","","","learningBlock1","","","","<div style=""font-size:60px;""> </div>","null","LF","learning/Slide80.JPG","This is a tob:","",""
"","instructions","247","239214","0.0-7.0","LF","ty0rq2vzkd","1280","720","en","eh06in06","NA","","","[{""page_index"":0,""viewing_time"":5475.914999842644}]","instructions","","","","","","","","","",""
"","html-keyboard-response","248","240216","0.0-8.0-0.0","LF","ty0rq2vzkd","1280","720","en","eh06in06","null","","","","learningBlock2","","","","This is a wug:","null","","","","",""
"","image-keyboard-response","249","240545","0.0-8.0-1.0","LF","ty0rq2vzkd","1280","720","en","eh06in06","null","","","","","","","","learning/Slide81.JPG","null","","","","",""
"","html-keyboard-response","250","241547","0.0-8.0-2.0","LF","ty0rq2vzkd","1280","720","en","eh06in06","null","","","","learningBlock2","","","","<div style=""font-size:60px;""> </div>","null","LF","learning/Slide81.JPG","This is a wug:","",""
"","html-keyboard-response","251","242550","0.0-8.0-0.1","LF","ty0rq2vzkd","1280","720","en","eh06in06","null","","","","learningBlock2","","","","This is a bim:","null","","","","",""
"","image-keyboard-response","252","242878","0.0-8.0-1.1","LF","ty0rq2vzkd","1280","720","en","eh06in06","null","","","","","","","","learning/Slide82.JPG","null","","","","",""
"","html-keyboard-response","253","243881","0.0-8.0-2.1","LF","ty0rq2vzkd","1280","720","en","eh06in06","null","","","","learningBlock2","","","","<div style=""font-size:60px;""> </div>","null","LF","learning/Slide82.JPG","This is a bim:","",""
"","html-keyboard-response","254","244883","0.0-8.0-0.2","LF","ty0rq2vzkd","1280","720","en","eh06in06","null","","","","learningBlock2","","","","This is a wug:","null","","","","",""
"","image-keyboard-response","255","245211","0.0-8.0-1.2","LF","ty0rq2vzkd","1280","720","en","eh06in06","null","","","","","","","","learning/Slide83.JPG","null","","","","",""
"","html-keyboard-response","256","246214","0.0-8.0-2.2","LF","ty0rq2vzkd","1280","720","en","eh06in06","null","","","","learningBlock2","","","","<div style=""font-size:60px;""> </div>","null","LF","learning/Slide83.JPG","This is a wug:","",""
"","html-keyboard-response","257","247216","0.0-8.0-0.3","LF","ty0rq2vzkd","1280","720","en","eh06in06","null","","","","learningBlock2","","","","This is a dep:","null","","","","",""
"","image-keyboard-response","258","247546","0.0-8.0-1.3","LF","ty0rq2vzkd","1280","720","en","eh06in06","null","","","","","","","","learning/Slide84.JPG","null","","","","",""
"","html-keyboard-response","259","248550","0.0-8.0-2.3","LF","ty0rq2vzkd","1280","720","en","eh06in06","null","","","","learningBlock2","","","","<div style=""font-size:60px;""> </div>","null","LF","learning/Slide84.JPG","This is a dep:","",""
"","html-keyboard-response","260","249552","0.0-8.0-0.4","LF","ty0rq2vzkd","1280","720","en","eh06in06","null","","","","learningBlock2","","","","This is a bim:","null","","","","",""
"","image-keyboard-response","261","249881","0.0-8.0-1.4","LF","ty0rq2vzkd","1280","720","en","eh06in06","null","","","","","","","","learning/Slide85.JPG","null","","","","",""
"","html-keyboard-response","262","250883","0.0-8.0-2.4","LF","ty0rq2vzkd","1280","720","en","eh06in06","null","","","","learningBlock2","","","","<div style=""font-size:60px;""> </div>","null","LF","learning/Slide85.JPG","This is a bim:","",""
"","html-keyboard-response","263","251885","0.0-8.0-0.5","LF","ty0rq2vzkd","1280","720","en","eh06in06","null","","","","learningBlock2","","","","This is a tob:","null","","","","",""
"","image-keyboard-response","264","252214","0.0-8.0-1.5","LF","ty0rq2vzkd","1280","720","en","eh06in06","null","","","","","","","","learning/Slide86.JPG","null","","","","",""
"","html-keyboard-response","265","253216","0.0-8.0-2.5","LF","ty0rq2vzkd","1280","720","en","eh06in06","null","","","","learningBlock2","","","","<div style=""font-size:60px;""> </div>","null","LF","learning/Slide86.JPG","This is a tob:","",""
"","html-keyboard-response","266","254217","0.0-8.0-0.6","LF","ty0rq2vzkd","1280","720","en","eh06in06","null","","","","learningBlock2","","","","This is a wug:","null","","","","",""
"","image-keyboard-response","267","254546","0.0-8.0-1.6","LF","ty0rq2vzkd","1280","720","en","eh06in06","null","","","","","","","","learning/Slide87.JPG","null","","","","",""
"","html-keyboard-response","268","255550","0.0-8.0-2.6","LF","ty0rq2vzkd","1280","720","en","eh06in06","null","","","","learningBlock2","","","","<div style=""font-size:60px;""> </div>","null","LF","learning/Slide87.JPG","This is a wug:","",""
"","html-keyboard-response","269","256552","0.0-8.0-0.7","LF","ty0rq2vzkd","1280","720","en","eh06in06","null","","","","learningBlock2","","","","This is a tob:","null","","","","",""
"","image-keyboard-response","270","256880","0.0-8.0-1.7","LF","ty0rq2vzkd","1280","720","en","eh06in06","null","","","","","","","","learning/Slide88.JPG","null","","","","",""
"","html-keyboard-response","271","257882","0.0-8.0-2.7","LF","ty0rq2vzkd","1280","720","en","eh06in06","null","","","","learningBlock2","","","","<div style=""font-size:60px;""> </div>","null","LF","learning/Slide88.JPG","This is a tob:","",""
"","html-keyboard-response","272","258884","0.0-8.0-0.8","LF","ty0rq2vzkd","1280","720","en","eh06in06","null","","","","learningBlock2","","","","This is a bim:","null","","","","",""
"","image-keyboard-response","273","259211","0.0-8.0-1.8","LF","ty0rq2vzkd","1280","720","en","eh06in06","null","","","","","","","","learning/Slide89.JPG","null","","","","",""
"","html-keyboard-response","274","260216","0.0-8.0-2.8","LF","ty0rq2vzkd","1280","720","en","eh06in06","null","","","","learningBlock2","","","","<div style=""font-size:60px;""> </div>","null","LF","learning/Slide89.JPG","This is a bim:","",""
"","html-keyboard-response","275","261218","0.0-8.0-0.9","LF","ty0rq2vzkd","1280","720","en","eh06in06","null","","","","learningBlock2","","","","This is a dep:","null","","","","",""
"","image-keyboard-response","276","261547","0.0-8.0-1.9","LF","ty0rq2vzkd","1280","720","en","eh06in06","null","","","","","","","","learning/Slide90.JPG","null","","","","",""
"","html-keyboard-response","277","262550","0.0-8.0-2.9","LF","ty0rq2vzkd","1280","720","en","eh06in06","null","","","","learningBlock2","","","","<div style=""font-size:60px;""> </div>","null","LF","learning/Slide90.JPG","This is a dep:","",""
"","html-keyboard-response","278","263552","0.0-8.0-0.10","LF","ty0rq2vzkd","1280","720","en","eh06in06","null","","","","learningBlock2","","","","This is a wug:","null","","","","",""
"","image-keyboard-response","279","263882","0.0-8.0-1.10","LF","ty0rq2vzkd","1280","720","en","eh06in06","null","","","","","","","","learning/Slide91.JPG","null","","","","",""
"","html-keyboard-response","280","264884","0.0-8.0-2.10","LF","ty0rq2vzkd","1280","720","en","eh06in06","null","","","","learningBlock2","","","","<div style=""font-size:60px;""> </div>","null","LF","learning/Slide91.JPG","This is a wug:","",""
"","html-keyboard-response","281","265885","0.0-8.0-0.11","LF","ty0rq2vzkd","1280","720","en","eh06in06","null","","","","learningBlock2","","","","This is a tob:","null","","","","",""
"","image-keyboard-response","282","266214","0.0-8.0-1.11","LF","ty0rq2vzkd","1280","720","en","eh06in06","null","","","","","","","","learning/Slide92.JPG","null","","","","",""
"","html-keyboard-response","283","267229","0.0-8.0-2.11","LF","ty0rq2vzkd","1280","720","en","eh06in06","null","","","","learningBlock2","","","","<div style=""font-size:60px;""> </div>","null","LF","learning/Slide92.JPG","This is a tob:","",""
"","html-keyboard-response","284","268231","0.0-8.0-0.12","LF","ty0rq2vzkd","1280","720","en","eh06in06","null","","","","learningBlock2","","","","This is a bim:","null","","","","",""
"","image-keyboard-response","285","268559","0.0-8.0-1.12","LF","ty0rq2vzkd","1280","720","en","eh06in06","null","","","","","","","","learning/Slide93.JPG","null","","","","",""
"","html-keyboard-response","286","269562","0.0-8.0-2.12","LF","ty0rq2vzkd","1280","720","en","eh06in06","null","","","","learningBlock2","","","","<div style=""font-size:60px;""> </div>","null","LF","learning/Slide93.JPG","This is a bim:","",""
"","html-keyboard-response","287","270564","0.0-8.0-0.13","LF","ty0rq2vzkd","1280","720","en","eh06in06","null","","","","learningBlock2","","","","This is a tob:","null","","","","",""
"","image-keyboard-response","288","270892","0.0-8.0-1.13","LF","ty0rq2vzkd","1280","720","en","eh06in06","null","","","","","","","","learning/Slide94.JPG","null","","","","",""
"","html-keyboard-response","289","271894","0.0-8.0-2.13","LF","ty0rq2vzkd","1280","720","en","eh06in06","null","","","","learningBlock2","","","","<div style=""font-size:60px;""> </div>","null","LF","learning/Slide94.JPG","This is a tob:","",""
"","html-keyboard-response","290","272896","0.0-8.0-0.14","LF","ty0rq2vzkd","1280","720","en","eh06in06","null","","","","learningBlock2","","","","This is a wug:","null","","","","",""
"","image-keyboard-response","291","273224","0.0-8.0-1.14","LF","ty0rq2vzkd","1280","720","en","eh06in06","null","","","","","","","","learning/Slide95.JPG","null","","","","",""
"","html-keyboard-response","292","274227","0.0-8.0-2.14","LF","ty0rq2vzkd","1280","720","en","eh06in06","null","","","","learningBlock2","","","","<div style=""font-size:60px;""> </div>","null","LF","learning/Slide95.JPG","This is a wug:","",""
"","html-keyboard-response","293","275229","0.0-8.0-0.15","LF","ty0rq2vzkd","1280","720","en","eh06in06","null","","","","learningBlock2","","","","This is a tob:","null","","","","",""
"","image-keyboard-response","294","275557","0.0-8.0-1.15","LF","ty0rq2vzkd","1280","720","en","eh06in06","null","","","","","","","","learning/Slide96.JPG","null","","","","",""
"","html-keyboard-response","295","276559","0.0-8.0-2.15","LF","ty0rq2vzkd","1280","720","en","eh06in06","null","","","","learningBlock2","","","","<div style=""font-size:60px;""> </div>","null","LF","learning/Slide96.JPG","This is a tob:","",""
"","html-keyboard-response","296","277561","0.0-8.0-0.16","LF","ty0rq2vzkd","1280","720","en","eh06in06","null","","","","learningBlock2","","","","This is a dep:","null","","","","",""
"","image-keyboard-response","297","277890","0.0-8.0-1.16","LF","ty0rq2vzkd","1280","720","en","eh06in06","null","","","","","","","","learning/Slide97.JPG","null","","","","",""
"","html-keyboard-response","298","278893","0.0-8.0-2.16","LF","ty0rq2vzkd","1280","720","en","eh06in06","null","","","","learningBlock2","","","","<div style=""font-size:60px;""> </div>","null","LF","learning/Slide97.JPG","This is a dep:","",""
"","html-keyboard-response","299","279897","0.0-8.0-0.17","LF","ty0rq2vzkd","1280","720","en","eh06in06","null","","","","learningBlock2","","","","This is a bim:","null","","","","",""
"","image-keyboard-response","300","280225","0.0-8.0-1.17","LF","ty0rq2vzkd","1280","720","en","eh06in06","null","","","","","","","","learning/Slide98.JPG","null","","","","",""
"","html-keyboard-response","301","281227","0.0-8.0-2.17","LF","ty0rq2vzkd","1280","720","en","eh06in06","null","","","","learningBlock2","","","","<div style=""font-size:60px;""> </div>","null","LF","learning/Slide98.JPG","This is a bim:","",""
"","html-keyboard-response","302","282229","0.0-8.0-0.18","LF","ty0rq2vzkd","1280","720","en","eh06in06","null","","","","learningBlock2","","","","This is a dep:","null","","","","",""
"","image-keyboard-response","303","282557","0.0-8.0-1.18","LF","ty0rq2vzkd","1280","720","en","eh06in06","null","","","","","","","","learning/Slide99.JPG","null","","","","",""
"","html-keyboard-response","304","283558","0.0-8.0-2.18","LF","ty0rq2vzkd","1280","720","en","eh06in06","null","","","","learningBlock2","","","","<div style=""font-size:60px;""> </div>","null","LF","learning/Slide99.JPG","This is a dep:","",""
"","html-keyboard-response","305","284561","0.0-8.0-0.19","LF","ty0rq2vzkd","1280","720","en","eh06in06","null","","","","learningBlock2","","","","This is a bim:","null","","","","",""
"","image-keyboard-response","306","284890","0.0-8.0-1.19","LF","ty0rq2vzkd","1280","720","en","eh06in06","null","","","","","","","","learning/Slide100.JPG","null","","","","",""
"","html-keyboard-response","307","285892","0.0-8.0-2.19","LF","ty0rq2vzkd","1280","720","en","eh06in06","null","","","","learningBlock2","","","","<div style=""font-size:60px;""> </div>","null","LF","learning/Slide100.JPG","This is a bim:","",""
"","html-keyboard-response","308","286895","0.0-8.0-0.20","LF","ty0rq2vzkd","1280","720","en","eh06in06","null","","","","learningBlock2","","","","This is a tob:","null","","","","",""
"","image-keyboard-response","309","287224","0.0-8.0-1.20","LF","ty0rq2vzkd","1280","720","en","eh06in06","null","","","","","","","","learning/Slide101.JPG","null","","","","",""
"","html-keyboard-response","310","288227","0.0-8.0-2.20","LF","ty0rq2vzkd","1280","720","en","eh06in06","null","","","","learningBlock2","","","","<div style=""font-size:60px;""> </div>","null","LF","learning/Slide101.JPG","This is a tob:","",""
"","html-keyboard-response","311","289230","0.0-8.0-0.21","LF","ty0rq2vzkd","1280","720","en","eh06in06","null","","","","learningBlock2","","","","This is a bim:","null","","","","",""
"","image-keyboard-response","312","289557","0.0-8.0-1.21","LF","ty0rq2vzkd","1280","720","en","eh06in06","null","","","","","","","","learning/Slide102.JPG","null","","","","",""
"","html-keyboard-response","313","290560","0.0-8.0-2.21","LF","ty0rq2vzkd","1280","720","en","eh06in06","null","","","","learningBlock2","","","","<div style=""font-size:60px;""> </div>","null","LF","learning/Slide102.JPG","This is a bim:","",""
"","html-keyboard-response","314","291563","0.0-8.0-0.22","LF","ty0rq2vzkd","1280","720","en","eh06in06","null","","","","learningBlock2","","","","This is a dep:","null","","","","",""
"","image-keyboard-response","315","291891","0.0-8.0-1.22","LF","ty0rq2vzkd","1280","720","en","eh06in06","null","","","","","","","","learning/Slide103.JPG","null","","","","",""
"","html-keyboard-response","316","292893","0.0-8.0-2.22","LF","ty0rq2vzkd","1280","720","en","eh06in06","null","","","","learningBlock2","","","","<div style=""font-size:60px;""> </div>","null","LF","learning/Slide103.JPG","This is a dep:","",""
"","html-keyboard-response","317","293895","0.0-8.0-0.23","LF","ty0rq2vzkd","1280","720","en","eh06in06","null","","","","learningBlock2","","","","This is a tob:","null","","","","",""
"","image-keyboard-response","318","294223","0.0-8.0-1.23","LF","ty0rq2vzkd","1280","720","en","eh06in06","null","","","","","","","","learning/Slide104.JPG","null","","","","",""
"","html-keyboard-response","319","295224","0.0-8.0-2.23","LF","ty0rq2vzkd","1280","720","en","eh06in06","null","","","","learningBlock2","","","","<div style=""font-size:60px;""> </div>","null","LF","learning/Slide104.JPG","This is a tob:","",""
"","html-keyboard-response","320","296225","0.0-8.0-0.24","LF","ty0rq2vzkd","1280","720","en","eh06in06","null","","","","learningBlock2","","","","This is a dep:","null","","","","",""
"","image-keyboard-response","321","296553","0.0-8.0-1.24","LF","ty0rq2vzkd","1280","720","en","eh06in06","null","","","","","","","","learning/Slide105.JPG","null","","","","",""
"","html-keyboard-response","322","297556","0.0-8.0-2.24","LF","ty0rq2vzkd","1280","720","en","eh06in06","null","","","","learningBlock2","","","","<div style=""font-size:60px;""> </div>","null","LF","learning/Slide105.JPG","This is a dep:","",""
"","html-keyboard-response","323","298559","0.0-8.0-0.25","LF","ty0rq2vzkd","1280","720","en","eh06in06","null","","","","learningBlock2","","","","This is a wug:","null","","","","",""
"","image-keyboard-response","324","298888","0.0-8.0-1.25","LF","ty0rq2vzkd","1280","720","en","eh06in06","null","","","","","","","","learning/Slide106.JPG","null","","","","",""
"","html-keyboard-response","325","299890","0.0-8.0-2.25","LF","ty0rq2vzkd","1280","720","en","eh06in06","null","","","","learningBlock2","","","","<div style=""font-size:60px;""> </div>","null","LF","learning/Slide106.JPG","This is a wug:","",""
"","html-keyboard-response","326","300892","0.0-8.0-0.26","LF","ty0rq2vzkd","1280","720","en","eh06in06","null","","","","learningBlock2","","","","This is a bim:","null","","","","",""
"","image-keyboard-response","327","301227","0.0-8.0-1.26","LF","ty0rq2vzkd","1280","720","en","eh06in06","null","","","","","","","","learning/Slide107.JPG","null","","","","",""
"","html-keyboard-response","328","302228","0.0-8.0-2.26","LF","ty0rq2vzkd","1280","720","en","eh06in06","null","","","","learningBlock2","","","","<div style=""font-size:60px;""> </div>","null","LF","learning/Slide107.JPG","This is a bim:","",""
"","html-keyboard-response","329","303230","0.0-8.0-0.27","LF","ty0rq2vzkd","1280","720","en","eh06in06","null","","","","learningBlock2","","","","This is a dep:","null","","","","",""
"","image-keyboard-response","330","303558","0.0-8.0-1.27","LF","ty0rq2vzkd","1280","720","en","eh06in06","null","","","","","","","","learning/Slide108.JPG","null","","","","",""
"","html-keyboard-response","331","304560","0.0-8.0-2.27","LF","ty0rq2vzkd","1280","720","en","eh06in06","null","","","","learningBlock2","","","","<div style=""font-size:60px;""> </div>","null","LF","learning/Slide108.JPG","This is a dep:","",""
"","html-keyboard-response","332","305562","0.0-8.0-0.28","LF","ty0rq2vzkd","1280","720","en","eh06in06","null","","","","learningBlock2","","","","This is a wug:","null","","","","",""
"","image-keyboard-response","333","305890","0.0-8.0-1.28","LF","ty0rq2vzkd","1280","720","en","eh06in06","null","","","","","","","","learning/Slide109.JPG","null","","","","",""
"","html-keyboard-response","334","306892","0.0-8.0-2.28","LF","ty0rq2vzkd","1280","720","en","eh06in06","null","","","","learningBlock2","","","","<div style=""font-size:60px;""> </div>","null","LF","learning/Slide109.JPG","This is a wug:","",""
"","html-keyboard-response","335","307894","0.0-8.0-0.29","LF","ty0rq2vzkd","1280","720","en","eh06in06","null","","","","learningBlock2","","","","This is a bim:","null","","","","",""
"","image-keyboard-response","336","308224","0.0-8.0-1.29","LF","ty0rq2vzkd","1280","720","en","eh06in06","null","","","","","","","","learning/Slide110.JPG","null","","","","",""
"","html-keyboard-response","337","309227","0.0-8.0-2.29","LF","ty0rq2vzkd","1280","720","en","eh06in06","null","","","","learningBlock2","","","","<div style=""font-size:60px;""> </div>","null","LF","learning/Slide110.JPG","This is a bim:","",""
"","html-keyboard-response","338","310228","0.0-8.0-0.30","LF","ty0rq2vzkd","1280","720","en","eh06in06","null","","","","learningBlock2","","","","This is a tob:","null","","","","",""
"","image-keyboard-response","339","310555","0.0-8.0-1.30","LF","ty0rq2vzkd","1280","720","en","eh06in06","null","","","","","","","","learning/Slide111.JPG","null","","","","",""
"","html-keyboard-response","340","311558","0.0-8.0-2.30","LF","ty0rq2vzkd","1280","720","en","eh06in06","null","","","","learningBlock2","","","","<div style=""font-size:60px;""> </div>","null","LF","learning/Slide111.JPG","This is a tob:","",""
"","html-keyboard-response","341","312560","0.0-8.0-0.31","LF","ty0rq2vzkd","1280","720","en","eh06in06","null","","","","learningBlock2","","","","This is a wug:","null","","","","",""
"","image-keyboard-response","342","312889","0.0-8.0-1.31","LF","ty0rq2vzkd","1280","720","en","eh06in06","null","","","","","","","","learning/Slide112.JPG","null","","","","",""
"","html-keyboard-response","343","313892","0.0-8.0-2.31","LF","ty0rq2vzkd","1280","720","en","eh06in06","null","","","","learningBlock2","","","","<div style=""font-size:60px;""> </div>","null","LF","learning/Slide112.JPG","This is a wug:","",""
"","html-keyboard-response","344","314898","0.0-8.0-0.32","LF","ty0rq2vzkd","1280","720","en","eh06in06","null","","","","learningBlock2","","","","This is a tob:","null","","","","",""
"","image-keyboard-response","345","315227","0.0-8.0-1.32","LF","ty0rq2vzkd","1280","720","en","eh06in06","null","","","","","","","","learning/Slide113.JPG","null","","","","",""
"","html-keyboard-response","346","316230","0.0-8.0-2.32","LF","ty0rq2vzkd","1280","720","en","eh06in06","null","","","","learningBlock2","","","","<div style=""font-size:60px;""> </div>","null","LF","learning/Slide113.JPG","This is a tob:","",""
"","html-keyboard-response","347","317232","0.0-8.0-0.33","LF","ty0rq2vzkd","1280","720","en","eh06in06","null","","","","learningBlock2","","","","This is a wug:","null","","","","",""
"","image-keyboard-response","348","317560","0.0-8.0-1.33","LF","ty0rq2vzkd","1280","720","en","eh06in06","null","","","","","","","","learning/Slide114.JPG","null","","","","",""
"","html-keyboard-response","349","318563","0.0-8.0-2.33","LF","ty0rq2vzkd","1280","720","en","eh06in06","null","","","","learningBlock2","","","","<div style=""font-size:60px;""> </div>","null","LF","learning/Slide114.JPG","This is a wug:","",""
"","html-keyboard-response","350","319566","0.0-8.0-0.34","LF","ty0rq2vzkd","1280","720","en","eh06in06","null","","","","learningBlock2","","","","This is a bim:","null","","","","",""
"","image-keyboard-response","351","319894","0.0-8.0-1.34","LF","ty0rq2vzkd","1280","720","en","eh06in06","null","","","","","","","","learning/Slide115.JPG","null","","","","",""
"","html-keyboard-response","352","320897","0.0-8.0-2.34","LF","ty0rq2vzkd","1280","720","en","eh06in06","null","","","","learningBlock2","","","","<div style=""font-size:60px;""> </div>","null","LF","learning/Slide115.JPG","This is a bim:","",""
"","html-keyboard-response","353","321900","0.0-8.0-0.35","LF","ty0rq2vzkd","1280","720","en","eh06in06","null","","","","learningBlock2","","","","This is a dep:","null","","","","",""
"","image-keyboard-response","354","322228","0.0-8.0-1.35","LF","ty0rq2vzkd","1280","720","en","eh06in06","null","","","","","","","","learning/Slide116.JPG","null","","","","",""
"","html-keyboard-response","355","323229","0.0-8.0-2.35","LF","ty0rq2vzkd","1280","720","en","eh06in06","null","","","","learningBlock2","","","","<div style=""font-size:60px;""> </div>","null","LF","learning/Slide116.JPG","This is a dep:","",""
"","html-keyboard-response","356","324230","0.0-8.0-0.36","LF","ty0rq2vzkd","1280","720","en","eh06in06","null","","","","learningBlock2","","","","This is a tob:","null","","","","",""
"","image-keyboard-response","357","324558","0.0-8.0-1.36","LF","ty0rq2vzkd","1280","720","en","eh06in06","null","","","","","","","","learning/Slide117.JPG","null","","","","",""
"","html-keyboard-response","358","325561","0.0-8.0-2.36","LF","ty0rq2vzkd","1280","720","en","eh06in06","null","","","","learningBlock2","","","","<div style=""font-size:60px;""> </div>","null","LF","learning/Slide117.JPG","This is a tob:","",""
"","html-keyboard-response","359","326562","0.0-8.0-0.37","LF","ty0rq2vzkd","1280","720","en","eh06in06","null","","","","learningBlock2","","","","This is a dep:","null","","","","",""
"","image-keyboard-response","360","326890","0.0-8.0-1.37","LF","ty0rq2vzkd","1280","720","en","eh06in06","null","","","","","","","","learning/Slide118.JPG","null","","","","",""
"","html-keyboard-response","361","327893","0.0-8.0-2.37","LF","ty0rq2vzkd","1280","720","en","eh06in06","null","","","","learningBlock2","","","","<div style=""font-size:60px;""> </div>","null","LF","learning/Slide118.JPG","This is a dep:","",""
"","html-keyboard-response","362","328895","0.0-8.0-0.38","LF","ty0rq2vzkd","1280","720","en","eh06in06","null","","","","learningBlock2","","","","This is a wug:","null","","","","",""
"","image-keyboard-response","363","329222","0.0-8.0-1.38","LF","ty0rq2vzkd","1280","720","en","eh06in06","null","","","","","","","","learning/Slide119.JPG","null","","","","",""
"","html-keyboard-response","364","330225","0.0-8.0-2.38","LF","ty0rq2vzkd","1280","720","en","eh06in06","null","","","","learningBlock2","","","","<div style=""font-size:60px;""> </div>","null","LF","learning/Slide119.JPG","This is a wug:","",""
"","html-keyboard-response","365","331227","0.0-8.0-0.39","LF","ty0rq2vzkd","1280","720","en","eh06in06","null","","","","learningBlock2","","","","This is a dep:","null","","","","",""
"","image-keyboard-response","366","331555","0.0-8.0-1.39","LF","ty0rq2vzkd","1280","720","en","eh06in06","null","","","","","","","","learning/Slide120.JPG","null","","","","",""
"","html-keyboard-response","367","332558","0.0-8.0-2.39","LF","ty0rq2vzkd","1280","720","en","eh06in06","null","","","","learningBlock2","","","","<div style=""font-size:60px;""> </div>","null","LF","learning/Slide120.JPG","This is a dep:","",""
"","html-keyboard-response","368","333572","0.0-8.0-0.40","LF","ty0rq2vzkd","1280","720","en","eh06in06","null","","","","learningBlock2","","","","This is a bim:","null","","","","",""
"","image-keyboard-response","369","333900","0.0-8.0-1.40","LF","ty0rq2vzkd","1280","720","en","eh06in06","null","","","","","","","","learning/Slide121.JPG","null","","","","",""
"","html-keyboard-response","370","334903","0.0-8.0-2.40","LF","ty0rq2vzkd","1280","720","en","eh06in06","null","","","","learningBlock2","","","","<div style=""font-size:60px;""> </div>","null","LF","learning/Slide121.JPG","This is a bim:","",""
"","html-keyboard-response","371","335905","0.0-8.0-0.41","LF","ty0rq2vzkd","1280","720","en","eh06in06","null","","","","learningBlock2","","","","This is a wug:","null","","","","",""
"","image-keyboard-response","372","336234","0.0-8.0-1.41","LF","ty0rq2vzkd","1280","720","en","eh06in06","null","","","","","","","","learning/Slide122.JPG","null","","","","",""
"","html-keyboard-response","373","337236","0.0-8.0-2.41","LF","ty0rq2vzkd","1280","720","en","eh06in06","null","","","","learningBlock2","","","","<div style=""font-size:60px;""> </div>","null","LF","learning/Slide122.JPG","This is a wug:","",""
"","html-keyboard-response","374","338238","0.0-8.0-0.42","LF","ty0rq2vzkd","1280","720","en","eh06in06","null","","","","learningBlock2","","","","This is a bim:","null","","","","",""
"","image-keyboard-response","375","338567","0.0-8.0-1.42","LF","ty0rq2vzkd","1280","720","en","eh06in06","null","","","","","","","","learning/Slide123.JPG","null","","","","",""
"","html-keyboard-response","376","339569","0.0-8.0-2.42","LF","ty0rq2vzkd","1280","720","en","eh06in06","null","","","","learningBlock2","","","","<div style=""font-size:60px;""> </div>","null","LF","learning/Slide123.JPG","This is a bim:","",""
"","html-keyboard-response","377","340571","0.0-8.0-0.43","LF","ty0rq2vzkd","1280","720","en","eh06in06","null","","","","learningBlock2","","","","This is a tob:","null","","","","",""
"","image-keyboard-response","378","340898","0.0-8.0-1.43","LF","ty0rq2vzkd","1280","720","en","eh06in06","null","","","","","","","","learning/Slide124.JPG","null","","","","",""
"","html-keyboard-response","379","341900","0.0-8.0-2.43","LF","ty0rq2vzkd","1280","720","en","eh06in06","null","","","","learningBlock2","","","","<div style=""font-size:60px;""> </div>","null","LF","learning/Slide124.JPG","This is a tob:","",""
"","html-keyboard-response","380","342902","0.0-8.0-0.44","LF","ty0rq2vzkd","1280","720","en","eh06in06","null","","","","learningBlock2","","","","This is a bim:","null","","","","",""
"","image-keyboard-response","381","343230","0.0-8.0-1.44","LF","ty0rq2vzkd","1280","720","en","eh06in06","null","","","","","","","","learning/Slide125.JPG","null","","","","",""
"","html-keyboard-response","382","344232","0.0-8.0-2.44","LF","ty0rq2vzkd","1280","720","en","eh06in06","null","","","","learningBlock2","","","","<div style=""font-size:60px;""> </div>","null","LF","learning/Slide125.JPG","This is a bim:","",""
"","html-keyboard-response","383","345233","0.0-8.0-0.45","LF","ty0rq2vzkd","1280","720","en","eh06in06","null","","","","learningBlock2","","","","This is a tob:","null","","","","",""
"","image-keyboard-response","384","345562","0.0-8.0-1.45","LF","ty0rq2vzkd","1280","720","en","eh06in06","null","","","","","","","","learning/Slide126.JPG","null","","","","",""
"","html-keyboard-response","385","346565","0.0-8.0-2.45","LF","ty0rq2vzkd","1280","720","en","eh06in06","null","","","","learningBlock2","","","","<div style=""font-size:60px;""> </div>","null","LF","learning/Slide126.JPG","This is a tob:","",""
"","html-keyboard-response","386","347566","0.0-8.0-0.46","LF","ty0rq2vzkd","1280","720","en","eh06in06","null","","","","learningBlock2","","","","This is a dep:","null","","","","",""
"","image-keyboard-response","387","347895","0.0-8.0-1.46","LF","ty0rq2vzkd","1280","720","en","eh06in06","null","","","","","","","","learning/Slide127.JPG","null","","","","",""
"","html-keyboard-response","388","348901","0.0-8.0-2.46","LF","ty0rq2vzkd","1280","720","en","eh06in06","null","","","","learningBlock2","","","","<div style=""font-size:60px;""> </div>","null","LF","learning/Slide127.JPG","This is a dep:","",""
"","html-keyboard-response","389","349903","0.0-8.0-0.47","LF","ty0rq2vzkd","1280","720","en","eh06in06","null","","","","learningBlock2","","","","This is a wug:","null","","","","",""
"","image-keyboard-response","390","350230","0.0-8.0-1.47","LF","ty0rq2vzkd","1280","720","en","eh06in06","null","","","","","","","","learning/Slide128.JPG","null","","","","",""
"","html-keyboard-response","391","351232","0.0-8.0-2.47","LF","ty0rq2vzkd","1280","720","en","eh06in06","null","","","","learningBlock2","","","","<div style=""font-size:60px;""> </div>","null","LF","learning/Slide128.JPG","This is a wug:","",""
"","html-keyboard-response","392","352235","0.0-8.0-0.48","LF","ty0rq2vzkd","1280","720","en","eh06in06","null","","","","learningBlock2","","","","This is a tob:","null","","","","",""
"","image-keyboard-response","393","352563","0.0-8.0-1.48","LF","ty0rq2vzkd","1280","720","en","eh06in06","null","","","","","","","","learning/Slide129.JPG","null","","","","",""
"","html-keyboard-response","394","353566","0.0-8.0-2.48","LF","ty0rq2vzkd","1280","720","en","eh06in06","null","","","","learningBlock2","","","","<div style=""font-size:60px;""> </div>","null","LF","learning/Slide129.JPG","This is a tob:","",""
"","html-keyboard-response","395","354570","0.0-8.0-0.49","LF","ty0rq2vzkd","1280","720","en","eh06in06","null","","","","learningBlock2","","","","This is a wug:","null","","","","",""
"","image-keyboard-response","396","354898","0.0-8.0-1.49","LF","ty0rq2vzkd","1280","720","en","eh06in06","null","","","","","","","","learning/Slide130.JPG","null","","","","",""
"","html-keyboard-response","397","355900","0.0-8.0-2.49","LF","ty0rq2vzkd","1280","720","en","eh06in06","null","","","","learningBlock2","","","","<div style=""font-size:60px;""> </div>","null","LF","learning/Slide130.JPG","This is a wug:","",""
"","html-keyboard-response","398","356901","0.0-8.0-0.50","LF","ty0rq2vzkd","1280","720","en","eh06in06","null","","","","learningBlock2","","","","This is a bim:","null","","","","",""
"","image-keyboard-response","399","357229","0.0-8.0-1.50","LF","ty0rq2vzkd","1280","720","en","eh06in06","null","","","","","","","","learning/Slide131.JPG","null","","","","",""
"","html-keyboard-response","400","358232","0.0-8.0-2.50","LF","ty0rq2vzkd","1280","720","en","eh06in06","null","","","","learningBlock2","","","","<div style=""font-size:60px;""> </div>","null","LF","learning/Slide131.JPG","This is a bim:","",""
"","html-keyboard-response","401","359233","0.0-8.0-0.51","LF","ty0rq2vzkd","1280","720","en","eh06in06","null","","","","learningBlock2","","","","This is a dep:","null","","","","",""
"","image-keyboard-response","402","359561","0.0-8.0-1.51","LF","ty0rq2vzkd","1280","720","en","eh06in06","null","","","","","","","","learning/Slide132.JPG","null","","","","",""
"","html-keyboard-response","403","360564","0.0-8.0-2.51","LF","ty0rq2vzkd","1280","720","en","eh06in06","null","","","","learningBlock2","","","","<div style=""font-size:60px;""> </div>","null","LF","learning/Slide132.JPG","This is a dep:","",""
"","html-keyboard-response","404","361569","0.0-8.0-0.52","LF","ty0rq2vzkd","1280","720","en","eh06in06","null","","","","learningBlock2","","","","This is a tob:","null","","","","",""
"","image-keyboard-response","405","361898","0.0-8.0-1.52","LF","ty0rq2vzkd","1280","720","en","eh06in06","null","","","","","","","","learning/Slide133.JPG","null","","","","",""
"","html-keyboard-response","406","362901","0.0-8.0-2.52","LF","ty0rq2vzkd","1280","720","en","eh06in06","null","","","","learningBlock2","","","","<div style=""font-size:60px;""> </div>","null","LF","learning/Slide133.JPG","This is a tob:","",""
"","html-keyboard-response","407","363906","0.0-8.0-0.53","LF","ty0rq2vzkd","1280","720","en","eh06in06","null","","","","learningBlock2","","","","This is a dep:","null","","","","",""
"","image-keyboard-response","408","364234","0.0-8.0-1.53","LF","ty0rq2vzkd","1280","720","en","eh06in06","null","","","","","","","","learning/Slide134.JPG","null","","","","",""
"","html-keyboard-response","409","365235","0.0-8.0-2.53","LF","ty0rq2vzkd","1280","720","en","eh06in06","null","","","","learningBlock2","","","","<div style=""font-size:60px;""> </div>","null","LF","learning/Slide134.JPG","This is a dep:","",""
"","html-keyboard-response","410","366237","0.0-8.0-0.54","LF","ty0rq2vzkd","1280","720","en","eh06in06","null","","","","learningBlock2","","","","This is a tob:","null","","","","",""
"","image-keyboard-response","411","366565","0.0-8.0-1.54","LF","ty0rq2vzkd","1280","720","en","eh06in06","null","","","","","","","","learning/Slide135.JPG","null","","","","",""
"","html-keyboard-response","412","367568","0.0-8.0-2.54","LF","ty0rq2vzkd","1280","720","en","eh06in06","null","","","","learningBlock2","","","","<div style=""font-size:60px;""> </div>","null","LF","learning/Slide135.JPG","This is a tob:","",""
"","html-keyboard-response","413","368570","0.0-8.0-0.55","LF","ty0rq2vzkd","1280","720","en","eh06in06","null","","","","learningBlock2","","","","This is a wug:","null","","","","",""
"","image-keyboard-response","414","368898","0.0-8.0-1.55","LF","ty0rq2vzkd","1280","720","en","eh06in06","null","","","","","","","","learning/Slide136.JPG","null","","","","",""
"","html-keyboard-response","415","369900","0.0-8.0-2.55","LF","ty0rq2vzkd","1280","720","en","eh06in06","null","","","","learningBlock2","","","","<div style=""font-size:60px;""> </div>","null","LF","learning/Slide136.JPG","This is a wug:","",""
"","html-keyboard-response","416","370903","0.0-8.0-0.56","LF","ty0rq2vzkd","1280","720","en","eh06in06","null","","","","learningBlock2","","","","This is a tob:","null","","","","",""
"","image-keyboard-response","417","371243","0.0-8.0-1.56","LF","ty0rq2vzkd","1280","720","en","eh06in06","null","","","","","","","","learning/Slide137.JPG","null","","","","",""
"","html-keyboard-response","418","372245","0.0-8.0-2.56","LF","ty0rq2vzkd","1280","720","en","eh06in06","null","","","","learningBlock2","","","","<div style=""font-size:60px;""> </div>","null","LF","learning/Slide137.JPG","This is a tob:","",""
"","html-keyboard-response","419","373247","0.0-8.0-0.57","LF","ty0rq2vzkd","1280","720","en","eh06in06","null","","","","learningBlock2","","","","This is a bim:","null","","","","",""
"","image-keyboard-response","420","373576","0.0-8.0-1.57","LF","ty0rq2vzkd","1280","720","en","eh06in06","null","","","","","","","","learning/Slide138.JPG","null","","","","",""
"","html-keyboard-response","421","374578","0.0-8.0-2.57","LF","ty0rq2vzkd","1280","720","en","eh06in06","null","","","","learningBlock2","","","","<div style=""font-size:60px;""> </div>","null","LF","learning/Slide138.JPG","This is a bim:","",""
"","html-keyboard-response","422","375596","0.0-8.0-0.58","LF","ty0rq2vzkd","1280","720","en","eh06in06","null","","","","learningBlock2","","","","This is a wug:","null","","","","",""
"","image-keyboard-response","423","375926","0.0-8.0-1.58","LF","ty0rq2vzkd","1280","720","en","eh06in06","null","","","","","","","","learning/Slide139.JPG","null","","","","",""
"","html-keyboard-response","424","376928","0.0-8.0-2.58","LF","ty0rq2vzkd","1280","720","en","eh06in06","null","","","","learningBlock2","","","","<div style=""font-size:60px;""> </div>","null","LF","learning/Slide139.JPG","This is a wug:","",""
"","html-keyboard-response","425","377930","0.0-8.0-0.59","LF","ty0rq2vzkd","1280","720","en","eh06in06","null","","","","learningBlock2","","","","This is a dep:","null","","","","",""
"","image-keyboard-response","426","378258","0.0-8.0-1.59","LF","ty0rq2vzkd","1280","720","en","eh06in06","null","","","","","","","","learning/Slide140.JPG","null","","","","",""
"","html-keyboard-response","427","379261","0.0-8.0-2.59","LF","ty0rq2vzkd","1280","720","en","eh06in06","null","","","","learningBlock2","","","","<div style=""font-size:60px;""> </div>","null","LF","learning/Slide140.JPG","This is a dep:","",""
"","html-keyboard-response","428","380262","0.0-8.0-0.60","LF","ty0rq2vzkd","1280","720","en","eh06in06","null","","","","learningBlock2","","","","This is a tob:","null","","","","",""
"","image-keyboard-response","429","380590","0.0-8.0-1.60","LF","ty0rq2vzkd","1280","720","en","eh06in06","null","","","","","","","","learning/Slide141.JPG","null","","","","",""
"","html-keyboard-response","430","381593","0.0-8.0-2.60","LF","ty0rq2vzkd","1280","720","en","eh06in06","null","","","","learningBlock2","","","","<div style=""font-size:60px;""> </div>","null","LF","learning/Slide141.JPG","This is a tob:","",""
"","html-keyboard-response","431","382595","0.0-8.0-0.61","LF","ty0rq2vzkd","1280","720","en","eh06in06","null","","","","learningBlock2","","","","This is a wug:","null","","","","",""
"","image-keyboard-response","432","382924","0.0-8.0-1.61","LF","ty0rq2vzkd","1280","720","en","eh06in06","null","","","","","","","","learning/Slide142.JPG","null","","","","",""
"","html-keyboard-response","433","383926","0.0-8.0-2.61","LF","ty0rq2vzkd","1280","720","en","eh06in06","null","","","","learningBlock2","","","","<div style=""font-size:60px;""> </div>","null","LF","learning/Slide142.JPG","This is a wug:","",""
"","html-keyboard-response","434","384928","0.0-8.0-0.62","LF","ty0rq2vzkd","1280","720","en","eh06in06","null","","","","learningBlock2","","","","This is a bim:","null","","","","",""
"","image-keyboard-response","435","385257","0.0-8.0-1.62","LF","ty0rq2vzkd","1280","720","en","eh06in06","null","","","","","","","","learning/Slide143.JPG","null","","","","",""
"","html-keyboard-response","436","386259","0.0-8.0-2.62","LF","ty0rq2vzkd","1280","720","en","eh06in06","null","","","","learningBlock2","","","","<div style=""font-size:60px;""> </div>","null","LF","learning/Slide143.JPG","This is a bim:","",""
"","html-keyboard-response","437","387260","0.0-8.0-0.63","LF","ty0rq2vzkd","1280","720","en","eh06in06","null","","","","learningBlock2","","","","This is a dep:","null","","","","",""
"","image-keyboard-response","438","387589","0.0-8.0-1.63","LF","ty0rq2vzkd","1280","720","en","eh06in06","null","","","","","","","","learning/Slide144.JPG","null","","","","",""
"","html-keyboard-response","439","388592","0.0-8.0-2.63","LF","ty0rq2vzkd","1280","720","en","eh06in06","null","","","","learningBlock2","","","","<div style=""font-size:60px;""> </div>","null","LF","learning/Slide144.JPG","This is a dep:","",""
"","html-keyboard-response","440","389594","0.0-8.0-0.64","LF","ty0rq2vzkd","1280","720","en","eh06in06","null","","","","learningBlock2","","","","This is a bim:","null","","","","",""
"","image-keyboard-response","441","389923","0.0-8.0-1.64","LF","ty0rq2vzkd","1280","720","en","eh06in06","null","","","","","","","","learning/Slide145.JPG","null","","","","",""
"","html-keyboard-response","442","390925","0.0-8.0-2.64","LF","ty0rq2vzkd","1280","720","en","eh06in06","null","","","","learningBlock2","","","","<div style=""font-size:60px;""> </div>","null","LF","learning/Slide145.JPG","This is a bim:","",""
"","html-keyboard-response","443","391927","0.0-8.0-0.65","LF","ty0rq2vzkd","1280","720","en","eh06in06","null","","","","learningBlock2","","","","This is a tob:","null","","","","",""
"","image-keyboard-response","444","392256","0.0-8.0-1.65","LF","ty0rq2vzkd","1280","720","en","eh06in06","null","","","","","","","","learning/Slide146.JPG","null","","","","",""
"","html-keyboard-response","445","393263","0.0-8.0-2.65","LF","ty0rq2vzkd","1280","720","en","eh06in06","null","","","","learningBlock2","","","","<div style=""font-size:60px;""> </div>","null","LF","learning/Slide146.JPG","This is a tob:","",""
"","html-keyboard-response","446","394266","0.0-8.0-0.66","LF","ty0rq2vzkd","1280","720","en","eh06in06","null","","","","learningBlock2","","","","This is a wug:","null","","","","",""
"","image-keyboard-response","447","394593","0.0-8.0-1.66","LF","ty0rq2vzkd","1280","720","en","eh06in06","null","","","","","","","","learning/Slide147.JPG","null","","","","",""
"","html-keyboard-response","448","395596","0.0-8.0-2.66","LF","ty0rq2vzkd","1280","720","en","eh06in06","null","","","","learningBlock2","","","","<div style=""font-size:60px;""> </div>","null","LF","learning/Slide147.JPG","This is a wug:","",""
"","html-keyboard-response","449","396599","0.0-8.0-0.67","LF","ty0rq2vzkd","1280","720","en","eh06in06","null","","","","learningBlock2","","","","This is a bim:","null","","","","",""
"","image-keyboard-response","450","396927","0.0-8.0-1.67","LF","ty0rq2vzkd","1280","720","en","eh06in06","null","","","","","","","","learning/Slide148.JPG","null","","","","",""
"","html-keyboard-response","451","397929","0.0-8.0-2.67","LF","ty0rq2vzkd","1280","720","en","eh06in06","null","","","","learningBlock2","","","","<div style=""font-size:60px;""> </div>","null","LF","learning/Slide148.JPG","This is a bim:","",""
"","html-keyboard-response","452","398932","0.0-8.0-0.68","LF","ty0rq2vzkd","1280","720","en","eh06in06","null","","","","learningBlock2","","","","This is a dep:","null","","","","",""
"","image-keyboard-response","453","399260","0.0-8.0-1.68","LF","ty0rq2vzkd","1280","720","en","eh06in06","null","","","","","","","","learning/Slide149.JPG","null","","","","",""
"","html-keyboard-response","454","400263","0.0-8.0-2.68","LF","ty0rq2vzkd","1280","720","en","eh06in06","null","","","","learningBlock2","","","","<div style=""font-size:60px;""> </div>","null","LF","learning/Slide149.JPG","This is a dep:","",""
"","html-keyboard-response","455","401264","0.0-8.0-0.69","LF","ty0rq2vzkd","1280","720","en","eh06in06","null","","","","learningBlock2","","","","This is a wug:","null","","","","",""
"","image-keyboard-response","456","401592","0.0-8.0-1.69","LF","ty0rq2vzkd","1280","720","en","eh06in06","null","","","","","","","","learning/Slide150.JPG","null","","","","",""
"","html-keyboard-response","457","402595","0.0-8.0-2.69","LF","ty0rq2vzkd","1280","720","en","eh06in06","null","","","","learningBlock2","","","","<div style=""font-size:60px;""> </div>","null","LF","learning/Slide150.JPG","This is a wug:","",""
"","html-keyboard-response","458","403597","0.0-8.0-0.70","LF","ty0rq2vzkd","1280","720","en","eh06in06","null","","","","learningBlock2","","","","This is a dep:","null","","","","",""
"","image-keyboard-response","459","403926","0.0-8.0-1.70","LF","ty0rq2vzkd","1280","720","en","eh06in06","null","","","","","","","","learning/Slide151.JPG","null","","","","",""
"","html-keyboard-response","460","404928","0.0-8.0-2.70","LF","ty0rq2vzkd","1280","720","en","eh06in06","null","","","","learningBlock2","","","","<div style=""font-size:60px;""> </div>","null","LF","learning/Slide151.JPG","This is a dep:","",""
"","html-keyboard-response","461","405931","0.0-8.0-0.71","LF","ty0rq2vzkd","1280","720","en","eh06in06","null","","","","learningBlock2","","","","This is a wug:","null","","","","",""
"","image-keyboard-response","462","406259","0.0-8.0-1.71","LF","ty0rq2vzkd","1280","720","en","eh06in06","null","","","","","","","","learning/Slide152.JPG","null","","","","",""
"","html-keyboard-response","463","407261","0.0-8.0-2.71","LF","ty0rq2vzkd","1280","720","en","eh06in06","null","","","","learningBlock2","","","","<div style=""font-size:60px;""> </div>","null","LF","learning/Slide152.JPG","This is a wug:","",""
"","html-keyboard-response","464","408263","0.0-8.0-0.72","LF","ty0rq2vzkd","1280","720","en","eh06in06","null","","","","learningBlock2","","","","This is a bim:","null","","","","",""
"","image-keyboard-response","465","408591","0.0-8.0-1.72","LF","ty0rq2vzkd","1280","720","en","eh06in06","null","","","","","","","","learning/Slide153.JPG","null","","","","",""
"","html-keyboard-response","466","409594","0.0-8.0-2.72","LF","ty0rq2vzkd","1280","720","en","eh06in06","null","","","","learningBlock2","","","","<div style=""font-size:60px;""> </div>","null","LF","learning/Slide153.JPG","This is a bim:","",""
"","html-keyboard-response","467","410596","0.0-8.0-0.73","LF","ty0rq2vzkd","1280","720","en","eh06in06","null","","","","learningBlock2","","","","This is a tob:","null","","","","",""
"","image-keyboard-response","468","410924","0.0-8.0-1.73","LF","ty0rq2vzkd","1280","720","en","eh06in06","null","","","","","","","","learning/Slide154.JPG","null","","","","",""
"","html-keyboard-response","469","411927","0.0-8.0-2.73","LF","ty0rq2vzkd","1280","720","en","eh06in06","null","","","","learningBlock2","","","","<div style=""font-size:60px;""> </div>","null","LF","learning/Slide154.JPG","This is a tob:","",""
"","html-keyboard-response","470","412929","0.0-8.0-0.74","LF","ty0rq2vzkd","1280","720","en","eh06in06","null","","","","learningBlock2","","","","This is a dep:","null","","","","",""
"","image-keyboard-response","471","413258","0.0-8.0-1.74","LF","ty0rq2vzkd","1280","720","en","eh06in06","null","","","","","","","","learning/Slide155.JPG","null","","","","",""
"","html-keyboard-response","472","414260","0.0-8.0-2.74","LF","ty0rq2vzkd","1280","720","en","eh06in06","null","","","","learningBlock2","","","","<div style=""font-size:60px;""> </div>","null","LF","learning/Slide155.JPG","This is a dep:","",""
"","html-keyboard-response","473","415262","0.0-8.0-0.75","LF","ty0rq2vzkd","1280","720","en","eh06in06","null","","","","learningBlock2","","","","This is a bim:","null","","","","",""
"","image-keyboard-response","474","415590","0.0-8.0-1.75","LF","ty0rq2vzkd","1280","720","en","eh06in06","null","","","","","","","","learning/Slide156.JPG","null","","","","",""
"","html-keyboard-response","475","416593","0.0-8.0-2.75","LF","ty0rq2vzkd","1280","720","en","eh06in06","null","","","","learningBlock2","","","","<div style=""font-size:60px;""> </div>","null","LF","learning/Slide156.JPG","This is a bim:","",""
"","html-keyboard-response","476","417595","0.0-8.0-0.76","LF","ty0rq2vzkd","1280","720","en","eh06in06","null","","","","learningBlock2","","","","This is a dep:","null","","","","",""
"","image-keyboard-response","477","417923","0.0-8.0-1.76","LF","ty0rq2vzkd","1280","720","en","eh06in06","null","","","","","","","","learning/Slide157.JPG","null","","","","",""
"","html-keyboard-response","478","418926","0.0-8.0-2.76","LF","ty0rq2vzkd","1280","720","en","eh06in06","null","","","","learningBlock2","","","","<div style=""font-size:60px;""> </div>","null","LF","learning/Slide157.JPG","This is a dep:","",""
"","html-keyboard-response","479","419928","0.0-8.0-0.77","LF","ty0rq2vzkd","1280","720","en","eh06in06","null","","","","learningBlock2","","","","This is a tob:","null","","","","",""
"","image-keyboard-response","480","420257","0.0-8.0-1.77","LF","ty0rq2vzkd","1280","720","en","eh06in06","null","","","","","","","","learning/Slide158.JPG","null","","","","",""
"","html-keyboard-response","481","421258","0.0-8.0-2.77","LF","ty0rq2vzkd","1280","720","en","eh06in06","null","","","","learningBlock2","","","","<div style=""font-size:60px;""> </div>","null","LF","learning/Slide158.JPG","This is a tob:","",""
"","html-keyboard-response","482","422260","0.0-8.0-0.78","LF","ty0rq2vzkd","1280","720","en","eh06in06","null","","","","learningBlock2","","","","This is a dep:","null","","","","",""
"","image-keyboard-response","483","422588","0.0-8.0-1.78","LF","ty0rq2vzkd","1280","720","en","eh06in06","null","","","","","","","","learning/Slide159.JPG","null","","","","",""
"","html-keyboard-response","484","423591","0.0-8.0-2.78","LF","ty0rq2vzkd","1280","720","en","eh06in06","null","","","","learningBlock2","","","","<div style=""font-size:60px;""> </div>","null","LF","learning/Slide159.JPG","This is a dep:","",""
"","html-keyboard-response","485","424594","0.0-8.0-0.79","LF","ty0rq2vzkd","1280","720","en","eh06in06","null","","","","learningBlock2","","","","This is a wug:","null","","","","",""
"","image-keyboard-response","486","424921","0.0-8.0-1.79","LF","ty0rq2vzkd","1280","720","en","eh06in06","null","","","","","","","","learning/Slide160.JPG","null","","","","",""
"","html-keyboard-response","487","425924","0.0-8.0-2.79","LF","ty0rq2vzkd","1280","720","en","eh06in06","null","","","","learningBlock2","","","","<div style=""font-size:60px;""> </div>","null","LF","learning/Slide160.JPG","This is a wug:","",""
"","resize2","488","430126","0.0-9.0","LF","ty0rq2vzkd","1280","720","en","eh06in06","","","","","","","104","1.04","","","","","","",""
"","instructions","489","439072","0.0-10.0","LF","ty0rq2vzkd","1280","720","en","eh06in06","NA","","","[{""page_index"":0,""viewing_time"":8944.76499967277}]","instructions","","","","","","","","","",""
"","html-keyboard-response","490","440074","0.0-11.0-0.0","LF","ty0rq2vzkd","1280","720","en","eh06in06","null","","","","","","","","<div style=""font-size:60px;"">+</div>","null","","","","",""
