"success","trial_type","trial_index","time_elapsed","internal_node_id","condition","subject","screen_width","screen_height","language","codeword","rt","responses","url","view_history","test_part","final_height_px","final_width_px","scale_factor","stimulus","key_press","learningType","presentedImage","presentedLabel","button_pressed","response"
"true","fullscreen","0","6008","0.0-0.0","FL","2z8ekchs9g","1920","1080","en","rt08ed02","","","","","","","","","","","","","","",""
"","survey-html-form","1","17482","0.0-1.0","FL","2z8ekchs9g","1920","1080","en","rt08ed02","11467.075000051409","{""language"":""en""}","","","","","","","","","","","","",""
"","external-html","2","53609","0.0-3.0-0.0","FL","2z8ekchs9g","1920","1080","en","rt08ed02","36043.040000018664","","text/information_english.html","","","","","","","","","","","",""
"","external-html","3","70570","0.0-3.0-1.0","FL","2z8ekchs9g","1920","1080","en","rt08ed02","16884.42000001669","","text/consent_english.html","","","","","","","","","","","",""
"","survey-html-form","4","188867","0.0-3.0-2.0","FL","2z8ekchs9g","1920","1080","en","rt08ed02","118289.02000002563","{""codeword_enter"":""rt08ed02""}","","","","","","","","","","","","",""
"","instructions","5","208466","0.0-4.0","FL","2z8ekchs9g","1920","1080","en","rt08ed02","NA","","","[{""page_index"":0,""viewing_time"":4364.120000042021},{""page_index"":1,""viewing_time"":13730.774999945424}]","instructions","","","","","","","","","",""
"","resize","6","246376","0.0-5.0","FL","2z8ekchs9g","1920","1080","en","rt08ed02","","","","","","","426","2.7047619047619045","","","","","","",""
"","image-keyboard-response","7","246569","0.0-6.0-0.0","FL","2z8ekchs9g","1920","1080","en","rt08ed02","null","","","","","","","","learning/Slide1.JPG","null","","","","",""
"","html-keyboard-response","8","247728","0.0-6.0-1.0","FL","2z8ekchs9g","1920","1080","en","rt08ed02","null","","","","learningBlock1","","","","That was a tob.","null","","","","",""
"","html-keyboard-response","9","248744","0.0-6.0-2.0","FL","2z8ekchs9g","1920","1080","en","rt08ed02","null","","","","learningBlock1","","","","<div style=""font-size:60px;""> </div>","null","FL","learning/Slide1.JPG","That was a tob.","",""
"","image-keyboard-response","10","248929","0.0-6.0-0.1","FL","2z8ekchs9g","1920","1080","en","rt08ed02","null","","","","","","","","learning/Slide2.JPG","null","","","","",""
"","html-keyboard-response","11","250085","0.0-6.0-1.1","FL","2z8ekchs9g","1920","1080","en","rt08ed02","null","","","","learningBlock1","","","","That was a wug.","null","","","","",""
"","html-keyboard-response","12","251087","0.0-6.0-2.1","FL","2z8ekchs9g","1920","1080","en","rt08ed02","null","","","","learningBlock1","","","","<div style=""font-size:60px;""> </div>","null","FL","learning/Slide2.JPG","That was a wug.","",""
"","image-keyboard-response","13","251264","0.0-6.0-0.2","FL","2z8ekchs9g","1920","1080","en","rt08ed02","null","","","","","","","","learning/Slide3.JPG","null","","","","",""
"","html-keyboard-response","14","252432","0.0-6.0-1.2","FL","2z8ekchs9g","1920","1080","en","rt08ed02","null","","","","learningBlock1","","","","That was a bim.","null","","","","",""
"","html-keyboard-response","15","253435","0.0-6.0-2.2","FL","2z8ekchs9g","1920","1080","en","rt08ed02","null","","","","learningBlock1","","","","<div style=""font-size:60px;""> </div>","null","FL","learning/Slide3.JPG","That was a bim.","",""
"","image-keyboard-response","16","253613","0.0-6.0-0.3","FL","2z8ekchs9g","1920","1080","en","rt08ed02","null","","","","","","","","learning/Slide4.JPG","null","","","","",""
"","html-keyboard-response","17","254768","0.0-6.0-1.3","FL","2z8ekchs9g","1920","1080","en","rt08ed02","null","","","","learningBlock1","","","","That was a dep.","null","","","","",""
"","html-keyboard-response","18","255772","0.0-6.0-2.3","FL","2z8ekchs9g","1920","1080","en","rt08ed02","null","","","","learningBlock1","","","","<div style=""font-size:60px;""> </div>","null","FL","learning/Slide4.JPG","That was a dep.","",""
"","image-keyboard-response","19","255956","0.0-6.0-0.4","FL","2z8ekchs9g","1920","1080","en","rt08ed02","null","","","","","","","","learning/Slide5.JPG","null","","","","",""
"","html-keyboard-response","20","257113","0.0-6.0-1.4","FL","2z8ekchs9g","1920","1080","en","rt08ed02","null","","","","learningBlock1","","","","That was a wug.","null","","","","",""
"","html-keyboard-response","21","258117","0.0-6.0-2.4","FL","2z8ekchs9g","1920","1080","en","rt08ed02","null","","","","learningBlock1","","","","<div style=""font-size:60px;""> </div>","null","FL","learning/Slide5.JPG","That was a wug.","",""
"","image-keyboard-response","22","258294","0.0-6.0-0.5","FL","2z8ekchs9g","1920","1080","en","rt08ed02","null","","","","","","","","learning/Slide6.JPG","null","","","","",""
"","html-keyboard-response","23","259458","0.0-6.0-1.5","FL","2z8ekchs9g","1920","1080","en","rt08ed02","null","","","","learningBlock1","","","","That was a dep.","null","","","","",""
"","html-keyboard-response","24","260463","0.0-6.0-2.5","FL","2z8ekchs9g","1920","1080","en","rt08ed02","null","","","","learningBlock1","","","","<div style=""font-size:60px;""> </div>","null","FL","learning/Slide6.JPG","That was a dep.","",""
"","image-keyboard-response","25","260649","0.0-6.0-0.6","FL","2z8ekchs9g","1920","1080","en","rt08ed02","null","","","","","","","","learning/Slide7.JPG","null","","","","",""
"","html-keyboard-response","26","261806","0.0-6.0-1.6","FL","2z8ekchs9g","1920","1080","en","rt08ed02","null","","","","learningBlock1","","","","That was a wug.","null","","","","",""
"","html-keyboard-response","27","262822","0.0-6.0-2.6","FL","2z8ekchs9g","1920","1080","en","rt08ed02","null","","","","learningBlock1","","","","<div style=""font-size:60px;""> </div>","null","FL","learning/Slide7.JPG","That was a wug.","",""
"","image-keyboard-response","28","263008","0.0-6.0-0.7","FL","2z8ekchs9g","1920","1080","en","rt08ed02","null","","","","","","","","learning/Slide8.JPG","null","","","","",""
"","html-keyboard-response","29","264166","0.0-6.0-1.7","FL","2z8ekchs9g","1920","1080","en","rt08ed02","null","","","","learningBlock1","","","","That was a bim.","null","","","","",""
"","html-keyboard-response","30","265169","0.0-6.0-2.7","FL","2z8ekchs9g","1920","1080","en","rt08ed02","null","","","","learningBlock1","","","","<div style=""font-size:60px;""> </div>","null","FL","learning/Slide8.JPG","That was a bim.","",""
"","image-keyboard-response","31","265346","0.0-6.0-0.8","FL","2z8ekchs9g","1920","1080","en","rt08ed02","null","","","","","","","","learning/Slide9.JPG","null","","","","",""
"","html-keyboard-response","32","266513","0.0-6.0-1.8","FL","2z8ekchs9g","1920","1080","en","rt08ed02","null","","","","learningBlock1","","","","That was a wug.","null","","","","",""
"","html-keyboard-response","33","267515","0.0-6.0-2.8","FL","2z8ekchs9g","1920","1080","en","rt08ed02","null","","","","learningBlock1","","","","<div style=""font-size:60px;""> </div>","null","FL","learning/Slide9.JPG","That was a wug.","",""
"","image-keyboard-response","34","267700","0.0-6.0-0.9","FL","2z8ekchs9g","1920","1080","en","rt08ed02","null","","","","","","","","learning/Slide10.JPG","null","","","","",""
"","html-keyboard-response","35","268857","0.0-6.0-1.9","FL","2z8ekchs9g","1920","1080","en","rt08ed02","null","","","","learningBlock1","","","","That was a dep.","null","","","","",""
"","html-keyboard-response","36","269860","0.0-6.0-2.9","FL","2z8ekchs9g","1920","1080","en","rt08ed02","null","","","","learningBlock1","","","","<div style=""font-size:60px;""> </div>","null","FL","learning/Slide10.JPG","That was a dep.","",""
"","image-keyboard-response","37","270045","0.0-6.0-0.10","FL","2z8ekchs9g","1920","1080","en","rt08ed02","null","","","","","","","","learning/Slide11.JPG","null","","","","",""
"","html-keyboard-response","38","271201","0.0-6.0-1.10","FL","2z8ekchs9g","1920","1080","en","rt08ed02","null","","","","learningBlock1","","","","That was a tob.","null","","","","",""
"","html-keyboard-response","39","272219","0.0-6.0-2.10","FL","2z8ekchs9g","1920","1080","en","rt08ed02","null","","","","learningBlock1","","","","<div style=""font-size:60px;""> </div>","null","FL","learning/Slide11.JPG","That was a tob.","",""
"","image-keyboard-response","40","272396","0.0-6.0-0.11","FL","2z8ekchs9g","1920","1080","en","rt08ed02","null","","","","","","","","learning/Slide12.JPG","null","","","","",""
"","html-keyboard-response","41","273560","0.0-6.0-1.11","FL","2z8ekchs9g","1920","1080","en","rt08ed02","null","","","","learningBlock1","","","","That was a dep.","null","","","","",""
"","html-keyboard-response","42","274562","0.0-6.0-2.11","FL","2z8ekchs9g","1920","1080","en","rt08ed02","null","","","","learningBlock1","","","","<div style=""font-size:60px;""> </div>","null","FL","learning/Slide12.JPG","That was a dep.","",""
"","image-keyboard-response","43","274739","0.0-6.0-0.12","FL","2z8ekchs9g","1920","1080","en","rt08ed02","null","","","","","","","","learning/Slide13.JPG","null","","","","",""
"","html-keyboard-response","44","275905","0.0-6.0-1.12","FL","2z8ekchs9g","1920","1080","en","rt08ed02","null","","","","learningBlock1","","","","That was a bim.","null","","","","",""
"","html-keyboard-response","45","276908","0.0-6.0-2.12","FL","2z8ekchs9g","1920","1080","en","rt08ed02","null","","","","learningBlock1","","","","<div style=""font-size:60px;""> </div>","null","FL","learning/Slide13.JPG","That was a bim.","",""
"","image-keyboard-response","46","277094","0.0-6.0-0.13","FL","2z8ekchs9g","1920","1080","en","rt08ed02","null","","","","","","","","learning/Slide14.JPG","null","","","","",""
"","html-keyboard-response","47","278246","0.0-6.0-1.13","FL","2z8ekchs9g","1920","1080","en","rt08ed02","null","","","","learningBlock1","","","","That was a wug.","null","","","","",""
"","html-keyboard-response","48","279255","0.0-6.0-2.13","FL","2z8ekchs9g","1920","1080","en","rt08ed02","null","","","","learningBlock1","","","","<div style=""font-size:60px;""> </div>","null","FL","learning/Slide14.JPG","That was a wug.","",""
"","image-keyboard-response","49","279441","0.0-6.0-0.14","FL","2z8ekchs9g","1920","1080","en","rt08ed02","null","","","","","","","","learning/Slide15.JPG","null","","","","",""
"","html-keyboard-response","50","280596","0.0-6.0-1.14","FL","2z8ekchs9g","1920","1080","en","rt08ed02","null","","","","learningBlock1","","","","That was a tob.","null","","","","",""
"","html-keyboard-response","51","281612","0.0-6.0-2.14","FL","2z8ekchs9g","1920","1080","en","rt08ed02","null","","","","learningBlock1","","","","<div style=""font-size:60px;""> </div>","null","FL","learning/Slide15.JPG","That was a tob.","",""
"","image-keyboard-response","52","281796","0.0-6.0-0.15","FL","2z8ekchs9g","1920","1080","en","rt08ed02","null","","","","","","","","learning/Slide16.JPG","null","","","","",""
"","html-keyboard-response","53","282953","0.0-6.0-1.15","FL","2z8ekchs9g","1920","1080","en","rt08ed02","null","","","","learningBlock1","","","","That was a dep.","null","","","","",""
"","html-keyboard-response","54","283956","0.0-6.0-2.15","FL","2z8ekchs9g","1920","1080","en","rt08ed02","null","","","","learningBlock1","","","","<div style=""font-size:60px;""> </div>","null","FL","learning/Slide16.JPG","That was a dep.","",""
"","image-keyboard-response","55","284141","0.0-6.0-0.16","FL","2z8ekchs9g","1920","1080","en","rt08ed02","null","","","","","","","","learning/Slide17.JPG","null","","","","",""
"","html-keyboard-response","56","285300","0.0-6.0-1.16","FL","2z8ekchs9g","1920","1080","en","rt08ed02","null","","","","learningBlock1","","","","That was a bim.","null","","","","",""
"","html-keyboard-response","57","286316","0.0-6.0-2.16","FL","2z8ekchs9g","1920","1080","en","rt08ed02","null","","","","learningBlock1","","","","<div style=""font-size:60px;""> </div>","null","FL","learning/Slide17.JPG","That was a bim.","",""
"","image-keyboard-response","58","286500","0.0-6.0-0.17","FL","2z8ekchs9g","1920","1080","en","rt08ed02","null","","","","","","","","learning/Slide18.JPG","null","","","","",""
"","html-keyboard-response","59","287655","0.0-6.0-1.17","FL","2z8ekchs9g","1920","1080","en","rt08ed02","null","","","","learningBlock1","","","","That was a tob.","null","","","","",""
"","html-keyboard-response","60","288660","0.0-6.0-2.17","FL","2z8ekchs9g","1920","1080","en","rt08ed02","null","","","","learningBlock1","","","","<div style=""font-size:60px;""> </div>","null","FL","learning/Slide18.JPG","That was a tob.","",""
"","image-keyboard-response","61","288844","0.0-6.0-0.18","FL","2z8ekchs9g","1920","1080","en","rt08ed02","null","","","","","","","","learning/Slide19.JPG","null","","","","",""
"","html-keyboard-response","62","290001","0.0-6.0-1.18","FL","2z8ekchs9g","1920","1080","en","rt08ed02","null","","","","learningBlock1","","","","That was a wug.","null","","","","",""
"","html-keyboard-response","63","291004","0.0-6.0-2.18","FL","2z8ekchs9g","1920","1080","en","rt08ed02","null","","","","learningBlock1","","","","<div style=""font-size:60px;""> </div>","null","FL","learning/Slide19.JPG","That was a wug.","",""
"","image-keyboard-response","64","291189","0.0-6.0-0.19","FL","2z8ekchs9g","1920","1080","en","rt08ed02","null","","","","","","","","learning/Slide20.JPG","null","","","","",""
"","html-keyboard-response","65","292346","0.0-6.0-1.19","FL","2z8ekchs9g","1920","1080","en","rt08ed02","null","","","","learningBlock1","","","","That was a bim.","null","","","","",""
"","html-keyboard-response","66","293349","0.0-6.0-2.19","FL","2z8ekchs9g","1920","1080","en","rt08ed02","null","","","","learningBlock1","","","","<div style=""font-size:60px;""> </div>","null","FL","learning/Slide20.JPG","That was a bim.","",""
"","image-keyboard-response","67","293533","0.0-6.0-0.20","FL","2z8ekchs9g","1920","1080","en","rt08ed02","null","","","","","","","","learning/Slide21.JPG","null","","","","",""
"","html-keyboard-response","68","294691","0.0-6.0-1.20","FL","2z8ekchs9g","1920","1080","en","rt08ed02","null","","","","learningBlock1","","","","That was a dep.","null","","","","",""
"","html-keyboard-response","69","295708","0.0-6.0-2.20","FL","2z8ekchs9g","1920","1080","en","rt08ed02","null","","","","learningBlock1","","","","<div style=""font-size:60px;""> </div>","null","FL","learning/Slide21.JPG","That was a dep.","",""
"","image-keyboard-response","70","295893","0.0-6.0-0.21","FL","2z8ekchs9g","1920","1080","en","rt08ed02","null","","","","","","","","learning/Slide22.JPG","null","","","","",""
"","html-keyboard-response","71","297051","0.0-6.0-1.21","FL","2z8ekchs9g","1920","1080","en","rt08ed02","null","","","","learningBlock1","","","","That was a bim.","null","","","","",""
"","html-keyboard-response","72","298052","0.0-6.0-2.21","FL","2z8ekchs9g","1920","1080","en","rt08ed02","null","","","","learningBlock1","","","","<div style=""font-size:60px;""> </div>","null","FL","learning/Slide22.JPG","That was a bim.","",""
"","image-keyboard-response","73","298238","0.0-6.0-0.22","FL","2z8ekchs9g","1920","1080","en","rt08ed02","null","","","","","","","","learning/Slide23.JPG","null","","","","",""
"","html-keyboard-response","74","299394","0.0-6.0-1.22","FL","2z8ekchs9g","1920","1080","en","rt08ed02","null","","","","learningBlock1","","","","That was a tob.","null","","","","",""
"","html-keyboard-response","75","300410","0.0-6.0-2.22","FL","2z8ekchs9g","1920","1080","en","rt08ed02","null","","","","learningBlock1","","","","<div style=""font-size:60px;""> </div>","null","FL","learning/Slide23.JPG","That was a tob.","",""
"","image-keyboard-response","76","300594","0.0-6.0-0.23","FL","2z8ekchs9g","1920","1080","en","rt08ed02","null","","","","","","","","learning/Slide24.JPG","null","","","","",""
"","html-keyboard-response","77","301759","0.0-6.0-1.23","FL","2z8ekchs9g","1920","1080","en","rt08ed02","null","","","","learningBlock1","","","","That was a wug.","null","","","","",""
"","html-keyboard-response","78","302766","0.0-6.0-2.23","FL","2z8ekchs9g","1920","1080","en","rt08ed02","null","","","","learningBlock1","","","","<div style=""font-size:60px;""> </div>","null","FL","learning/Slide24.JPG","That was a wug.","",""
"","image-keyboard-response","79","302951","0.0-6.0-0.24","FL","2z8ekchs9g","1920","1080","en","rt08ed02","null","","","","","","","","learning/Slide25.JPG","null","","","","",""
"","html-keyboard-response","80","304110","0.0-6.0-1.24","FL","2z8ekchs9g","1920","1080","en","rt08ed02","null","","","","learningBlock1","","","","That was a dep.","null","","","","",""
"","html-keyboard-response","81","305127","0.0-6.0-2.24","FL","2z8ekchs9g","1920","1080","en","rt08ed02","null","","","","learningBlock1","","","","<div style=""font-size:60px;""> </div>","null","FL","learning/Slide25.JPG","That was a dep.","",""
"","image-keyboard-response","82","305313","0.0-6.0-0.25","FL","2z8ekchs9g","1920","1080","en","rt08ed02","null","","","","","","","","learning/Slide26.JPG","null","","","","",""
"","html-keyboard-response","83","306470","0.0-6.0-1.25","FL","2z8ekchs9g","1920","1080","en","rt08ed02","null","","","","learningBlock1","","","","That was a wug.","null","","","","",""
"","html-keyboard-response","84","307473","0.0-6.0-2.25","FL","2z8ekchs9g","1920","1080","en","rt08ed02","null","","","","learningBlock1","","","","<div style=""font-size:60px;""> </div>","null","FL","learning/Slide26.JPG","That was a wug.","",""
"","image-keyboard-response","85","307657","0.0-6.0-0.26","FL","2z8ekchs9g","1920","1080","en","rt08ed02","null","","","","","","","","learning/Slide27.JPG","null","","","","",""
"","html-keyboard-response","86","308815","0.0-6.0-1.26","FL","2z8ekchs9g","1920","1080","en","rt08ed02","null","","","","learningBlock1","","","","That was a bim.","null","","","","",""
"","html-keyboard-response","87","309818","0.0-6.0-2.26","FL","2z8ekchs9g","1920","1080","en","rt08ed02","null","","","","learningBlock1","","","","<div style=""font-size:60px;""> </div>","null","FL","learning/Slide27.JPG","That was a bim.","",""
"","image-keyboard-response","88","309994","0.0-6.0-0.27","FL","2z8ekchs9g","1920","1080","en","rt08ed02","null","","","","","","","","learning/Slide28.JPG","null","","","","",""
"","html-keyboard-response","89","311159","0.0-6.0-1.27","FL","2z8ekchs9g","1920","1080","en","rt08ed02","null","","","","learningBlock1","","","","That was a dep.","null","","","","",""
"","html-keyboard-response","90","312176","0.0-6.0-2.27","FL","2z8ekchs9g","1920","1080","en","rt08ed02","null","","","","learningBlock1","","","","<div style=""font-size:60px;""> </div>","null","FL","learning/Slide28.JPG","That was a dep.","",""
"","image-keyboard-response","91","312362","0.0-6.0-0.28","FL","2z8ekchs9g","1920","1080","en","rt08ed02","null","","","","","","","","learning/Slide29.JPG","null","","","","",""
"","html-keyboard-response","92","313517","0.0-6.0-1.28","FL","2z8ekchs9g","1920","1080","en","rt08ed02","null","","","","learningBlock1","","","","That was a tob.","null","","","","",""
"","html-keyboard-response","93","314522","0.0-6.0-2.28","FL","2z8ekchs9g","1920","1080","en","rt08ed02","null","","","","learningBlock1","","","","<div style=""font-size:60px;""> </div>","null","FL","learning/Slide29.JPG","That was a tob.","",""
"","image-keyboard-response","94","314707","0.0-6.0-0.29","FL","2z8ekchs9g","1920","1080","en","rt08ed02","null","","","","","","","","learning/Slide30.JPG","null","","","","",""
"","html-keyboard-response","95","315861","0.0-6.0-1.29","FL","2z8ekchs9g","1920","1080","en","rt08ed02","null","","","","learningBlock1","","","","That was a dep.","null","","","","",""
"","html-keyboard-response","96","316877","0.0-6.0-2.29","FL","2z8ekchs9g","1920","1080","en","rt08ed02","null","","","","learningBlock1","","","","<div style=""font-size:60px;""> </div>","null","FL","learning/Slide30.JPG","That was a dep.","",""
"","image-keyboard-response","97","317062","0.0-6.0-0.30","FL","2z8ekchs9g","1920","1080","en","rt08ed02","null","","","","","","","","learning/Slide31.JPG","null","","","","",""
"","html-keyboard-response","98","318218","0.0-6.0-1.30","FL","2z8ekchs9g","1920","1080","en","rt08ed02","null","","","","learningBlock1","","","","That was a wug.","null","","","","",""
"","html-keyboard-response","99","319221","0.0-6.0-2.30","FL","2z8ekchs9g","1920","1080","en","rt08ed02","null","","","","learningBlock1","","","","<div style=""font-size:60px;""> </div>","null","FL","learning/Slide31.JPG","That was a wug.","",""
"","image-keyboard-response","100","319405","0.0-6.0-0.31","FL","2z8ekchs9g","1920","1080","en","rt08ed02","null","","","","","","","","learning/Slide32.JPG","null","","","","",""
"","html-keyboard-response","101","320561","0.0-6.0-1.31","FL","2z8ekchs9g","1920","1080","en","rt08ed02","null","","","","learningBlock1","","","","That was a tob.","null","","","","",""
"","html-keyboard-response","102","321564","0.0-6.0-2.31","FL","2z8ekchs9g","1920","1080","en","rt08ed02","null","","","","learningBlock1","","","","<div style=""font-size:60px;""> </div>","null","FL","learning/Slide32.JPG","That was a tob.","",""
"","image-keyboard-response","103","321748","0.0-6.0-0.32","FL","2z8ekchs9g","1920","1080","en","rt08ed02","null","","","","","","","","learning/Slide33.JPG","null","","","","",""
"","html-keyboard-response","104","322906","0.0-6.0-1.32","FL","2z8ekchs9g","1920","1080","en","rt08ed02","null","","","","learningBlock1","","","","That was a bim.","null","","","","",""
"","html-keyboard-response","105","323909","0.0-6.0-2.32","FL","2z8ekchs9g","1920","1080","en","rt08ed02","null","","","","learningBlock1","","","","<div style=""font-size:60px;""> </div>","null","FL","learning/Slide33.JPG","That was a bim.","",""
"","image-keyboard-response","106","324094","0.0-6.0-0.33","FL","2z8ekchs9g","1920","1080","en","rt08ed02","null","","","","","","","","learning/Slide34.JPG","null","","","","",""
"","html-keyboard-response","107","325250","0.0-6.0-1.33","FL","2z8ekchs9g","1920","1080","en","rt08ed02","null","","","","learningBlock1","","","","That was a tob.","null","","","","",""
"","html-keyboard-response","108","326255","0.0-6.0-2.33","FL","2z8ekchs9g","1920","1080","en","rt08ed02","null","","","","learningBlock1","","","","<div style=""font-size:60px;""> </div>","null","FL","learning/Slide34.JPG","That was a tob.","",""
"","image-keyboard-response","109","326440","0.0-6.0-0.34","FL","2z8ekchs9g","1920","1080","en","rt08ed02","null","","","","","","","","learning/Slide35.JPG","null","","","","",""
"","html-keyboard-response","110","327599","0.0-6.0-1.34","FL","2z8ekchs9g","1920","1080","en","rt08ed02","null","","","","learningBlock1","","","","That was a bim.","null","","","","",""
"","html-keyboard-response","111","328615","0.0-6.0-2.34","FL","2z8ekchs9g","1920","1080","en","rt08ed02","null","","","","learningBlock1","","","","<div style=""font-size:60px;""> </div>","null","FL","learning/Slide35.JPG","That was a bim.","",""
"","image-keyboard-response","112","328801","0.0-6.0-0.35","FL","2z8ekchs9g","1920","1080","en","rt08ed02","null","","","","","","","","learning/Slide36.JPG","null","","","","",""
"","html-keyboard-response","113","329959","0.0-6.0-1.35","FL","2z8ekchs9g","1920","1080","en","rt08ed02","null","","","","learningBlock1","","","","That was a dep.","null","","","","",""
"","html-keyboard-response","114","330962","0.0-6.0-2.35","FL","2z8ekchs9g","1920","1080","en","rt08ed02","null","","","","learningBlock1","","","","<div style=""font-size:60px;""> </div>","null","FL","learning/Slide36.JPG","That was a dep.","",""
"","image-keyboard-response","115","331147","0.0-6.0-0.36","FL","2z8ekchs9g","1920","1080","en","rt08ed02","null","","","","","","","","learning/Slide37.JPG","null","","","","",""
"","html-keyboard-response","116","332303","0.0-6.0-1.36","FL","2z8ekchs9g","1920","1080","en","rt08ed02","null","","","","learningBlock1","","","","That was a tob.","null","","","","",""
"","html-keyboard-response","117","333305","0.0-6.0-2.36","FL","2z8ekchs9g","1920","1080","en","rt08ed02","null","","","","learningBlock1","","","","<div style=""font-size:60px;""> </div>","null","FL","learning/Slide37.JPG","That was a tob.","",""
"","image-keyboard-response","118","333490","0.0-6.0-0.37","FL","2z8ekchs9g","1920","1080","en","rt08ed02","null","","","","","","","","learning/Slide38.JPG","null","","","","",""
"","html-keyboard-response","119","334650","0.0-6.0-1.37","FL","2z8ekchs9g","1920","1080","en","rt08ed02","null","","","","learningBlock1","","","","That was a wug.","null","","","","",""
"","html-keyboard-response","120","335652","0.0-6.0-2.37","FL","2z8ekchs9g","1920","1080","en","rt08ed02","null","","","","learningBlock1","","","","<div style=""font-size:60px;""> </div>","null","FL","learning/Slide38.JPG","That was a wug.","",""
"","image-keyboard-response","121","335838","0.0-6.0-0.38","FL","2z8ekchs9g","1920","1080","en","rt08ed02","null","","","","","","","","learning/Slide39.JPG","null","","","","",""
"","html-keyboard-response","122","336996","0.0-6.0-1.38","FL","2z8ekchs9g","1920","1080","en","rt08ed02","null","","","","learningBlock1","","","","That was a bim.","null","","","","",""
"","html-keyboard-response","123","337998","0.0-6.0-2.38","FL","2z8ekchs9g","1920","1080","en","rt08ed02","null","","","","learningBlock1","","","","<div style=""font-size:60px;""> </div>","null","FL","learning/Slide39.JPG","That was a bim.","",""
"","image-keyboard-response","124","338183","0.0-6.0-0.39","FL","2z8ekchs9g","1920","1080","en","rt08ed02","null","","","","","","","","learning/Slide40.JPG","null","","","","",""
"","html-keyboard-response","125","339354","0.0-6.0-1.39","FL","2z8ekchs9g","1920","1080","en","rt08ed02","null","","","","learningBlock1","","","","That was a tob.","null","","","","",""
"","html-keyboard-response","126","340357","0.0-6.0-2.39","FL","2z8ekchs9g","1920","1080","en","rt08ed02","null","","","","learningBlock1","","","","<div style=""font-size:60px;""> </div>","null","FL","learning/Slide40.JPG","That was a tob.","",""
"","image-keyboard-response","127","340542","0.0-6.0-0.40","FL","2z8ekchs9g","1920","1080","en","rt08ed02","null","","","","","","","","learning/Slide41.JPG","null","","","","",""
"","html-keyboard-response","128","341699","0.0-6.0-1.40","FL","2z8ekchs9g","1920","1080","en","rt08ed02","null","","","","learningBlock1","","","","That was a bim.","null","","","","",""
"","html-keyboard-response","129","342716","0.0-6.0-2.40","FL","2z8ekchs9g","1920","1080","en","rt08ed02","null","","","","learningBlock1","","","","<div style=""font-size:60px;""> </div>","null","FL","learning/Slide41.JPG","That was a bim.","",""
"","image-keyboard-response","130","342902","0.0-6.0-0.41","FL","2z8ekchs9g","1920","1080","en","rt08ed02","null","","","","","","","","learning/Slide42.JPG","null","","","","",""
"","html-keyboard-response","131","344072","0.0-6.0-1.41","FL","2z8ekchs9g","1920","1080","en","rt08ed02","null","","","","learningBlock1","","","","That was a dep.","null","","","","",""
"","html-keyboard-response","132","345074","0.0-6.0-2.41","FL","2z8ekchs9g","1920","1080","en","rt08ed02","null","","","","learningBlock1","","","","<div style=""font-size:60px;""> </div>","null","FL","learning/Slide42.JPG","That was a dep.","",""
"","image-keyboard-response","133","345259","0.0-6.0-0.42","FL","2z8ekchs9g","1920","1080","en","rt08ed02","null","","","","","","","","learning/Slide43.JPG","null","","","","",""
"","html-keyboard-response","134","346416","0.0-6.0-1.42","FL","2z8ekchs9g","1920","1080","en","rt08ed02","null","","","","learningBlock1","","","","That was a wug.","null","","","","",""
"","html-keyboard-response","135","347419","0.0-6.0-2.42","FL","2z8ekchs9g","1920","1080","en","rt08ed02","null","","","","learningBlock1","","","","<div style=""font-size:60px;""> </div>","null","FL","learning/Slide43.JPG","That was a wug.","",""
"","image-keyboard-response","136","347605","0.0-6.0-0.43","FL","2z8ekchs9g","1920","1080","en","rt08ed02","null","","","","","","","","learning/Slide44.JPG","null","","","","",""
"","html-keyboard-response","137","348764","0.0-6.0-1.43","FL","2z8ekchs9g","1920","1080","en","rt08ed02","null","","","","learningBlock1","","","","That was a bim.","null","","","","",""
"","html-keyboard-response","138","349767","0.0-6.0-2.43","FL","2z8ekchs9g","1920","1080","en","rt08ed02","null","","","","learningBlock1","","","","<div style=""font-size:60px;""> </div>","null","FL","learning/Slide44.JPG","That was a bim.","",""
"","image-keyboard-response","139","349945","0.0-6.0-0.44","FL","2z8ekchs9g","1920","1080","en","rt08ed02","null","","","","","","","","learning/Slide45.JPG","null","","","","",""
"","html-keyboard-response","140","351109","0.0-6.0-1.44","FL","2z8ekchs9g","1920","1080","en","rt08ed02","null","","","","learningBlock1","","","","That was a wug.","null","","","","",""
"","html-keyboard-response","141","352111","0.0-6.0-2.44","FL","2z8ekchs9g","1920","1080","en","rt08ed02","null","","","","learningBlock1","","","","<div style=""font-size:60px;""> </div>","null","FL","learning/Slide45.JPG","That was a wug.","",""
"","image-keyboard-response","142","352295","0.0-6.0-0.45","FL","2z8ekchs9g","1920","1080","en","rt08ed02","null","","","","","","","","learning/Slide46.JPG","null","","","","",""
"","html-keyboard-response","143","353452","0.0-6.0-1.45","FL","2z8ekchs9g","1920","1080","en","rt08ed02","null","","","","learningBlock1","","","","That was a dep.","null","","","","",""
"","html-keyboard-response","144","354468","0.0-6.0-2.45","FL","2z8ekchs9g","1920","1080","en","rt08ed02","null","","","","learningBlock1","","","","<div style=""font-size:60px;""> </div>","null","FL","learning/Slide46.JPG","That was a dep.","",""
"","image-keyboard-response","145","354654","0.0-6.0-0.46","FL","2z8ekchs9g","1920","1080","en","rt08ed02","null","","","","","","","","learning/Slide47.JPG","null","","","","",""
"","html-keyboard-response","146","355810","0.0-6.0-1.46","FL","2z8ekchs9g","1920","1080","en","rt08ed02","null","","","","learningBlock1","","","","That was a tob.","null","","","","",""
"","html-keyboard-response","147","356813","0.0-6.0-2.46","FL","2z8ekchs9g","1920","1080","en","rt08ed02","null","","","","learningBlock1","","","","<div style=""font-size:60px;""> </div>","null","FL","learning/Slide47.JPG","That was a tob.","",""
"","image-keyboard-response","148","357000","0.0-6.0-0.47","FL","2z8ekchs9g","1920","1080","en","rt08ed02","null","","","","","","","","learning/Slide48.JPG","null","","","","",""
"","html-keyboard-response","149","358157","0.0-6.0-1.47","FL","2z8ekchs9g","1920","1080","en","rt08ed02","null","","","","learningBlock1","","","","That was a bim.","null","","","","",""
"","html-keyboard-response","150","359163","0.0-6.0-2.47","FL","2z8ekchs9g","1920","1080","en","rt08ed02","null","","","","learningBlock1","","","","<div style=""font-size:60px;""> </div>","null","FL","learning/Slide48.JPG","That was a bim.","",""
"","image-keyboard-response","151","359347","0.0-6.0-0.48","FL","2z8ekchs9g","1920","1080","en","rt08ed02","null","","","","","","","","learning/Slide49.JPG","null","","","","",""
"","html-keyboard-response","152","360502","0.0-6.0-1.48","FL","2z8ekchs9g","1920","1080","en","rt08ed02","null","","","","learningBlock1","","","","That was a dep.","null","","","","",""
"","html-keyboard-response","153","361504","0.0-6.0-2.48","FL","2z8ekchs9g","1920","1080","en","rt08ed02","null","","","","learningBlock1","","","","<div style=""font-size:60px;""> </div>","null","FL","learning/Slide49.JPG","That was a dep.","",""
"","image-keyboard-response","154","361689","0.0-6.0-0.49","FL","2z8ekchs9g","1920","1080","en","rt08ed02","null","","","","","","","","learning/Slide50.JPG","null","","","","",""
"","html-keyboard-response","155","362845","0.0-6.0-1.49","FL","2z8ekchs9g","1920","1080","en","rt08ed02","null","","","","learningBlock1","","","","That was a tob.","null","","","","",""
"","html-keyboard-response","156","363848","0.0-6.0-2.49","FL","2z8ekchs9g","1920","1080","en","rt08ed02","null","","","","learningBlock1","","","","<div style=""font-size:60px;""> </div>","null","FL","learning/Slide50.JPG","That was a tob.","",""
"","image-keyboard-response","157","364025","0.0-6.0-0.50","FL","2z8ekchs9g","1920","1080","en","rt08ed02","null","","","","","","","","learning/Slide51.JPG","null","","","","",""
"","html-keyboard-response","158","365191","0.0-6.0-1.50","FL","2z8ekchs9g","1920","1080","en","rt08ed02","null","","","","learningBlock1","","","","That was a bim.","null","","","","",""
"","html-keyboard-response","159","366192","0.0-6.0-2.50","FL","2z8ekchs9g","1920","1080","en","rt08ed02","null","","","","learningBlock1","","","","<div style=""font-size:60px;""> </div>","null","FL","learning/Slide51.JPG","That was a bim.","",""
"","image-keyboard-response","160","366369","0.0-6.0-0.51","FL","2z8ekchs9g","1920","1080","en","rt08ed02","null","","","","","","","","learning/Slide52.JPG","null","","","","",""
"","html-keyboard-response","161","367521","0.0-6.0-1.51","FL","2z8ekchs9g","1920","1080","en","rt08ed02","null","","","","learningBlock1","","","","That was a wug.","null","","","","",""
"","html-keyboard-response","162","368524","0.0-6.0-2.51","FL","2z8ekchs9g","1920","1080","en","rt08ed02","null","","","","learningBlock1","","","","<div style=""font-size:60px;""> </div>","null","FL","learning/Slide52.JPG","That was a wug.","",""
"","image-keyboard-response","163","368708","0.0-6.0-0.52","FL","2z8ekchs9g","1920","1080","en","rt08ed02","null","","","","","","","","learning/Slide53.JPG","null","","","","",""
"","html-keyboard-response","164","369869","0.0-6.0-1.52","FL","2z8ekchs9g","1920","1080","en","rt08ed02","null","","","","learningBlock1","","","","That was a tob.","null","","","","",""
"","html-keyboard-response","165","370885","0.0-6.0-2.52","FL","2z8ekchs9g","1920","1080","en","rt08ed02","null","","","","learningBlock1","","","","<div style=""font-size:60px;""> </div>","null","FL","learning/Slide53.JPG","That was a tob.","",""
"","image-keyboard-response","166","371063","0.0-6.0-0.53","FL","2z8ekchs9g","1920","1080","en","rt08ed02","null","","","","","","","","learning/Slide54.JPG","null","","","","",""
"","html-keyboard-response","167","372226","0.0-6.0-1.53","FL","2z8ekchs9g","1920","1080","en","rt08ed02","null","","","","learningBlock1","","","","That was a dep.","null","","","","",""
"","html-keyboard-response","168","373229","0.0-6.0-2.53","FL","2z8ekchs9g","1920","1080","en","rt08ed02","null","","","","learningBlock1","","","","<div style=""font-size:60px;""> </div>","null","FL","learning/Slide54.JPG","That was a dep.","",""
"","image-keyboard-response","169","373415","0.0-6.0-0.54","FL","2z8ekchs9g","1920","1080","en","rt08ed02","null","","","","","","","","learning/Slide55.JPG","null","","","","",""
"","html-keyboard-response","170","374571","0.0-6.0-1.54","FL","2z8ekchs9g","1920","1080","en","rt08ed02","null","","","","learningBlock1","","","","That was a bim.","null","","","","",""
"","html-keyboard-response","171","375573","0.0-6.0-2.54","FL","2z8ekchs9g","1920","1080","en","rt08ed02","null","","","","learningBlock1","","","","<div style=""font-size:60px;""> </div>","null","FL","learning/Slide55.JPG","That was a bim.","",""
"","image-keyboard-response","172","375758","0.0-6.0-0.55","FL","2z8ekchs9g","1920","1080","en","rt08ed02","null","","","","","","","","learning/Slide56.JPG","null","","","","",""
"","html-keyboard-response","173","376915","0.0-6.0-1.55","FL","2z8ekchs9g","1920","1080","en","rt08ed02","null","","","","learningBlock1","","","","That was a tob.","null","","","","",""
"","html-keyboard-response","174","377918","0.0-6.0-2.55","FL","2z8ekchs9g","1920","1080","en","rt08ed02","null","","","","learningBlock1","","","","<div style=""font-size:60px;""> </div>","null","FL","learning/Slide56.JPG","That was a tob.","",""
"","image-keyboard-response","175","378095","0.0-6.0-0.56","FL","2z8ekchs9g","1920","1080","en","rt08ed02","null","","","","","","","","learning/Slide57.JPG","null","","","","",""
"","html-keyboard-response","176","379258","0.0-6.0-1.56","FL","2z8ekchs9g","1920","1080","en","rt08ed02","null","","","","learningBlock1","","","","That was a dep.","null","","","","",""
"","html-keyboard-response","177","380260","0.0-6.0-2.56","FL","2z8ekchs9g","1920","1080","en","rt08ed02","null","","","","learningBlock1","","","","<div style=""font-size:60px;""> </div>","null","FL","learning/Slide57.JPG","That was a dep.","",""
"","image-keyboard-response","178","380445","0.0-6.0-0.57","FL","2z8ekchs9g","1920","1080","en","rt08ed02","null","","","","","","","","learning/Slide58.JPG","null","","","","",""
"","html-keyboard-response","179","381600","0.0-6.0-1.57","FL","2z8ekchs9g","1920","1080","en","rt08ed02","null","","","","learningBlock1","","","","That was a wug.","null","","","","",""
"","html-keyboard-response","180","382604","0.0-6.0-2.57","FL","2z8ekchs9g","1920","1080","en","rt08ed02","null","","","","learningBlock1","","","","<div style=""font-size:60px;""> </div>","null","FL","learning/Slide58.JPG","That was a wug.","",""
"","image-keyboard-response","181","382790","0.0-6.0-0.58","FL","2z8ekchs9g","1920","1080","en","rt08ed02","null","","","","","","","","learning/Slide59.JPG","null","","","","",""
"","html-keyboard-response","182","383945","0.0-6.0-1.58","FL","2z8ekchs9g","1920","1080","en","rt08ed02","null","","","","learningBlock1","","","","That was a dep.","null","","","","",""
"","html-keyboard-response","183","384962","0.0-6.0-2.58","FL","2z8ekchs9g","1920","1080","en","rt08ed02","null","","","","learningBlock1","","","","<div style=""font-size:60px;""> </div>","null","FL","learning/Slide59.JPG","That was a dep.","",""
"","image-keyboard-response","184","385146","0.0-6.0-0.59","FL","2z8ekchs9g","1920","1080","en","rt08ed02","null","","","","","","","","learning/Slide60.JPG","null","","","","",""
"","html-keyboard-response","185","386301","0.0-6.0-1.59","FL","2z8ekchs9g","1920","1080","en","rt08ed02","null","","","","learningBlock1","","","","That was a wug.","null","","","","",""
"","html-keyboard-response","186","387306","0.0-6.0-2.59","FL","2z8ekchs9g","1920","1080","en","rt08ed02","null","","","","learningBlock1","","","","<div style=""font-size:60px;""> </div>","null","FL","learning/Slide60.JPG","That was a wug.","",""
"","image-keyboard-response","187","387490","0.0-6.0-0.60","FL","2z8ekchs9g","1920","1080","en","rt08ed02","null","","","","","","","","learning/Slide61.JPG","null","","","","",""
"","html-keyboard-response","188","388647","0.0-6.0-1.60","FL","2z8ekchs9g","1920","1080","en","rt08ed02","null","","","","learningBlock1","","","","That was a bim.","null","","","","",""
"","html-keyboard-response","189","389650","0.0-6.0-2.60","FL","2z8ekchs9g","1920","1080","en","rt08ed02","null","","","","learningBlock1","","","","<div style=""font-size:60px;""> </div>","null","FL","learning/Slide61.JPG","That was a bim.","",""
"","image-keyboard-response","190","389835","0.0-6.0-0.61","FL","2z8ekchs9g","1920","1080","en","rt08ed02","null","","","","","","","","learning/Slide62.JPG","null","","","","",""
"","html-keyboard-response","191","390993","0.0-6.0-1.61","FL","2z8ekchs9g","1920","1080","en","rt08ed02","null","","","","learningBlock1","","","","That was a dep.","null","","","","",""
"","html-keyboard-response","192","391995","0.0-6.0-2.61","FL","2z8ekchs9g","1920","1080","en","rt08ed02","null","","","","learningBlock1","","","","<div style=""font-size:60px;""> </div>","null","FL","learning/Slide62.JPG","That was a dep.","",""
"","image-keyboard-response","193","392180","0.0-6.0-0.62","FL","2z8ekchs9g","1920","1080","en","rt08ed02","null","","","","","","","","learning/Slide63.JPG","null","","","","",""
"","html-keyboard-response","194","393335","0.0-6.0-1.62","FL","2z8ekchs9g","1920","1080","en","rt08ed02","null","","","","learningBlock1","","","","That was a bim.","null","","","","",""
"","html-keyboard-response","195","394338","0.0-6.0-2.62","FL","2z8ekchs9g","1920","1080","en","rt08ed02","null","","","","learningBlock1","","","","<div style=""font-size:60px;""> </div>","null","FL","learning/Slide63.JPG","That was a bim.","",""
"","image-keyboard-response","196","394523","0.0-6.0-0.63","FL","2z8ekchs9g","1920","1080","en","rt08ed02","null","","","","","","","","learning/Slide64.JPG","null","","","","",""
"","html-keyboard-response","197","395680","0.0-6.0-1.63","FL","2z8ekchs9g","1920","1080","en","rt08ed02","null","","","","learningBlock1","","","","That was a tob.","null","","","","",""
"","html-keyboard-response","198","396684","0.0-6.0-2.63","FL","2z8ekchs9g","1920","1080","en","rt08ed02","null","","","","learningBlock1","","","","<div style=""font-size:60px;""> </div>","null","FL","learning/Slide64.JPG","That was a tob.","",""
"","image-keyboard-response","199","396870","0.0-6.0-0.64","FL","2z8ekchs9g","1920","1080","en","rt08ed02","null","","","","","","","","learning/Slide65.JPG","null","","","","",""
"","html-keyboard-response","200","398025","0.0-6.0-1.64","FL","2z8ekchs9g","1920","1080","en","rt08ed02","null","","","","learningBlock1","","","","That was a wug.","null","","","","",""
"","html-keyboard-response","201","399027","0.0-6.0-2.64","FL","2z8ekchs9g","1920","1080","en","rt08ed02","null","","","","learningBlock1","","","","<div style=""font-size:60px;""> </div>","null","FL","learning/Slide65.JPG","That was a wug.","",""
"","image-keyboard-response","202","399212","0.0-6.0-0.65","FL","2z8ekchs9g","1920","1080","en","rt08ed02","null","","","","","","","","learning/Slide66.JPG","null","","","","",""
"","html-keyboard-response","203","400370","0.0-6.0-1.65","FL","2z8ekchs9g","1920","1080","en","rt08ed02","null","","","","learningBlock1","","","","That was a dep.","null","","","","",""
"","html-keyboard-response","204","401386","0.0-6.0-2.65","FL","2z8ekchs9g","1920","1080","en","rt08ed02","null","","","","learningBlock1","","","","<div style=""font-size:60px;""> </div>","null","FL","learning/Slide66.JPG","That was a dep.","",""
"","image-keyboard-response","205","401571","0.0-6.0-0.66","FL","2z8ekchs9g","1920","1080","en","rt08ed02","null","","","","","","","","learning/Slide67.JPG","null","","","","",""
"","html-keyboard-response","206","402730","0.0-6.0-1.66","FL","2z8ekchs9g","1920","1080","en","rt08ed02","null","","","","learningBlock1","","","","That was a tob.","null","","","","",""
"","html-keyboard-response","207","403732","0.0-6.0-2.66","FL","2z8ekchs9g","1920","1080","en","rt08ed02","null","","","","learningBlock1","","","","<div style=""font-size:60px;""> </div>","null","FL","learning/Slide67.JPG","That was a tob.","",""
"","image-keyboard-response","208","403918","0.0-6.0-0.67","FL","2z8ekchs9g","1920","1080","en","rt08ed02","null","","","","","","","","learning/Slide68.JPG","null","","","","",""
"","html-keyboard-response","209","405075","0.0-6.0-1.67","FL","2z8ekchs9g","1920","1080","en","rt08ed02","null","","","","learningBlock1","","","","That was a wug.","null","","","","",""
"","html-keyboard-response","210","406077","0.0-6.0-2.67","FL","2z8ekchs9g","1920","1080","en","rt08ed02","null","","","","learningBlock1","","","","<div style=""font-size:60px;""> </div>","null","FL","learning/Slide68.JPG","That was a wug.","",""
"","image-keyboard-response","211","406262","0.0-6.0-0.68","FL","2z8ekchs9g","1920","1080","en","rt08ed02","null","","","","","","","","learning/Slide69.JPG","null","","","","",""
"","html-keyboard-response","212","407419","0.0-6.0-1.68","FL","2z8ekchs9g","1920","1080","en","rt08ed02","null","","","","learningBlock1","","","","That was a tob.","null","","","","",""
"","html-keyboard-response","213","408421","0.0-6.0-2.68","FL","2z8ekchs9g","1920","1080","en","rt08ed02","null","","","","learningBlock1","","","","<div style=""font-size:60px;""> </div>","null","FL","learning/Slide69.JPG","That was a tob.","",""
"","image-keyboard-response","214","408607","0.0-6.0-0.69","FL","2z8ekchs9g","1920","1080","en","rt08ed02","null","","","","","","","","learning/Slide70.JPG","null","","","","",""
"","html-keyboard-response","215","409765","0.0-6.0-1.69","FL","2z8ekchs9g","1920","1080","en","rt08ed02","null","","","","learningBlock1","","","","That was a dep.","null","","","","",""
"","html-keyboard-response","216","410768","0.0-6.0-2.69","FL","2z8ekchs9g","1920","1080","en","rt08ed02","null","","","","learningBlock1","","","","<div style=""font-size:60px;""> </div>","null","FL","learning/Slide70.JPG","That was a dep.","",""
"","image-keyboard-response","217","410946","0.0-6.0-0.70","FL","2z8ekchs9g","1920","1080","en","rt08ed02","null","","","","","","","","learning/Slide71.JPG","null","","","","",""
"","html-keyboard-response","218","412109","0.0-6.0-1.70","FL","2z8ekchs9g","1920","1080","en","rt08ed02","null","","","","learningBlock1","","","","That was a wug.","null","","","","",""
"","html-keyboard-response","219","413111","0.0-6.0-2.70","FL","2z8ekchs9g","1920","1080","en","rt08ed02","null","","","","learningBlock1","","","","<div style=""font-size:60px;""> </div>","null","FL","learning/Slide71.JPG","That was a wug.","",""
"","image-keyboard-response","220","413296","0.0-6.0-0.71","FL","2z8ekchs9g","1920","1080","en","rt08ed02","null","","","","","","","","learning/Slide72.JPG","null","","","","",""
"","html-keyboard-response","221","414453","0.0-6.0-1.71","FL","2z8ekchs9g","1920","1080","en","rt08ed02","null","","","","learningBlock1","","","","That was a bim.","null","","","","",""
"","html-keyboard-response","222","415457","0.0-6.0-2.71","FL","2z8ekchs9g","1920","1080","en","rt08ed02","null","","","","learningBlock1","","","","<div style=""font-size:60px;""> </div>","null","FL","learning/Slide72.JPG","That was a bim.","",""
"","image-keyboard-response","223","415643","0.0-6.0-0.72","FL","2z8ekchs9g","1920","1080","en","rt08ed02","null","","","","","","","","learning/Slide73.JPG","null","","","","",""
"","html-keyboard-response","224","416799","0.0-6.0-1.72","FL","2z8ekchs9g","1920","1080","en","rt08ed02","null","","","","learningBlock1","","","","That was a wug.","null","","","","",""
"","html-keyboard-response","225","417815","0.0-6.0-2.72","FL","2z8ekchs9g","1920","1080","en","rt08ed02","null","","","","learningBlock1","","","","<div style=""font-size:60px;""> </div>","null","FL","learning/Slide73.JPG","That was a wug.","",""
"","image-keyboard-response","226","418001","0.0-6.0-0.73","FL","2z8ekchs9g","1920","1080","en","rt08ed02","null","","","","","","","","learning/Slide74.JPG","null","","","","",""
"","html-keyboard-response","227","419160","0.0-6.0-1.73","FL","2z8ekchs9g","1920","1080","en","rt08ed02","null","","","","learningBlock1","","","","That was a dep.","null","","","","",""
"","html-keyboard-response","228","420163","0.0-6.0-2.73","FL","2z8ekchs9g","1920","1080","en","rt08ed02","null","","","","learningBlock1","","","","<div style=""font-size:60px;""> </div>","null","FL","learning/Slide74.JPG","That was a dep.","",""
"","image-keyboard-response","229","420348","0.0-6.0-0.74","FL","2z8ekchs9g","1920","1080","en","rt08ed02","null","","","","","","","","learning/Slide75.JPG","null","","","","",""
"","html-keyboard-response","230","421503","0.0-6.0-1.74","FL","2z8ekchs9g","1920","1080","en","rt08ed02","null","","","","learningBlock1","","","","That was a tob.","null","","","","",""
"","html-keyboard-response","231","422508","0.0-6.0-2.74","FL","2z8ekchs9g","1920","1080","en","rt08ed02","null","","","","learningBlock1","","","","<div style=""font-size:60px;""> </div>","null","FL","learning/Slide75.JPG","That was a tob.","",""
"","image-keyboard-response","232","422686","0.0-6.0-0.75","FL","2z8ekchs9g","1920","1080","en","rt08ed02","null","","","","","","","","learning/Slide76.JPG","null","","","","",""
"","html-keyboard-response","233","423849","0.0-6.0-1.75","FL","2z8ekchs9g","1920","1080","en","rt08ed02","null","","","","learningBlock1","","","","That was a bim.","null","","","","",""
"","html-keyboard-response","234","424852","0.0-6.0-2.75","FL","2z8ekchs9g","1920","1080","en","rt08ed02","null","","","","learningBlock1","","","","<div style=""font-size:60px;""> </div>","null","FL","learning/Slide76.JPG","That was a bim.","",""
"","image-keyboard-response","235","425029","0.0-6.0-0.76","FL","2z8ekchs9g","1920","1080","en","rt08ed02","null","","","","","","","","learning/Slide77.JPG","null","","","","",""
"","html-keyboard-response","236","426195","0.0-6.0-1.76","FL","2z8ekchs9g","1920","1080","en","rt08ed02","null","","","","learningBlock1","","","","That was a tob.","null","","","","",""
"","html-keyboard-response","237","427198","0.0-6.0-2.76","FL","2z8ekchs9g","1920","1080","en","rt08ed02","null","","","","learningBlock1","","","","<div style=""font-size:60px;""> </div>","null","FL","learning/Slide77.JPG","That was a tob.","",""
"","image-keyboard-response","238","427383","0.0-6.0-0.77","FL","2z8ekchs9g","1920","1080","en","rt08ed02","null","","","","","","","","learning/Slide78.JPG","null","","","","",""
"","html-keyboard-response","239","428540","0.0-6.0-1.77","FL","2z8ekchs9g","1920","1080","en","rt08ed02","null","","","","learningBlock1","","","","That was a wug.","null","","","","",""
"","html-keyboard-response","240","429544","0.0-6.0-2.77","FL","2z8ekchs9g","1920","1080","en","rt08ed02","null","","","","learningBlock1","","","","<div style=""font-size:60px;""> </div>","null","FL","learning/Slide78.JPG","That was a wug.","",""
"","image-keyboard-response","241","429729","0.0-6.0-0.78","FL","2z8ekchs9g","1920","1080","en","rt08ed02","null","","","","","","","","learning/Slide79.JPG","null","","","","",""
"","html-keyboard-response","242","430889","0.0-6.0-1.78","FL","2z8ekchs9g","1920","1080","en","rt08ed02","null","","","","learningBlock1","","","","That was a bim.","null","","","","",""
"","html-keyboard-response","243","431892","0.0-6.0-2.78","FL","2z8ekchs9g","1920","1080","en","rt08ed02","null","","","","learningBlock1","","","","<div style=""font-size:60px;""> </div>","null","FL","learning/Slide79.JPG","That was a bim.","",""
"","image-keyboard-response","244","432078","0.0-6.0-0.79","FL","2z8ekchs9g","1920","1080","en","rt08ed02","null","","","","","","","","learning/Slide80.JPG","null","","","","",""
"","html-keyboard-response","245","433248","0.0-6.0-1.79","FL","2z8ekchs9g","1920","1080","en","rt08ed02","null","","","","learningBlock1","","","","That was a tob.","null","","","","",""
"","html-keyboard-response","246","434252","0.0-6.0-2.79","FL","2z8ekchs9g","1920","1080","en","rt08ed02","null","","","","learningBlock1","","","","<div style=""font-size:60px;""> </div>","null","FL","learning/Slide80.JPG","That was a tob.","",""
"","instructions","247","437629","0.0-7.0","FL","2z8ekchs9g","1920","1080","en","rt08ed02","NA","","","[{""page_index"":0,""viewing_time"":3374.985000002198}]","instructions","","","","","","","","","",""
"","image-keyboard-response","248","437816","0.0-8.0-0.0","FL","2z8ekchs9g","1920","1080","en","rt08ed02","null","","","","","","","","learning/Slide81.JPG","null","","","","",""
"","html-keyboard-response","249","438969","0.0-8.0-1.0","FL","2z8ekchs9g","1920","1080","en","rt08ed02","null","","","","learningBlock2","","","","That was a wug.","null","","","","",""
"","html-keyboard-response","250","439981","0.0-8.0-2.0","FL","2z8ekchs9g","1920","1080","en","rt08ed02","null","","","","learningBlock2","","","","<div style=""font-size:60px;""> </div>","null","FL","learning/Slide81.JPG","That was a wug.","",""
"","image-keyboard-response","251","440167","0.0-8.0-0.1","FL","2z8ekchs9g","1920","1080","en","rt08ed02","null","","","","","","","","learning/Slide82.JPG","null","","","","",""
"","html-keyboard-response","252","441326","0.0-8.0-1.1","FL","2z8ekchs9g","1920","1080","en","rt08ed02","null","","","","learningBlock2","","","","That was a bim.","null","","","","",""
"","html-keyboard-response","253","442329","0.0-8.0-2.1","FL","2z8ekchs9g","1920","1080","en","rt08ed02","null","","","","learningBlock2","","","","<div style=""font-size:60px;""> </div>","null","FL","learning/Slide82.JPG","That was a bim.","",""
"","image-keyboard-response","254","442514","0.0-8.0-0.2","FL","2z8ekchs9g","1920","1080","en","rt08ed02","null","","","","","","","","learning/Slide83.JPG","null","","","","",""
"","html-keyboard-response","255","443670","0.0-8.0-1.2","FL","2z8ekchs9g","1920","1080","en","rt08ed02","null","","","","learningBlock2","","","","That was a wug.","null","","","","",""
"","html-keyboard-response","256","444674","0.0-8.0-2.2","FL","2z8ekchs9g","1920","1080","en","rt08ed02","null","","","","learningBlock2","","","","<div style=""font-size:60px;""> </div>","null","FL","learning/Slide83.JPG","That was a wug.","",""
"","image-keyboard-response","257","444858","0.0-8.0-0.3","FL","2z8ekchs9g","1920","1080","en","rt08ed02","null","","","","","","","","learning/Slide84.JPG","null","","","","",""
"","html-keyboard-response","258","446014","0.0-8.0-1.3","FL","2z8ekchs9g","1920","1080","en","rt08ed02","null","","","","learningBlock2","","","","That was a dep.","null","","","","",""
"","html-keyboard-response","259","447016","0.0-8.0-2.3","FL","2z8ekchs9g","1920","1080","en","rt08ed02","null","","","","learningBlock2","","","","<div style=""font-size:60px;""> </div>","null","FL","learning/Slide84.JPG","That was a dep.","",""
"","image-keyboard-response","260","447200","0.0-8.0-0.4","FL","2z8ekchs9g","1920","1080","en","rt08ed02","null","","","","","","","","learning/Slide85.JPG","null","","","","",""
"","html-keyboard-response","261","448357","0.0-8.0-1.4","FL","2z8ekchs9g","1920","1080","en","rt08ed02","null","","","","learningBlock2","","","","That was a bim.","null","","","","",""
"","html-keyboard-response","262","449360","0.0-8.0-2.4","FL","2z8ekchs9g","1920","1080","en","rt08ed02","null","","","","learningBlock2","","","","<div style=""font-size:60px;""> </div>","null","FL","learning/Slide85.JPG","That was a bim.","",""
"","image-keyboard-response","263","449546","0.0-8.0-0.5","FL","2z8ekchs9g","1920","1080","en","rt08ed02","null","","","","","","","","learning/Slide86.JPG","null","","","","",""
"","html-keyboard-response","264","450701","0.0-8.0-1.5","FL","2z8ekchs9g","1920","1080","en","rt08ed02","null","","","","learningBlock2","","","","That was a tob.","null","","","","",""
"","html-keyboard-response","265","451717","0.0-8.0-2.5","FL","2z8ekchs9g","1920","1080","en","rt08ed02","null","","","","learningBlock2","","","","<div style=""font-size:60px;""> </div>","null","FL","learning/Slide86.JPG","That was a tob.","",""
"","image-keyboard-response","266","451895","0.0-8.0-0.6","FL","2z8ekchs9g","1920","1080","en","rt08ed02","null","","","","","","","","learning/Slide87.JPG","null","","","","",""
"","html-keyboard-response","267","453060","0.0-8.0-1.6","FL","2z8ekchs9g","1920","1080","en","rt08ed02","null","","","","learningBlock2","","","","That was a wug.","null","","","","",""
"","html-keyboard-response","268","454066","0.0-8.0-2.6","FL","2z8ekchs9g","1920","1080","en","rt08ed02","null","","","","learningBlock2","","","","<div style=""font-size:60px;""> </div>","null","FL","learning/Slide87.JPG","That was a wug.","",""
"","image-keyboard-response","269","454251","0.0-8.0-0.7","FL","2z8ekchs9g","1920","1080","en","rt08ed02","null","","","","","","","","learning/Slide88.JPG","null","","","","",""
"","html-keyboard-response","270","455422","0.0-8.0-1.7","FL","2z8ekchs9g","1920","1080","en","rt08ed02","null","","","","learningBlock2","","","","That was a tob.","null","","","","",""
"","html-keyboard-response","271","456439","0.0-8.0-2.7","FL","2z8ekchs9g","1920","1080","en","rt08ed02","null","","","","learningBlock2","","","","<div style=""font-size:60px;""> </div>","null","FL","learning/Slide88.JPG","That was a tob.","",""
"","image-keyboard-response","272","456624","0.0-8.0-0.8","FL","2z8ekchs9g","1920","1080","en","rt08ed02","null","","","","","","","","learning/Slide89.JPG","null","","","","",""
"","html-keyboard-response","273","457783","0.0-8.0-1.8","FL","2z8ekchs9g","1920","1080","en","rt08ed02","null","","","","learningBlock2","","","","That was a bim.","null","","","","",""
"","html-keyboard-response","274","458786","0.0-8.0-2.8","FL","2z8ekchs9g","1920","1080","en","rt08ed02","null","","","","learningBlock2","","","","<div style=""font-size:60px;""> </div>","null","FL","learning/Slide89.JPG","That was a bim.","",""
"","image-keyboard-response","275","458972","0.0-8.0-0.9","FL","2z8ekchs9g","1920","1080","en","rt08ed02","null","","","","","","","","learning/Slide90.JPG","null","","","","",""
"","html-keyboard-response","276","460128","0.0-8.0-1.9","FL","2z8ekchs9g","1920","1080","en","rt08ed02","null","","","","learningBlock2","","","","That was a dep.","null","","","","",""
"","html-keyboard-response","277","461131","0.0-8.0-2.9","FL","2z8ekchs9g","1920","1080","en","rt08ed02","null","","","","learningBlock2","","","","<div style=""font-size:60px;""> </div>","null","FL","learning/Slide90.JPG","That was a dep.","",""
"","image-keyboard-response","278","461316","0.0-8.0-0.10","FL","2z8ekchs9g","1920","1080","en","rt08ed02","null","","","","","","","","learning/Slide91.JPG","null","","","","",""
"","html-keyboard-response","279","462471","0.0-8.0-1.10","FL","2z8ekchs9g","1920","1080","en","rt08ed02","null","","","","learningBlock2","","","","That was a wug.","null","","","","",""
"","html-keyboard-response","280","463488","0.0-8.0-2.10","FL","2z8ekchs9g","1920","1080","en","rt08ed02","null","","","","learningBlock2","","","","<div style=""font-size:60px;""> </div>","null","FL","learning/Slide91.JPG","That was a wug.","",""
"","image-keyboard-response","281","463672","0.0-8.0-0.11","FL","2z8ekchs9g","1920","1080","en","rt08ed02","null","","","","","","","","learning/Slide92.JPG","null","","","","",""
"","html-keyboard-response","282","464829","0.0-8.0-1.11","FL","2z8ekchs9g","1920","1080","en","rt08ed02","null","","","","learningBlock2","","","","That was a tob.","null","","","","",""
"","html-keyboard-response","283","465832","0.0-8.0-2.11","FL","2z8ekchs9g","1920","1080","en","rt08ed02","null","","","","learningBlock2","","","","<div style=""font-size:60px;""> </div>","null","FL","learning/Slide92.JPG","That was a tob.","",""
"","image-keyboard-response","284","466017","0.0-8.0-0.12","FL","2z8ekchs9g","1920","1080","en","rt08ed02","null","","","","","","","","learning/Slide93.JPG","null","","","","",""
"","html-keyboard-response","285","467189","0.0-8.0-1.12","FL","2z8ekchs9g","1920","1080","en","rt08ed02","null","","","","learningBlock2","","","","That was a bim.","null","","","","",""
"","html-keyboard-response","286","468205","0.0-8.0-2.12","FL","2z8ekchs9g","1920","1080","en","rt08ed02","null","","","","learningBlock2","","","","<div style=""font-size:60px;""> </div>","null","FL","learning/Slide93.JPG","That was a bim.","",""
"","image-keyboard-response","287","468391","0.0-8.0-0.13","FL","2z8ekchs9g","1920","1080","en","rt08ed02","null","","","","","","","","learning/Slide94.JPG","null","","","","",""
"","html-keyboard-response","288","469547","0.0-8.0-1.13","FL","2z8ekchs9g","1920","1080","en","rt08ed02","null","","","","learningBlock2","","","","That was a tob.","null","","","","",""
"","html-keyboard-response","289","470564","0.0-8.0-2.13","FL","2z8ekchs9g","1920","1080","en","rt08ed02","null","","","","learningBlock2","","","","<div style=""font-size:60px;""> </div>","null","FL","learning/Slide94.JPG","That was a tob.","",""
"","image-keyboard-response","290","470748","0.0-8.0-0.14","FL","2z8ekchs9g","1920","1080","en","rt08ed02","null","","","","","","","","learning/Slide95.JPG","null","","","","",""
"","html-keyboard-response","291","471904","0.0-8.0-1.14","FL","2z8ekchs9g","1920","1080","en","rt08ed02","null","","","","learningBlock2","","","","That was a wug.","null","","","","",""
"","html-keyboard-response","292","472906","0.0-8.0-2.14","FL","2z8ekchs9g","1920","1080","en","rt08ed02","null","","","","learningBlock2","","","","<div style=""font-size:60px;""> </div>","null","FL","learning/Slide95.JPG","That was a wug.","",""
"","image-keyboard-response","293","473091","0.0-8.0-0.15","FL","2z8ekchs9g","1920","1080","en","rt08ed02","null","","","","","","","","learning/Slide96.JPG","null","","","","",""
"","html-keyboard-response","294","474246","0.0-8.0-1.15","FL","2z8ekchs9g","1920","1080","en","rt08ed02","null","","","","learningBlock2","","","","That was a tob.","null","","","","",""
"","html-keyboard-response","295","475248","0.0-8.0-2.15","FL","2z8ekchs9g","1920","1080","en","rt08ed02","null","","","","learningBlock2","","","","<div style=""font-size:60px;""> </div>","null","FL","learning/Slide96.JPG","That was a tob.","",""
"","image-keyboard-response","296","475426","0.0-8.0-0.16","FL","2z8ekchs9g","1920","1080","en","rt08ed02","null","","","","","","","","learning/Slide97.JPG","null","","","","",""
"","html-keyboard-response","297","476591","0.0-8.0-1.16","FL","2z8ekchs9g","1920","1080","en","rt08ed02","null","","","","learningBlock2","","","","That was a dep.","null","","","","",""
"","html-keyboard-response","298","477593","0.0-8.0-2.16","FL","2z8ekchs9g","1920","1080","en","rt08ed02","null","","","","learningBlock2","","","","<div style=""font-size:60px;""> </div>","null","FL","learning/Slide97.JPG","That was a dep.","",""
"","image-keyboard-response","299","477778","0.0-8.0-0.17","FL","2z8ekchs9g","1920","1080","en","rt08ed02","null","","","","","","","","learning/Slide98.JPG","null","","","","",""
"","html-keyboard-response","300","478938","0.0-8.0-1.17","FL","2z8ekchs9g","1920","1080","en","rt08ed02","null","","","","learningBlock2","","","","That was a bim.","null","","","","",""
"","html-keyboard-response","301","479954","0.0-8.0-2.17","FL","2z8ekchs9g","1920","1080","en","rt08ed02","null","","","","learningBlock2","","","","<div style=""font-size:60px;""> </div>","null","FL","learning/Slide98.JPG","That was a bim.","",""
"","image-keyboard-response","302","480140","0.0-8.0-0.18","FL","2z8ekchs9g","1920","1080","en","rt08ed02","null","","","","","","","","learning/Slide99.JPG","null","","","","",""
"","html-keyboard-response","303","481305","0.0-8.0-1.18","FL","2z8ekchs9g","1920","1080","en","rt08ed02","null","","","","learningBlock2","","","","That was a dep.","null","","","","",""
"","html-keyboard-response","304","482308","0.0-8.0-2.18","FL","2z8ekchs9g","1920","1080","en","rt08ed02","null","","","","learningBlock2","","","","<div style=""font-size:60px;""> </div>","null","FL","learning/Slide99.JPG","That was a dep.","",""
"","image-keyboard-response","305","482493","0.0-8.0-0.19","FL","2z8ekchs9g","1920","1080","en","rt08ed02","null","","","","","","","","learning/Slide100.JPG","null","","","","",""
"","html-keyboard-response","306","483649","0.0-8.0-1.19","FL","2z8ekchs9g","1920","1080","en","rt08ed02","null","","","","learningBlock2","","","","That was a bim.","null","","","","",""
"","html-keyboard-response","307","484661","0.0-8.0-2.19","FL","2z8ekchs9g","1920","1080","en","rt08ed02","null","","","","learningBlock2","","","","<div style=""font-size:60px;""> </div>","null","FL","learning/Slide100.JPG","That was a bim.","",""
"","image-keyboard-response","308","484840","0.0-8.0-0.20","FL","2z8ekchs9g","1920","1080","en","rt08ed02","null","","","","","","","","learning/Slide101.JPG","null","","","","",""
"","html-keyboard-response","309","486005","0.0-8.0-1.20","FL","2z8ekchs9g","1920","1080","en","rt08ed02","null","","","","learningBlock2","","","","That was a tob.","null","","","","",""
"","html-keyboard-response","310","487008","0.0-8.0-2.20","FL","2z8ekchs9g","1920","1080","en","rt08ed02","null","","","","learningBlock2","","","","<div style=""font-size:60px;""> </div>","null","FL","learning/Slide101.JPG","That was a tob.","",""
"","image-keyboard-response","311","487192","0.0-8.0-0.21","FL","2z8ekchs9g","1920","1080","en","rt08ed02","null","","","","","","","","learning/Slide102.JPG","null","","","","",""
"","html-keyboard-response","312","488350","0.0-8.0-1.21","FL","2z8ekchs9g","1920","1080","en","rt08ed02","null","","","","learningBlock2","","","","That was a bim.","null","","","","",""
"","html-keyboard-response","313","489367","0.0-8.0-2.21","FL","2z8ekchs9g","1920","1080","en","rt08ed02","null","","","","learningBlock2","","","","<div style=""font-size:60px;""> </div>","null","FL","learning/Slide102.JPG","That was a bim.","",""
"","image-keyboard-response","314","489545","0.0-8.0-0.22","FL","2z8ekchs9g","1920","1080","en","rt08ed02","null","","","","","","","","learning/Slide103.JPG","null","","","","",""
"","html-keyboard-response","315","490711","0.0-8.0-1.22","FL","2z8ekchs9g","1920","1080","en","rt08ed02","null","","","","learningBlock2","","","","That was a dep.","null","","","","",""
"","html-keyboard-response","316","491713","0.0-8.0-2.22","FL","2z8ekchs9g","1920","1080","en","rt08ed02","null","","","","learningBlock2","","","","<div style=""font-size:60px;""> </div>","null","FL","learning/Slide103.JPG","That was a dep.","",""
"","image-keyboard-response","317","491891","0.0-8.0-0.23","FL","2z8ekchs9g","1920","1080","en","rt08ed02","null","","","","","","","","learning/Slide104.JPG","null","","","","",""
"","html-keyboard-response","318","493053","0.0-8.0-1.23","FL","2z8ekchs9g","1920","1080","en","rt08ed02","null","","","","learningBlock2","","","","That was a tob.","null","","","","",""
"","html-keyboard-response","319","494056","0.0-8.0-2.23","FL","2z8ekchs9g","1920","1080","en","rt08ed02","null","","","","learningBlock2","","","","<div style=""font-size:60px;""> </div>","null","FL","learning/Slide104.JPG","That was a tob.","",""
"","image-keyboard-response","320","494241","0.0-8.0-0.24","FL","2z8ekchs9g","1920","1080","en","rt08ed02","null","","","","","","","","learning/Slide105.JPG","null","","","","",""
"","html-keyboard-response","321","495397","0.0-8.0-1.24","FL","2z8ekchs9g","1920","1080","en","rt08ed02","null","","","","learningBlock2","","","","That was a dep.","null","","","","",""
"","html-keyboard-response","322","496403","0.0-8.0-2.24","FL","2z8ekchs9g","1920","1080","en","rt08ed02","null","","","","learningBlock2","","","","<div style=""font-size:60px;""> </div>","null","FL","learning/Slide105.JPG","That was a dep.","",""
"","image-keyboard-response","323","496586","0.0-8.0-0.25","FL","2z8ekchs9g","1920","1080","en","rt08ed02","null","","","","","","","","learning/Slide106.JPG","null","","","","",""
"","html-keyboard-response","324","497744","0.0-8.0-1.25","FL","2z8ekchs9g","1920","1080","en","rt08ed02","null","","","","learningBlock2","","","","That was a wug.","null","","","","",""
"","html-keyboard-response","325","498747","0.0-8.0-2.25","FL","2z8ekchs9g","1920","1080","en","rt08ed02","null","","","","learningBlock2","","","","<div style=""font-size:60px;""> </div>","null","FL","learning/Slide106.JPG","That was a wug.","",""
"","image-keyboard-response","326","498933","0.0-8.0-0.26","FL","2z8ekchs9g","1920","1080","en","rt08ed02","null","","","","","","","","learning/Slide107.JPG","null","","","","",""
"","html-keyboard-response","327","500090","0.0-8.0-1.26","FL","2z8ekchs9g","1920","1080","en","rt08ed02","null","","","","learningBlock2","","","","That was a bim.","null","","","","",""
"","html-keyboard-response","328","501094","0.0-8.0-2.26","FL","2z8ekchs9g","1920","1080","en","rt08ed02","null","","","","learningBlock2","","","","<div style=""font-size:60px;""> </div>","null","FL","learning/Slide107.JPG","That was a bim.","",""
"","image-keyboard-response","329","501279","0.0-8.0-0.27","FL","2z8ekchs9g","1920","1080","en","rt08ed02","null","","","","","","","","learning/Slide108.JPG","null","","","","",""
"","html-keyboard-response","330","502435","0.0-8.0-1.27","FL","2z8ekchs9g","1920","1080","en","rt08ed02","null","","","","learningBlock2","","","","That was a dep.","null","","","","",""
"","html-keyboard-response","331","503438","0.0-8.0-2.27","FL","2z8ekchs9g","1920","1080","en","rt08ed02","null","","","","learningBlock2","","","","<div style=""font-size:60px;""> </div>","null","FL","learning/Slide108.JPG","That was a dep.","",""
"","image-keyboard-response","332","503622","0.0-8.0-0.28","FL","2z8ekchs9g","1920","1080","en","rt08ed02","null","","","","","","","","learning/Slide109.JPG","null","","","","",""
"","html-keyboard-response","333","504778","0.0-8.0-1.28","FL","2z8ekchs9g","1920","1080","en","rt08ed02","null","","","","learningBlock2","","","","That was a wug.","null","","","","",""
"","html-keyboard-response","334","505781","0.0-8.0-2.28","FL","2z8ekchs9g","1920","1080","en","rt08ed02","null","","","","learningBlock2","","","","<div style=""font-size:60px;""> </div>","null","FL","learning/Slide109.JPG","That was a wug.","",""
"","image-keyboard-response","335","505959","0.0-8.0-0.29","FL","2z8ekchs9g","1920","1080","en","rt08ed02","null","","","","","","","","learning/Slide110.JPG","null","","","","",""
"","html-keyboard-response","336","507124","0.0-8.0-1.29","FL","2z8ekchs9g","1920","1080","en","rt08ed02","null","","","","learningBlock2","","","","That was a bim.","null","","","","",""
"","html-keyboard-response","337","508126","0.0-8.0-2.29","FL","2z8ekchs9g","1920","1080","en","rt08ed02","null","","","","learningBlock2","","","","<div style=""font-size:60px;""> </div>","null","FL","learning/Slide110.JPG","That was a bim.","",""
"","image-keyboard-response","338","508311","0.0-8.0-0.30","FL","2z8ekchs9g","1920","1080","en","rt08ed02","null","","","","","","","","learning/Slide111.JPG","null","","","","",""
"","html-keyboard-response","339","509469","0.0-8.0-1.30","FL","2z8ekchs9g","1920","1080","en","rt08ed02","null","","","","learningBlock2","","","","That was a tob.","null","","","","",""
"","html-keyboard-response","340","510474","0.0-8.0-2.30","FL","2z8ekchs9g","1920","1080","en","rt08ed02","null","","","","learningBlock2","","","","<div style=""font-size:60px;""> </div>","null","FL","learning/Slide111.JPG","That was a tob.","",""
"","image-keyboard-response","341","510658","0.0-8.0-0.31","FL","2z8ekchs9g","1920","1080","en","rt08ed02","null","","","","","","","","learning/Slide112.JPG","null","","","","",""
"","html-keyboard-response","342","511816","0.0-8.0-1.31","FL","2z8ekchs9g","1920","1080","en","rt08ed02","null","","","","learningBlock2","","","","That was a wug.","null","","","","",""
"","html-keyboard-response","343","512819","0.0-8.0-2.31","FL","2z8ekchs9g","1920","1080","en","rt08ed02","null","","","","learningBlock2","","","","<div style=""font-size:60px;""> </div>","null","FL","learning/Slide112.JPG","That was a wug.","",""
"","image-keyboard-response","344","513003","0.0-8.0-0.32","FL","2z8ekchs9g","1920","1080","en","rt08ed02","null","","","","","","","","learning/Slide113.JPG","null","","","","",""
"","html-keyboard-response","345","514159","0.0-8.0-1.32","FL","2z8ekchs9g","1920","1080","en","rt08ed02","null","","","","learningBlock2","","","","That was a tob.","null","","","","",""
"","html-keyboard-response","346","515163","0.0-8.0-2.32","FL","2z8ekchs9g","1920","1080","en","rt08ed02","null","","","","learningBlock2","","","","<div style=""font-size:60px;""> </div>","null","FL","learning/Slide113.JPG","That was a tob.","",""
"","image-keyboard-response","347","515340","0.0-8.0-0.33","FL","2z8ekchs9g","1920","1080","en","rt08ed02","null","","","","","","","","learning/Slide114.JPG","null","","","","",""
"","html-keyboard-response","348","516505","0.0-8.0-1.33","FL","2z8ekchs9g","1920","1080","en","rt08ed02","null","","","","learningBlock2","","","","That was a wug.","null","","","","",""
"","html-keyboard-response","349","517507","0.0-8.0-2.33","FL","2z8ekchs9g","1920","1080","en","rt08ed02","null","","","","learningBlock2","","","","<div style=""font-size:60px;""> </div>","null","FL","learning/Slide114.JPG","That was a wug.","",""
"","image-keyboard-response","350","517692","0.0-8.0-0.34","FL","2z8ekchs9g","1920","1080","en","rt08ed02","null","","","","","","","","learning/Slide115.JPG","null","","","","",""
"","html-keyboard-response","351","518850","0.0-8.0-1.34","FL","2z8ekchs9g","1920","1080","en","rt08ed02","null","","","","learningBlock2","","","","That was a bim.","null","","","","",""
"","html-keyboard-response","352","519865","0.0-8.0-2.34","FL","2z8ekchs9g","1920","1080","en","rt08ed02","null","","","","learningBlock2","","","","<div style=""font-size:60px;""> </div>","null","FL","learning/Slide115.JPG","That was a bim.","",""
"","image-keyboard-response","353","520042","0.0-8.0-0.35","FL","2z8ekchs9g","1920","1080","en","rt08ed02","null","","","","","","","","learning/Slide116.JPG","null","","","","",""
"","html-keyboard-response","354","521205","0.0-8.0-1.35","FL","2z8ekchs9g","1920","1080","en","rt08ed02","null","","","","learningBlock2","","","","That was a dep.","null","","","","",""
"","html-keyboard-response","355","522222","0.0-8.0-2.35","FL","2z8ekchs9g","1920","1080","en","rt08ed02","null","","","","learningBlock2","","","","<div style=""font-size:60px;""> </div>","null","FL","learning/Slide116.JPG","That was a dep.","",""
"","image-keyboard-response","356","522408","0.0-8.0-0.36","FL","2z8ekchs9g","1920","1080","en","rt08ed02","null","","","","","","","","learning/Slide117.JPG","null","","","","",""
"","html-keyboard-response","357","523564","0.0-8.0-1.36","FL","2z8ekchs9g","1920","1080","en","rt08ed02","null","","","","learningBlock2","","","","That was a tob.","null","","","","",""
"","html-keyboard-response","358","524567","0.0-8.0-2.36","FL","2z8ekchs9g","1920","1080","en","rt08ed02","null","","","","learningBlock2","","","","<div style=""font-size:60px;""> </div>","null","FL","learning/Slide117.JPG","That was a tob.","",""
"","image-keyboard-response","359","524745","0.0-8.0-0.37","FL","2z8ekchs9g","1920","1080","en","rt08ed02","null","","","","","","","","learning/Slide118.JPG","null","","","","",""
"","html-keyboard-response","360","525910","0.0-8.0-1.37","FL","2z8ekchs9g","1920","1080","en","rt08ed02","null","","","","learningBlock2","","","","That was a dep.","null","","","","",""
"","html-keyboard-response","361","526913","0.0-8.0-2.37","FL","2z8ekchs9g","1920","1080","en","rt08ed02","null","","","","learningBlock2","","","","<div style=""font-size:60px;""> </div>","null","FL","learning/Slide118.JPG","That was a dep.","",""
"","image-keyboard-response","362","527098","0.0-8.0-0.38","FL","2z8ekchs9g","1920","1080","en","rt08ed02","null","","","","","","","","learning/Slide119.JPG","null","","","","",""
"","html-keyboard-response","363","528256","0.0-8.0-1.38","FL","2z8ekchs9g","1920","1080","en","rt08ed02","null","","","","learningBlock2","","","","That was a wug.","null","","","","",""
"","html-keyboard-response","364","529259","0.0-8.0-2.38","FL","2z8ekchs9g","1920","1080","en","rt08ed02","null","","","","learningBlock2","","","","<div style=""font-size:60px;""> </div>","null","FL","learning/Slide119.JPG","That was a wug.","",""
"","image-keyboard-response","365","529437","0.0-8.0-0.39","FL","2z8ekchs9g","1920","1080","en","rt08ed02","null","","","","","","","","learning/Slide120.JPG","null","","","","",""
"","html-keyboard-response","366","530616","0.0-8.0-1.39","FL","2z8ekchs9g","1920","1080","en","rt08ed02","null","","","","learningBlock2","","","","That was a dep.","null","","","","",""
"","html-keyboard-response","367","531623","0.0-8.0-2.39","FL","2z8ekchs9g","1920","1080","en","rt08ed02","null","","","","learningBlock2","","","","<div style=""font-size:60px;""> </div>","null","FL","learning/Slide120.JPG","That was a dep.","",""
"","image-keyboard-response","368","531810","0.0-8.0-0.40","FL","2z8ekchs9g","1920","1080","en","rt08ed02","null","","","","","","","","learning/Slide121.JPG","null","","","","",""
"","html-keyboard-response","369","532976","0.0-8.0-1.40","FL","2z8ekchs9g","1920","1080","en","rt08ed02","null","","","","learningBlock2","","","","That was a bim.","null","","","","",""
"","html-keyboard-response","370","533983","0.0-8.0-2.40","FL","2z8ekchs9g","1920","1080","en","rt08ed02","null","","","","learningBlock2","","","","<div style=""font-size:60px;""> </div>","null","FL","learning/Slide121.JPG","That was a bim.","",""
"","image-keyboard-response","371","534168","0.0-8.0-0.41","FL","2z8ekchs9g","1920","1080","en","rt08ed02","null","","","","","","","","learning/Slide122.JPG","null","","","","",""
"","html-keyboard-response","372","535325","0.0-8.0-1.41","FL","2z8ekchs9g","1920","1080","en","rt08ed02","null","","","","learningBlock2","","","","That was a wug.","null","","","","",""
"","html-keyboard-response","373","536329","0.0-8.0-2.41","FL","2z8ekchs9g","1920","1080","en","rt08ed02","null","","","","learningBlock2","","","","<div style=""font-size:60px;""> </div>","null","FL","learning/Slide122.JPG","That was a wug.","",""
"","image-keyboard-response","374","536514","0.0-8.0-0.42","FL","2z8ekchs9g","1920","1080","en","rt08ed02","null","","","","","","","","learning/Slide123.JPG","null","","","","",""
"","html-keyboard-response","375","537670","0.0-8.0-1.42","FL","2z8ekchs9g","1920","1080","en","rt08ed02","null","","","","learningBlock2","","","","That was a bim.","null","","","","",""
"","html-keyboard-response","376","538675","0.0-8.0-2.42","FL","2z8ekchs9g","1920","1080","en","rt08ed02","null","","","","learningBlock2","","","","<div style=""font-size:60px;""> </div>","null","FL","learning/Slide123.JPG","That was a bim.","",""
"","image-keyboard-response","377","538859","0.0-8.0-0.43","FL","2z8ekchs9g","1920","1080","en","rt08ed02","null","","","","","","","","learning/Slide124.JPG","null","","","","",""
"","html-keyboard-response","378","540015","0.0-8.0-1.43","FL","2z8ekchs9g","1920","1080","en","rt08ed02","null","","","","learningBlock2","","","","That was a tob.","null","","","","",""
"","html-keyboard-response","379","541020","0.0-8.0-2.43","FL","2z8ekchs9g","1920","1080","en","rt08ed02","null","","","","learningBlock2","","","","<div style=""font-size:60px;""> </div>","null","FL","learning/Slide124.JPG","That was a tob.","",""
"","image-keyboard-response","380","541204","0.0-8.0-0.44","FL","2z8ekchs9g","1920","1080","en","rt08ed02","null","","","","","","","","learning/Slide125.JPG","null","","","","",""
"","html-keyboard-response","381","542363","0.0-8.0-1.44","FL","2z8ekchs9g","1920","1080","en","rt08ed02","null","","","","learningBlock2","","","","That was a bim.","null","","","","",""
"","html-keyboard-response","382","543367","0.0-8.0-2.44","FL","2z8ekchs9g","1920","1080","en","rt08ed02","null","","","","learningBlock2","","","","<div style=""font-size:60px;""> </div>","null","FL","learning/Slide125.JPG","That was a bim.","",""
"","image-keyboard-response","383","543551","0.0-8.0-0.45","FL","2z8ekchs9g","1920","1080","en","rt08ed02","null","","","","","","","","learning/Slide126.JPG","null","","","","",""
"","html-keyboard-response","384","544708","0.0-8.0-1.45","FL","2z8ekchs9g","1920","1080","en","rt08ed02","null","","","","learningBlock2","","","","That was a tob.","null","","","","",""
"","html-keyboard-response","385","545710","0.0-8.0-2.45","FL","2z8ekchs9g","1920","1080","en","rt08ed02","null","","","","learningBlock2","","","","<div style=""font-size:60px;""> </div>","null","FL","learning/Slide126.JPG","That was a tob.","",""
"","image-keyboard-response","386","545895","0.0-8.0-0.46","FL","2z8ekchs9g","1920","1080","en","rt08ed02","null","","","","","","","","learning/Slide127.JPG","null","","","","",""
"","html-keyboard-response","387","547051","0.0-8.0-1.46","FL","2z8ekchs9g","1920","1080","en","rt08ed02","null","","","","learningBlock2","","","","That was a dep.","null","","","","",""
"","html-keyboard-response","388","548068","0.0-8.0-2.46","FL","2z8ekchs9g","1920","1080","en","rt08ed02","null","","","","learningBlock2","","","","<div style=""font-size:60px;""> </div>","null","FL","learning/Slide127.JPG","That was a dep.","",""
"","image-keyboard-response","389","548246","0.0-8.0-0.47","FL","2z8ekchs9g","1920","1080","en","rt08ed02","null","","","","","","","","learning/Slide128.JPG","null","","","","",""
"","html-keyboard-response","390","549409","0.0-8.0-1.47","FL","2z8ekchs9g","1920","1080","en","rt08ed02","null","","","","learningBlock2","","","","That was a wug.","null","","","","",""
"","html-keyboard-response","391","550412","0.0-8.0-2.47","FL","2z8ekchs9g","1920","1080","en","rt08ed02","null","","","","learningBlock2","","","","<div style=""font-size:60px;""> </div>","null","FL","learning/Slide128.JPG","That was a wug.","",""
"","image-keyboard-response","392","550597","0.0-8.0-0.48","FL","2z8ekchs9g","1920","1080","en","rt08ed02","null","","","","","","","","learning/Slide129.JPG","null","","","","",""
"","html-keyboard-response","393","551752","0.0-8.0-1.48","FL","2z8ekchs9g","1920","1080","en","rt08ed02","null","","","","learningBlock2","","","","That was a tob.","null","","","","",""
"","html-keyboard-response","394","552754","0.0-8.0-2.48","FL","2z8ekchs9g","1920","1080","en","rt08ed02","null","","","","learningBlock2","","","","<div style=""font-size:60px;""> </div>","null","FL","learning/Slide129.JPG","That was a tob.","",""
"","image-keyboard-response","395","552939","0.0-8.0-0.49","FL","2z8ekchs9g","1920","1080","en","rt08ed02","null","","","","","","","","learning/Slide130.JPG","null","","","","",""
"","html-keyboard-response","396","554095","0.0-8.0-1.49","FL","2z8ekchs9g","1920","1080","en","rt08ed02","null","","","","learningBlock2","","","","That was a wug.","null","","","","",""
"","html-keyboard-response","397","555098","0.0-8.0-2.49","FL","2z8ekchs9g","1920","1080","en","rt08ed02","null","","","","learningBlock2","","","","<div style=""font-size:60px;""> </div>","null","FL","learning/Slide130.JPG","That was a wug.","",""
"","image-keyboard-response","398","555276","0.0-8.0-0.50","FL","2z8ekchs9g","1920","1080","en","rt08ed02","null","","","","","","","","learning/Slide131.JPG","null","","","","",""
"","html-keyboard-response","399","556439","0.0-8.0-1.50","FL","2z8ekchs9g","1920","1080","en","rt08ed02","null","","","","learningBlock2","","","","That was a bim.","null","","","","",""
"","html-keyboard-response","400","557457","0.0-8.0-2.50","FL","2z8ekchs9g","1920","1080","en","rt08ed02","null","","","","learningBlock2","","","","<div style=""font-size:60px;""> </div>","null","FL","learning/Slide131.JPG","That was a bim.","",""
"","image-keyboard-response","401","557642","0.0-8.0-0.51","FL","2z8ekchs9g","1920","1080","en","rt08ed02","null","","","","","","","","learning/Slide132.JPG","null","","","","",""
"","html-keyboard-response","402","558797","0.0-8.0-1.51","FL","2z8ekchs9g","1920","1080","en","rt08ed02","null","","","","learningBlock2","","","","That was a dep.","null","","","","",""
"","html-keyboard-response","403","559801","0.0-8.0-2.51","FL","2z8ekchs9g","1920","1080","en","rt08ed02","null","","","","learningBlock2","","","","<div style=""font-size:60px;""> </div>","null","FL","learning/Slide132.JPG","That was a dep.","",""
"","image-keyboard-response","404","559988","0.0-8.0-0.52","FL","2z8ekchs9g","1920","1080","en","rt08ed02","null","","","","","","","","learning/Slide133.JPG","null","","","","",""
"","html-keyboard-response","405","561146","0.0-8.0-1.52","FL","2z8ekchs9g","1920","1080","en","rt08ed02","null","","","","learningBlock2","","","","That was a tob.","null","","","","",""
"","html-keyboard-response","406","562149","0.0-8.0-2.52","FL","2z8ekchs9g","1920","1080","en","rt08ed02","null","","","","learningBlock2","","","","<div style=""font-size:60px;""> </div>","null","FL","learning/Slide133.JPG","That was a tob.","",""
"","image-keyboard-response","407","562333","0.0-8.0-0.53","FL","2z8ekchs9g","1920","1080","en","rt08ed02","null","","","","","","","","learning/Slide134.JPG","null","","","","",""
"","html-keyboard-response","408","563490","0.0-8.0-1.53","FL","2z8ekchs9g","1920","1080","en","rt08ed02","null","","","","learningBlock2","","","","That was a dep.","null","","","","",""
"","html-keyboard-response","409","564492","0.0-8.0-2.53","FL","2z8ekchs9g","1920","1080","en","rt08ed02","null","","","","learningBlock2","","","","<div style=""font-size:60px;""> </div>","null","FL","learning/Slide134.JPG","That was a dep.","",""
"","image-keyboard-response","410","564678","0.0-8.0-0.54","FL","2z8ekchs9g","1920","1080","en","rt08ed02","null","","","","","","","","learning/Slide135.JPG","null","","","","",""
"","html-keyboard-response","411","565837","0.0-8.0-1.54","FL","2z8ekchs9g","1920","1080","en","rt08ed02","null","","","","learningBlock2","","","","That was a tob.","null","","","","",""
"","html-keyboard-response","412","566840","0.0-8.0-2.54","FL","2z8ekchs9g","1920","1080","en","rt08ed02","null","","","","learningBlock2","","","","<div style=""font-size:60px;""> </div>","null","FL","learning/Slide135.JPG","That was a tob.","",""
"","image-keyboard-response","413","567025","0.0-8.0-0.55","FL","2z8ekchs9g","1920","1080","en","rt08ed02","null","","","","","","","","learning/Slide136.JPG","null","","","","",""
"","html-keyboard-response","414","568182","0.0-8.0-1.55","FL","2z8ekchs9g","1920","1080","en","rt08ed02","null","","","","learningBlock2","","","","That was a wug.","null","","","","",""
"","html-keyboard-response","415","569184","0.0-8.0-2.55","FL","2z8ekchs9g","1920","1080","en","rt08ed02","null","","","","learningBlock2","","","","<div style=""font-size:60px;""> </div>","null","FL","learning/Slide136.JPG","That was a wug.","",""
"","image-keyboard-response","416","569369","0.0-8.0-0.56","FL","2z8ekchs9g","1920","1080","en","rt08ed02","null","","","","","","","","learning/Slide137.JPG","null","","","","",""
"","html-keyboard-response","417","570524","0.0-8.0-1.56","FL","2z8ekchs9g","1920","1080","en","rt08ed02","null","","","","learningBlock2","","","","That was a tob.","null","","","","",""
"","html-keyboard-response","418","571541","0.0-8.0-2.56","FL","2z8ekchs9g","1920","1080","en","rt08ed02","null","","","","learningBlock2","","","","<div style=""font-size:60px;""> </div>","null","FL","learning/Slide137.JPG","That was a tob.","",""
"","image-keyboard-response","419","571726","0.0-8.0-0.57","FL","2z8ekchs9g","1920","1080","en","rt08ed02","null","","","","","","","","learning/Slide138.JPG","null","","","","",""
"","html-keyboard-response","420","572883","0.0-8.0-1.57","FL","2z8ekchs9g","1920","1080","en","rt08ed02","null","","","","learningBlock2","","","","That was a bim.","null","","","","",""
"","html-keyboard-response","421","573885","0.0-8.0-2.57","FL","2z8ekchs9g","1920","1080","en","rt08ed02","null","","","","learningBlock2","","","","<div style=""font-size:60px;""> </div>","null","FL","learning/Slide138.JPG","That was a bim.","",""
"","image-keyboard-response","422","574069","0.0-8.0-0.58","FL","2z8ekchs9g","1920","1080","en","rt08ed02","null","","","","","","","","learning/Slide139.JPG","null","","","","",""
"","html-keyboard-response","423","575226","0.0-8.0-1.58","FL","2z8ekchs9g","1920","1080","en","rt08ed02","null","","","","learningBlock2","","","","That was a wug.","null","","","","",""
"","html-keyboard-response","424","576229","0.0-8.0-2.58","FL","2z8ekchs9g","1920","1080","en","rt08ed02","null","","","","learningBlock2","","","","<div style=""font-size:60px;""> </div>","null","FL","learning/Slide139.JPG","That was a wug.","",""
"","image-keyboard-response","425","576407","0.0-8.0-0.59","FL","2z8ekchs9g","1920","1080","en","rt08ed02","null","","","","","","","","learning/Slide140.JPG","null","","","","",""
"","html-keyboard-response","426","577572","0.0-8.0-1.59","FL","2z8ekchs9g","1920","1080","en","rt08ed02","null","","","","learningBlock2","","","","That was a dep.","null","","","","",""
"","html-keyboard-response","427","578576","0.0-8.0-2.59","FL","2z8ekchs9g","1920","1080","en","rt08ed02","null","","","","learningBlock2","","","","<div style=""font-size:60px;""> </div>","null","FL","learning/Slide140.JPG","That was a dep.","",""
"","image-keyboard-response","428","578760","0.0-8.0-0.60","FL","2z8ekchs9g","1920","1080","en","rt08ed02","null","","","","","","","","learning/Slide141.JPG","null","","","","",""
"","html-keyboard-response","429","579916","0.0-8.0-1.60","FL","2z8ekchs9g","1920","1080","en","rt08ed02","null","","","","learningBlock2","","","","That was a tob.","null","","","","",""
"","html-keyboard-response","430","580932","0.0-8.0-2.60","FL","2z8ekchs9g","1920","1080","en","rt08ed02","null","","","","learningBlock2","","","","<div style=""font-size:60px;""> </div>","null","FL","learning/Slide141.JPG","That was a tob.","",""
"","image-keyboard-response","431","581117","0.0-8.0-0.61","FL","2z8ekchs9g","1920","1080","en","rt08ed02","null","","","","","","","","learning/Slide142.JPG","null","","","","",""
"","html-keyboard-response","432","582288","0.0-8.0-1.61","FL","2z8ekchs9g","1920","1080","en","rt08ed02","null","","","","learningBlock2","","","","That was a wug.","null","","","","",""
"","html-keyboard-response","433","583290","0.0-8.0-2.61","FL","2z8ekchs9g","1920","1080","en","rt08ed02","null","","","","learningBlock2","","","","<div style=""font-size:60px;""> </div>","null","FL","learning/Slide142.JPG","That was a wug.","",""
"","image-keyboard-response","434","583474","0.0-8.0-0.62","FL","2z8ekchs9g","1920","1080","en","rt08ed02","null","","","","","","","","learning/Slide143.JPG","null","","","","",""
"","html-keyboard-response","435","584632","0.0-8.0-1.62","FL","2z8ekchs9g","1920","1080","en","rt08ed02","null","","","","learningBlock2","","","","That was a bim.","null","","","","",""
"","html-keyboard-response","436","585648","0.0-8.0-2.62","FL","2z8ekchs9g","1920","1080","en","rt08ed02","null","","","","learningBlock2","","","","<div style=""font-size:60px;""> </div>","null","FL","learning/Slide143.JPG","That was a bim.","",""
"","image-keyboard-response","437","585827","0.0-8.0-0.63","FL","2z8ekchs9g","1920","1080","en","rt08ed02","null","","","","","","","","learning/Slide144.JPG","null","","","","",""
"","html-keyboard-response","438","586989","0.0-8.0-1.63","FL","2z8ekchs9g","1920","1080","en","rt08ed02","null","","","","learningBlock2","","","","That was a dep.","null","","","","",""
"","html-keyboard-response","439","588005","0.0-8.0-2.63","FL","2z8ekchs9g","1920","1080","en","rt08ed02","null","","","","learningBlock2","","","","<div style=""font-size:60px;""> </div>","null","FL","learning/Slide144.JPG","That was a dep.","",""
"","image-keyboard-response","440","588191","0.0-8.0-0.64","FL","2z8ekchs9g","1920","1080","en","rt08ed02","null","","","","","","","","learning/Slide145.JPG","null","","","","",""
"","html-keyboard-response","441","589345","0.0-8.0-1.64","FL","2z8ekchs9g","1920","1080","en","rt08ed02","null","","","","learningBlock2","","","","That was a bim.","null","","","","",""
"","html-keyboard-response","442","590348","0.0-8.0-2.64","FL","2z8ekchs9g","1920","1080","en","rt08ed02","null","","","","learningBlock2","","","","<div style=""font-size:60px;""> </div>","null","FL","learning/Slide145.JPG","That was a bim.","",""
"","image-keyboard-response","443","590533","0.0-8.0-0.65","FL","2z8ekchs9g","1920","1080","en","rt08ed02","null","","","","","","","","learning/Slide146.JPG","null","","","","",""
"","html-keyboard-response","444","591689","0.0-8.0-1.65","FL","2z8ekchs9g","1920","1080","en","rt08ed02","null","","","","learningBlock2","","","","That was a tob.","null","","","","",""
"","html-keyboard-response","445","592693","0.0-8.0-2.65","FL","2z8ekchs9g","1920","1080","en","rt08ed02","null","","","","learningBlock2","","","","<div style=""font-size:60px;""> </div>","null","FL","learning/Slide146.JPG","That was a tob.","",""
"","image-keyboard-response","446","592877","0.0-8.0-0.66","FL","2z8ekchs9g","1920","1080","en","rt08ed02","null","","","","","","","","learning/Slide147.JPG","null","","","","",""
"","html-keyboard-response","447","594034","0.0-8.0-1.66","FL","2z8ekchs9g","1920","1080","en","rt08ed02","null","","","","learningBlock2","","","","That was a wug.","null","","","","",""
"","html-keyboard-response","448","595037","0.0-8.0-2.66","FL","2z8ekchs9g","1920","1080","en","rt08ed02","null","","","","learningBlock2","","","","<div style=""font-size:60px;""> </div>","null","FL","learning/Slide147.JPG","That was a wug.","",""
"","image-keyboard-response","449","595222","0.0-8.0-0.67","FL","2z8ekchs9g","1920","1080","en","rt08ed02","null","","","","","","","","learning/Slide148.JPG","null","","","","",""
"","html-keyboard-response","450","596382","0.0-8.0-1.67","FL","2z8ekchs9g","1920","1080","en","rt08ed02","null","","","","learningBlock2","","","","That was a bim.","null","","","","",""
"","html-keyboard-response","451","597384","0.0-8.0-2.67","FL","2z8ekchs9g","1920","1080","en","rt08ed02","null","","","","learningBlock2","","","","<div style=""font-size:60px;""> </div>","null","FL","learning/Slide148.JPG","That was a bim.","",""
"","image-keyboard-response","452","597561","0.0-8.0-0.68","FL","2z8ekchs9g","1920","1080","en","rt08ed02","null","","","","","","","","learning/Slide149.JPG","null","","","","",""
"","html-keyboard-response","453","598715","0.0-8.0-1.68","FL","2z8ekchs9g","1920","1080","en","rt08ed02","null","","","","learningBlock2","","","","That was a dep.","null","","","","",""
"","html-keyboard-response","454","599731","0.0-8.0-2.68","FL","2z8ekchs9g","1920","1080","en","rt08ed02","null","","","","learningBlock2","","","","<div style=""font-size:60px;""> </div>","null","FL","learning/Slide149.JPG","That was a dep.","",""
"","image-keyboard-response","455","599915","0.0-8.0-0.69","FL","2z8ekchs9g","1920","1080","en","rt08ed02","null","","","","","","","","learning/Slide150.JPG","null","","","","",""
"","html-keyboard-response","456","601071","0.0-8.0-1.69","FL","2z8ekchs9g","1920","1080","en","rt08ed02","null","","","","learningBlock2","","","","That was a wug.","null","","","","",""
"","html-keyboard-response","457","602074","0.0-8.0-2.69","FL","2z8ekchs9g","1920","1080","en","rt08ed02","null","","","","learningBlock2","","","","<div style=""font-size:60px;""> </div>","null","FL","learning/Slide150.JPG","That was a wug.","",""
"","image-keyboard-response","458","602259","0.0-8.0-0.70","FL","2z8ekchs9g","1920","1080","en","rt08ed02","null","","","","","","","","learning/Slide151.JPG","null","","","","",""
"","html-keyboard-response","459","603416","0.0-8.0-1.70","FL","2z8ekchs9g","1920","1080","en","rt08ed02","null","","","","learningBlock2","","","","That was a dep.","null","","","","",""
"","html-keyboard-response","460","604419","0.0-8.0-2.70","FL","2z8ekchs9g","1920","1080","en","rt08ed02","null","","","","learningBlock2","","","","<div style=""font-size:60px;""> </div>","null","FL","learning/Slide151.JPG","That was a dep.","",""
"","image-keyboard-response","461","604604","0.0-8.0-0.71","FL","2z8ekchs9g","1920","1080","en","rt08ed02","null","","","","","","","","learning/Slide152.JPG","null","","","","",""
"","html-keyboard-response","462","605761","0.0-8.0-1.71","FL","2z8ekchs9g","1920","1080","en","rt08ed02","null","","","","learningBlock2","","","","That was a wug.","null","","","","",""
"","html-keyboard-response","463","606762","0.0-8.0-2.71","FL","2z8ekchs9g","1920","1080","en","rt08ed02","null","","","","learningBlock2","","","","<div style=""font-size:60px;""> </div>","null","FL","learning/Slide152.JPG","That was a wug.","",""
"","image-keyboard-response","464","606940","0.0-8.0-0.72","FL","2z8ekchs9g","1920","1080","en","rt08ed02","null","","","","","","","","learning/Slide153.JPG","null","","","","",""
"","html-keyboard-response","465","608104","0.0-8.0-1.72","FL","2z8ekchs9g","1920","1080","en","rt08ed02","null","","","","learningBlock2","","","","That was a bim.","null","","","","",""
"","html-keyboard-response","466","609106","0.0-8.0-2.72","FL","2z8ekchs9g","1920","1080","en","rt08ed02","null","","","","learningBlock2","","","","<div style=""font-size:60px;""> </div>","null","FL","learning/Slide153.JPG","That was a bim.","",""
"","image-keyboard-response","467","609291","0.0-8.0-0.73","FL","2z8ekchs9g","1920","1080","en","rt08ed02","null","","","","","","","","learning/Slide154.JPG","null","","","","",""
"","html-keyboard-response","468","610447","0.0-8.0-1.73","FL","2z8ekchs9g","1920","1080","en","rt08ed02","null","","","","learningBlock2","","","","That was a tob.","null","","","","",""
"","html-keyboard-response","469","611464","0.0-8.0-2.73","FL","2z8ekchs9g","1920","1080","en","rt08ed02","null","","","","learningBlock2","","","","<div style=""font-size:60px;""> </div>","null","FL","learning/Slide154.JPG","That was a tob.","",""
"","image-keyboard-response","470","611650","0.0-8.0-0.74","FL","2z8ekchs9g","1920","1080","en","rt08ed02","null","","","","","","","","learning/Slide155.JPG","null","","","","",""
"","html-keyboard-response","471","612805","0.0-8.0-1.74","FL","2z8ekchs9g","1920","1080","en","rt08ed02","null","","","","learningBlock2","","","","That was a dep.","null","","","","",""
"","html-keyboard-response","472","613821","0.0-8.0-2.74","FL","2z8ekchs9g","1920","1080","en","rt08ed02","null","","","","learningBlock2","","","","<div style=""font-size:60px;""> </div>","null","FL","learning/Slide155.JPG","That was a dep.","",""
"","image-keyboard-response","473","614007","0.0-8.0-0.75","FL","2z8ekchs9g","1920","1080","en","rt08ed02","null","","","","","","","","learning/Slide156.JPG","null","","","","",""
"","html-keyboard-response","474","615162","0.0-8.0-1.75","FL","2z8ekchs9g","1920","1080","en","rt08ed02","null","","","","learningBlock2","","","","That was a bim.","null","","","","",""
"","html-keyboard-response","475","616166","0.0-8.0-2.75","FL","2z8ekchs9g","1920","1080","en","rt08ed02","null","","","","learningBlock2","","","","<div style=""font-size:60px;""> </div>","null","FL","learning/Slide156.JPG","That was a bim.","",""
"","image-keyboard-response","476","616352","0.0-8.0-0.76","FL","2z8ekchs9g","1920","1080","en","rt08ed02","null","","","","","","","","learning/Slide157.JPG","null","","","","",""
"","html-keyboard-response","477","617508","0.0-8.0-1.76","FL","2z8ekchs9g","1920","1080","en","rt08ed02","null","","","","learningBlock2","","","","That was a dep.","null","","","","",""
"","html-keyboard-response","478","618511","0.0-8.0-2.76","FL","2z8ekchs9g","1920","1080","en","rt08ed02","null","","","","learningBlock2","","","","<div style=""font-size:60px;""> </div>","null","FL","learning/Slide157.JPG","That was a dep.","",""
"","image-keyboard-response","479","618696","0.0-8.0-0.77","FL","2z8ekchs9g","1920","1080","en","rt08ed02","null","","","","","","","","learning/Slide158.JPG","null","","","","",""
"","html-keyboard-response","480","619854","0.0-8.0-1.77","FL","2z8ekchs9g","1920","1080","en","rt08ed02","null","","","","learningBlock2","","","","That was a tob.","null","","","","",""
"","html-keyboard-response","481","620871","0.0-8.0-2.77","FL","2z8ekchs9g","1920","1080","en","rt08ed02","null","","","","learningBlock2","","","","<div style=""font-size:60px;""> </div>","null","FL","learning/Slide158.JPG","That was a tob.","",""
"","image-keyboard-response","482","621056","0.0-8.0-0.78","FL","2z8ekchs9g","1920","1080","en","rt08ed02","null","","","","","","","","learning/Slide159.JPG","null","","","","",""
"","html-keyboard-response","483","622212","0.0-8.0-1.78","FL","2z8ekchs9g","1920","1080","en","rt08ed02","null","","","","learningBlock2","","","","That was a dep.","null","","","","",""
"","html-keyboard-response","484","623214","0.0-8.0-2.78","FL","2z8ekchs9g","1920","1080","en","rt08ed02","null","","","","learningBlock2","","","","<div style=""font-size:60px;""> </div>","null","FL","learning/Slide159.JPG","That was a dep.","",""
"","image-keyboard-response","485","623400","0.0-8.0-0.79","FL","2z8ekchs9g","1920","1080","en","rt08ed02","null","","","","","","","","learning/Slide160.JPG","null","","","","",""
