"success","trial_type","trial_index","time_elapsed","internal_node_id","condition","subject","screen_width","screen_height","language","codeword","rt","responses","url","view_history","test_part","final_height_px","final_width_px","scale_factor","stimulus","key_press","learningType","presentedImage","presentedLabel","button_pressed","response"
"true","fullscreen","0","6027","0.0-0.0","FL","9zuef86ced","1280","720","de","rz06as26","","","","","","","","","","","","","","",""
"","survey-html-form","1","18567","0.0-1.0","FL","9zuef86ced","1280","720","de","rz06as26","12532.160000002477","{""language"":""de""}","","","","","","","","","","","","",""
"","external-html","2","83500","0.0-2.0-0.0","FL","9zuef86ced","1280","720","de","rz06as26","64520.85499999521","","text/information.html","","","","","","","","","","","",""
"","external-html","3","111558","0.0-2.0-1.0","FL","9zuef86ced","1280","720","de","rz06as26","27374.23499999568","","text/consent.html","","","","","","","","","","","",""
"","survey-html-form","4","198984","0.0-2.0-2.0","FL","9zuef86ced","1280","720","de","rz06as26","87419.53499999363","{""codeword_enter"":""rz06as26""}","","","","","","","","","","","","",""
"","instructions","5","221994","0.0-4.0","FL","9zuef86ced","1280","720","de","rz06as26","NA","","","[{""page_index"":0,""viewing_time"":4095.274999999674},{""page_index"":1,""viewing_time"":17407.935000010184}]","instructions","","","","","","","","","",""
"","resize","6","280274","0.0-5.0","FL","9zuef86ced","1280","720","de","rz06as26","","","","","","","352","2.234920634920635","","","","","","",""
"","image-keyboard-response","7","280459","0.0-6.0-0.0","FL","9zuef86ced","1280","720","de","rz06as26","null","","","","","","","","learning/Slide1.JPG","null","","","","",""
"","html-keyboard-response","8","281615","0.0-6.0-1.0","FL","9zuef86ced","1280","720","de","rz06as26","null","","","","learningBlock1","","","","That was a tob.","null","","","","",""
"","html-keyboard-response","9","282620","0.0-6.0-2.0","FL","9zuef86ced","1280","720","de","rz06as26","null","","","","learningBlock1","","","","<div style=""font-size:60px;""> </div>","null","FL","learning/Slide1.JPG","That was a tob.","",""
"","image-keyboard-response","10","282798","0.0-6.0-0.1","FL","9zuef86ced","1280","720","de","rz06as26","null","","","","","","","","learning/Slide2.JPG","null","","","","",""
"","html-keyboard-response","11","283966","0.0-6.0-1.1","FL","9zuef86ced","1280","720","de","rz06as26","null","","","","learningBlock1","","","","That was a wug.","null","","","","",""
"","html-keyboard-response","12","284969","0.0-6.0-2.1","FL","9zuef86ced","1280","720","de","rz06as26","null","","","","learningBlock1","","","","<div style=""font-size:60px;""> </div>","null","FL","learning/Slide2.JPG","That was a wug.","",""
"","image-keyboard-response","13","285152","0.0-6.0-0.2","FL","9zuef86ced","1280","720","de","rz06as26","null","","","","","","","","learning/Slide3.JPG","null","","","","",""
"","html-keyboard-response","14","286306","0.0-6.0-1.2","FL","9zuef86ced","1280","720","de","rz06as26","null","","","","learningBlock1","","","","That was a bim.","null","","","","",""
"","html-keyboard-response","15","287311","0.0-6.0-2.2","FL","9zuef86ced","1280","720","de","rz06as26","null","","","","learningBlock1","","","","<div style=""font-size:60px;""> </div>","null","FL","learning/Slide3.JPG","That was a bim.","",""
"","image-keyboard-response","16","287494","0.0-6.0-0.3","FL","9zuef86ced","1280","720","de","rz06as26","null","","","","","","","","learning/Slide4.JPG","null","","","","",""
"","html-keyboard-response","17","288656","0.0-6.0-1.3","FL","9zuef86ced","1280","720","de","rz06as26","null","","","","learningBlock1","","","","That was a dep.","null","","","","",""
"","html-keyboard-response","18","289658","0.0-6.0-2.3","FL","9zuef86ced","1280","720","de","rz06as26","null","","","","learningBlock1","","","","<div style=""font-size:60px;""> </div>","null","FL","learning/Slide4.JPG","That was a dep.","",""
"","image-keyboard-response","19","289839","0.0-6.0-0.4","FL","9zuef86ced","1280","720","de","rz06as26","null","","","","","","","","learning/Slide5.JPG","null","","","","",""
"","html-keyboard-response","20","290995","0.0-6.0-1.4","FL","9zuef86ced","1280","720","de","rz06as26","null","","","","learningBlock1","","","","That was a wug.","null","","","","",""
"","html-keyboard-response","21","291999","0.0-6.0-2.4","FL","9zuef86ced","1280","720","de","rz06as26","null","","","","learningBlock1","","","","<div style=""font-size:60px;""> </div>","null","FL","learning/Slide5.JPG","That was a wug.","",""
"","image-keyboard-response","22","292178","0.0-6.0-0.5","FL","9zuef86ced","1280","720","de","rz06as26","null","","","","","","","","learning/Slide6.JPG","null","","","","",""
"","html-keyboard-response","23","293344","0.0-6.0-1.5","FL","9zuef86ced","1280","720","de","rz06as26","null","","","","learningBlock1","","","","That was a dep.","null","","","","",""
"","html-keyboard-response","24","294350","0.0-6.0-2.5","FL","9zuef86ced","1280","720","de","rz06as26","null","","","","learningBlock1","","","","<div style=""font-size:60px;""> </div>","null","FL","learning/Slide6.JPG","That was a dep.","",""
"","image-keyboard-response","25","294532","0.0-6.0-0.6","FL","9zuef86ced","1280","720","de","rz06as26","null","","","","","","","","learning/Slide7.JPG","null","","","","",""
"","html-keyboard-response","26","295687","0.0-6.0-1.6","FL","9zuef86ced","1280","720","de","rz06as26","null","","","","learningBlock1","","","","That was a wug.","null","","","","",""
"","html-keyboard-response","27","296691","0.0-6.0-2.6","FL","9zuef86ced","1280","720","de","rz06as26","null","","","","learningBlock1","","","","<div style=""font-size:60px;""> </div>","null","FL","learning/Slide7.JPG","That was a wug.","",""
"","image-keyboard-response","28","296871","0.0-6.0-0.7","FL","9zuef86ced","1280","720","de","rz06as26","null","","","","","","","","learning/Slide8.JPG","null","","","","",""
"","html-keyboard-response","29","298030","0.0-6.0-1.7","FL","9zuef86ced","1280","720","de","rz06as26","null","","","","learningBlock1","","","","That was a bim.","null","","","","",""
"","html-keyboard-response","30","299035","0.0-6.0-2.7","FL","9zuef86ced","1280","720","de","rz06as26","null","","","","learningBlock1","","","","<div style=""font-size:60px;""> </div>","null","FL","learning/Slide8.JPG","That was a bim.","",""
"","image-keyboard-response","31","299214","0.0-6.0-0.8","FL","9zuef86ced","1280","720","de","rz06as26","null","","","","","","","","learning/Slide9.JPG","null","","","","",""
"","html-keyboard-response","32","300374","0.0-6.0-1.8","FL","9zuef86ced","1280","720","de","rz06as26","null","","","","learningBlock1","","","","That was a wug.","null","","","","",""
"","html-keyboard-response","33","301380","0.0-6.0-2.8","FL","9zuef86ced","1280","720","de","rz06as26","null","","","","learningBlock1","","","","<div style=""font-size:60px;""> </div>","null","FL","learning/Slide9.JPG","That was a wug.","",""
"","image-keyboard-response","34","301563","0.0-6.0-0.9","FL","9zuef86ced","1280","720","de","rz06as26","null","","","","","","","","learning/Slide10.JPG","null","","","","",""
"","html-keyboard-response","35","302723","0.0-6.0-1.9","FL","9zuef86ced","1280","720","de","rz06as26","null","","","","learningBlock1","","","","That was a dep.","null","","","","",""
"","html-keyboard-response","36","303729","0.0-6.0-2.9","FL","9zuef86ced","1280","720","de","rz06as26","null","","","","learningBlock1","","","","<div style=""font-size:60px;""> </div>","null","FL","learning/Slide10.JPG","That was a dep.","",""
"","image-keyboard-response","37","303907","0.0-6.0-0.10","FL","9zuef86ced","1280","720","de","rz06as26","null","","","","","","","","learning/Slide11.JPG","null","","","","",""
"","html-keyboard-response","38","305073","0.0-6.0-1.10","FL","9zuef86ced","1280","720","de","rz06as26","null","","","","learningBlock1","","","","That was a tob.","null","","","","",""
"","html-keyboard-response","39","306078","0.0-6.0-2.10","FL","9zuef86ced","1280","720","de","rz06as26","null","","","","learningBlock1","","","","<div style=""font-size:60px;""> </div>","null","FL","learning/Slide11.JPG","That was a tob.","",""
"","image-keyboard-response","40","306258","0.0-6.0-0.11","FL","9zuef86ced","1280","720","de","rz06as26","null","","","","","","","","learning/Slide12.JPG","null","","","","",""
"","html-keyboard-response","41","307417","0.0-6.0-1.11","FL","9zuef86ced","1280","720","de","rz06as26","null","","","","learningBlock1","","","","That was a dep.","null","","","","",""
"","html-keyboard-response","42","308424","0.0-6.0-2.11","FL","9zuef86ced","1280","720","de","rz06as26","null","","","","learningBlock1","","","","<div style=""font-size:60px;""> </div>","null","FL","learning/Slide12.JPG","That was a dep.","",""
"","image-keyboard-response","43","308606","0.0-6.0-0.12","FL","9zuef86ced","1280","720","de","rz06as26","null","","","","","","","","learning/Slide13.JPG","null","","","","",""
"","html-keyboard-response","44","309766","0.0-6.0-1.12","FL","9zuef86ced","1280","720","de","rz06as26","null","","","","learningBlock1","","","","That was a bim.","null","","","","",""
"","html-keyboard-response","45","310771","0.0-6.0-2.12","FL","9zuef86ced","1280","720","de","rz06as26","null","","","","learningBlock1","","","","<div style=""font-size:60px;""> </div>","null","FL","learning/Slide13.JPG","That was a bim.","",""
"","image-keyboard-response","46","310949","0.0-6.0-0.13","FL","9zuef86ced","1280","720","de","rz06as26","null","","","","","","","","learning/Slide14.JPG","null","","","","",""
"","html-keyboard-response","47","312120","0.0-6.0-1.13","FL","9zuef86ced","1280","720","de","rz06as26","null","","","","learningBlock1","","","","That was a wug.","null","","","","",""
"","html-keyboard-response","48","313126","0.0-6.0-2.13","FL","9zuef86ced","1280","720","de","rz06as26","null","","","","learningBlock1","","","","<div style=""font-size:60px;""> </div>","null","FL","learning/Slide14.JPG","That was a wug.","",""
"","image-keyboard-response","49","313304","0.0-6.0-0.14","FL","9zuef86ced","1280","720","de","rz06as26","null","","","","","","","","learning/Slide15.JPG","null","","","","",""
"","html-keyboard-response","50","314458","0.0-6.0-1.14","FL","9zuef86ced","1280","720","de","rz06as26","null","","","","learningBlock1","","","","That was a tob.","null","","","","",""
"","html-keyboard-response","51","315464","0.0-6.0-2.14","FL","9zuef86ced","1280","720","de","rz06as26","null","","","","learningBlock1","","","","<div style=""font-size:60px;""> </div>","null","FL","learning/Slide15.JPG","That was a tob.","",""
"","image-keyboard-response","52","315647","0.0-6.0-0.15","FL","9zuef86ced","1280","720","de","rz06as26","null","","","","","","","","learning/Slide16.JPG","null","","","","",""
"","html-keyboard-response","53","316808","0.0-6.0-1.15","FL","9zuef86ced","1280","720","de","rz06as26","null","","","","learningBlock1","","","","That was a dep.","null","","","","",""
"","html-keyboard-response","54","317812","0.0-6.0-2.15","FL","9zuef86ced","1280","720","de","rz06as26","null","","","","learningBlock1","","","","<div style=""font-size:60px;""> </div>","null","FL","learning/Slide16.JPG","That was a dep.","",""
"","image-keyboard-response","55","317995","0.0-6.0-0.16","FL","9zuef86ced","1280","720","de","rz06as26","null","","","","","","","","learning/Slide17.JPG","null","","","","",""
"","html-keyboard-response","56","319148","0.0-6.0-1.16","FL","9zuef86ced","1280","720","de","rz06as26","null","","","","learningBlock1","","","","That was a bim.","null","","","","",""
"","html-keyboard-response","57","320151","0.0-6.0-2.16","FL","9zuef86ced","1280","720","de","rz06as26","null","","","","learningBlock1","","","","<div style=""font-size:60px;""> </div>","null","FL","learning/Slide17.JPG","That was a bim.","",""
"","image-keyboard-response","58","320331","0.0-6.0-0.17","FL","9zuef86ced","1280","720","de","rz06as26","null","","","","","","","","learning/Slide18.JPG","null","","","","",""
"","html-keyboard-response","59","321498","0.0-6.0-1.17","FL","9zuef86ced","1280","720","de","rz06as26","null","","","","learningBlock1","","","","That was a tob.","null","","","","",""
"","html-keyboard-response","60","322503","0.0-6.0-2.17","FL","9zuef86ced","1280","720","de","rz06as26","null","","","","learningBlock1","","","","<div style=""font-size:60px;""> </div>","null","FL","learning/Slide18.JPG","That was a tob.","",""
"","image-keyboard-response","61","322689","0.0-6.0-0.18","FL","9zuef86ced","1280","720","de","rz06as26","null","","","","","","","","learning/Slide19.JPG","null","","","","",""
"","html-keyboard-response","62","323846","0.0-6.0-1.18","FL","9zuef86ced","1280","720","de","rz06as26","null","","","","learningBlock1","","","","That was a wug.","null","","","","",""
"","html-keyboard-response","63","324851","0.0-6.0-2.18","FL","9zuef86ced","1280","720","de","rz06as26","null","","","","learningBlock1","","","","<div style=""font-size:60px;""> </div>","null","FL","learning/Slide19.JPG","That was a wug.","",""
"","image-keyboard-response","64","325029","0.0-6.0-0.19","FL","9zuef86ced","1280","720","de","rz06as26","null","","","","","","","","learning/Slide20.JPG","null","","","","",""
"","html-keyboard-response","65","326194","0.0-6.0-1.19","FL","9zuef86ced","1280","720","de","rz06as26","null","","","","learningBlock1","","","","That was a bim.","null","","","","",""
"","html-keyboard-response","66","327200","0.0-6.0-2.19","FL","9zuef86ced","1280","720","de","rz06as26","null","","","","learningBlock1","","","","<div style=""font-size:60px;""> </div>","null","FL","learning/Slide20.JPG","That was a bim.","",""
"","image-keyboard-response","67","327378","0.0-6.0-0.20","FL","9zuef86ced","1280","720","de","rz06as26","null","","","","","","","","learning/Slide21.JPG","null","","","","",""
"","html-keyboard-response","68","328545","0.0-6.0-1.20","FL","9zuef86ced","1280","720","de","rz06as26","null","","","","learningBlock1","","","","That was a dep.","null","","","","",""
"","html-keyboard-response","69","329553","0.0-6.0-2.20","FL","9zuef86ced","1280","720","de","rz06as26","null","","","","learningBlock1","","","","<div style=""font-size:60px;""> </div>","null","FL","learning/Slide21.JPG","That was a dep.","",""
"","image-keyboard-response","70","329734","0.0-6.0-0.21","FL","9zuef86ced","1280","720","de","rz06as26","null","","","","","","","","learning/Slide22.JPG","null","","","","",""
"","html-keyboard-response","71","330894","0.0-6.0-1.21","FL","9zuef86ced","1280","720","de","rz06as26","null","","","","learningBlock1","","","","That was a bim.","null","","","","",""
"","html-keyboard-response","72","331898","0.0-6.0-2.21","FL","9zuef86ced","1280","720","de","rz06as26","null","","","","learningBlock1","","","","<div style=""font-size:60px;""> </div>","null","FL","learning/Slide22.JPG","That was a bim.","",""
"","image-keyboard-response","73","332075","0.0-6.0-0.22","FL","9zuef86ced","1280","720","de","rz06as26","null","","","","","","","","learning/Slide23.JPG","null","","","","",""
"","html-keyboard-response","74","333238","0.0-6.0-1.22","FL","9zuef86ced","1280","720","de","rz06as26","null","","","","learningBlock1","","","","That was a tob.","null","","","","",""
"","html-keyboard-response","75","334244","0.0-6.0-2.22","FL","9zuef86ced","1280","720","de","rz06as26","null","","","","learningBlock1","","","","<div style=""font-size:60px;""> </div>","null","FL","learning/Slide23.JPG","That was a tob.","",""
"","image-keyboard-response","76","334428","0.0-6.0-0.23","FL","9zuef86ced","1280","720","de","rz06as26","null","","","","","","","","learning/Slide24.JPG","null","","","","",""
"","html-keyboard-response","77","335585","0.0-6.0-1.23","FL","9zuef86ced","1280","720","de","rz06as26","null","","","","learningBlock1","","","","That was a wug.","null","","","","",""
"","html-keyboard-response","78","336590","0.0-6.0-2.23","FL","9zuef86ced","1280","720","de","rz06as26","null","","","","learningBlock1","","","","<div style=""font-size:60px;""> </div>","null","FL","learning/Slide24.JPG","That was a wug.","",""
"","image-keyboard-response","79","336774","0.0-6.0-0.24","FL","9zuef86ced","1280","720","de","rz06as26","null","","","","","","","","learning/Slide25.JPG","null","","","","",""
"","html-keyboard-response","80","337928","0.0-6.0-1.24","FL","9zuef86ced","1280","720","de","rz06as26","null","","","","learningBlock1","","","","That was a dep.","null","","","","",""
"","html-keyboard-response","81","338934","0.0-6.0-2.24","FL","9zuef86ced","1280","720","de","rz06as26","null","","","","learningBlock1","","","","<div style=""font-size:60px;""> </div>","null","FL","learning/Slide25.JPG","That was a dep.","",""
"","image-keyboard-response","82","339114","0.0-6.0-0.25","FL","9zuef86ced","1280","720","de","rz06as26","null","","","","","","","","learning/Slide26.JPG","null","","","","",""
"","html-keyboard-response","83","340271","0.0-6.0-1.25","FL","9zuef86ced","1280","720","de","rz06as26","null","","","","learningBlock1","","","","That was a wug.","null","","","","",""
"","html-keyboard-response","84","341274","0.0-6.0-2.25","FL","9zuef86ced","1280","720","de","rz06as26","null","","","","learningBlock1","","","","<div style=""font-size:60px;""> </div>","null","FL","learning/Slide26.JPG","That was a wug.","",""
"","image-keyboard-response","85","341455","0.0-6.0-0.26","FL","9zuef86ced","1280","720","de","rz06as26","null","","","","","","","","learning/Slide27.JPG","null","","","","",""
"","html-keyboard-response","86","342616","0.0-6.0-1.26","FL","9zuef86ced","1280","720","de","rz06as26","null","","","","learningBlock1","","","","That was a bim.","null","","","","",""
"","html-keyboard-response","87","343624","0.0-6.0-2.26","FL","9zuef86ced","1280","720","de","rz06as26","null","","","","learningBlock1","","","","<div style=""font-size:60px;""> </div>","null","FL","learning/Slide27.JPG","That was a bim.","",""
"","image-keyboard-response","88","343805","0.0-6.0-0.27","FL","9zuef86ced","1280","720","de","rz06as26","null","","","","","","","","learning/Slide28.JPG","null","","","","",""
"","html-keyboard-response","89","344966","0.0-6.0-1.27","FL","9zuef86ced","1280","720","de","rz06as26","null","","","","learningBlock1","","","","That was a dep.","null","","","","",""
"","html-keyboard-response","90","345970","0.0-6.0-2.27","FL","9zuef86ced","1280","720","de","rz06as26","null","","","","learningBlock1","","","","<div style=""font-size:60px;""> </div>","null","FL","learning/Slide28.JPG","That was a dep.","",""
"","image-keyboard-response","91","346150","0.0-6.0-0.28","FL","9zuef86ced","1280","720","de","rz06as26","null","","","","","","","","learning/Slide29.JPG","null","","","","",""
"","html-keyboard-response","92","347306","0.0-6.0-1.28","FL","9zuef86ced","1280","720","de","rz06as26","null","","","","learningBlock1","","","","That was a tob.","null","","","","",""
"","html-keyboard-response","93","348314","0.0-6.0-2.28","FL","9zuef86ced","1280","720","de","rz06as26","null","","","","learningBlock1","","","","<div style=""font-size:60px;""> </div>","null","FL","learning/Slide29.JPG","That was a tob.","",""
"","image-keyboard-response","94","348496","0.0-6.0-0.29","FL","9zuef86ced","1280","720","de","rz06as26","null","","","","","","","","learning/Slide30.JPG","null","","","","",""
"","html-keyboard-response","95","349654","0.0-6.0-1.29","FL","9zuef86ced","1280","720","de","rz06as26","null","","","","learningBlock1","","","","That was a dep.","null","","","","",""
"","html-keyboard-response","96","350658","0.0-6.0-2.29","FL","9zuef86ced","1280","720","de","rz06as26","null","","","","learningBlock1","","","","<div style=""font-size:60px;""> </div>","null","FL","learning/Slide30.JPG","That was a dep.","",""
"","image-keyboard-response","97","350835","0.0-6.0-0.30","FL","9zuef86ced","1280","720","de","rz06as26","null","","","","","","","","learning/Slide31.JPG","null","","","","",""
"","html-keyboard-response","98","351994","0.0-6.0-1.30","FL","9zuef86ced","1280","720","de","rz06as26","null","","","","learningBlock1","","","","That was a wug.","null","","","","",""
"","html-keyboard-response","99","353004","0.0-6.0-2.30","FL","9zuef86ced","1280","720","de","rz06as26","null","","","","learningBlock1","","","","<div style=""font-size:60px;""> </div>","null","FL","learning/Slide31.JPG","That was a wug.","",""
"","image-keyboard-response","100","353184","0.0-6.0-0.31","FL","9zuef86ced","1280","720","de","rz06as26","null","","","","","","","","learning/Slide32.JPG","null","","","","",""
"","html-keyboard-response","101","354339","0.0-6.0-1.31","FL","9zuef86ced","1280","720","de","rz06as26","null","","","","learningBlock1","","","","That was a tob.","null","","","","",""
"","html-keyboard-response","102","355341","0.0-6.0-2.31","FL","9zuef86ced","1280","720","de","rz06as26","null","","","","learningBlock1","","","","<div style=""font-size:60px;""> </div>","null","FL","learning/Slide32.JPG","That was a tob.","",""
"","image-keyboard-response","103","355524","0.0-6.0-0.32","FL","9zuef86ced","1280","720","de","rz06as26","null","","","","","","","","learning/Slide33.JPG","null","","","","",""
"","html-keyboard-response","104","356684","0.0-6.0-1.32","FL","9zuef86ced","1280","720","de","rz06as26","null","","","","learningBlock1","","","","That was a bim.","null","","","","",""
"","html-keyboard-response","105","357692","0.0-6.0-2.32","FL","9zuef86ced","1280","720","de","rz06as26","null","","","","learningBlock1","","","","<div style=""font-size:60px;""> </div>","null","FL","learning/Slide33.JPG","That was a bim.","",""
"","image-keyboard-response","106","357870","0.0-6.0-0.33","FL","9zuef86ced","1280","720","de","rz06as26","null","","","","","","","","learning/Slide34.JPG","null","","","","",""
"","html-keyboard-response","107","359026","0.0-6.0-1.33","FL","9zuef86ced","1280","720","de","rz06as26","null","","","","learningBlock1","","","","That was a tob.","null","","","","",""
"","html-keyboard-response","108","360029","0.0-6.0-2.33","FL","9zuef86ced","1280","720","de","rz06as26","null","","","","learningBlock1","","","","<div style=""font-size:60px;""> </div>","null","FL","learning/Slide34.JPG","That was a tob.","",""
"","image-keyboard-response","109","360210","0.0-6.0-0.34","FL","9zuef86ced","1280","720","de","rz06as26","null","","","","","","","","learning/Slide35.JPG","null","","","","",""
"","html-keyboard-response","110","361368","0.0-6.0-1.34","FL","9zuef86ced","1280","720","de","rz06as26","null","","","","learningBlock1","","","","That was a bim.","null","","","","",""
"","html-keyboard-response","111","362374","0.0-6.0-2.34","FL","9zuef86ced","1280","720","de","rz06as26","null","","","","learningBlock1","","","","<div style=""font-size:60px;""> </div>","null","FL","learning/Slide35.JPG","That was a bim.","",""
"","image-keyboard-response","112","362554","0.0-6.0-0.35","FL","9zuef86ced","1280","720","de","rz06as26","null","","","","","","","","learning/Slide36.JPG","null","","","","",""
"","html-keyboard-response","113","363711","0.0-6.0-1.35","FL","9zuef86ced","1280","720","de","rz06as26","null","","","","learningBlock1","","","","That was a dep.","null","","","","",""
"","html-keyboard-response","114","364716","0.0-6.0-2.35","FL","9zuef86ced","1280","720","de","rz06as26","null","","","","learningBlock1","","","","<div style=""font-size:60px;""> </div>","null","FL","learning/Slide36.JPG","That was a dep.","",""
"","image-keyboard-response","115","364898","0.0-6.0-0.36","FL","9zuef86ced","1280","720","de","rz06as26","null","","","","","","","","learning/Slide37.JPG","null","","","","",""
"","html-keyboard-response","116","366069","0.0-6.0-1.36","FL","9zuef86ced","1280","720","de","rz06as26","null","","","","learningBlock1","","","","That was a tob.","null","","","","",""
"","html-keyboard-response","117","367076","0.0-6.0-2.36","FL","9zuef86ced","1280","720","de","rz06as26","null","","","","learningBlock1","","","","<div style=""font-size:60px;""> </div>","null","FL","learning/Slide37.JPG","That was a tob.","",""
"","image-keyboard-response","118","367257","0.0-6.0-0.37","FL","9zuef86ced","1280","720","de","rz06as26","null","","","","","","","","learning/Slide38.JPG","null","","","","",""
"","html-keyboard-response","119","368414","0.0-6.0-1.37","FL","9zuef86ced","1280","720","de","rz06as26","null","","","","learningBlock1","","","","That was a wug.","null","","","","",""
"","html-keyboard-response","120","369419","0.0-6.0-2.37","FL","9zuef86ced","1280","720","de","rz06as26","null","","","","learningBlock1","","","","<div style=""font-size:60px;""> </div>","null","FL","learning/Slide38.JPG","That was a wug.","",""
"","image-keyboard-response","121","369596","0.0-6.0-0.38","FL","9zuef86ced","1280","720","de","rz06as26","null","","","","","","","","learning/Slide39.JPG","null","","","","",""
"","html-keyboard-response","122","370754","0.0-6.0-1.38","FL","9zuef86ced","1280","720","de","rz06as26","null","","","","learningBlock1","","","","That was a bim.","null","","","","",""
"","html-keyboard-response","123","371758","0.0-6.0-2.38","FL","9zuef86ced","1280","720","de","rz06as26","null","","","","learningBlock1","","","","<div style=""font-size:60px;""> </div>","null","FL","learning/Slide39.JPG","That was a bim.","",""
"","image-keyboard-response","124","371939","0.0-6.0-0.39","FL","9zuef86ced","1280","720","de","rz06as26","null","","","","","","","","learning/Slide40.JPG","null","","","","",""
"","html-keyboard-response","125","373104","0.0-6.0-1.39","FL","9zuef86ced","1280","720","de","rz06as26","null","","","","learningBlock1","","","","That was a tob.","null","","","","",""
"","html-keyboard-response","126","374108","0.0-6.0-2.39","FL","9zuef86ced","1280","720","de","rz06as26","null","","","","learningBlock1","","","","<div style=""font-size:60px;""> </div>","null","FL","learning/Slide40.JPG","That was a tob.","",""
"","image-keyboard-response","127","374289","0.0-6.0-0.40","FL","9zuef86ced","1280","720","de","rz06as26","null","","","","","","","","learning/Slide41.JPG","null","","","","",""
"","html-keyboard-response","128","375454","0.0-6.0-1.40","FL","9zuef86ced","1280","720","de","rz06as26","null","","","","learningBlock1","","","","That was a bim.","null","","","","",""
"","html-keyboard-response","129","376471","0.0-6.0-2.40","FL","9zuef86ced","1280","720","de","rz06as26","null","","","","learningBlock1","","","","<div style=""font-size:60px;""> </div>","null","FL","learning/Slide41.JPG","That was a bim.","",""
"","image-keyboard-response","130","376650","0.0-6.0-0.41","FL","9zuef86ced","1280","720","de","rz06as26","null","","","","","","","","learning/Slide42.JPG","null","","","","",""
"","html-keyboard-response","131","377808","0.0-6.0-1.41","FL","9zuef86ced","1280","720","de","rz06as26","null","","","","learningBlock1","","","","That was a dep.","null","","","","",""
"","html-keyboard-response","132","378814","0.0-6.0-2.41","FL","9zuef86ced","1280","720","de","rz06as26","null","","","","learningBlock1","","","","<div style=""font-size:60px;""> </div>","null","FL","learning/Slide42.JPG","That was a dep.","",""
"","image-keyboard-response","133","378994","0.0-6.0-0.42","FL","9zuef86ced","1280","720","de","rz06as26","null","","","","","","","","learning/Slide43.JPG","null","","","","",""
"","html-keyboard-response","134","380155","0.0-6.0-1.42","FL","9zuef86ced","1280","720","de","rz06as26","null","","","","learningBlock1","","","","That was a wug.","null","","","","",""
"","html-keyboard-response","135","381158","0.0-6.0-2.42","FL","9zuef86ced","1280","720","de","rz06as26","null","","","","learningBlock1","","","","<div style=""font-size:60px;""> </div>","null","FL","learning/Slide43.JPG","That was a wug.","",""
"","image-keyboard-response","136","381336","0.0-6.0-0.43","FL","9zuef86ced","1280","720","de","rz06as26","null","","","","","","","","learning/Slide44.JPG","null","","","","",""
"","html-keyboard-response","137","382506","0.0-6.0-1.43","FL","9zuef86ced","1280","720","de","rz06as26","null","","","","learningBlock1","","","","That was a bim.","null","","","","",""
"","html-keyboard-response","138","383508","0.0-6.0-2.43","FL","9zuef86ced","1280","720","de","rz06as26","null","","","","learningBlock1","","","","<div style=""font-size:60px;""> </div>","null","FL","learning/Slide44.JPG","That was a bim.","",""
"","image-keyboard-response","139","383686","0.0-6.0-0.44","FL","9zuef86ced","1280","720","de","rz06as26","null","","","","","","","","learning/Slide45.JPG","null","","","","",""
"","html-keyboard-response","140","384841","0.0-6.0-1.44","FL","9zuef86ced","1280","720","de","rz06as26","null","","","","learningBlock1","","","","That was a wug.","null","","","","",""
"","html-keyboard-response","141","385845","0.0-6.0-2.44","FL","9zuef86ced","1280","720","de","rz06as26","null","","","","learningBlock1","","","","<div style=""font-size:60px;""> </div>","null","FL","learning/Slide45.JPG","That was a wug.","",""
"","image-keyboard-response","142","386026","0.0-6.0-0.45","FL","9zuef86ced","1280","720","de","rz06as26","null","","","","","","","","learning/Slide46.JPG","null","","","","",""
"","html-keyboard-response","143","387183","0.0-6.0-1.45","FL","9zuef86ced","1280","720","de","rz06as26","null","","","","learningBlock1","","","","That was a dep.","null","","","","",""
"","html-keyboard-response","144","388184","0.0-6.0-2.45","FL","9zuef86ced","1280","720","de","rz06as26","null","","","","learningBlock1","","","","<div style=""font-size:60px;""> </div>","null","FL","learning/Slide46.JPG","That was a dep.","",""
"","image-keyboard-response","145","388366","0.0-6.0-0.46","FL","9zuef86ced","1280","720","de","rz06as26","null","","","","","","","","learning/Slide47.JPG","null","","","","",""
"","html-keyboard-response","146","389519","0.0-6.0-1.46","FL","9zuef86ced","1280","720","de","rz06as26","null","","","","learningBlock1","","","","That was a tob.","null","","","","",""
"","html-keyboard-response","147","390521","0.0-6.0-2.46","FL","9zuef86ced","1280","720","de","rz06as26","null","","","","learningBlock1","","","","<div style=""font-size:60px;""> </div>","null","FL","learning/Slide47.JPG","That was a tob.","",""
"","image-keyboard-response","148","390699","0.0-6.0-0.47","FL","9zuef86ced","1280","720","de","rz06as26","null","","","","","","","","learning/Slide48.JPG","null","","","","",""
"","html-keyboard-response","149","391856","0.0-6.0-1.47","FL","9zuef86ced","1280","720","de","rz06as26","null","","","","learningBlock1","","","","That was a bim.","null","","","","",""
"","html-keyboard-response","150","392859","0.0-6.0-2.47","FL","9zuef86ced","1280","720","de","rz06as26","null","","","","learningBlock1","","","","<div style=""font-size:60px;""> </div>","null","FL","learning/Slide48.JPG","That was a bim.","",""
"","image-keyboard-response","151","393039","0.0-6.0-0.48","FL","9zuef86ced","1280","720","de","rz06as26","null","","","","","","","","learning/Slide49.JPG","null","","","","",""
"","html-keyboard-response","152","394204","0.0-6.0-1.48","FL","9zuef86ced","1280","720","de","rz06as26","null","","","","learningBlock1","","","","That was a dep.","null","","","","",""
"","html-keyboard-response","153","395207","0.0-6.0-2.48","FL","9zuef86ced","1280","720","de","rz06as26","null","","","","learningBlock1","","","","<div style=""font-size:60px;""> </div>","null","FL","learning/Slide49.JPG","That was a dep.","",""
"","image-keyboard-response","154","395387","0.0-6.0-0.49","FL","9zuef86ced","1280","720","de","rz06as26","null","","","","","","","","learning/Slide50.JPG","null","","","","",""
"","html-keyboard-response","155","396545","0.0-6.0-1.49","FL","9zuef86ced","1280","720","de","rz06as26","null","","","","learningBlock1","","","","That was a tob.","null","","","","",""
"","html-keyboard-response","156","397547","0.0-6.0-2.49","FL","9zuef86ced","1280","720","de","rz06as26","null","","","","learningBlock1","","","","<div style=""font-size:60px;""> </div>","null","FL","learning/Slide50.JPG","That was a tob.","",""
"","image-keyboard-response","157","397725","0.0-6.0-0.50","FL","9zuef86ced","1280","720","de","rz06as26","null","","","","","","","","learning/Slide51.JPG","null","","","","",""
"","html-keyboard-response","158","398886","0.0-6.0-1.50","FL","9zuef86ced","1280","720","de","rz06as26","null","","","","learningBlock1","","","","That was a bim.","null","","","","",""
"","html-keyboard-response","159","399893","0.0-6.0-2.50","FL","9zuef86ced","1280","720","de","rz06as26","null","","","","learningBlock1","","","","<div style=""font-size:60px;""> </div>","null","FL","learning/Slide51.JPG","That was a bim.","",""
"","image-keyboard-response","160","400074","0.0-6.0-0.51","FL","9zuef86ced","1280","720","de","rz06as26","null","","","","","","","","learning/Slide52.JPG","null","","","","",""
"","html-keyboard-response","161","401233","0.0-6.0-1.51","FL","9zuef86ced","1280","720","de","rz06as26","null","","","","learningBlock1","","","","That was a wug.","null","","","","",""
"","html-keyboard-response","162","402235","0.0-6.0-2.51","FL","9zuef86ced","1280","720","de","rz06as26","null","","","","learningBlock1","","","","<div style=""font-size:60px;""> </div>","null","FL","learning/Slide52.JPG","That was a wug.","",""
"","image-keyboard-response","163","402418","0.0-6.0-0.52","FL","9zuef86ced","1280","720","de","rz06as26","null","","","","","","","","learning/Slide53.JPG","null","","","","",""
"","html-keyboard-response","164","403578","0.0-6.0-1.52","FL","9zuef86ced","1280","720","de","rz06as26","null","","","","learningBlock1","","","","That was a tob.","null","","","","",""
"","html-keyboard-response","165","404580","0.0-6.0-2.52","FL","9zuef86ced","1280","720","de","rz06as26","null","","","","learningBlock1","","","","<div style=""font-size:60px;""> </div>","null","FL","learning/Slide53.JPG","That was a tob.","",""
"","image-keyboard-response","166","404764","0.0-6.0-0.53","FL","9zuef86ced","1280","720","de","rz06as26","null","","","","","","","","learning/Slide54.JPG","null","","","","",""
"","html-keyboard-response","167","405934","0.0-6.0-1.53","FL","9zuef86ced","1280","720","de","rz06as26","null","","","","learningBlock1","","","","That was a dep.","null","","","","",""
"","html-keyboard-response","168","406938","0.0-6.0-2.53","FL","9zuef86ced","1280","720","de","rz06as26","null","","","","learningBlock1","","","","<div style=""font-size:60px;""> </div>","null","FL","learning/Slide54.JPG","That was a dep.","",""
"","image-keyboard-response","169","407116","0.0-6.0-0.54","FL","9zuef86ced","1280","720","de","rz06as26","null","","","","","","","","learning/Slide55.JPG","null","","","","",""
"","html-keyboard-response","170","408273","0.0-6.0-1.54","FL","9zuef86ced","1280","720","de","rz06as26","null","","","","learningBlock1","","","","That was a bim.","null","","","","",""
"","html-keyboard-response","171","409277","0.0-6.0-2.54","FL","9zuef86ced","1280","720","de","rz06as26","null","","","","learningBlock1","","","","<div style=""font-size:60px;""> </div>","null","FL","learning/Slide55.JPG","That was a bim.","",""
"","image-keyboard-response","172","409456","0.0-6.0-0.55","FL","9zuef86ced","1280","720","de","rz06as26","null","","","","","","","","learning/Slide56.JPG","null","","","","",""
"","html-keyboard-response","173","410615","0.0-6.0-1.55","FL","9zuef86ced","1280","720","de","rz06as26","null","","","","learningBlock1","","","","That was a tob.","null","","","","",""
"","html-keyboard-response","174","411621","0.0-6.0-2.55","FL","9zuef86ced","1280","720","de","rz06as26","null","","","","learningBlock1","","","","<div style=""font-size:60px;""> </div>","null","FL","learning/Slide56.JPG","That was a tob.","",""
"","image-keyboard-response","175","411803","0.0-6.0-0.56","FL","9zuef86ced","1280","720","de","rz06as26","null","","","","","","","","learning/Slide57.JPG","null","","","","",""
"","html-keyboard-response","176","412959","0.0-6.0-1.56","FL","9zuef86ced","1280","720","de","rz06as26","null","","","","learningBlock1","","","","That was a dep.","null","","","","",""
"","html-keyboard-response","177","413964","0.0-6.0-2.56","FL","9zuef86ced","1280","720","de","rz06as26","null","","","","learningBlock1","","","","<div style=""font-size:60px;""> </div>","null","FL","learning/Slide57.JPG","That was a dep.","",""
"","image-keyboard-response","178","414146","0.0-6.0-0.57","FL","9zuef86ced","1280","720","de","rz06as26","null","","","","","","","","learning/Slide58.JPG","null","","","","",""
"","html-keyboard-response","179","415305","0.0-6.0-1.57","FL","9zuef86ced","1280","720","de","rz06as26","null","","","","learningBlock1","","","","That was a wug.","null","","","","",""
"","html-keyboard-response","180","416315","0.0-6.0-2.57","FL","9zuef86ced","1280","720","de","rz06as26","null","","","","learningBlock1","","","","<div style=""font-size:60px;""> </div>","null","FL","learning/Slide58.JPG","That was a wug.","",""
"","image-keyboard-response","181","416496","0.0-6.0-0.58","FL","9zuef86ced","1280","720","de","rz06as26","null","","","","","","","","learning/Slide59.JPG","null","","","","",""
"","html-keyboard-response","182","417653","0.0-6.0-1.58","FL","9zuef86ced","1280","720","de","rz06as26","null","","","","learningBlock1","","","","That was a dep.","null","","","","",""
"","html-keyboard-response","183","418656","0.0-6.0-2.58","FL","9zuef86ced","1280","720","de","rz06as26","null","","","","learningBlock1","","","","<div style=""font-size:60px;""> </div>","null","FL","learning/Slide59.JPG","That was a dep.","",""
"","image-keyboard-response","184","418835","0.0-6.0-0.59","FL","9zuef86ced","1280","720","de","rz06as26","null","","","","","","","","learning/Slide60.JPG","null","","","","",""
"","html-keyboard-response","185","419994","0.0-6.0-1.59","FL","9zuef86ced","1280","720","de","rz06as26","null","","","","learningBlock1","","","","That was a wug.","null","","","","",""
"","html-keyboard-response","186","420998","0.0-6.0-2.59","FL","9zuef86ced","1280","720","de","rz06as26","null","","","","learningBlock1","","","","<div style=""font-size:60px;""> </div>","null","FL","learning/Slide60.JPG","That was a wug.","",""
"","image-keyboard-response","187","421176","0.0-6.0-0.60","FL","9zuef86ced","1280","720","de","rz06as26","null","","","","","","","","learning/Slide61.JPG","null","","","","",""
"","html-keyboard-response","188","422338","0.0-6.0-1.60","FL","9zuef86ced","1280","720","de","rz06as26","null","","","","learningBlock1","","","","That was a bim.","null","","","","",""
"","html-keyboard-response","189","423344","0.0-6.0-2.60","FL","9zuef86ced","1280","720","de","rz06as26","null","","","","learningBlock1","","","","<div style=""font-size:60px;""> </div>","null","FL","learning/Slide61.JPG","That was a bim.","",""
"","image-keyboard-response","190","423521","0.0-6.0-0.61","FL","9zuef86ced","1280","720","de","rz06as26","null","","","","","","","","learning/Slide62.JPG","null","","","","",""
"","html-keyboard-response","191","424691","0.0-6.0-1.61","FL","9zuef86ced","1280","720","de","rz06as26","null","","","","learningBlock1","","","","That was a dep.","null","","","","",""
"","html-keyboard-response","192","425697","0.0-6.0-2.61","FL","9zuef86ced","1280","720","de","rz06as26","null","","","","learningBlock1","","","","<div style=""font-size:60px;""> </div>","null","FL","learning/Slide62.JPG","That was a dep.","",""
"","image-keyboard-response","193","425876","0.0-6.0-0.62","FL","9zuef86ced","1280","720","de","rz06as26","null","","","","","","","","learning/Slide63.JPG","null","","","","",""
"","html-keyboard-response","194","427032","0.0-6.0-1.62","FL","9zuef86ced","1280","720","de","rz06as26","null","","","","learningBlock1","","","","That was a bim.","null","","","","",""
"","html-keyboard-response","195","428035","0.0-6.0-2.62","FL","9zuef86ced","1280","720","de","rz06as26","null","","","","learningBlock1","","","","<div style=""font-size:60px;""> </div>","null","FL","learning/Slide63.JPG","That was a bim.","",""
"","image-keyboard-response","196","428221","0.0-6.0-0.63","FL","9zuef86ced","1280","720","de","rz06as26","null","","","","","","","","learning/Slide64.JPG","null","","","","",""
"","html-keyboard-response","197","429379","0.0-6.0-1.63","FL","9zuef86ced","1280","720","de","rz06as26","null","","","","learningBlock1","","","","That was a tob.","null","","","","",""
"","html-keyboard-response","198","430384","0.0-6.0-2.63","FL","9zuef86ced","1280","720","de","rz06as26","null","","","","learningBlock1","","","","<div style=""font-size:60px;""> </div>","null","FL","learning/Slide64.JPG","That was a tob.","",""
"","image-keyboard-response","199","430564","0.0-6.0-0.64","FL","9zuef86ced","1280","720","de","rz06as26","null","","","","","","","","learning/Slide65.JPG","null","","","","",""
"","html-keyboard-response","200","431719","0.0-6.0-1.64","FL","9zuef86ced","1280","720","de","rz06as26","null","","","","learningBlock1","","","","That was a wug.","null","","","","",""
"","html-keyboard-response","201","432722","0.0-6.0-2.64","FL","9zuef86ced","1280","720","de","rz06as26","null","","","","learningBlock1","","","","<div style=""font-size:60px;""> </div>","null","FL","learning/Slide65.JPG","That was a wug.","",""
"","image-keyboard-response","202","432901","0.0-6.0-0.65","FL","9zuef86ced","1280","720","de","rz06as26","null","","","","","","","","learning/Slide66.JPG","null","","","","",""
"","html-keyboard-response","203","434061","0.0-6.0-1.65","FL","9zuef86ced","1280","720","de","rz06as26","null","","","","learningBlock1","","","","That was a dep.","null","","","","",""
"","html-keyboard-response","204","435065","0.0-6.0-2.65","FL","9zuef86ced","1280","720","de","rz06as26","null","","","","learningBlock1","","","","<div style=""font-size:60px;""> </div>","null","FL","learning/Slide66.JPG","That was a dep.","",""
"","image-keyboard-response","205","435242","0.0-6.0-0.66","FL","9zuef86ced","1280","720","de","rz06as26","null","","","","","","","","learning/Slide67.JPG","null","","","","",""
"","html-keyboard-response","206","436401","0.0-6.0-1.66","FL","9zuef86ced","1280","720","de","rz06as26","null","","","","learningBlock1","","","","That was a tob.","null","","","","",""
"","html-keyboard-response","207","437405","0.0-6.0-2.66","FL","9zuef86ced","1280","720","de","rz06as26","null","","","","learningBlock1","","","","<div style=""font-size:60px;""> </div>","null","FL","learning/Slide67.JPG","That was a tob.","",""
"","image-keyboard-response","208","437582","0.0-6.0-0.67","FL","9zuef86ced","1280","720","de","rz06as26","null","","","","","","","","learning/Slide68.JPG","null","","","","",""
"","html-keyboard-response","209","438741","0.0-6.0-1.67","FL","9zuef86ced","1280","720","de","rz06as26","null","","","","learningBlock1","","","","That was a wug.","null","","","","",""
"","html-keyboard-response","210","439744","0.0-6.0-2.67","FL","9zuef86ced","1280","720","de","rz06as26","null","","","","learningBlock1","","","","<div style=""font-size:60px;""> </div>","null","FL","learning/Slide68.JPG","That was a wug.","",""
"","image-keyboard-response","211","439924","0.0-6.0-0.68","FL","9zuef86ced","1280","720","de","rz06as26","null","","","","","","","","learning/Slide69.JPG","null","","","","",""
"","html-keyboard-response","212","441077","0.0-6.0-1.68","FL","9zuef86ced","1280","720","de","rz06as26","null","","","","learningBlock1","","","","That was a tob.","null","","","","",""
"","html-keyboard-response","213","442084","0.0-6.0-2.68","FL","9zuef86ced","1280","720","de","rz06as26","null","","","","learningBlock1","","","","<div style=""font-size:60px;""> </div>","null","FL","learning/Slide69.JPG","That was a tob.","",""
"","image-keyboard-response","214","442266","0.0-6.0-0.69","FL","9zuef86ced","1280","720","de","rz06as26","null","","","","","","","","learning/Slide70.JPG","null","","","","",""
"","html-keyboard-response","215","443433","0.0-6.0-1.69","FL","9zuef86ced","1280","720","de","rz06as26","null","","","","learningBlock1","","","","That was a dep.","null","","","","",""
"","html-keyboard-response","216","444439","0.0-6.0-2.69","FL","9zuef86ced","1280","720","de","rz06as26","null","","","","learningBlock1","","","","<div style=""font-size:60px;""> </div>","null","FL","learning/Slide70.JPG","That was a dep.","",""
"","image-keyboard-response","217","444620","0.0-6.0-0.70","FL","9zuef86ced","1280","720","de","rz06as26","null","","","","","","","","learning/Slide71.JPG","null","","","","",""
"","html-keyboard-response","218","445777","0.0-6.0-1.70","FL","9zuef86ced","1280","720","de","rz06as26","null","","","","learningBlock1","","","","That was a wug.","null","","","","",""
"","html-keyboard-response","219","446780","0.0-6.0-2.70","FL","9zuef86ced","1280","720","de","rz06as26","null","","","","learningBlock1","","","","<div style=""font-size:60px;""> </div>","null","FL","learning/Slide71.JPG","That was a wug.","",""
"","image-keyboard-response","220","446958","0.0-6.0-0.71","FL","9zuef86ced","1280","720","de","rz06as26","null","","","","","","","","learning/Slide72.JPG","null","","","","",""
"","html-keyboard-response","221","448130","0.0-6.0-1.71","FL","9zuef86ced","1280","720","de","rz06as26","null","","","","learningBlock1","","","","That was a bim.","null","","","","",""
"","html-keyboard-response","222","449136","0.0-6.0-2.71","FL","9zuef86ced","1280","720","de","rz06as26","null","","","","learningBlock1","","","","<div style=""font-size:60px;""> </div>","null","FL","learning/Slide72.JPG","That was a bim.","",""
"","image-keyboard-response","223","449314","0.0-6.0-0.72","FL","9zuef86ced","1280","720","de","rz06as26","null","","","","","","","","learning/Slide73.JPG","null","","","","",""
"","html-keyboard-response","224","450473","0.0-6.0-1.72","FL","9zuef86ced","1280","720","de","rz06as26","null","","","","learningBlock1","","","","That was a wug.","null","","","","",""
"","html-keyboard-response","225","451479","0.0-6.0-2.72","FL","9zuef86ced","1280","720","de","rz06as26","null","","","","learningBlock1","","","","<div style=""font-size:60px;""> </div>","null","FL","learning/Slide73.JPG","That was a wug.","",""
"","image-keyboard-response","226","451657","0.0-6.0-0.73","FL","9zuef86ced","1280","720","de","rz06as26","null","","","","","","","","learning/Slide74.JPG","null","","","","",""
"","html-keyboard-response","227","452814","0.0-6.0-1.73","FL","9zuef86ced","1280","720","de","rz06as26","null","","","","learningBlock1","","","","That was a dep.","null","","","","",""
"","html-keyboard-response","228","453816","0.0-6.0-2.73","FL","9zuef86ced","1280","720","de","rz06as26","null","","","","learningBlock1","","","","<div style=""font-size:60px;""> </div>","null","FL","learning/Slide74.JPG","That was a dep.","",""
"","image-keyboard-response","229","453995","0.0-6.0-0.74","FL","9zuef86ced","1280","720","de","rz06as26","null","","","","","","","","learning/Slide75.JPG","null","","","","",""
"","html-keyboard-response","230","455151","0.0-6.0-1.74","FL","9zuef86ced","1280","720","de","rz06as26","null","","","","learningBlock1","","","","That was a tob.","null","","","","",""
"","html-keyboard-response","231","456157","0.0-6.0-2.74","FL","9zuef86ced","1280","720","de","rz06as26","null","","","","learningBlock1","","","","<div style=""font-size:60px;""> </div>","null","FL","learning/Slide75.JPG","That was a tob.","",""
"","image-keyboard-response","232","456335","0.0-6.0-0.75","FL","9zuef86ced","1280","720","de","rz06as26","null","","","","","","","","learning/Slide76.JPG","null","","","","",""
"","html-keyboard-response","233","457504","0.0-6.0-1.75","FL","9zuef86ced","1280","720","de","rz06as26","null","","","","learningBlock1","","","","That was a bim.","null","","","","",""
"","html-keyboard-response","234","458510","0.0-6.0-2.75","FL","9zuef86ced","1280","720","de","rz06as26","null","","","","learningBlock1","","","","<div style=""font-size:60px;""> </div>","null","FL","learning/Slide76.JPG","That was a bim.","",""
"","image-keyboard-response","235","458688","0.0-6.0-0.76","FL","9zuef86ced","1280","720","de","rz06as26","null","","","","","","","","learning/Slide77.JPG","null","","","","",""
"","html-keyboard-response","236","459844","0.0-6.0-1.76","FL","9zuef86ced","1280","720","de","rz06as26","null","","","","learningBlock1","","","","That was a tob.","null","","","","",""
"","html-keyboard-response","237","460859","0.0-6.0-2.76","FL","9zuef86ced","1280","720","de","rz06as26","null","","","","learningBlock1","","","","<div style=""font-size:60px;""> </div>","null","FL","learning/Slide77.JPG","That was a tob.","",""
"","image-keyboard-response","238","461037","0.0-6.0-0.77","FL","9zuef86ced","1280","720","de","rz06as26","null","","","","","","","","learning/Slide78.JPG","null","","","","",""
"","html-keyboard-response","239","462198","0.0-6.0-1.77","FL","9zuef86ced","1280","720","de","rz06as26","null","","","","learningBlock1","","","","That was a wug.","null","","","","",""
"","html-keyboard-response","240","463204","0.0-6.0-2.77","FL","9zuef86ced","1280","720","de","rz06as26","null","","","","learningBlock1","","","","<div style=""font-size:60px;""> </div>","null","FL","learning/Slide78.JPG","That was a wug.","",""
"","image-keyboard-response","241","463384","0.0-6.0-0.78","FL","9zuef86ced","1280","720","de","rz06as26","null","","","","","","","","learning/Slide79.JPG","null","","","","",""
"","html-keyboard-response","242","464541","0.0-6.0-1.78","FL","9zuef86ced","1280","720","de","rz06as26","null","","","","learningBlock1","","","","That was a bim.","null","","","","",""
"","html-keyboard-response","243","465546","0.0-6.0-2.78","FL","9zuef86ced","1280","720","de","rz06as26","null","","","","learningBlock1","","","","<div style=""font-size:60px;""> </div>","null","FL","learning/Slide79.JPG","That was a bim.","",""
"","image-keyboard-response","244","465726","0.0-6.0-0.79","FL","9zuef86ced","1280","720","de","rz06as26","null","","","","","","","","learning/Slide80.JPG","null","","","","",""
"","html-keyboard-response","245","466887","0.0-6.0-1.79","FL","9zuef86ced","1280","720","de","rz06as26","null","","","","learningBlock1","","","","That was a tob.","null","","","","",""
"","html-keyboard-response","246","467890","0.0-6.0-2.79","FL","9zuef86ced","1280","720","de","rz06as26","null","","","","learningBlock1","","","","<div style=""font-size:60px;""> </div>","null","FL","learning/Slide80.JPG","That was a tob.","",""
"","instructions","247","491223","0.0-7.0","FL","9zuef86ced","1280","720","de","rz06as26","NA","","","[{""page_index"":0,""viewing_time"":23330.654999997932}]","instructions","","","","","","","","","",""
"","image-keyboard-response","248","491406","0.0-8.0-0.0","FL","9zuef86ced","1280","720","de","rz06as26","null","","","","","","","","learning/Slide81.JPG","null","","","","",""
"","html-keyboard-response","249","492560","0.0-8.0-1.0","FL","9zuef86ced","1280","720","de","rz06as26","null","","","","learningBlock2","","","","That was a wug.","null","","","","",""
"","html-keyboard-response","250","493565","0.0-8.0-2.0","FL","9zuef86ced","1280","720","de","rz06as26","null","","","","learningBlock2","","","","<div style=""font-size:60px;""> </div>","null","FL","learning/Slide81.JPG","That was a wug.","",""
"","image-keyboard-response","251","493746","0.0-8.0-0.1","FL","9zuef86ced","1280","720","de","rz06as26","null","","","","","","","","learning/Slide82.JPG","null","","","","",""
"","html-keyboard-response","252","494898","0.0-8.0-1.1","FL","9zuef86ced","1280","720","de","rz06as26","null","","","","learningBlock2","","","","That was a bim.","null","","","","",""
"","html-keyboard-response","253","495901","0.0-8.0-2.1","FL","9zuef86ced","1280","720","de","rz06as26","null","","","","learningBlock2","","","","<div style=""font-size:60px;""> </div>","null","FL","learning/Slide82.JPG","That was a bim.","",""
"","image-keyboard-response","254","496082","0.0-8.0-0.2","FL","9zuef86ced","1280","720","de","rz06as26","null","","","","","","","","learning/Slide83.JPG","null","","","","",""
"","html-keyboard-response","255","497248","0.0-8.0-1.2","FL","9zuef86ced","1280","720","de","rz06as26","null","","","","learningBlock2","","","","That was a wug.","null","","","","",""
"","html-keyboard-response","256","498254","0.0-8.0-2.2","FL","9zuef86ced","1280","720","de","rz06as26","null","","","","learningBlock2","","","","<div style=""font-size:60px;""> </div>","null","FL","learning/Slide83.JPG","That was a wug.","",""
"","image-keyboard-response","257","498438","0.0-8.0-0.3","FL","9zuef86ced","1280","720","de","rz06as26","null","","","","","","","","learning/Slide84.JPG","null","","","","",""
"","html-keyboard-response","258","499595","0.0-8.0-1.3","FL","9zuef86ced","1280","720","de","rz06as26","null","","","","learningBlock2","","","","That was a dep.","null","","","","",""
"","html-keyboard-response","259","500601","0.0-8.0-2.3","FL","9zuef86ced","1280","720","de","rz06as26","null","","","","learningBlock2","","","","<div style=""font-size:60px;""> </div>","null","FL","learning/Slide84.JPG","That was a dep.","",""
"","image-keyboard-response","260","500779","0.0-8.0-0.4","FL","9zuef86ced","1280","720","de","rz06as26","null","","","","","","","","learning/Slide85.JPG","null","","","","",""
"","html-keyboard-response","261","501935","0.0-8.0-1.4","FL","9zuef86ced","1280","720","de","rz06as26","null","","","","learningBlock2","","","","That was a bim.","null","","","","",""
"","html-keyboard-response","262","502937","0.0-8.0-2.4","FL","9zuef86ced","1280","720","de","rz06as26","null","","","","learningBlock2","","","","<div style=""font-size:60px;""> </div>","null","FL","learning/Slide85.JPG","That was a bim.","",""
"","image-keyboard-response","263","503117","0.0-8.0-0.5","FL","9zuef86ced","1280","720","de","rz06as26","null","","","","","","","","learning/Slide86.JPG","null","","","","",""
"","html-keyboard-response","264","504281","0.0-8.0-1.5","FL","9zuef86ced","1280","720","de","rz06as26","null","","","","learningBlock2","","","","That was a tob.","null","","","","",""
"","html-keyboard-response","265","505294","0.0-8.0-2.5","FL","9zuef86ced","1280","720","de","rz06as26","null","","","","learningBlock2","","","","<div style=""font-size:60px;""> </div>","null","FL","learning/Slide86.JPG","That was a tob.","",""
"","image-keyboard-response","266","505473","0.0-8.0-0.6","FL","9zuef86ced","1280","720","de","rz06as26","null","","","","","","","","learning/Slide87.JPG","null","","","","",""
"","html-keyboard-response","267","506629","0.0-8.0-1.6","FL","9zuef86ced","1280","720","de","rz06as26","null","","","","learningBlock2","","","","That was a wug.","null","","","","",""
"","html-keyboard-response","268","507635","0.0-8.0-2.6","FL","9zuef86ced","1280","720","de","rz06as26","null","","","","learningBlock2","","","","<div style=""font-size:60px;""> </div>","null","FL","learning/Slide87.JPG","That was a wug.","",""
"","image-keyboard-response","269","507813","0.0-8.0-0.7","FL","9zuef86ced","1280","720","de","rz06as26","null","","","","","","","","learning/Slide88.JPG","null","","","","",""
"","html-keyboard-response","270","508969","0.0-8.0-1.7","FL","9zuef86ced","1280","720","de","rz06as26","null","","","","learningBlock2","","","","That was a tob.","null","","","","",""
"","html-keyboard-response","271","509976","0.0-8.0-2.7","FL","9zuef86ced","1280","720","de","rz06as26","null","","","","learningBlock2","","","","<div style=""font-size:60px;""> </div>","null","FL","learning/Slide88.JPG","That was a tob.","",""
"","image-keyboard-response","272","510159","0.0-8.0-0.8","FL","9zuef86ced","1280","720","de","rz06as26","null","","","","","","","","learning/Slide89.JPG","null","","","","",""
"","html-keyboard-response","273","511323","0.0-8.0-1.8","FL","9zuef86ced","1280","720","de","rz06as26","null","","","","learningBlock2","","","","That was a bim.","null","","","","",""
"","html-keyboard-response","274","512329","0.0-8.0-2.8","FL","9zuef86ced","1280","720","de","rz06as26","null","","","","learningBlock2","","","","<div style=""font-size:60px;""> </div>","null","FL","learning/Slide89.JPG","That was a bim.","",""
"","image-keyboard-response","275","512508","0.0-8.0-0.9","FL","9zuef86ced","1280","720","de","rz06as26","null","","","","","","","","learning/Slide90.JPG","null","","","","",""
"","html-keyboard-response","276","513667","0.0-8.0-1.9","FL","9zuef86ced","1280","720","de","rz06as26","null","","","","learningBlock2","","","","That was a dep.","null","","","","",""
"","html-keyboard-response","277","514674","0.0-8.0-2.9","FL","9zuef86ced","1280","720","de","rz06as26","null","","","","learningBlock2","","","","<div style=""font-size:60px;""> </div>","null","FL","learning/Slide90.JPG","That was a dep.","",""
"","image-keyboard-response","278","514853","0.0-8.0-0.10","FL","9zuef86ced","1280","720","de","rz06as26","null","","","","","","","","learning/Slide91.JPG","null","","","","",""
"","html-keyboard-response","279","516013","0.0-8.0-1.10","FL","9zuef86ced","1280","720","de","rz06as26","null","","","","learningBlock2","","","","That was a wug.","null","","","","",""
"","html-keyboard-response","280","517019","0.0-8.0-2.10","FL","9zuef86ced","1280","720","de","rz06as26","null","","","","learningBlock2","","","","<div style=""font-size:60px;""> </div>","null","FL","learning/Slide91.JPG","That was a wug.","",""
"","image-keyboard-response","281","517197","0.0-8.0-0.11","FL","9zuef86ced","1280","720","de","rz06as26","null","","","","","","","","learning/Slide92.JPG","null","","","","",""
"","html-keyboard-response","282","518357","0.0-8.0-1.11","FL","9zuef86ced","1280","720","de","rz06as26","null","","","","learningBlock2","","","","That was a tob.","null","","","","",""
"","html-keyboard-response","283","519363","0.0-8.0-2.11","FL","9zuef86ced","1280","720","de","rz06as26","null","","","","learningBlock2","","","","<div style=""font-size:60px;""> </div>","null","FL","learning/Slide92.JPG","That was a tob.","",""
"","image-keyboard-response","284","519546","0.0-8.0-0.12","FL","9zuef86ced","1280","720","de","rz06as26","null","","","","","","","","learning/Slide93.JPG","null","","","","",""
"","html-keyboard-response","285","520699","0.0-8.0-1.12","FL","9zuef86ced","1280","720","de","rz06as26","null","","","","learningBlock2","","","","That was a bim.","null","","","","",""
"","html-keyboard-response","286","521705","0.0-8.0-2.12","FL","9zuef86ced","1280","720","de","rz06as26","null","","","","learningBlock2","","","","<div style=""font-size:60px;""> </div>","null","FL","learning/Slide93.JPG","That was a bim.","",""
"","image-keyboard-response","287","521888","0.0-8.0-0.13","FL","9zuef86ced","1280","720","de","rz06as26","null","","","","","","","","learning/Slide94.JPG","null","","","","",""
"","html-keyboard-response","288","523047","0.0-8.0-1.13","FL","9zuef86ced","1280","720","de","rz06as26","null","","","","learningBlock2","","","","That was a tob.","null","","","","",""
"","html-keyboard-response","289","524054","0.0-8.0-2.13","FL","9zuef86ced","1280","720","de","rz06as26","null","","","","learningBlock2","","","","<div style=""font-size:60px;""> </div>","null","FL","learning/Slide94.JPG","That was a tob.","",""
"","image-keyboard-response","290","524234","0.0-8.0-0.14","FL","9zuef86ced","1280","720","de","rz06as26","null","","","","","","","","learning/Slide95.JPG","null","","","","",""
"","html-keyboard-response","291","525394","0.0-8.0-1.14","FL","9zuef86ced","1280","720","de","rz06as26","null","","","","learningBlock2","","","","That was a wug.","null","","","","",""
"","html-keyboard-response","292","526398","0.0-8.0-2.14","FL","9zuef86ced","1280","720","de","rz06as26","null","","","","learningBlock2","","","","<div style=""font-size:60px;""> </div>","null","FL","learning/Slide95.JPG","That was a wug.","",""
"","image-keyboard-response","293","526576","0.0-8.0-0.15","FL","9zuef86ced","1280","720","de","rz06as26","null","","","","","","","","learning/Slide96.JPG","null","","","","",""
"","html-keyboard-response","294","527739","0.0-8.0-1.15","FL","9zuef86ced","1280","720","de","rz06as26","null","","","","learningBlock2","","","","That was a tob.","null","","","","",""
"","html-keyboard-response","295","528744","0.0-8.0-2.15","FL","9zuef86ced","1280","720","de","rz06as26","null","","","","learningBlock2","","","","<div style=""font-size:60px;""> </div>","null","FL","learning/Slide96.JPG","That was a tob.","",""
"","image-keyboard-response","296","528925","0.0-8.0-0.16","FL","9zuef86ced","1280","720","de","rz06as26","null","","","","","","","","learning/Slide97.JPG","null","","","","",""
"","html-keyboard-response","297","530087","0.0-8.0-1.16","FL","9zuef86ced","1280","720","de","rz06as26","null","","","","learningBlock2","","","","That was a dep.","null","","","","",""
"","html-keyboard-response","298","531093","0.0-8.0-2.16","FL","9zuef86ced","1280","720","de","rz06as26","null","","","","learningBlock2","","","","<div style=""font-size:60px;""> </div>","null","FL","learning/Slide97.JPG","That was a dep.","",""
"","image-keyboard-response","299","531274","0.0-8.0-0.17","FL","9zuef86ced","1280","720","de","rz06as26","null","","","","","","","","learning/Slide98.JPG","null","","","","",""
"","html-keyboard-response","300","532435","0.0-8.0-1.17","FL","9zuef86ced","1280","720","de","rz06as26","null","","","","learningBlock2","","","","That was a bim.","null","","","","",""
"","html-keyboard-response","301","533437","0.0-8.0-2.17","FL","9zuef86ced","1280","720","de","rz06as26","null","","","","learningBlock2","","","","<div style=""font-size:60px;""> </div>","null","FL","learning/Slide98.JPG","That was a bim.","",""
"","image-keyboard-response","302","533617","0.0-8.0-0.18","FL","9zuef86ced","1280","720","de","rz06as26","null","","","","","","","","learning/Slide99.JPG","null","","","","",""
"","html-keyboard-response","303","534778","0.0-8.0-1.18","FL","9zuef86ced","1280","720","de","rz06as26","null","","","","learningBlock2","","","","That was a dep.","null","","","","",""
"","html-keyboard-response","304","535785","0.0-8.0-2.18","FL","9zuef86ced","1280","720","de","rz06as26","null","","","","learningBlock2","","","","<div style=""font-size:60px;""> </div>","null","FL","learning/Slide99.JPG","That was a dep.","",""
"","image-keyboard-response","305","535964","0.0-8.0-0.19","FL","9zuef86ced","1280","720","de","rz06as26","null","","","","","","","","learning/Slide100.JPG","null","","","","",""
"","html-keyboard-response","306","537118","0.0-8.0-1.19","FL","9zuef86ced","1280","720","de","rz06as26","null","","","","learningBlock2","","","","That was a bim.","null","","","","",""
"","html-keyboard-response","307","538125","0.0-8.0-2.19","FL","9zuef86ced","1280","720","de","rz06as26","null","","","","learningBlock2","","","","<div style=""font-size:60px;""> </div>","null","FL","learning/Slide100.JPG","That was a bim.","",""
"","image-keyboard-response","308","538306","0.0-8.0-0.20","FL","9zuef86ced","1280","720","de","rz06as26","null","","","","","","","","learning/Slide101.JPG","null","","","","",""
"","html-keyboard-response","309","539463","0.0-8.0-1.20","FL","9zuef86ced","1280","720","de","rz06as26","null","","","","learningBlock2","","","","That was a tob.","null","","","","",""
"","html-keyboard-response","310","540467","0.0-8.0-2.20","FL","9zuef86ced","1280","720","de","rz06as26","null","","","","learningBlock2","","","","<div style=""font-size:60px;""> </div>","null","FL","learning/Slide101.JPG","That was a tob.","",""
"","image-keyboard-response","311","540645","0.0-8.0-0.21","FL","9zuef86ced","1280","720","de","rz06as26","null","","","","","","","","learning/Slide102.JPG","null","","","","",""
"","html-keyboard-response","312","541804","0.0-8.0-1.21","FL","9zuef86ced","1280","720","de","rz06as26","null","","","","learningBlock2","","","","That was a bim.","null","","","","",""
"","html-keyboard-response","313","542812","0.0-8.0-2.21","FL","9zuef86ced","1280","720","de","rz06as26","null","","","","learningBlock2","","","","<div style=""font-size:60px;""> </div>","null","FL","learning/Slide102.JPG","That was a bim.","",""
"","image-keyboard-response","314","542991","0.0-8.0-0.22","FL","9zuef86ced","1280","720","de","rz06as26","null","","","","","","","","learning/Slide103.JPG","null","","","","",""
"","html-keyboard-response","315","544157","0.0-8.0-1.22","FL","9zuef86ced","1280","720","de","rz06as26","null","","","","learningBlock2","","","","That was a dep.","null","","","","",""
"","html-keyboard-response","316","545160","0.0-8.0-2.22","FL","9zuef86ced","1280","720","de","rz06as26","null","","","","learningBlock2","","","","<div style=""font-size:60px;""> </div>","null","FL","learning/Slide103.JPG","That was a dep.","",""
"","image-keyboard-response","317","545343","0.0-8.0-0.23","FL","9zuef86ced","1280","720","de","rz06as26","null","","","","","","","","learning/Slide104.JPG","null","","","","",""
"","html-keyboard-response","318","546513","0.0-8.0-1.23","FL","9zuef86ced","1280","720","de","rz06as26","null","","","","learningBlock2","","","","That was a tob.","null","","","","",""
"","html-keyboard-response","319","547519","0.0-8.0-2.23","FL","9zuef86ced","1280","720","de","rz06as26","null","","","","learningBlock2","","","","<div style=""font-size:60px;""> </div>","null","FL","learning/Slide104.JPG","That was a tob.","",""
"","image-keyboard-response","320","547697","0.0-8.0-0.24","FL","9zuef86ced","1280","720","de","rz06as26","null","","","","","","","","learning/Slide105.JPG","null","","","","",""
"","html-keyboard-response","321","548853","0.0-8.0-1.24","FL","9zuef86ced","1280","720","de","rz06as26","null","","","","learningBlock2","","","","That was a dep.","null","","","","",""
"","html-keyboard-response","322","549857","0.0-8.0-2.24","FL","9zuef86ced","1280","720","de","rz06as26","null","","","","learningBlock2","","","","<div style=""font-size:60px;""> </div>","null","FL","learning/Slide105.JPG","That was a dep.","",""
"","image-keyboard-response","323","550038","0.0-8.0-0.25","FL","9zuef86ced","1280","720","de","rz06as26","null","","","","","","","","learning/Slide106.JPG","null","","","","",""
"","html-keyboard-response","324","551196","0.0-8.0-1.25","FL","9zuef86ced","1280","720","de","rz06as26","null","","","","learningBlock2","","","","That was a wug.","null","","","","",""
"","html-keyboard-response","325","552198","0.0-8.0-2.25","FL","9zuef86ced","1280","720","de","rz06as26","null","","","","learningBlock2","","","","<div style=""font-size:60px;""> </div>","null","FL","learning/Slide106.JPG","That was a wug.","",""
"","image-keyboard-response","326","552378","0.0-8.0-0.26","FL","9zuef86ced","1280","720","de","rz06as26","null","","","","","","","","learning/Slide107.JPG","null","","","","",""
"","html-keyboard-response","327","553538","0.0-8.0-1.26","FL","9zuef86ced","1280","720","de","rz06as26","null","","","","learningBlock2","","","","That was a bim.","null","","","","",""
"","html-keyboard-response","328","554544","0.0-8.0-2.26","FL","9zuef86ced","1280","720","de","rz06as26","null","","","","learningBlock2","","","","<div style=""font-size:60px;""> </div>","null","FL","learning/Slide107.JPG","That was a bim.","",""
"","image-keyboard-response","329","554725","0.0-8.0-0.27","FL","9zuef86ced","1280","720","de","rz06as26","null","","","","","","","","learning/Slide108.JPG","null","","","","",""
"","html-keyboard-response","330","555881","0.0-8.0-1.27","FL","9zuef86ced","1280","720","de","rz06as26","null","","","","learningBlock2","","","","That was a dep.","null","","","","",""
"","html-keyboard-response","331","556887","0.0-8.0-2.27","FL","9zuef86ced","1280","720","de","rz06as26","null","","","","learningBlock2","","","","<div style=""font-size:60px;""> </div>","null","FL","learning/Slide108.JPG","That was a dep.","",""
"","image-keyboard-response","332","557068","0.0-8.0-0.28","FL","9zuef86ced","1280","720","de","rz06as26","null","","","","","","","","learning/Slide109.JPG","null","","","","",""
"","html-keyboard-response","333","558228","0.0-8.0-1.28","FL","9zuef86ced","1280","720","de","rz06as26","null","","","","learningBlock2","","","","That was a wug.","null","","","","",""
"","html-keyboard-response","334","559235","0.0-8.0-2.28","FL","9zuef86ced","1280","720","de","rz06as26","null","","","","learningBlock2","","","","<div style=""font-size:60px;""> </div>","null","FL","learning/Slide109.JPG","That was a wug.","",""
"","image-keyboard-response","335","559415","0.0-8.0-0.29","FL","9zuef86ced","1280","720","de","rz06as26","null","","","","","","","","learning/Slide110.JPG","null","","","","",""
"","html-keyboard-response","336","560575","0.0-8.0-1.29","FL","9zuef86ced","1280","720","de","rz06as26","null","","","","learningBlock2","","","","That was a bim.","null","","","","",""
"","html-keyboard-response","337","561579","0.0-8.0-2.29","FL","9zuef86ced","1280","720","de","rz06as26","null","","","","learningBlock2","","","","<div style=""font-size:60px;""> </div>","null","FL","learning/Slide110.JPG","That was a bim.","",""
"","image-keyboard-response","338","561757","0.0-8.0-0.30","FL","9zuef86ced","1280","720","de","rz06as26","null","","","","","","","","learning/Slide111.JPG","null","","","","",""
"","html-keyboard-response","339","562915","0.0-8.0-1.30","FL","9zuef86ced","1280","720","de","rz06as26","null","","","","learningBlock2","","","","That was a tob.","null","","","","",""
"","html-keyboard-response","340","563918","0.0-8.0-2.30","FL","9zuef86ced","1280","720","de","rz06as26","null","","","","learningBlock2","","","","<div style=""font-size:60px;""> </div>","null","FL","learning/Slide111.JPG","That was a tob.","",""
"","image-keyboard-response","341","564097","0.0-8.0-0.31","FL","9zuef86ced","1280","720","de","rz06as26","null","","","","","","","","learning/Slide112.JPG","null","","","","",""
"","html-keyboard-response","342","565257","0.0-8.0-1.31","FL","9zuef86ced","1280","720","de","rz06as26","null","","","","learningBlock2","","","","That was a wug.","null","","","","",""
"","html-keyboard-response","343","566264","0.0-8.0-2.31","FL","9zuef86ced","1280","720","de","rz06as26","null","","","","learningBlock2","","","","<div style=""font-size:60px;""> </div>","null","FL","learning/Slide112.JPG","That was a wug.","",""
"","image-keyboard-response","344","566446","0.0-8.0-0.32","FL","9zuef86ced","1280","720","de","rz06as26","null","","","","","","","","learning/Slide113.JPG","null","","","","",""
"","html-keyboard-response","345","567618","0.0-8.0-1.32","FL","9zuef86ced","1280","720","de","rz06as26","null","","","","learningBlock2","","","","That was a tob.","null","","","","",""
"","html-keyboard-response","346","568634","0.0-8.0-2.32","FL","9zuef86ced","1280","720","de","rz06as26","null","","","","learningBlock2","","","","<div style=""font-size:60px;""> </div>","null","FL","learning/Slide113.JPG","That was a tob.","",""
"","image-keyboard-response","347","568813","0.0-8.0-0.33","FL","9zuef86ced","1280","720","de","rz06as26","null","","","","","","","","learning/Slide114.JPG","null","","","","",""
"","html-keyboard-response","348","569972","0.0-8.0-1.33","FL","9zuef86ced","1280","720","de","rz06as26","null","","","","learningBlock2","","","","That was a wug.","null","","","","",""
"","html-keyboard-response","349","570977","0.0-8.0-2.33","FL","9zuef86ced","1280","720","de","rz06as26","null","","","","learningBlock2","","","","<div style=""font-size:60px;""> </div>","null","FL","learning/Slide114.JPG","That was a wug.","",""
"","image-keyboard-response","350","571157","0.0-8.0-0.34","FL","9zuef86ced","1280","720","de","rz06as26","null","","","","","","","","learning/Slide115.JPG","null","","","","",""
"","html-keyboard-response","351","572321","0.0-8.0-1.34","FL","9zuef86ced","1280","720","de","rz06as26","null","","","","learningBlock2","","","","That was a bim.","null","","","","",""
"","html-keyboard-response","352","573327","0.0-8.0-2.34","FL","9zuef86ced","1280","720","de","rz06as26","null","","","","learningBlock2","","","","<div style=""font-size:60px;""> </div>","null","FL","learning/Slide115.JPG","That was a bim.","",""
"","image-keyboard-response","353","573509","0.0-8.0-0.35","FL","9zuef86ced","1280","720","de","rz06as26","null","","","","","","","","learning/Slide116.JPG","null","","","","",""
"","html-keyboard-response","354","574670","0.0-8.0-1.35","FL","9zuef86ced","1280","720","de","rz06as26","null","","","","learningBlock2","","","","That was a dep.","null","","","","",""
"","html-keyboard-response","355","575676","0.0-8.0-2.35","FL","9zuef86ced","1280","720","de","rz06as26","null","","","","learningBlock2","","","","<div style=""font-size:60px;""> </div>","null","FL","learning/Slide116.JPG","That was a dep.","",""
"","image-keyboard-response","356","575854","0.0-8.0-0.36","FL","9zuef86ced","1280","720","de","rz06as26","null","","","","","","","","learning/Slide117.JPG","null","","","","",""
"","html-keyboard-response","357","577008","0.0-8.0-1.36","FL","9zuef86ced","1280","720","de","rz06as26","null","","","","learningBlock2","","","","That was a tob.","null","","","","",""
"","html-keyboard-response","358","578011","0.0-8.0-2.36","FL","9zuef86ced","1280","720","de","rz06as26","null","","","","learningBlock2","","","","<div style=""font-size:60px;""> </div>","null","FL","learning/Slide117.JPG","That was a tob.","",""
"","image-keyboard-response","359","578191","0.0-8.0-0.37","FL","9zuef86ced","1280","720","de","rz06as26","null","","","","","","","","learning/Slide118.JPG","null","","","","",""
"","html-keyboard-response","360","579358","0.0-8.0-1.37","FL","9zuef86ced","1280","720","de","rz06as26","null","","","","learningBlock2","","","","That was a dep.","null","","","","",""
"","html-keyboard-response","361","580363","0.0-8.0-2.37","FL","9zuef86ced","1280","720","de","rz06as26","null","","","","learningBlock2","","","","<div style=""font-size:60px;""> </div>","null","FL","learning/Slide118.JPG","That was a dep.","",""
"","image-keyboard-response","362","580543","0.0-8.0-0.38","FL","9zuef86ced","1280","720","de","rz06as26","null","","","","","","","","learning/Slide119.JPG","null","","","","",""
"","html-keyboard-response","363","581701","0.0-8.0-1.38","FL","9zuef86ced","1280","720","de","rz06as26","null","","","","learningBlock2","","","","That was a wug.","null","","","","",""
"","html-keyboard-response","364","582707","0.0-8.0-2.38","FL","9zuef86ced","1280","720","de","rz06as26","null","","","","learningBlock2","","","","<div style=""font-size:60px;""> </div>","null","FL","learning/Slide119.JPG","That was a wug.","",""
"","image-keyboard-response","365","582884","0.0-8.0-0.39","FL","9zuef86ced","1280","720","de","rz06as26","null","","","","","","","","learning/Slide120.JPG","null","","","","",""
"","html-keyboard-response","366","584045","0.0-8.0-1.39","FL","9zuef86ced","1280","720","de","rz06as26","null","","","","learningBlock2","","","","That was a dep.","null","","","","",""
"","html-keyboard-response","367","585050","0.0-8.0-2.39","FL","9zuef86ced","1280","720","de","rz06as26","null","","","","learningBlock2","","","","<div style=""font-size:60px;""> </div>","null","FL","learning/Slide120.JPG","That was a dep.","",""
"","image-keyboard-response","368","585229","0.0-8.0-0.40","FL","9zuef86ced","1280","720","de","rz06as26","null","","","","","","","","learning/Slide121.JPG","null","","","","",""
"","html-keyboard-response","369","586387","0.0-8.0-1.40","FL","9zuef86ced","1280","720","de","rz06as26","null","","","","learningBlock2","","","","That was a bim.","null","","","","",""
"","html-keyboard-response","370","587394","0.0-8.0-2.40","FL","9zuef86ced","1280","720","de","rz06as26","null","","","","learningBlock2","","","","<div style=""font-size:60px;""> </div>","null","FL","learning/Slide121.JPG","That was a bim.","",""
"","image-keyboard-response","371","587573","0.0-8.0-0.41","FL","9zuef86ced","1280","720","de","rz06as26","null","","","","","","","","learning/Slide122.JPG","null","","","","",""
"","html-keyboard-response","372","588732","0.0-8.0-1.41","FL","9zuef86ced","1280","720","de","rz06as26","null","","","","learningBlock2","","","","That was a wug.","null","","","","",""
"","html-keyboard-response","373","589738","0.0-8.0-2.41","FL","9zuef86ced","1280","720","de","rz06as26","null","","","","learningBlock2","","","","<div style=""font-size:60px;""> </div>","null","FL","learning/Slide122.JPG","That was a wug.","",""
"","image-keyboard-response","374","589916","0.0-8.0-0.42","FL","9zuef86ced","1280","720","de","rz06as26","null","","","","","","","","learning/Slide123.JPG","null","","","","",""
"","html-keyboard-response","375","591077","0.0-8.0-1.42","FL","9zuef86ced","1280","720","de","rz06as26","null","","","","learningBlock2","","","","That was a bim.","null","","","","",""
"","html-keyboard-response","376","592080","0.0-8.0-2.42","FL","9zuef86ced","1280","720","de","rz06as26","null","","","","learningBlock2","","","","<div style=""font-size:60px;""> </div>","null","FL","learning/Slide123.JPG","That was a bim.","",""
"","image-keyboard-response","377","592264","0.0-8.0-0.43","FL","9zuef86ced","1280","720","de","rz06as26","null","","","","","","","","learning/Slide124.JPG","null","","","","",""
"","html-keyboard-response","378","593431","0.0-8.0-1.43","FL","9zuef86ced","1280","720","de","rz06as26","null","","","","learningBlock2","","","","That was a tob.","null","","","","",""
"","html-keyboard-response","379","594436","0.0-8.0-2.43","FL","9zuef86ced","1280","720","de","rz06as26","null","","","","learningBlock2","","","","<div style=""font-size:60px;""> </div>","null","FL","learning/Slide124.JPG","That was a tob.","",""
"","image-keyboard-response","380","594614","0.0-8.0-0.44","FL","9zuef86ced","1280","720","de","rz06as26","null","","","","","","","","learning/Slide125.JPG","null","","","","",""
"","html-keyboard-response","381","595771","0.0-8.0-1.44","FL","9zuef86ced","1280","720","de","rz06as26","null","","","","learningBlock2","","","","That was a bim.","null","","","","",""
"","html-keyboard-response","382","596774","0.0-8.0-2.44","FL","9zuef86ced","1280","720","de","rz06as26","null","","","","learningBlock2","","","","<div style=""font-size:60px;""> </div>","null","FL","learning/Slide125.JPG","That was a bim.","",""
"","image-keyboard-response","383","596953","0.0-8.0-0.45","FL","9zuef86ced","1280","720","de","rz06as26","null","","","","","","","","learning/Slide126.JPG","null","","","","",""
"","html-keyboard-response","384","598112","0.0-8.0-1.45","FL","9zuef86ced","1280","720","de","rz06as26","null","","","","learningBlock2","","","","That was a tob.","null","","","","",""
"","html-keyboard-response","385","599119","0.0-8.0-2.45","FL","9zuef86ced","1280","720","de","rz06as26","null","","","","learningBlock2","","","","<div style=""font-size:60px;""> </div>","null","FL","learning/Slide126.JPG","That was a tob.","",""
"","image-keyboard-response","386","599297","0.0-8.0-0.46","FL","9zuef86ced","1280","720","de","rz06as26","null","","","","","","","","learning/Slide127.JPG","null","","","","",""
"","html-keyboard-response","387","600454","0.0-8.0-1.46","FL","9zuef86ced","1280","720","de","rz06as26","null","","","","learningBlock2","","","","That was a dep.","null","","","","",""
"","html-keyboard-response","388","601460","0.0-8.0-2.46","FL","9zuef86ced","1280","720","de","rz06as26","null","","","","learningBlock2","","","","<div style=""font-size:60px;""> </div>","null","FL","learning/Slide127.JPG","That was a dep.","",""
"","image-keyboard-response","389","601638","0.0-8.0-0.47","FL","9zuef86ced","1280","720","de","rz06as26","null","","","","","","","","learning/Slide128.JPG","null","","","","",""
"","html-keyboard-response","390","602803","0.0-8.0-1.47","FL","9zuef86ced","1280","720","de","rz06as26","null","","","","learningBlock2","","","","That was a wug.","null","","","","",""
"","html-keyboard-response","391","603811","0.0-8.0-2.47","FL","9zuef86ced","1280","720","de","rz06as26","null","","","","learningBlock2","","","","<div style=""font-size:60px;""> </div>","null","FL","learning/Slide128.JPG","That was a wug.","",""
"","image-keyboard-response","392","603994","0.0-8.0-0.48","FL","9zuef86ced","1280","720","de","rz06as26","null","","","","","","","","learning/Slide129.JPG","null","","","","",""
"","html-keyboard-response","393","605153","0.0-8.0-1.48","FL","9zuef86ced","1280","720","de","rz06as26","null","","","","learningBlock2","","","","That was a tob.","null","","","","",""
"","html-keyboard-response","394","606159","0.0-8.0-2.48","FL","9zuef86ced","1280","720","de","rz06as26","null","","","","learningBlock2","","","","<div style=""font-size:60px;""> </div>","null","FL","learning/Slide129.JPG","That was a tob.","",""
"","image-keyboard-response","395","606338","0.0-8.0-0.49","FL","9zuef86ced","1280","720","de","rz06as26","null","","","","","","","","learning/Slide130.JPG","null","","","","",""
"","html-keyboard-response","396","607496","0.0-8.0-1.49","FL","9zuef86ced","1280","720","de","rz06as26","null","","","","learningBlock2","","","","That was a wug.","null","","","","",""
"","html-keyboard-response","397","608503","0.0-8.0-2.49","FL","9zuef86ced","1280","720","de","rz06as26","null","","","","learningBlock2","","","","<div style=""font-size:60px;""> </div>","null","FL","learning/Slide130.JPG","That was a wug.","",""
"","image-keyboard-response","398","608683","0.0-8.0-0.50","FL","9zuef86ced","1280","720","de","rz06as26","null","","","","","","","","learning/Slide131.JPG","null","","","","",""
"","html-keyboard-response","399","609841","0.0-8.0-1.50","FL","9zuef86ced","1280","720","de","rz06as26","null","","","","learningBlock2","","","","That was a bim.","null","","","","",""
"","html-keyboard-response","400","610847","0.0-8.0-2.50","FL","9zuef86ced","1280","720","de","rz06as26","null","","","","learningBlock2","","","","<div style=""font-size:60px;""> </div>","null","FL","learning/Slide131.JPG","That was a bim.","",""
"","image-keyboard-response","401","611030","0.0-8.0-0.51","FL","9zuef86ced","1280","720","de","rz06as26","null","","","","","","","","learning/Slide132.JPG","null","","","","",""
"","html-keyboard-response","402","612193","0.0-8.0-1.51","FL","9zuef86ced","1280","720","de","rz06as26","null","","","","learningBlock2","","","","That was a dep.","null","","","","",""
"","html-keyboard-response","403","613197","0.0-8.0-2.51","FL","9zuef86ced","1280","720","de","rz06as26","null","","","","learningBlock2","","","","<div style=""font-size:60px;""> </div>","null","FL","learning/Slide132.JPG","That was a dep.","",""
"","image-keyboard-response","404","613384","0.0-8.0-0.52","FL","9zuef86ced","1280","720","de","rz06as26","null","","","","","","","","learning/Slide133.JPG","null","","","","",""
"","html-keyboard-response","405","614537","0.0-8.0-1.52","FL","9zuef86ced","1280","720","de","rz06as26","null","","","","learningBlock2","","","","That was a tob.","null","","","","",""
"","html-keyboard-response","406","615553","0.0-8.0-2.52","FL","9zuef86ced","1280","720","de","rz06as26","null","","","","learningBlock2","","","","<div style=""font-size:60px;""> </div>","null","FL","learning/Slide133.JPG","That was a tob.","",""
"","image-keyboard-response","407","615735","0.0-8.0-0.53","FL","9zuef86ced","1280","720","de","rz06as26","null","","","","","","","","learning/Slide134.JPG","null","","","","",""
"","html-keyboard-response","408","616903","0.0-8.0-1.53","FL","9zuef86ced","1280","720","de","rz06as26","null","","","","learningBlock2","","","","That was a dep.","null","","","","",""
"","html-keyboard-response","409","617907","0.0-8.0-2.53","FL","9zuef86ced","1280","720","de","rz06as26","null","","","","learningBlock2","","","","<div style=""font-size:60px;""> </div>","null","FL","learning/Slide134.JPG","That was a dep.","",""
"","image-keyboard-response","410","618089","0.0-8.0-0.54","FL","9zuef86ced","1280","720","de","rz06as26","null","","","","","","","","learning/Slide135.JPG","null","","","","",""
"","html-keyboard-response","411","619245","0.0-8.0-1.54","FL","9zuef86ced","1280","720","de","rz06as26","null","","","","learningBlock2","","","","That was a tob.","null","","","","",""
"","html-keyboard-response","412","620249","0.0-8.0-2.54","FL","9zuef86ced","1280","720","de","rz06as26","null","","","","learningBlock2","","","","<div style=""font-size:60px;""> </div>","null","FL","learning/Slide135.JPG","That was a tob.","",""
"","image-keyboard-response","413","620428","0.0-8.0-0.55","FL","9zuef86ced","1280","720","de","rz06as26","null","","","","","","","","learning/Slide136.JPG","null","","","","",""
"","html-keyboard-response","414","621593","0.0-8.0-1.55","FL","9zuef86ced","1280","720","de","rz06as26","null","","","","learningBlock2","","","","That was a wug.","null","","","","",""
"","html-keyboard-response","415","622595","0.0-8.0-2.55","FL","9zuef86ced","1280","720","de","rz06as26","null","","","","learningBlock2","","","","<div style=""font-size:60px;""> </div>","null","FL","learning/Slide136.JPG","That was a wug.","",""
"","image-keyboard-response","416","622776","0.0-8.0-0.56","FL","9zuef86ced","1280","720","de","rz06as26","null","","","","","","","","learning/Slide137.JPG","null","","","","",""
"","html-keyboard-response","417","623937","0.0-8.0-1.56","FL","9zuef86ced","1280","720","de","rz06as26","null","","","","learningBlock2","","","","That was a tob.","null","","","","",""
"","html-keyboard-response","418","624944","0.0-8.0-2.56","FL","9zuef86ced","1280","720","de","rz06as26","null","","","","learningBlock2","","","","<div style=""font-size:60px;""> </div>","null","FL","learning/Slide137.JPG","That was a tob.","",""
"","image-keyboard-response","419","625123","0.0-8.0-0.57","FL","9zuef86ced","1280","720","de","rz06as26","null","","","","","","","","learning/Slide138.JPG","null","","","","",""
"","html-keyboard-response","420","626276","0.0-8.0-1.57","FL","9zuef86ced","1280","720","de","rz06as26","null","","","","learningBlock2","","","","That was a bim.","null","","","","",""
"","html-keyboard-response","421","627280","0.0-8.0-2.57","FL","9zuef86ced","1280","720","de","rz06as26","null","","","","learningBlock2","","","","<div style=""font-size:60px;""> </div>","null","FL","learning/Slide138.JPG","That was a bim.","",""
"","image-keyboard-response","422","627470","0.0-8.0-0.58","FL","9zuef86ced","1280","720","de","rz06as26","null","","","","","","","","learning/Slide139.JPG","null","","","","",""
"","html-keyboard-response","423","628627","0.0-8.0-1.58","FL","9zuef86ced","1280","720","de","rz06as26","null","","","","learningBlock2","","","","That was a wug.","null","","","","",""
"","html-keyboard-response","424","629633","0.0-8.0-2.58","FL","9zuef86ced","1280","720","de","rz06as26","null","","","","learningBlock2","","","","<div style=""font-size:60px;""> </div>","null","FL","learning/Slide139.JPG","That was a wug.","",""
"","image-keyboard-response","425","629811","0.0-8.0-0.59","FL","9zuef86ced","1280","720","de","rz06as26","null","","","","","","","","learning/Slide140.JPG","null","","","","",""
"","html-keyboard-response","426","630968","0.0-8.0-1.59","FL","9zuef86ced","1280","720","de","rz06as26","null","","","","learningBlock2","","","","That was a dep.","null","","","","",""
"","html-keyboard-response","427","631976","0.0-8.0-2.59","FL","9zuef86ced","1280","720","de","rz06as26","null","","","","learningBlock2","","","","<div style=""font-size:60px;""> </div>","null","FL","learning/Slide140.JPG","That was a dep.","",""
"","image-keyboard-response","428","632157","0.0-8.0-0.60","FL","9zuef86ced","1280","720","de","rz06as26","null","","","","","","","","learning/Slide141.JPG","null","","","","",""
"","html-keyboard-response","429","633312","0.0-8.0-1.60","FL","9zuef86ced","1280","720","de","rz06as26","null","","","","learningBlock2","","","","That was a tob.","null","","","","",""
"","html-keyboard-response","430","634315","0.0-8.0-2.60","FL","9zuef86ced","1280","720","de","rz06as26","null","","","","learningBlock2","","","","<div style=""font-size:60px;""> </div>","null","FL","learning/Slide141.JPG","That was a tob.","",""
"","image-keyboard-response","431","634492","0.0-8.0-0.61","FL","9zuef86ced","1280","720","de","rz06as26","null","","","","","","","","learning/Slide142.JPG","null","","","","",""
"","html-keyboard-response","432","635648","0.0-8.0-1.61","FL","9zuef86ced","1280","720","de","rz06as26","null","","","","learningBlock2","","","","That was a wug.","null","","","","",""
"","html-keyboard-response","433","636650","0.0-8.0-2.61","FL","9zuef86ced","1280","720","de","rz06as26","null","","","","learningBlock2","","","","<div style=""font-size:60px;""> </div>","null","FL","learning/Slide142.JPG","That was a wug.","",""
"","image-keyboard-response","434","636829","0.0-8.0-0.62","FL","9zuef86ced","1280","720","de","rz06as26","null","","","","","","","","learning/Slide143.JPG","null","","","","",""
"","html-keyboard-response","435","637982","0.0-8.0-1.62","FL","9zuef86ced","1280","720","de","rz06as26","null","","","","learningBlock2","","","","That was a bim.","null","","","","",""
"","html-keyboard-response","436","638987","0.0-8.0-2.62","FL","9zuef86ced","1280","720","de","rz06as26","null","","","","learningBlock2","","","","<div style=""font-size:60px;""> </div>","null","FL","learning/Slide143.JPG","That was a bim.","",""
"","image-keyboard-response","437","639166","0.0-8.0-0.63","FL","9zuef86ced","1280","720","de","rz06as26","null","","","","","","","","learning/Slide144.JPG","null","","","","",""
"","html-keyboard-response","438","640327","0.0-8.0-1.63","FL","9zuef86ced","1280","720","de","rz06as26","null","","","","learningBlock2","","","","That was a dep.","null","","","","",""
"","html-keyboard-response","439","641331","0.0-8.0-2.63","FL","9zuef86ced","1280","720","de","rz06as26","null","","","","learningBlock2","","","","<div style=""font-size:60px;""> </div>","null","FL","learning/Slide144.JPG","That was a dep.","",""
"","image-keyboard-response","440","641524","0.0-8.0-0.64","FL","9zuef86ced","1280","720","de","rz06as26","null","","","","","","","","learning/Slide145.JPG","null","","","","",""
"","html-keyboard-response","441","642681","0.0-8.0-1.64","FL","9zuef86ced","1280","720","de","rz06as26","null","","","","learningBlock2","","","","That was a bim.","null","","","","",""
"","html-keyboard-response","442","643684","0.0-8.0-2.64","FL","9zuef86ced","1280","720","de","rz06as26","null","","","","learningBlock2","","","","<div style=""font-size:60px;""> </div>","null","FL","learning/Slide145.JPG","That was a bim.","",""
"","image-keyboard-response","443","643863","0.0-8.0-0.65","FL","9zuef86ced","1280","720","de","rz06as26","null","","","","","","","","learning/Slide146.JPG","null","","","","",""
"","html-keyboard-response","444","645035","0.0-8.0-1.65","FL","9zuef86ced","1280","720","de","rz06as26","null","","","","learningBlock2","","","","That was a tob.","null","","","","",""
"","html-keyboard-response","445","646047","0.0-8.0-2.65","FL","9zuef86ced","1280","720","de","rz06as26","null","","","","learningBlock2","","","","<div style=""font-size:60px;""> </div>","null","FL","learning/Slide146.JPG","That was a tob.","",""
"","image-keyboard-response","446","646226","0.0-8.0-0.66","FL","9zuef86ced","1280","720","de","rz06as26","null","","","","","","","","learning/Slide147.JPG","null","","","","",""
"","html-keyboard-response","447","647385","0.0-8.0-1.66","FL","9zuef86ced","1280","720","de","rz06as26","null","","","","learningBlock2","","","","That was a wug.","null","","","","",""
"","html-keyboard-response","448","648392","0.0-8.0-2.66","FL","9zuef86ced","1280","720","de","rz06as26","null","","","","learningBlock2","","","","<div style=""font-size:60px;""> </div>","null","FL","learning/Slide147.JPG","That was a wug.","",""
"","image-keyboard-response","449","648575","0.0-8.0-0.67","FL","9zuef86ced","1280","720","de","rz06as26","null","","","","","","","","learning/Slide148.JPG","null","","","","",""
"","html-keyboard-response","450","649734","0.0-8.0-1.67","FL","9zuef86ced","1280","720","de","rz06as26","null","","","","learningBlock2","","","","That was a bim.","null","","","","",""
"","html-keyboard-response","451","650743","0.0-8.0-2.67","FL","9zuef86ced","1280","720","de","rz06as26","null","","","","learningBlock2","","","","<div style=""font-size:60px;""> </div>","null","FL","learning/Slide148.JPG","That was a bim.","",""
"","image-keyboard-response","452","650923","0.0-8.0-0.68","FL","9zuef86ced","1280","720","de","rz06as26","null","","","","","","","","learning/Slide149.JPG","null","","","","",""
"","html-keyboard-response","453","652080","0.0-8.0-1.68","FL","9zuef86ced","1280","720","de","rz06as26","null","","","","learningBlock2","","","","That was a dep.","null","","","","",""
"","html-keyboard-response","454","653085","0.0-8.0-2.68","FL","9zuef86ced","1280","720","de","rz06as26","null","","","","learningBlock2","","","","<div style=""font-size:60px;""> </div>","null","FL","learning/Slide149.JPG","That was a dep.","",""
"","image-keyboard-response","455","653266","0.0-8.0-0.69","FL","9zuef86ced","1280","720","de","rz06as26","null","","","","","","","","learning/Slide150.JPG","null","","","","",""
"","html-keyboard-response","456","654427","0.0-8.0-1.69","FL","9zuef86ced","1280","720","de","rz06as26","null","","","","learningBlock2","","","","That was a wug.","null","","","","",""
"","html-keyboard-response","457","655433","0.0-8.0-2.69","FL","9zuef86ced","1280","720","de","rz06as26","null","","","","learningBlock2","","","","<div style=""font-size:60px;""> </div>","null","FL","learning/Slide150.JPG","That was a wug.","",""
"","image-keyboard-response","458","655612","0.0-8.0-0.70","FL","9zuef86ced","1280","720","de","rz06as26","null","","","","","","","","learning/Slide151.JPG","null","","","","",""
"","html-keyboard-response","459","656768","0.0-8.0-1.70","FL","9zuef86ced","1280","720","de","rz06as26","null","","","","learningBlock2","","","","That was a dep.","null","","","","",""
"","html-keyboard-response","460","657771","0.0-8.0-2.70","FL","9zuef86ced","1280","720","de","rz06as26","null","","","","learningBlock2","","","","<div style=""font-size:60px;""> </div>","null","FL","learning/Slide151.JPG","That was a dep.","",""
"","image-keyboard-response","461","657954","0.0-8.0-0.71","FL","9zuef86ced","1280","720","de","rz06as26","null","","","","","","","","learning/Slide152.JPG","null","","","","",""
"","html-keyboard-response","462","659119","0.0-8.0-1.71","FL","9zuef86ced","1280","720","de","rz06as26","null","","","","learningBlock2","","","","That was a wug.","null","","","","",""
"","html-keyboard-response","463","660122","0.0-8.0-2.71","FL","9zuef86ced","1280","720","de","rz06as26","null","","","","learningBlock2","","","","<div style=""font-size:60px;""> </div>","null","FL","learning/Slide152.JPG","That was a wug.","",""
"","image-keyboard-response","464","660303","0.0-8.0-0.72","FL","9zuef86ced","1280","720","de","rz06as26","null","","","","","","","","learning/Slide153.JPG","null","","","","",""
"","html-keyboard-response","465","661463","0.0-8.0-1.72","FL","9zuef86ced","1280","720","de","rz06as26","null","","","","learningBlock2","","","","That was a bim.","null","","","","",""
"","html-keyboard-response","466","662470","0.0-8.0-2.72","FL","9zuef86ced","1280","720","de","rz06as26","null","","","","learningBlock2","","","","<div style=""font-size:60px;""> </div>","null","FL","learning/Slide153.JPG","That was a bim.","",""
"","image-keyboard-response","467","662650","0.0-8.0-0.73","FL","9zuef86ced","1280","720","de","rz06as26","null","","","","","","","","learning/Slide154.JPG","null","","","","",""
"","html-keyboard-response","468","663818","0.0-8.0-1.73","FL","9zuef86ced","1280","720","de","rz06as26","null","","","","learningBlock2","","","","That was a tob.","null","","","","",""
"","html-keyboard-response","469","664823","0.0-8.0-2.73","FL","9zuef86ced","1280","720","de","rz06as26","null","","","","learningBlock2","","","","<div style=""font-size:60px;""> </div>","null","FL","learning/Slide154.JPG","That was a tob.","",""
"","image-keyboard-response","470","665003","0.0-8.0-0.74","FL","9zuef86ced","1280","720","de","rz06as26","null","","","","","","","","learning/Slide155.JPG","null","","","","",""
"","html-keyboard-response","471","666163","0.0-8.0-1.74","FL","9zuef86ced","1280","720","de","rz06as26","null","","","","learningBlock2","","","","That was a dep.","null","","","","",""
"","html-keyboard-response","472","667168","0.0-8.0-2.74","FL","9zuef86ced","1280","720","de","rz06as26","null","","","","learningBlock2","","","","<div style=""font-size:60px;""> </div>","null","FL","learning/Slide155.JPG","That was a dep.","",""
"","image-keyboard-response","473","667349","0.0-8.0-0.75","FL","9zuef86ced","1280","720","de","rz06as26","null","","","","","","","","learning/Slide156.JPG","null","","","","",""
"","html-keyboard-response","474","668513","0.0-8.0-1.75","FL","9zuef86ced","1280","720","de","rz06as26","null","","","","learningBlock2","","","","That was a bim.","null","","","","",""
"","html-keyboard-response","475","669522","0.0-8.0-2.75","FL","9zuef86ced","1280","720","de","rz06as26","null","","","","learningBlock2","","","","<div style=""font-size:60px;""> </div>","null","FL","learning/Slide156.JPG","That was a bim.","",""
"","image-keyboard-response","476","669704","0.0-8.0-0.76","FL","9zuef86ced","1280","720","de","rz06as26","null","","","","","","","","learning/Slide157.JPG","null","","","","",""
"","html-keyboard-response","477","670861","0.0-8.0-1.76","FL","9zuef86ced","1280","720","de","rz06as26","null","","","","learningBlock2","","","","That was a dep.","null","","","","",""
"","html-keyboard-response","478","671864","0.0-8.0-2.76","FL","9zuef86ced","1280","720","de","rz06as26","null","","","","learningBlock2","","","","<div style=""font-size:60px;""> </div>","null","FL","learning/Slide157.JPG","That was a dep.","",""
"","image-keyboard-response","479","672044","0.0-8.0-0.77","FL","9zuef86ced","1280","720","de","rz06as26","null","","","","","","","","learning/Slide158.JPG","null","","","","",""
"","html-keyboard-response","480","673201","0.0-8.0-1.77","FL","9zuef86ced","1280","720","de","rz06as26","null","","","","learningBlock2","","","","That was a tob.","null","","","","",""
"","html-keyboard-response","481","674203","0.0-8.0-2.77","FL","9zuef86ced","1280","720","de","rz06as26","null","","","","learningBlock2","","","","<div style=""font-size:60px;""> </div>","null","FL","learning/Slide158.JPG","That was a tob.","",""
"","image-keyboard-response","482","674387","0.0-8.0-0.78","FL","9zuef86ced","1280","720","de","rz06as26","null","","","","","","","","learning/Slide159.JPG","null","","","","",""
"","html-keyboard-response","483","675546","0.0-8.0-1.78","FL","9zuef86ced","1280","720","de","rz06as26","null","","","","learningBlock2","","","","That was a dep.","null","","","","",""
"","html-keyboard-response","484","676550","0.0-8.0-2.78","FL","9zuef86ced","1280","720","de","rz06as26","null","","","","learningBlock2","","","","<div style=""font-size:60px;""> </div>","null","FL","learning/Slide159.JPG","That was a dep.","",""
"","image-keyboard-response","485","676733","0.0-8.0-0.79","FL","9zuef86ced","1280","720","de","rz06as26","null","","","","","","","","learning/Slide160.JPG","null","","","","",""
"","html-keyboard-response","486","677893","0.0-8.0-1.79","FL","9zuef86ced","1280","720","de","rz06as26","null","","","","learningBlock2","","","","That was a wug.","null","","","","",""
"","html-keyboard-response","487","678897","0.0-8.0-2.79","FL","9zuef86ced","1280","720","de","rz06as26","null","","","","learningBlock2","","","","<div style=""font-size:60px;""> </div>","null","FL","learning/Slide160.JPG","That was a wug.","",""
"","resize2","488","683654","0.0-9.0","FL","9zuef86ced","1280","720","de","rz06as26","","","","","","","104","1.04","","","","","","",""
