"success","trial_type","trial_index","time_elapsed","internal_node_id","condition","subject","screen_width","screen_height","language","codeword","rt","responses","url","view_history","test_part","final_height_px","final_width_px","scale_factor","stimulus","key_press","learningType","presentedImage","presentedLabel","button_pressed","response"
"true","fullscreen","0","2246","0.0-0.0","FL","3yxnw7xt1g","1366","768","de","cz06an18","","","","","","","","","","","","","","",""
"","survey-html-form","1","4435","0.0-1.0","FL","3yxnw7xt1g","1366","768","de","cz06an18","2185.7500000623986","{""language"":""de""}","","","","","","","","","","","","",""
"","external-html","2","9658","0.0-2.0-0.0","FL","3yxnw7xt1g","1366","768","de","cz06an18","5210.97000001464","","text/information.html","","","","","","","","","","","",""
"","external-html","3","22834","0.0-2.0-1.0","FL","3yxnw7xt1g","1366","768","de","cz06an18","13069.540000054985","","text/consent.html","","","","","","","","","","","",""
"","survey-html-form","4","54187","0.0-2.0-2.0","FL","3yxnw7xt1g","1366","768","de","cz06an18","31350.209999945946","{""codeword_enter"":""cz06an18""}","","","","","","","","","","","","",""
"","instructions","5","76811","0.0-4.0","FL","3yxnw7xt1g","1366","768","de","cz06an18","NA","","","[{""page_index"":0,""viewing_time"":2577.324999962002},{""page_index"":1,""viewing_time"":18543.805000022985}]","instructions","","","","","","","","","",""
"","resize","6","129170","0.0-5.0","FL","3yxnw7xt1g","1366","768","de","cz06an18","","","","","","","334","2.1206349206349207","","","","","","",""
"","image-keyboard-response","7","129351","0.0-6.0-0.0","FL","3yxnw7xt1g","1366","768","de","cz06an18","null","","","","","","","","learning/Slide1.JPG","null","","","","",""
"","html-keyboard-response","8","130503","0.0-6.0-1.0","FL","3yxnw7xt1g","1366","768","de","cz06an18","null","","","","learningBlock1","","","","That was a tob.","null","","","","",""
"","html-keyboard-response","9","131520","0.0-6.0-2.0","FL","3yxnw7xt1g","1366","768","de","cz06an18","null","","","","learningBlock1","","","","<div style=""font-size:60px;""> </div>","null","FL","learning/Slide1.JPG","That was a tob.","",""
"","image-keyboard-response","10","131705","0.0-6.0-0.1","FL","3yxnw7xt1g","1366","768","de","cz06an18","null","","","","","","","","learning/Slide2.JPG","null","","","","",""
"","html-keyboard-response","11","132873","0.0-6.0-1.1","FL","3yxnw7xt1g","1366","768","de","cz06an18","null","","","","learningBlock1","","","","That was a wug.","null","","","","",""
"","html-keyboard-response","12","133876","0.0-6.0-2.1","FL","3yxnw7xt1g","1366","768","de","cz06an18","null","","","","learningBlock1","","","","<div style=""font-size:60px;""> </div>","null","FL","learning/Slide2.JPG","That was a wug.","",""
"","image-keyboard-response","13","134060","0.0-6.0-0.2","FL","3yxnw7xt1g","1366","768","de","cz06an18","null","","","","","","","","learning/Slide3.JPG","null","","","","",""
"","html-keyboard-response","14","135226","0.0-6.0-1.2","FL","3yxnw7xt1g","1366","768","de","cz06an18","null","","","","learningBlock1","","","","That was a bim.","null","","","","",""
"","html-keyboard-response","15","136229","0.0-6.0-2.2","FL","3yxnw7xt1g","1366","768","de","cz06an18","null","","","","learningBlock1","","","","<div style=""font-size:60px;""> </div>","null","FL","learning/Slide3.JPG","That was a bim.","",""
"","image-keyboard-response","16","136414","0.0-6.0-0.3","FL","3yxnw7xt1g","1366","768","de","cz06an18","null","","","","","","","","learning/Slide4.JPG","null","","","","",""
"","html-keyboard-response","17","137583","0.0-6.0-1.3","FL","3yxnw7xt1g","1366","768","de","cz06an18","null","","","","learningBlock1","","","","That was a dep.","null","","","","",""
"","html-keyboard-response","18","138588","0.0-6.0-2.3","FL","3yxnw7xt1g","1366","768","de","cz06an18","null","","","","learningBlock1","","","","<div style=""font-size:60px;""> </div>","null","FL","learning/Slide4.JPG","That was a dep.","",""
"","image-keyboard-response","19","138772","0.0-6.0-0.4","FL","3yxnw7xt1g","1366","768","de","cz06an18","null","","","","","","","","learning/Slide5.JPG","null","","","","",""
"","html-keyboard-response","20","139938","0.0-6.0-1.4","FL","3yxnw7xt1g","1366","768","de","cz06an18","null","","","","learningBlock1","","","","That was a wug.","null","","","","",""
"","html-keyboard-response","21","140941","0.0-6.0-2.4","FL","3yxnw7xt1g","1366","768","de","cz06an18","null","","","","learningBlock1","","","","<div style=""font-size:60px;""> </div>","null","FL","learning/Slide5.JPG","That was a wug.","",""
"","image-keyboard-response","22","141139","0.0-6.0-0.5","FL","3yxnw7xt1g","1366","768","de","cz06an18","null","","","","","","","","learning/Slide6.JPG","null","","","","",""
"","html-keyboard-response","23","142298","0.0-6.0-1.5","FL","3yxnw7xt1g","1366","768","de","cz06an18","null","","","","learningBlock1","","","","That was a dep.","null","","","","",""
"","html-keyboard-response","24","143301","0.0-6.0-2.5","FL","3yxnw7xt1g","1366","768","de","cz06an18","null","","","","learningBlock1","","","","<div style=""font-size:60px;""> </div>","null","FL","learning/Slide6.JPG","That was a dep.","",""
"","image-keyboard-response","25","143478","0.0-6.0-0.6","FL","3yxnw7xt1g","1366","768","de","cz06an18","null","","","","","","","","learning/Slide7.JPG","null","","","","",""
"","html-keyboard-response","26","144640","0.0-6.0-1.6","FL","3yxnw7xt1g","1366","768","de","cz06an18","null","","","","learningBlock1","","","","That was a wug.","null","","","","",""
"","html-keyboard-response","27","145658","0.0-6.0-2.6","FL","3yxnw7xt1g","1366","768","de","cz06an18","null","","","","learningBlock1","","","","<div style=""font-size:60px;""> </div>","null","FL","learning/Slide7.JPG","That was a wug.","",""
"","image-keyboard-response","28","145836","0.0-6.0-0.7","FL","3yxnw7xt1g","1366","768","de","cz06an18","null","","","","","","","","learning/Slide8.JPG","null","","","","",""
"","html-keyboard-response","29","146993","0.0-6.0-1.7","FL","3yxnw7xt1g","1366","768","de","cz06an18","null","","","","learningBlock1","","","","That was a bim.","null","","","","",""
"","html-keyboard-response","30","147996","0.0-6.0-2.7","FL","3yxnw7xt1g","1366","768","de","cz06an18","null","","","","learningBlock1","","","","<div style=""font-size:60px;""> </div>","null","FL","learning/Slide8.JPG","That was a bim.","",""
"","image-keyboard-response","31","148181","0.0-6.0-0.8","FL","3yxnw7xt1g","1366","768","de","cz06an18","null","","","","","","","","learning/Slide9.JPG","null","","","","",""
"","html-keyboard-response","32","149344","0.0-6.0-1.8","FL","3yxnw7xt1g","1366","768","de","cz06an18","null","","","","learningBlock1","","","","That was a wug.","null","","","","",""
"","html-keyboard-response","33","150347","0.0-6.0-2.8","FL","3yxnw7xt1g","1366","768","de","cz06an18","null","","","","learningBlock1","","","","<div style=""font-size:60px;""> </div>","null","FL","learning/Slide9.JPG","That was a wug.","",""
"","image-keyboard-response","34","150533","0.0-6.0-0.9","FL","3yxnw7xt1g","1366","768","de","cz06an18","null","","","","","","","","learning/Slide10.JPG","null","","","","",""
"","html-keyboard-response","35","151687","0.0-6.0-1.9","FL","3yxnw7xt1g","1366","768","de","cz06an18","null","","","","learningBlock1","","","","That was a dep.","null","","","","",""
"","html-keyboard-response","36","152689","0.0-6.0-2.9","FL","3yxnw7xt1g","1366","768","de","cz06an18","null","","","","learningBlock1","","","","<div style=""font-size:60px;""> </div>","null","FL","learning/Slide10.JPG","That was a dep.","",""
"","image-keyboard-response","37","152868","0.0-6.0-0.10","FL","3yxnw7xt1g","1366","768","de","cz06an18","null","","","","","","","","learning/Slide11.JPG","null","","","","",""
"","html-keyboard-response","38","154023","0.0-6.0-1.10","FL","3yxnw7xt1g","1366","768","de","cz06an18","null","","","","learningBlock1","","","","That was a tob.","null","","","","",""
"","html-keyboard-response","39","155026","0.0-6.0-2.10","FL","3yxnw7xt1g","1366","768","de","cz06an18","null","","","","learningBlock1","","","","<div style=""font-size:60px;""> </div>","null","FL","learning/Slide11.JPG","That was a tob.","",""
"","image-keyboard-response","40","155210","0.0-6.0-0.11","FL","3yxnw7xt1g","1366","768","de","cz06an18","null","","","","","","","","learning/Slide12.JPG","null","","","","",""
"","html-keyboard-response","41","156369","0.0-6.0-1.11","FL","3yxnw7xt1g","1366","768","de","cz06an18","null","","","","learningBlock1","","","","That was a dep.","null","","","","",""
"","html-keyboard-response","42","157371","0.0-6.0-2.11","FL","3yxnw7xt1g","1366","768","de","cz06an18","null","","","","learningBlock1","","","","<div style=""font-size:60px;""> </div>","null","FL","learning/Slide12.JPG","That was a dep.","",""
"","image-keyboard-response","43","157560","0.0-6.0-0.12","FL","3yxnw7xt1g","1366","768","de","cz06an18","null","","","","","","","","learning/Slide13.JPG","null","","","","",""
"","html-keyboard-response","44","158732","0.0-6.0-1.12","FL","3yxnw7xt1g","1366","768","de","cz06an18","null","","","","learningBlock1","","","","That was a bim.","null","","","","",""
"","html-keyboard-response","45","159733","0.0-6.0-2.12","FL","3yxnw7xt1g","1366","768","de","cz06an18","null","","","","learningBlock1","","","","<div style=""font-size:60px;""> </div>","null","FL","learning/Slide13.JPG","That was a bim.","",""
"","image-keyboard-response","46","159918","0.0-6.0-0.13","FL","3yxnw7xt1g","1366","768","de","cz06an18","null","","","","","","","","learning/Slide14.JPG","null","","","","",""
"","html-keyboard-response","47","161090","0.0-6.0-1.13","FL","3yxnw7xt1g","1366","768","de","cz06an18","null","","","","learningBlock1","","","","That was a wug.","null","","","","",""
"","html-keyboard-response","48","162093","0.0-6.0-2.13","FL","3yxnw7xt1g","1366","768","de","cz06an18","null","","","","learningBlock1","","","","<div style=""font-size:60px;""> </div>","null","FL","learning/Slide14.JPG","That was a wug.","",""
"","image-keyboard-response","49","162271","0.0-6.0-0.14","FL","3yxnw7xt1g","1366","768","de","cz06an18","null","","","","","","","","learning/Slide15.JPG","null","","","","",""
"","html-keyboard-response","50","163428","0.0-6.0-1.14","FL","3yxnw7xt1g","1366","768","de","cz06an18","null","","","","learningBlock1","","","","That was a tob.","null","","","","",""
"","html-keyboard-response","51","164431","0.0-6.0-2.14","FL","3yxnw7xt1g","1366","768","de","cz06an18","null","","","","learningBlock1","","","","<div style=""font-size:60px;""> </div>","null","FL","learning/Slide15.JPG","That was a tob.","",""
"","image-keyboard-response","52","164613","0.0-6.0-0.15","FL","3yxnw7xt1g","1366","768","de","cz06an18","null","","","","","","","","learning/Slide16.JPG","null","","","","",""
"","html-keyboard-response","53","165799","0.0-6.0-1.15","FL","3yxnw7xt1g","1366","768","de","cz06an18","null","","","","learningBlock1","","","","That was a dep.","null","","","","",""
"","html-keyboard-response","54","166801","0.0-6.0-2.15","FL","3yxnw7xt1g","1366","768","de","cz06an18","null","","","","learningBlock1","","","","<div style=""font-size:60px;""> </div>","null","FL","learning/Slide16.JPG","That was a dep.","",""
"","image-keyboard-response","55","166979","0.0-6.0-0.16","FL","3yxnw7xt1g","1366","768","de","cz06an18","null","","","","","","","","learning/Slide17.JPG","null","","","","",""
"","html-keyboard-response","56","168135","0.0-6.0-1.16","FL","3yxnw7xt1g","1366","768","de","cz06an18","null","","","","learningBlock1","","","","That was a bim.","null","","","","",""
"","html-keyboard-response","57","169138","0.0-6.0-2.16","FL","3yxnw7xt1g","1366","768","de","cz06an18","null","","","","learningBlock1","","","","<div style=""font-size:60px;""> </div>","null","FL","learning/Slide17.JPG","That was a bim.","",""
"","image-keyboard-response","58","169317","0.0-6.0-0.17","FL","3yxnw7xt1g","1366","768","de","cz06an18","null","","","","","","","","learning/Slide18.JPG","null","","","","",""
"","html-keyboard-response","59","170489","0.0-6.0-1.17","FL","3yxnw7xt1g","1366","768","de","cz06an18","null","","","","learningBlock1","","","","That was a tob.","null","","","","",""
"","html-keyboard-response","60","171493","0.0-6.0-2.17","FL","3yxnw7xt1g","1366","768","de","cz06an18","null","","","","learningBlock1","","","","<div style=""font-size:60px;""> </div>","null","FL","learning/Slide18.JPG","That was a tob.","",""
"","image-keyboard-response","61","171673","0.0-6.0-0.18","FL","3yxnw7xt1g","1366","768","de","cz06an18","null","","","","","","","","learning/Slide19.JPG","null","","","","",""
"","html-keyboard-response","62","172829","0.0-6.0-1.18","FL","3yxnw7xt1g","1366","768","de","cz06an18","null","","","","learningBlock1","","","","That was a wug.","null","","","","",""
"","html-keyboard-response","63","173846","0.0-6.0-2.18","FL","3yxnw7xt1g","1366","768","de","cz06an18","null","","","","learningBlock1","","","","<div style=""font-size:60px;""> </div>","null","FL","learning/Slide19.JPG","That was a wug.","",""
"","image-keyboard-response","64","174030","0.0-6.0-0.19","FL","3yxnw7xt1g","1366","768","de","cz06an18","null","","","","","","","","learning/Slide20.JPG","null","","","","",""
"","html-keyboard-response","65","175195","0.0-6.0-1.19","FL","3yxnw7xt1g","1366","768","de","cz06an18","null","","","","learningBlock1","","","","That was a bim.","null","","","","",""
"","html-keyboard-response","66","176199","0.0-6.0-2.19","FL","3yxnw7xt1g","1366","768","de","cz06an18","null","","","","learningBlock1","","","","<div style=""font-size:60px;""> </div>","null","FL","learning/Slide20.JPG","That was a bim.","",""
"","image-keyboard-response","67","176375","0.0-6.0-0.20","FL","3yxnw7xt1g","1366","768","de","cz06an18","null","","","","","","","","learning/Slide21.JPG","null","","","","",""
"","html-keyboard-response","68","177539","0.0-6.0-1.20","FL","3yxnw7xt1g","1366","768","de","cz06an18","null","","","","learningBlock1","","","","That was a dep.","null","","","","",""
"","html-keyboard-response","69","178559","0.0-6.0-2.20","FL","3yxnw7xt1g","1366","768","de","cz06an18","null","","","","learningBlock1","","","","<div style=""font-size:60px;""> </div>","null","FL","learning/Slide21.JPG","That was a dep.","",""
"","image-keyboard-response","70","178741","0.0-6.0-0.21","FL","3yxnw7xt1g","1366","768","de","cz06an18","null","","","","","","","","learning/Slide22.JPG","null","","","","",""
"","html-keyboard-response","71","179906","0.0-6.0-1.21","FL","3yxnw7xt1g","1366","768","de","cz06an18","null","","","","learningBlock1","","","","That was a bim.","null","","","","",""
"","html-keyboard-response","72","180907","0.0-6.0-2.21","FL","3yxnw7xt1g","1366","768","de","cz06an18","null","","","","learningBlock1","","","","<div style=""font-size:60px;""> </div>","null","FL","learning/Slide22.JPG","That was a bim.","",""
"","image-keyboard-response","73","181092","0.0-6.0-0.22","FL","3yxnw7xt1g","1366","768","de","cz06an18","null","","","","","","","","learning/Slide23.JPG","null","","","","",""
"","html-keyboard-response","74","182249","0.0-6.0-1.22","FL","3yxnw7xt1g","1366","768","de","cz06an18","null","","","","learningBlock1","","","","That was a tob.","null","","","","",""
"","html-keyboard-response","75","183253","0.0-6.0-2.22","FL","3yxnw7xt1g","1366","768","de","cz06an18","null","","","","learningBlock1","","","","<div style=""font-size:60px;""> </div>","null","FL","learning/Slide23.JPG","That was a tob.","",""
"","image-keyboard-response","76","183437","0.0-6.0-0.23","FL","3yxnw7xt1g","1366","768","de","cz06an18","null","","","","","","","","learning/Slide24.JPG","null","","","","",""
"","html-keyboard-response","77","184602","0.0-6.0-1.23","FL","3yxnw7xt1g","1366","768","de","cz06an18","null","","","","learningBlock1","","","","That was a wug.","null","","","","",""
"","html-keyboard-response","78","185605","0.0-6.0-2.23","FL","3yxnw7xt1g","1366","768","de","cz06an18","null","","","","learningBlock1","","","","<div style=""font-size:60px;""> </div>","null","FL","learning/Slide24.JPG","That was a wug.","",""
"","image-keyboard-response","79","185788","0.0-6.0-0.24","FL","3yxnw7xt1g","1366","768","de","cz06an18","null","","","","","","","","learning/Slide25.JPG","null","","","","",""
"","html-keyboard-response","80","186944","0.0-6.0-1.24","FL","3yxnw7xt1g","1366","768","de","cz06an18","null","","","","learningBlock1","","","","That was a dep.","null","","","","",""
"","html-keyboard-response","81","187945","0.0-6.0-2.24","FL","3yxnw7xt1g","1366","768","de","cz06an18","null","","","","learningBlock1","","","","<div style=""font-size:60px;""> </div>","null","FL","learning/Slide25.JPG","That was a dep.","",""
"","image-keyboard-response","82","188123","0.0-6.0-0.25","FL","3yxnw7xt1g","1366","768","de","cz06an18","null","","","","","","","","learning/Slide26.JPG","null","","","","",""
"","html-keyboard-response","83","189279","0.0-6.0-1.25","FL","3yxnw7xt1g","1366","768","de","cz06an18","null","","","","learningBlock1","","","","That was a wug.","null","","","","",""
"","html-keyboard-response","84","190282","0.0-6.0-2.25","FL","3yxnw7xt1g","1366","768","de","cz06an18","null","","","","learningBlock1","","","","<div style=""font-size:60px;""> </div>","null","FL","learning/Slide26.JPG","That was a wug.","",""
"","image-keyboard-response","85","190467","0.0-6.0-0.26","FL","3yxnw7xt1g","1366","768","de","cz06an18","null","","","","","","","","learning/Slide27.JPG","null","","","","",""
"","html-keyboard-response","86","191632","0.0-6.0-1.26","FL","3yxnw7xt1g","1366","768","de","cz06an18","null","","","","learningBlock1","","","","That was a bim.","null","","","","",""
"","html-keyboard-response","87","192637","0.0-6.0-2.26","FL","3yxnw7xt1g","1366","768","de","cz06an18","null","","","","learningBlock1","","","","<div style=""font-size:60px;""> </div>","null","FL","learning/Slide27.JPG","That was a bim.","",""
"","image-keyboard-response","88","192820","0.0-6.0-0.27","FL","3yxnw7xt1g","1366","768","de","cz06an18","null","","","","","","","","learning/Slide28.JPG","null","","","","",""
"","html-keyboard-response","89","193975","0.0-6.0-1.27","FL","3yxnw7xt1g","1366","768","de","cz06an18","null","","","","learningBlock1","","","","That was a dep.","null","","","","",""
"","html-keyboard-response","90","194977","0.0-6.0-2.27","FL","3yxnw7xt1g","1366","768","de","cz06an18","null","","","","learningBlock1","","","","<div style=""font-size:60px;""> </div>","null","FL","learning/Slide28.JPG","That was a dep.","",""
"","image-keyboard-response","91","195162","0.0-6.0-0.28","FL","3yxnw7xt1g","1366","768","de","cz06an18","null","","","","","","","","learning/Slide29.JPG","null","","","","",""
"","html-keyboard-response","92","196327","0.0-6.0-1.28","FL","3yxnw7xt1g","1366","768","de","cz06an18","null","","","","learningBlock1","","","","That was a tob.","null","","","","",""
"","html-keyboard-response","93","197331","0.0-6.0-2.28","FL","3yxnw7xt1g","1366","768","de","cz06an18","null","","","","learningBlock1","","","","<div style=""font-size:60px;""> </div>","null","FL","learning/Slide29.JPG","That was a tob.","",""
"","image-keyboard-response","94","197516","0.0-6.0-0.29","FL","3yxnw7xt1g","1366","768","de","cz06an18","null","","","","","","","","learning/Slide30.JPG","null","","","","",""
"","html-keyboard-response","95","198672","0.0-6.0-1.29","FL","3yxnw7xt1g","1366","768","de","cz06an18","null","","","","learningBlock1","","","","That was a dep.","null","","","","",""
"","html-keyboard-response","96","199674","0.0-6.0-2.29","FL","3yxnw7xt1g","1366","768","de","cz06an18","null","","","","learningBlock1","","","","<div style=""font-size:60px;""> </div>","null","FL","learning/Slide30.JPG","That was a dep.","",""
"","image-keyboard-response","97","199852","0.0-6.0-0.30","FL","3yxnw7xt1g","1366","768","de","cz06an18","null","","","","","","","","learning/Slide31.JPG","null","","","","",""
"","html-keyboard-response","98","201009","0.0-6.0-1.30","FL","3yxnw7xt1g","1366","768","de","cz06an18","null","","","","learningBlock1","","","","That was a wug.","null","","","","",""
"","html-keyboard-response","99","202011","0.0-6.0-2.30","FL","3yxnw7xt1g","1366","768","de","cz06an18","null","","","","learningBlock1","","","","<div style=""font-size:60px;""> </div>","null","FL","learning/Slide31.JPG","That was a wug.","",""
"","image-keyboard-response","100","202195","0.0-6.0-0.31","FL","3yxnw7xt1g","1366","768","de","cz06an18","null","","","","","","","","learning/Slide32.JPG","null","","","","",""
"","html-keyboard-response","101","203362","0.0-6.0-1.31","FL","3yxnw7xt1g","1366","768","de","cz06an18","null","","","","learningBlock1","","","","That was a tob.","null","","","","",""
"","html-keyboard-response","102","204365","0.0-6.0-2.31","FL","3yxnw7xt1g","1366","768","de","cz06an18","null","","","","learningBlock1","","","","<div style=""font-size:60px;""> </div>","null","FL","learning/Slide32.JPG","That was a tob.","",""
"","image-keyboard-response","103","204550","0.0-6.0-0.32","FL","3yxnw7xt1g","1366","768","de","cz06an18","null","","","","","","","","learning/Slide33.JPG","null","","","","",""
"","html-keyboard-response","104","205705","0.0-6.0-1.32","FL","3yxnw7xt1g","1366","768","de","cz06an18","null","","","","learningBlock1","","","","That was a bim.","null","","","","",""
"","html-keyboard-response","105","206709","0.0-6.0-2.32","FL","3yxnw7xt1g","1366","768","de","cz06an18","null","","","","learningBlock1","","","","<div style=""font-size:60px;""> </div>","null","FL","learning/Slide33.JPG","That was a bim.","",""
"","image-keyboard-response","106","206894","0.0-6.0-0.33","FL","3yxnw7xt1g","1366","768","de","cz06an18","null","","","","","","","","learning/Slide34.JPG","null","","","","",""
"","html-keyboard-response","107","208058","0.0-6.0-1.33","FL","3yxnw7xt1g","1366","768","de","cz06an18","null","","","","learningBlock1","","","","That was a tob.","null","","","","",""
"","html-keyboard-response","108","209061","0.0-6.0-2.33","FL","3yxnw7xt1g","1366","768","de","cz06an18","null","","","","learningBlock1","","","","<div style=""font-size:60px;""> </div>","null","FL","learning/Slide34.JPG","That was a tob.","",""
"","image-keyboard-response","109","209245","0.0-6.0-0.34","FL","3yxnw7xt1g","1366","768","de","cz06an18","null","","","","","","","","learning/Slide35.JPG","null","","","","",""
"","html-keyboard-response","110","210402","0.0-6.0-1.34","FL","3yxnw7xt1g","1366","768","de","cz06an18","null","","","","learningBlock1","","","","That was a bim.","null","","","","",""
"","html-keyboard-response","111","211406","0.0-6.0-2.34","FL","3yxnw7xt1g","1366","768","de","cz06an18","null","","","","learningBlock1","","","","<div style=""font-size:60px;""> </div>","null","FL","learning/Slide35.JPG","That was a bim.","",""
"","image-keyboard-response","112","211604","0.0-6.0-0.35","FL","3yxnw7xt1g","1366","768","de","cz06an18","null","","","","","","","","learning/Slide36.JPG","null","","","","",""
"","html-keyboard-response","113","212768","0.0-6.0-1.35","FL","3yxnw7xt1g","1366","768","de","cz06an18","null","","","","learningBlock1","","","","That was a dep.","null","","","","",""
"","html-keyboard-response","114","213770","0.0-6.0-2.35","FL","3yxnw7xt1g","1366","768","de","cz06an18","null","","","","learningBlock1","","","","<div style=""font-size:60px;""> </div>","null","FL","learning/Slide36.JPG","That was a dep.","",""
"","image-keyboard-response","115","213954","0.0-6.0-0.36","FL","3yxnw7xt1g","1366","768","de","cz06an18","null","","","","","","","","learning/Slide37.JPG","null","","","","",""
"","html-keyboard-response","116","215110","0.0-6.0-1.36","FL","3yxnw7xt1g","1366","768","de","cz06an18","null","","","","learningBlock1","","","","That was a tob.","null","","","","",""
"","html-keyboard-response","117","216113","0.0-6.0-2.36","FL","3yxnw7xt1g","1366","768","de","cz06an18","null","","","","learningBlock1","","","","<div style=""font-size:60px;""> </div>","null","FL","learning/Slide37.JPG","That was a tob.","",""
"","image-keyboard-response","118","216289","0.0-6.0-0.37","FL","3yxnw7xt1g","1366","768","de","cz06an18","null","","","","","","","","learning/Slide38.JPG","null","","","","",""
"","html-keyboard-response","119","217446","0.0-6.0-1.37","FL","3yxnw7xt1g","1366","768","de","cz06an18","null","","","","learningBlock1","","","","That was a wug.","null","","","","",""
"","html-keyboard-response","120","218459","0.0-6.0-2.37","FL","3yxnw7xt1g","1366","768","de","cz06an18","null","","","","learningBlock1","","","","<div style=""font-size:60px;""> </div>","null","FL","learning/Slide38.JPG","That was a wug.","",""
"","image-keyboard-response","121","218648","0.0-6.0-0.38","FL","3yxnw7xt1g","1366","768","de","cz06an18","null","","","","","","","","learning/Slide39.JPG","null","","","","",""
"","html-keyboard-response","122","219821","0.0-6.0-1.38","FL","3yxnw7xt1g","1366","768","de","cz06an18","null","","","","learningBlock1","","","","That was a bim.","null","","","","",""
"","html-keyboard-response","123","220823","0.0-6.0-2.38","FL","3yxnw7xt1g","1366","768","de","cz06an18","null","","","","learningBlock1","","","","<div style=""font-size:60px;""> </div>","null","FL","learning/Slide39.JPG","That was a bim.","",""
"","image-keyboard-response","124","221001","0.0-6.0-0.39","FL","3yxnw7xt1g","1366","768","de","cz06an18","null","","","","","","","","learning/Slide40.JPG","null","","","","",""
"","html-keyboard-response","125","222156","0.0-6.0-1.39","FL","3yxnw7xt1g","1366","768","de","cz06an18","null","","","","learningBlock1","","","","That was a tob.","null","","","","",""
"","html-keyboard-response","126","223173","0.0-6.0-2.39","FL","3yxnw7xt1g","1366","768","de","cz06an18","null","","","","learningBlock1","","","","<div style=""font-size:60px;""> </div>","null","FL","learning/Slide40.JPG","That was a tob.","",""
"","image-keyboard-response","127","223359","0.0-6.0-0.40","FL","3yxnw7xt1g","1366","768","de","cz06an18","null","","","","","","","","learning/Slide41.JPG","null","","","","",""
"","html-keyboard-response","128","224529","0.0-6.0-1.40","FL","3yxnw7xt1g","1366","768","de","cz06an18","null","","","","learningBlock1","","","","That was a bim.","null","","","","",""
"","html-keyboard-response","129","225532","0.0-6.0-2.40","FL","3yxnw7xt1g","1366","768","de","cz06an18","null","","","","learningBlock1","","","","<div style=""font-size:60px;""> </div>","null","FL","learning/Slide41.JPG","That was a bim.","",""
"","image-keyboard-response","130","225710","0.0-6.0-0.41","FL","3yxnw7xt1g","1366","768","de","cz06an18","null","","","","","","","","learning/Slide42.JPG","null","","","","",""
"","html-keyboard-response","131","226865","0.0-6.0-1.41","FL","3yxnw7xt1g","1366","768","de","cz06an18","null","","","","learningBlock1","","","","That was a dep.","null","","","","",""
"","html-keyboard-response","132","227866","0.0-6.0-2.41","FL","3yxnw7xt1g","1366","768","de","cz06an18","null","","","","learningBlock1","","","","<div style=""font-size:60px;""> </div>","null","FL","learning/Slide42.JPG","That was a dep.","",""
"","image-keyboard-response","133","228051","0.0-6.0-0.42","FL","3yxnw7xt1g","1366","768","de","cz06an18","null","","","","","","","","learning/Slide43.JPG","null","","","","",""
"","html-keyboard-response","134","229215","0.0-6.0-1.42","FL","3yxnw7xt1g","1366","768","de","cz06an18","null","","","","learningBlock1","","","","That was a wug.","null","","","","",""
"","html-keyboard-response","135","230219","0.0-6.0-2.42","FL","3yxnw7xt1g","1366","768","de","cz06an18","null","","","","learningBlock1","","","","<div style=""font-size:60px;""> </div>","null","FL","learning/Slide43.JPG","That was a wug.","",""
"","image-keyboard-response","136","230406","0.0-6.0-0.43","FL","3yxnw7xt1g","1366","768","de","cz06an18","null","","","","","","","","learning/Slide44.JPG","null","","","","",""
"","html-keyboard-response","137","231560","0.0-6.0-1.43","FL","3yxnw7xt1g","1366","768","de","cz06an18","null","","","","learningBlock1","","","","That was a bim.","null","","","","",""
"","html-keyboard-response","138","232562","0.0-6.0-2.43","FL","3yxnw7xt1g","1366","768","de","cz06an18","null","","","","learningBlock1","","","","<div style=""font-size:60px;""> </div>","null","FL","learning/Slide44.JPG","That was a bim.","",""
"","image-keyboard-response","139","232747","0.0-6.0-0.44","FL","3yxnw7xt1g","1366","768","de","cz06an18","null","","","","","","","","learning/Slide45.JPG","null","","","","",""
"","html-keyboard-response","140","233911","0.0-6.0-1.44","FL","3yxnw7xt1g","1366","768","de","cz06an18","null","","","","learningBlock1","","","","That was a wug.","null","","","","",""
"","html-keyboard-response","141","234913","0.0-6.0-2.44","FL","3yxnw7xt1g","1366","768","de","cz06an18","null","","","","learningBlock1","","","","<div style=""font-size:60px;""> </div>","null","FL","learning/Slide45.JPG","That was a wug.","",""
"","image-keyboard-response","142","235098","0.0-6.0-0.45","FL","3yxnw7xt1g","1366","768","de","cz06an18","null","","","","","","","","learning/Slide46.JPG","null","","","","",""
"","html-keyboard-response","143","236255","0.0-6.0-1.45","FL","3yxnw7xt1g","1366","768","de","cz06an18","null","","","","learningBlock1","","","","That was a dep.","null","","","","",""
"","html-keyboard-response","144","237257","0.0-6.0-2.45","FL","3yxnw7xt1g","1366","768","de","cz06an18","null","","","","learningBlock1","","","","<div style=""font-size:60px;""> </div>","null","FL","learning/Slide46.JPG","That was a dep.","",""
"","image-keyboard-response","145","237436","0.0-6.0-0.46","FL","3yxnw7xt1g","1366","768","de","cz06an18","null","","","","","","","","learning/Slide47.JPG","null","","","","",""
"","html-keyboard-response","146","238591","0.0-6.0-1.46","FL","3yxnw7xt1g","1366","768","de","cz06an18","null","","","","learningBlock1","","","","That was a tob.","null","","","","",""
"","html-keyboard-response","147","239594","0.0-6.0-2.46","FL","3yxnw7xt1g","1366","768","de","cz06an18","null","","","","learningBlock1","","","","<div style=""font-size:60px;""> </div>","null","FL","learning/Slide47.JPG","That was a tob.","",""
"","image-keyboard-response","148","239778","0.0-6.0-0.47","FL","3yxnw7xt1g","1366","768","de","cz06an18","null","","","","","","","","learning/Slide48.JPG","null","","","","",""
"","html-keyboard-response","149","240942","0.0-6.0-1.47","FL","3yxnw7xt1g","1366","768","de","cz06an18","null","","","","learningBlock1","","","","That was a bim.","null","","","","",""
"","html-keyboard-response","150","241945","0.0-6.0-2.47","FL","3yxnw7xt1g","1366","768","de","cz06an18","null","","","","learningBlock1","","","","<div style=""font-size:60px;""> </div>","null","FL","learning/Slide48.JPG","That was a bim.","",""
"","image-keyboard-response","151","242130","0.0-6.0-0.48","FL","3yxnw7xt1g","1366","768","de","cz06an18","null","","","","","","","","learning/Slide49.JPG","null","","","","",""
"","html-keyboard-response","152","243285","0.0-6.0-1.48","FL","3yxnw7xt1g","1366","768","de","cz06an18","null","","","","learningBlock1","","","","That was a dep.","null","","","","",""
"","html-keyboard-response","153","244287","0.0-6.0-2.48","FL","3yxnw7xt1g","1366","768","de","cz06an18","null","","","","learningBlock1","","","","<div style=""font-size:60px;""> </div>","null","FL","learning/Slide49.JPG","That was a dep.","",""
"","image-keyboard-response","154","244472","0.0-6.0-0.49","FL","3yxnw7xt1g","1366","768","de","cz06an18","null","","","","","","","","learning/Slide50.JPG","null","","","","",""
"","html-keyboard-response","155","245637","0.0-6.0-1.49","FL","3yxnw7xt1g","1366","768","de","cz06an18","null","","","","learningBlock1","","","","That was a tob.","null","","","","",""
"","html-keyboard-response","156","246640","0.0-6.0-2.49","FL","3yxnw7xt1g","1366","768","de","cz06an18","null","","","","learningBlock1","","","","<div style=""font-size:60px;""> </div>","null","FL","learning/Slide50.JPG","That was a tob.","",""
"","image-keyboard-response","157","246824","0.0-6.0-0.50","FL","3yxnw7xt1g","1366","768","de","cz06an18","null","","","","","","","","learning/Slide51.JPG","null","","","","",""
"","html-keyboard-response","158","247980","0.0-6.0-1.50","FL","3yxnw7xt1g","1366","768","de","cz06an18","null","","","","learningBlock1","","","","That was a bim.","null","","","","",""
"","html-keyboard-response","159","248982","0.0-6.0-2.50","FL","3yxnw7xt1g","1366","768","de","cz06an18","null","","","","learningBlock1","","","","<div style=""font-size:60px;""> </div>","null","FL","learning/Slide51.JPG","That was a bim.","",""
"","image-keyboard-response","160","249160","0.0-6.0-0.51","FL","3yxnw7xt1g","1366","768","de","cz06an18","null","","","","","","","","learning/Slide52.JPG","null","","","","",""
"","html-keyboard-response","161","250315","0.0-6.0-1.51","FL","3yxnw7xt1g","1366","768","de","cz06an18","null","","","","learningBlock1","","","","That was a wug.","null","","","","",""
"","html-keyboard-response","162","251318","0.0-6.0-2.51","FL","3yxnw7xt1g","1366","768","de","cz06an18","null","","","","learningBlock1","","","","<div style=""font-size:60px;""> </div>","null","FL","learning/Slide52.JPG","That was a wug.","",""
"","image-keyboard-response","163","251502","0.0-6.0-0.52","FL","3yxnw7xt1g","1366","768","de","cz06an18","null","","","","","","","","learning/Slide53.JPG","null","","","","",""
"","html-keyboard-response","164","252667","0.0-6.0-1.52","FL","3yxnw7xt1g","1366","768","de","cz06an18","null","","","","learningBlock1","","","","That was a tob.","null","","","","",""
"","html-keyboard-response","165","253671","0.0-6.0-2.52","FL","3yxnw7xt1g","1366","768","de","cz06an18","null","","","","learningBlock1","","","","<div style=""font-size:60px;""> </div>","null","FL","learning/Slide53.JPG","That was a tob.","",""
"","image-keyboard-response","166","253856","0.0-6.0-0.53","FL","3yxnw7xt1g","1366","768","de","cz06an18","null","","","","","","","","learning/Slide54.JPG","null","","","","",""
"","html-keyboard-response","167","255010","0.0-6.0-1.53","FL","3yxnw7xt1g","1366","768","de","cz06an18","null","","","","learningBlock1","","","","That was a dep.","null","","","","",""
"","html-keyboard-response","168","256013","0.0-6.0-2.53","FL","3yxnw7xt1g","1366","768","de","cz06an18","null","","","","learningBlock1","","","","<div style=""font-size:60px;""> </div>","null","FL","learning/Slide54.JPG","That was a dep.","",""
"","image-keyboard-response","169","256198","0.0-6.0-0.54","FL","3yxnw7xt1g","1366","768","de","cz06an18","null","","","","","","","","learning/Slide55.JPG","null","","","","",""
"","html-keyboard-response","170","257356","0.0-6.0-1.54","FL","3yxnw7xt1g","1366","768","de","cz06an18","null","","","","learningBlock1","","","","That was a bim.","null","","","","",""
"","html-keyboard-response","171","258364","0.0-6.0-2.54","FL","3yxnw7xt1g","1366","768","de","cz06an18","null","","","","learningBlock1","","","","<div style=""font-size:60px;""> </div>","null","FL","learning/Slide55.JPG","That was a bim.","",""
"","image-keyboard-response","172","258548","0.0-6.0-0.55","FL","3yxnw7xt1g","1366","768","de","cz06an18","null","","","","","","","","learning/Slide56.JPG","null","","","","",""
"","html-keyboard-response","173","259705","0.0-6.0-1.55","FL","3yxnw7xt1g","1366","768","de","cz06an18","null","","","","learningBlock1","","","","That was a tob.","null","","","","",""
"","html-keyboard-response","174","260708","0.0-6.0-2.55","FL","3yxnw7xt1g","1366","768","de","cz06an18","null","","","","learningBlock1","","","","<div style=""font-size:60px;""> </div>","null","FL","learning/Slide56.JPG","That was a tob.","",""
"","image-keyboard-response","175","260886","0.0-6.0-0.56","FL","3yxnw7xt1g","1366","768","de","cz06an18","null","","","","","","","","learning/Slide57.JPG","null","","","","",""
"","html-keyboard-response","176","262041","0.0-6.0-1.56","FL","3yxnw7xt1g","1366","768","de","cz06an18","null","","","","learningBlock1","","","","That was a dep.","null","","","","",""
"","html-keyboard-response","177","263042","0.0-6.0-2.56","FL","3yxnw7xt1g","1366","768","de","cz06an18","null","","","","learningBlock1","","","","<div style=""font-size:60px;""> </div>","null","FL","learning/Slide57.JPG","That was a dep.","",""
"","image-keyboard-response","178","263227","0.0-6.0-0.57","FL","3yxnw7xt1g","1366","768","de","cz06an18","null","","","","","","","","learning/Slide58.JPG","null","","","","",""
"","html-keyboard-response","179","264385","0.0-6.0-1.57","FL","3yxnw7xt1g","1366","768","de","cz06an18","null","","","","learningBlock1","","","","That was a wug.","null","","","","",""
"","html-keyboard-response","180","265393","0.0-6.0-2.57","FL","3yxnw7xt1g","1366","768","de","cz06an18","null","","","","learningBlock1","","","","<div style=""font-size:60px;""> </div>","null","FL","learning/Slide58.JPG","That was a wug.","",""
"","image-keyboard-response","181","265577","0.0-6.0-0.58","FL","3yxnw7xt1g","1366","768","de","cz06an18","null","","","","","","","","learning/Slide59.JPG","null","","","","",""
"","html-keyboard-response","182","266736","0.0-6.0-1.58","FL","3yxnw7xt1g","1366","768","de","cz06an18","null","","","","learningBlock1","","","","That was a dep.","null","","","","",""
"","html-keyboard-response","183","267739","0.0-6.0-2.58","FL","3yxnw7xt1g","1366","768","de","cz06an18","null","","","","learningBlock1","","","","<div style=""font-size:60px;""> </div>","null","FL","learning/Slide59.JPG","That was a dep.","",""
"","image-keyboard-response","184","267924","0.0-6.0-0.59","FL","3yxnw7xt1g","1366","768","de","cz06an18","null","","","","","","","","learning/Slide60.JPG","null","","","","",""
"","html-keyboard-response","185","269079","0.0-6.0-1.59","FL","3yxnw7xt1g","1366","768","de","cz06an18","null","","","","learningBlock1","","","","That was a wug.","null","","","","",""
"","html-keyboard-response","186","270081","0.0-6.0-2.59","FL","3yxnw7xt1g","1366","768","de","cz06an18","null","","","","learningBlock1","","","","<div style=""font-size:60px;""> </div>","null","FL","learning/Slide60.JPG","That was a wug.","",""
"","image-keyboard-response","187","270265","0.0-6.0-0.60","FL","3yxnw7xt1g","1366","768","de","cz06an18","null","","","","","","","","learning/Slide61.JPG","null","","","","",""
"","html-keyboard-response","188","271425","0.0-6.0-1.60","FL","3yxnw7xt1g","1366","768","de","cz06an18","null","","","","learningBlock1","","","","That was a bim.","null","","","","",""
"","html-keyboard-response","189","272433","0.0-6.0-2.60","FL","3yxnw7xt1g","1366","768","de","cz06an18","null","","","","learningBlock1","","","","<div style=""font-size:60px;""> </div>","null","FL","learning/Slide61.JPG","That was a bim.","",""
"","image-keyboard-response","190","272617","0.0-6.0-0.61","FL","3yxnw7xt1g","1366","768","de","cz06an18","null","","","","","","","","learning/Slide62.JPG","null","","","","",""
"","html-keyboard-response","191","273773","0.0-6.0-1.61","FL","3yxnw7xt1g","1366","768","de","cz06an18","null","","","","learningBlock1","","","","That was a dep.","null","","","","",""
"","html-keyboard-response","192","274776","0.0-6.0-2.61","FL","3yxnw7xt1g","1366","768","de","cz06an18","null","","","","learningBlock1","","","","<div style=""font-size:60px;""> </div>","null","FL","learning/Slide62.JPG","That was a dep.","",""
"","image-keyboard-response","193","274954","0.0-6.0-0.62","FL","3yxnw7xt1g","1366","768","de","cz06an18","null","","","","","","","","learning/Slide63.JPG","null","","","","",""
"","html-keyboard-response","194","276108","0.0-6.0-1.62","FL","3yxnw7xt1g","1366","768","de","cz06an18","null","","","","learningBlock1","","","","That was a bim.","null","","","","",""
"","html-keyboard-response","195","277110","0.0-6.0-2.62","FL","3yxnw7xt1g","1366","768","de","cz06an18","null","","","","learningBlock1","","","","<div style=""font-size:60px;""> </div>","null","FL","learning/Slide63.JPG","That was a bim.","",""
"","image-keyboard-response","196","277295","0.0-6.0-0.63","FL","3yxnw7xt1g","1366","768","de","cz06an18","null","","","","","","","","learning/Slide64.JPG","null","","","","",""
"","html-keyboard-response","197","278452","0.0-6.0-1.63","FL","3yxnw7xt1g","1366","768","de","cz06an18","null","","","","learningBlock1","","","","That was a tob.","null","","","","",""
"","html-keyboard-response","198","279462","0.0-6.0-2.63","FL","3yxnw7xt1g","1366","768","de","cz06an18","null","","","","learningBlock1","","","","<div style=""font-size:60px;""> </div>","null","FL","learning/Slide64.JPG","That was a tob.","",""
"","image-keyboard-response","199","279646","0.0-6.0-0.64","FL","3yxnw7xt1g","1366","768","de","cz06an18","null","","","","","","","","learning/Slide65.JPG","null","","","","",""
"","html-keyboard-response","200","280802","0.0-6.0-1.64","FL","3yxnw7xt1g","1366","768","de","cz06an18","null","","","","learningBlock1","","","","That was a wug.","null","","","","",""
"","html-keyboard-response","201","281805","0.0-6.0-2.64","FL","3yxnw7xt1g","1366","768","de","cz06an18","null","","","","learningBlock1","","","","<div style=""font-size:60px;""> </div>","null","FL","learning/Slide65.JPG","That was a wug.","",""
"","image-keyboard-response","202","281989","0.0-6.0-0.65","FL","3yxnw7xt1g","1366","768","de","cz06an18","null","","","","","","","","learning/Slide66.JPG","null","","","","",""
"","html-keyboard-response","203","283154","0.0-6.0-1.65","FL","3yxnw7xt1g","1366","768","de","cz06an18","null","","","","learningBlock1","","","","That was a dep.","null","","","","",""
"","html-keyboard-response","204","284156","0.0-6.0-2.65","FL","3yxnw7xt1g","1366","768","de","cz06an18","null","","","","learningBlock1","","","","<div style=""font-size:60px;""> </div>","null","FL","learning/Slide66.JPG","That was a dep.","",""
"","image-keyboard-response","205","284332","0.0-6.0-0.66","FL","3yxnw7xt1g","1366","768","de","cz06an18","null","","","","","","","","learning/Slide67.JPG","null","","","","",""
"","html-keyboard-response","206","285495","0.0-6.0-1.66","FL","3yxnw7xt1g","1366","768","de","cz06an18","null","","","","learningBlock1","","","","That was a tob.","null","","","","",""
"","html-keyboard-response","207","286499","0.0-6.0-2.66","FL","3yxnw7xt1g","1366","768","de","cz06an18","null","","","","learningBlock1","","","","<div style=""font-size:60px;""> </div>","null","FL","learning/Slide67.JPG","That was a tob.","",""
"","image-keyboard-response","208","286677","0.0-6.0-0.67","FL","3yxnw7xt1g","1366","768","de","cz06an18","null","","","","","","","","learning/Slide68.JPG","null","","","","",""
"","html-keyboard-response","209","287833","0.0-6.0-1.67","FL","3yxnw7xt1g","1366","768","de","cz06an18","null","","","","learningBlock1","","","","That was a wug.","null","","","","",""
"","html-keyboard-response","210","288835","0.0-6.0-2.67","FL","3yxnw7xt1g","1366","768","de","cz06an18","null","","","","learningBlock1","","","","<div style=""font-size:60px;""> </div>","null","FL","learning/Slide68.JPG","That was a wug.","",""
"","image-keyboard-response","211","289020","0.0-6.0-0.68","FL","3yxnw7xt1g","1366","768","de","cz06an18","null","","","","","","","","learning/Slide69.JPG","null","","","","",""
"","html-keyboard-response","212","290191","0.0-6.0-1.68","FL","3yxnw7xt1g","1366","768","de","cz06an18","null","","","","learningBlock1","","","","That was a tob.","null","","","","",""
"","html-keyboard-response","213","291194","0.0-6.0-2.68","FL","3yxnw7xt1g","1366","768","de","cz06an18","null","","","","learningBlock1","","","","<div style=""font-size:60px;""> </div>","null","FL","learning/Slide69.JPG","That was a tob.","",""
"","image-keyboard-response","214","291371","0.0-6.0-0.69","FL","3yxnw7xt1g","1366","768","de","cz06an18","null","","","","","","","","learning/Slide70.JPG","null","","","","",""
"","html-keyboard-response","215","292529","0.0-6.0-1.69","FL","3yxnw7xt1g","1366","768","de","cz06an18","null","","","","learningBlock1","","","","That was a dep.","null","","","","",""
"","html-keyboard-response","216","293537","0.0-6.0-2.69","FL","3yxnw7xt1g","1366","768","de","cz06an18","null","","","","learningBlock1","","","","<div style=""font-size:60px;""> </div>","null","FL","learning/Slide70.JPG","That was a dep.","",""
"","image-keyboard-response","217","293715","0.0-6.0-0.70","FL","3yxnw7xt1g","1366","768","de","cz06an18","null","","","","","","","","learning/Slide71.JPG","null","","","","",""
"","html-keyboard-response","218","294870","0.0-6.0-1.70","FL","3yxnw7xt1g","1366","768","de","cz06an18","null","","","","learningBlock1","","","","That was a wug.","null","","","","",""
"","html-keyboard-response","219","295872","0.0-6.0-2.70","FL","3yxnw7xt1g","1366","768","de","cz06an18","null","","","","learningBlock1","","","","<div style=""font-size:60px;""> </div>","null","FL","learning/Slide71.JPG","That was a wug.","",""
"","image-keyboard-response","220","296057","0.0-6.0-0.71","FL","3yxnw7xt1g","1366","768","de","cz06an18","null","","","","","","","","learning/Slide72.JPG","null","","","","",""
"","html-keyboard-response","221","297222","0.0-6.0-1.71","FL","3yxnw7xt1g","1366","768","de","cz06an18","null","","","","learningBlock1","","","","That was a bim.","null","","","","",""
"","html-keyboard-response","222","298224","0.0-6.0-2.71","FL","3yxnw7xt1g","1366","768","de","cz06an18","null","","","","learningBlock1","","","","<div style=""font-size:60px;""> </div>","null","FL","learning/Slide72.JPG","That was a bim.","",""
"","image-keyboard-response","223","298410","0.0-6.0-0.72","FL","3yxnw7xt1g","1366","768","de","cz06an18","null","","","","","","","","learning/Slide73.JPG","null","","","","",""
"","html-keyboard-response","224","299575","0.0-6.0-1.72","FL","3yxnw7xt1g","1366","768","de","cz06an18","null","","","","learningBlock1","","","","That was a wug.","null","","","","",""
"","html-keyboard-response","225","300583","0.0-6.0-2.72","FL","3yxnw7xt1g","1366","768","de","cz06an18","null","","","","learningBlock1","","","","<div style=""font-size:60px;""> </div>","null","FL","learning/Slide73.JPG","That was a wug.","",""
"","image-keyboard-response","226","300768","0.0-6.0-0.73","FL","3yxnw7xt1g","1366","768","de","cz06an18","null","","","","","","","","learning/Slide74.JPG","null","","","","",""
"","html-keyboard-response","227","301934","0.0-6.0-1.73","FL","3yxnw7xt1g","1366","768","de","cz06an18","null","","","","learningBlock1","","","","That was a dep.","null","","","","",""
"","html-keyboard-response","228","302937","0.0-6.0-2.73","FL","3yxnw7xt1g","1366","768","de","cz06an18","null","","","","learningBlock1","","","","<div style=""font-size:60px;""> </div>","null","FL","learning/Slide74.JPG","That was a dep.","",""
"","image-keyboard-response","229","303121","0.0-6.0-0.74","FL","3yxnw7xt1g","1366","768","de","cz06an18","null","","","","","","","","learning/Slide75.JPG","null","","","","",""
"","html-keyboard-response","230","304278","0.0-6.0-1.74","FL","3yxnw7xt1g","1366","768","de","cz06an18","null","","","","learningBlock1","","","","That was a tob.","null","","","","",""
"","html-keyboard-response","231","305282","0.0-6.0-2.74","FL","3yxnw7xt1g","1366","768","de","cz06an18","null","","","","learningBlock1","","","","<div style=""font-size:60px;""> </div>","null","FL","learning/Slide75.JPG","That was a tob.","",""
"","image-keyboard-response","232","305466","0.0-6.0-0.75","FL","3yxnw7xt1g","1366","768","de","cz06an18","null","","","","","","","","learning/Slide76.JPG","null","","","","",""
"","html-keyboard-response","233","306641","0.0-6.0-1.75","FL","3yxnw7xt1g","1366","768","de","cz06an18","null","","","","learningBlock1","","","","That was a bim.","null","","","","",""
"","html-keyboard-response","234","307648","0.0-6.0-2.75","FL","3yxnw7xt1g","1366","768","de","cz06an18","null","","","","learningBlock1","","","","<div style=""font-size:60px;""> </div>","null","FL","learning/Slide76.JPG","That was a bim.","",""
"","image-keyboard-response","235","307833","0.0-6.0-0.76","FL","3yxnw7xt1g","1366","768","de","cz06an18","null","","","","","","","","learning/Slide77.JPG","null","","","","",""
"","html-keyboard-response","236","308990","0.0-6.0-1.76","FL","3yxnw7xt1g","1366","768","de","cz06an18","null","","","","learningBlock1","","","","That was a tob.","null","","","","",""
"","html-keyboard-response","237","309993","0.0-6.0-2.76","FL","3yxnw7xt1g","1366","768","de","cz06an18","null","","","","learningBlock1","","","","<div style=""font-size:60px;""> </div>","null","FL","learning/Slide77.JPG","That was a tob.","",""
"","image-keyboard-response","238","310178","0.0-6.0-0.77","FL","3yxnw7xt1g","1366","768","de","cz06an18","null","","","","","","","","learning/Slide78.JPG","null","","","","",""
"","html-keyboard-response","239","311343","0.0-6.0-1.77","FL","3yxnw7xt1g","1366","768","de","cz06an18","null","","","","learningBlock1","","","","That was a wug.","null","","","","",""
"","html-keyboard-response","240","312360","0.0-6.0-2.77","FL","3yxnw7xt1g","1366","768","de","cz06an18","null","","","","learningBlock1","","","","<div style=""font-size:60px;""> </div>","null","FL","learning/Slide78.JPG","That was a wug.","",""
"","image-keyboard-response","241","312536","0.0-6.0-0.78","FL","3yxnw7xt1g","1366","768","de","cz06an18","null","","","","","","","","learning/Slide79.JPG","null","","","","",""
"","html-keyboard-response","242","313702","0.0-6.0-1.78","FL","3yxnw7xt1g","1366","768","de","cz06an18","null","","","","learningBlock1","","","","That was a bim.","null","","","","",""
"","html-keyboard-response","243","314706","0.0-6.0-2.78","FL","3yxnw7xt1g","1366","768","de","cz06an18","null","","","","learningBlock1","","","","<div style=""font-size:60px;""> </div>","null","FL","learning/Slide79.JPG","That was a bim.","",""
"","image-keyboard-response","244","314891","0.0-6.0-0.79","FL","3yxnw7xt1g","1366","768","de","cz06an18","null","","","","","","","","learning/Slide80.JPG","null","","","","",""
"","html-keyboard-response","245","316056","0.0-6.0-1.79","FL","3yxnw7xt1g","1366","768","de","cz06an18","null","","","","learningBlock1","","","","That was a tob.","null","","","","",""
"","html-keyboard-response","246","317058","0.0-6.0-2.79","FL","3yxnw7xt1g","1366","768","de","cz06an18","null","","","","learningBlock1","","","","<div style=""font-size:60px;""> </div>","null","FL","learning/Slide80.JPG","That was a tob.","",""
"","instructions","247","320642","0.0-7.0","FL","3yxnw7xt1g","1366","768","de","cz06an18","NA","","","[{""page_index"":0,""viewing_time"":3583.434999920428}]","instructions","","","","","","","","","",""
"","image-keyboard-response","248","320834","0.0-8.0-0.0","FL","3yxnw7xt1g","1366","768","de","cz06an18","null","","","","","","","","learning/Slide81.JPG","null","","","","",""
"","html-keyboard-response","249","322005","0.0-8.0-1.0","FL","3yxnw7xt1g","1366","768","de","cz06an18","null","","","","learningBlock2","","","","That was a wug.","null","","","","",""
"","html-keyboard-response","250","323008","0.0-8.0-2.0","FL","3yxnw7xt1g","1366","768","de","cz06an18","null","","","","learningBlock2","","","","<div style=""font-size:60px;""> </div>","null","FL","learning/Slide81.JPG","That was a wug.","",""
"","image-keyboard-response","251","323186","0.0-8.0-0.1","FL","3yxnw7xt1g","1366","768","de","cz06an18","null","","","","","","","","learning/Slide82.JPG","null","","","","",""
"","html-keyboard-response","252","324350","0.0-8.0-1.1","FL","3yxnw7xt1g","1366","768","de","cz06an18","null","","","","learningBlock2","","","","That was a bim.","null","","","","",""
"","html-keyboard-response","253","325355","0.0-8.0-2.1","FL","3yxnw7xt1g","1366","768","de","cz06an18","null","","","","learningBlock2","","","","<div style=""font-size:60px;""> </div>","null","FL","learning/Slide82.JPG","That was a bim.","",""
"","image-keyboard-response","254","325531","0.0-8.0-0.2","FL","3yxnw7xt1g","1366","768","de","cz06an18","null","","","","","","","","learning/Slide83.JPG","null","","","","",""
"","html-keyboard-response","255","326693","0.0-8.0-1.2","FL","3yxnw7xt1g","1366","768","de","cz06an18","null","","","","learningBlock2","","","","That was a wug.","null","","","","",""
"","html-keyboard-response","256","327717","0.0-8.0-2.2","FL","3yxnw7xt1g","1366","768","de","cz06an18","null","","","","learningBlock2","","","","<div style=""font-size:60px;""> </div>","null","FL","learning/Slide83.JPG","That was a wug.","",""
"","image-keyboard-response","257","327895","0.0-8.0-0.3","FL","3yxnw7xt1g","1366","768","de","cz06an18","null","","","","","","","","learning/Slide84.JPG","null","","","","",""
"","html-keyboard-response","258","329052","0.0-8.0-1.3","FL","3yxnw7xt1g","1366","768","de","cz06an18","null","","","","learningBlock2","","","","That was a dep.","null","","","","",""
"","html-keyboard-response","259","330055","0.0-8.0-2.3","FL","3yxnw7xt1g","1366","768","de","cz06an18","null","","","","learningBlock2","","","","<div style=""font-size:60px;""> </div>","null","FL","learning/Slide84.JPG","That was a dep.","",""
"","image-keyboard-response","260","330240","0.0-8.0-0.4","FL","3yxnw7xt1g","1366","768","de","cz06an18","null","","","","","","","","learning/Slide85.JPG","null","","","","",""
"","html-keyboard-response","261","331401","0.0-8.0-1.4","FL","3yxnw7xt1g","1366","768","de","cz06an18","null","","","","learningBlock2","","","","That was a bim.","null","","","","",""
"","html-keyboard-response","262","332409","0.0-8.0-2.4","FL","3yxnw7xt1g","1366","768","de","cz06an18","null","","","","learningBlock2","","","","<div style=""font-size:60px;""> </div>","null","FL","learning/Slide85.JPG","That was a bim.","",""
"","image-keyboard-response","263","332593","0.0-8.0-0.5","FL","3yxnw7xt1g","1366","768","de","cz06an18","null","","","","","","","","learning/Slide86.JPG","null","","","","",""
"","html-keyboard-response","264","333749","0.0-8.0-1.5","FL","3yxnw7xt1g","1366","768","de","cz06an18","null","","","","learningBlock2","","","","That was a tob.","null","","","","",""
"","html-keyboard-response","265","334752","0.0-8.0-2.5","FL","3yxnw7xt1g","1366","768","de","cz06an18","null","","","","learningBlock2","","","","<div style=""font-size:60px;""> </div>","null","FL","learning/Slide86.JPG","That was a tob.","",""
"","image-keyboard-response","266","334936","0.0-8.0-0.6","FL","3yxnw7xt1g","1366","768","de","cz06an18","null","","","","","","","","learning/Slide87.JPG","null","","","","",""
"","html-keyboard-response","267","336101","0.0-8.0-1.6","FL","3yxnw7xt1g","1366","768","de","cz06an18","null","","","","learningBlock2","","","","That was a wug.","null","","","","",""
"","html-keyboard-response","268","337104","0.0-8.0-2.6","FL","3yxnw7xt1g","1366","768","de","cz06an18","null","","","","learningBlock2","","","","<div style=""font-size:60px;""> </div>","null","FL","learning/Slide87.JPG","That was a wug.","",""
"","image-keyboard-response","269","337288","0.0-8.0-0.7","FL","3yxnw7xt1g","1366","768","de","cz06an18","null","","","","","","","","learning/Slide88.JPG","null","","","","",""
"","html-keyboard-response","270","338447","0.0-8.0-1.7","FL","3yxnw7xt1g","1366","768","de","cz06an18","null","","","","learningBlock2","","","","That was a tob.","null","","","","",""
"","html-keyboard-response","271","339450","0.0-8.0-2.7","FL","3yxnw7xt1g","1366","768","de","cz06an18","null","","","","learningBlock2","","","","<div style=""font-size:60px;""> </div>","null","FL","learning/Slide88.JPG","That was a tob.","",""
"","image-keyboard-response","272","339647","0.0-8.0-0.8","FL","3yxnw7xt1g","1366","768","de","cz06an18","null","","","","","","","","learning/Slide89.JPG","null","","","","",""
"","html-keyboard-response","273","340812","0.0-8.0-1.8","FL","3yxnw7xt1g","1366","768","de","cz06an18","null","","","","learningBlock2","","","","That was a bim.","null","","","","",""
"","html-keyboard-response","274","341815","0.0-8.0-2.8","FL","3yxnw7xt1g","1366","768","de","cz06an18","null","","","","learningBlock2","","","","<div style=""font-size:60px;""> </div>","null","FL","learning/Slide89.JPG","That was a bim.","",""
"","image-keyboard-response","275","341999","0.0-8.0-0.9","FL","3yxnw7xt1g","1366","768","de","cz06an18","null","","","","","","","","learning/Slide90.JPG","null","","","","",""
"","html-keyboard-response","276","343155","0.0-8.0-1.9","FL","3yxnw7xt1g","1366","768","de","cz06an18","null","","","","learningBlock2","","","","That was a dep.","null","","","","",""
"","html-keyboard-response","277","344158","0.0-8.0-2.9","FL","3yxnw7xt1g","1366","768","de","cz06an18","null","","","","learningBlock2","","","","<div style=""font-size:60px;""> </div>","null","FL","learning/Slide90.JPG","That was a dep.","",""
"","image-keyboard-response","278","344335","0.0-8.0-0.10","FL","3yxnw7xt1g","1366","768","de","cz06an18","null","","","","","","","","learning/Slide91.JPG","null","","","","",""
"","html-keyboard-response","279","345509","0.0-8.0-1.10","FL","3yxnw7xt1g","1366","768","de","cz06an18","null","","","","learningBlock2","","","","That was a wug.","null","","","","",""
"","html-keyboard-response","280","346511","0.0-8.0-2.10","FL","3yxnw7xt1g","1366","768","de","cz06an18","null","","","","learningBlock2","","","","<div style=""font-size:60px;""> </div>","null","FL","learning/Slide91.JPG","That was a wug.","",""
"","image-keyboard-response","281","346695","0.0-8.0-0.11","FL","3yxnw7xt1g","1366","768","de","cz06an18","null","","","","","","","","learning/Slide92.JPG","null","","","","",""
"","html-keyboard-response","282","347867","0.0-8.0-1.11","FL","3yxnw7xt1g","1366","768","de","cz06an18","null","","","","learningBlock2","","","","That was a tob.","null","","","","",""
"","html-keyboard-response","283","348870","0.0-8.0-2.11","FL","3yxnw7xt1g","1366","768","de","cz06an18","null","","","","learningBlock2","","","","<div style=""font-size:60px;""> </div>","null","FL","learning/Slide92.JPG","That was a tob.","",""
"","image-keyboard-response","284","349048","0.0-8.0-0.12","FL","3yxnw7xt1g","1366","768","de","cz06an18","null","","","","","","","","learning/Slide93.JPG","null","","","","",""
"","html-keyboard-response","285","350205","0.0-8.0-1.12","FL","3yxnw7xt1g","1366","768","de","cz06an18","null","","","","learningBlock2","","","","That was a bim.","null","","","","",""
"","html-keyboard-response","286","351210","0.0-8.0-2.12","FL","3yxnw7xt1g","1366","768","de","cz06an18","null","","","","learningBlock2","","","","<div style=""font-size:60px;""> </div>","null","FL","learning/Slide93.JPG","That was a bim.","",""
"","image-keyboard-response","287","351386","0.0-8.0-0.13","FL","3yxnw7xt1g","1366","768","de","cz06an18","null","","","","","","","","learning/Slide94.JPG","null","","","","",""
"","html-keyboard-response","288","352556","0.0-8.0-1.13","FL","3yxnw7xt1g","1366","768","de","cz06an18","null","","","","learningBlock2","","","","That was a tob.","null","","","","",""
"","html-keyboard-response","289","353559","0.0-8.0-2.13","FL","3yxnw7xt1g","1366","768","de","cz06an18","null","","","","learningBlock2","","","","<div style=""font-size:60px;""> </div>","null","FL","learning/Slide94.JPG","That was a tob.","",""
"","image-keyboard-response","290","353746","0.0-8.0-0.14","FL","3yxnw7xt1g","1366","768","de","cz06an18","null","","","","","","","","learning/Slide95.JPG","null","","","","",""
"","html-keyboard-response","291","354901","0.0-8.0-1.14","FL","3yxnw7xt1g","1366","768","de","cz06an18","null","","","","learningBlock2","","","","That was a wug.","null","","","","",""
"","html-keyboard-response","292","355903","0.0-8.0-2.14","FL","3yxnw7xt1g","1366","768","de","cz06an18","null","","","","learningBlock2","","","","<div style=""font-size:60px;""> </div>","null","FL","learning/Slide95.JPG","That was a wug.","",""
"","image-keyboard-response","293","356088","0.0-8.0-0.15","FL","3yxnw7xt1g","1366","768","de","cz06an18","null","","","","","","","","learning/Slide96.JPG","null","","","","",""
"","html-keyboard-response","294","357255","0.0-8.0-1.15","FL","3yxnw7xt1g","1366","768","de","cz06an18","null","","","","learningBlock2","","","","That was a tob.","null","","","","",""
"","html-keyboard-response","295","358258","0.0-8.0-2.15","FL","3yxnw7xt1g","1366","768","de","cz06an18","null","","","","learningBlock2","","","","<div style=""font-size:60px;""> </div>","null","FL","learning/Slide96.JPG","That was a tob.","",""
"","image-keyboard-response","296","358458","0.0-8.0-0.16","FL","3yxnw7xt1g","1366","768","de","cz06an18","null","","","","","","","","learning/Slide97.JPG","null","","","","",""
"","html-keyboard-response","297","359613","0.0-8.0-1.16","FL","3yxnw7xt1g","1366","768","de","cz06an18","null","","","","learningBlock2","","","","That was a dep.","null","","","","",""
"","html-keyboard-response","298","360616","0.0-8.0-2.16","FL","3yxnw7xt1g","1366","768","de","cz06an18","null","","","","learningBlock2","","","","<div style=""font-size:60px;""> </div>","null","FL","learning/Slide97.JPG","That was a dep.","",""
"","image-keyboard-response","299","360800","0.0-8.0-0.17","FL","3yxnw7xt1g","1366","768","de","cz06an18","null","","","","","","","","learning/Slide98.JPG","null","","","","",""
"","html-keyboard-response","300","361965","0.0-8.0-1.17","FL","3yxnw7xt1g","1366","768","de","cz06an18","null","","","","learningBlock2","","","","That was a bim.","null","","","","",""
"","html-keyboard-response","301","362967","0.0-8.0-2.17","FL","3yxnw7xt1g","1366","768","de","cz06an18","null","","","","learningBlock2","","","","<div style=""font-size:60px;""> </div>","null","FL","learning/Slide98.JPG","That was a bim.","",""
"","image-keyboard-response","302","363151","0.0-8.0-0.18","FL","3yxnw7xt1g","1366","768","de","cz06an18","null","","","","","","","","learning/Slide99.JPG","null","","","","",""
"","html-keyboard-response","303","364316","0.0-8.0-1.18","FL","3yxnw7xt1g","1366","768","de","cz06an18","null","","","","learningBlock2","","","","That was a dep.","null","","","","",""
"","html-keyboard-response","304","365318","0.0-8.0-2.18","FL","3yxnw7xt1g","1366","768","de","cz06an18","null","","","","learningBlock2","","","","<div style=""font-size:60px;""> </div>","null","FL","learning/Slide99.JPG","That was a dep.","",""
"","image-keyboard-response","305","365512","0.0-8.0-0.19","FL","3yxnw7xt1g","1366","768","de","cz06an18","null","","","","","","","","learning/Slide100.JPG","null","","","","",""
"","html-keyboard-response","306","366675","0.0-8.0-1.19","FL","3yxnw7xt1g","1366","768","de","cz06an18","null","","","","learningBlock2","","","","That was a bim.","null","","","","",""
"","html-keyboard-response","307","367678","0.0-8.0-2.19","FL","3yxnw7xt1g","1366","768","de","cz06an18","null","","","","learningBlock2","","","","<div style=""font-size:60px;""> </div>","null","FL","learning/Slide100.JPG","That was a bim.","",""
"","image-keyboard-response","308","367862","0.0-8.0-0.20","FL","3yxnw7xt1g","1366","768","de","cz06an18","null","","","","","","","","learning/Slide101.JPG","null","","","","",""
"","html-keyboard-response","309","369018","0.0-8.0-1.20","FL","3yxnw7xt1g","1366","768","de","cz06an18","null","","","","learningBlock2","","","","That was a tob.","null","","","","",""
"","html-keyboard-response","310","370034","0.0-8.0-2.20","FL","3yxnw7xt1g","1366","768","de","cz06an18","null","","","","learningBlock2","","","","<div style=""font-size:60px;""> </div>","null","FL","learning/Slide101.JPG","That was a tob.","",""
"","image-keyboard-response","311","370219","0.0-8.0-0.21","FL","3yxnw7xt1g","1366","768","de","cz06an18","null","","","","","","","","learning/Slide102.JPG","null","","","","",""
"","html-keyboard-response","312","371378","0.0-8.0-1.21","FL","3yxnw7xt1g","1366","768","de","cz06an18","null","","","","learningBlock2","","","","That was a bim.","null","","","","",""
"","html-keyboard-response","313","372380","0.0-8.0-2.21","FL","3yxnw7xt1g","1366","768","de","cz06an18","null","","","","learningBlock2","","","","<div style=""font-size:60px;""> </div>","null","FL","learning/Slide102.JPG","That was a bim.","",""
"","image-keyboard-response","314","372571","0.0-8.0-0.22","FL","3yxnw7xt1g","1366","768","de","cz06an18","null","","","","","","","","learning/Slide103.JPG","null","","","","",""
"","html-keyboard-response","315","373727","0.0-8.0-1.22","FL","3yxnw7xt1g","1366","768","de","cz06an18","null","","","","learningBlock2","","","","That was a dep.","null","","","","",""
"","html-keyboard-response","316","374729","0.0-8.0-2.22","FL","3yxnw7xt1g","1366","768","de","cz06an18","null","","","","learningBlock2","","","","<div style=""font-size:60px;""> </div>","null","FL","learning/Slide103.JPG","That was a dep.","",""
"","image-keyboard-response","317","374907","0.0-8.0-0.23","FL","3yxnw7xt1g","1366","768","de","cz06an18","null","","","","","","","","learning/Slide104.JPG","null","","","","",""
"","html-keyboard-response","318","376062","0.0-8.0-1.23","FL","3yxnw7xt1g","1366","768","de","cz06an18","null","","","","learningBlock2","","","","That was a tob.","null","","","","",""
"","html-keyboard-response","319","377066","0.0-8.0-2.23","FL","3yxnw7xt1g","1366","768","de","cz06an18","null","","","","learningBlock2","","","","<div style=""font-size:60px;""> </div>","null","FL","learning/Slide104.JPG","That was a tob.","",""
"","image-keyboard-response","320","377249","0.0-8.0-0.24","FL","3yxnw7xt1g","1366","768","de","cz06an18","null","","","","","","","","learning/Slide105.JPG","null","","","","",""
"","html-keyboard-response","321","378409","0.0-8.0-1.24","FL","3yxnw7xt1g","1366","768","de","cz06an18","null","","","","learningBlock2","","","","That was a dep.","null","","","","",""
"","html-keyboard-response","322","379414","0.0-8.0-2.24","FL","3yxnw7xt1g","1366","768","de","cz06an18","null","","","","learningBlock2","","","","<div style=""font-size:60px;""> </div>","null","FL","learning/Slide105.JPG","That was a dep.","",""
"","image-keyboard-response","323","379594","0.0-8.0-0.25","FL","3yxnw7xt1g","1366","768","de","cz06an18","null","","","","","","","","learning/Slide106.JPG","null","","","","",""
"","html-keyboard-response","324","380756","0.0-8.0-1.25","FL","3yxnw7xt1g","1366","768","de","cz06an18","null","","","","learningBlock2","","","","That was a wug.","null","","","","",""
"","html-keyboard-response","325","381758","0.0-8.0-2.25","FL","3yxnw7xt1g","1366","768","de","cz06an18","null","","","","learningBlock2","","","","<div style=""font-size:60px;""> </div>","null","FL","learning/Slide106.JPG","That was a wug.","",""
"","image-keyboard-response","326","381943","0.0-8.0-0.26","FL","3yxnw7xt1g","1366","768","de","cz06an18","null","","","","","","","","learning/Slide107.JPG","null","","","","",""
"","html-keyboard-response","327","383107","0.0-8.0-1.26","FL","3yxnw7xt1g","1366","768","de","cz06an18","null","","","","learningBlock2","","","","That was a bim.","null","","","","",""
"","html-keyboard-response","328","384124","0.0-8.0-2.26","FL","3yxnw7xt1g","1366","768","de","cz06an18","null","","","","learningBlock2","","","","<div style=""font-size:60px;""> </div>","null","FL","learning/Slide107.JPG","That was a bim.","",""
"","image-keyboard-response","329","384309","0.0-8.0-0.27","FL","3yxnw7xt1g","1366","768","de","cz06an18","null","","","","","","","","learning/Slide108.JPG","null","","","","",""
"","html-keyboard-response","330","385465","0.0-8.0-1.27","FL","3yxnw7xt1g","1366","768","de","cz06an18","null","","","","learningBlock2","","","","That was a dep.","null","","","","",""
"","html-keyboard-response","331","386474","0.0-8.0-2.27","FL","3yxnw7xt1g","1366","768","de","cz06an18","null","","","","learningBlock2","","","","<div style=""font-size:60px;""> </div>","null","FL","learning/Slide108.JPG","That was a dep.","",""
"","image-keyboard-response","332","386654","0.0-8.0-0.28","FL","3yxnw7xt1g","1366","768","de","cz06an18","null","","","","","","","","learning/Slide109.JPG","null","","","","",""
"","html-keyboard-response","333","387817","0.0-8.0-1.28","FL","3yxnw7xt1g","1366","768","de","cz06an18","null","","","","learningBlock2","","","","That was a wug.","null","","","","",""
"","html-keyboard-response","334","388819","0.0-8.0-2.28","FL","3yxnw7xt1g","1366","768","de","cz06an18","null","","","","learningBlock2","","","","<div style=""font-size:60px;""> </div>","null","FL","learning/Slide109.JPG","That was a wug.","",""
"","image-keyboard-response","335","389003","0.0-8.0-0.29","FL","3yxnw7xt1g","1366","768","de","cz06an18","null","","","","","","","","learning/Slide110.JPG","null","","","","",""
"","html-keyboard-response","336","390158","0.0-8.0-1.29","FL","3yxnw7xt1g","1366","768","de","cz06an18","null","","","","learningBlock2","","","","That was a bim.","null","","","","",""
"","html-keyboard-response","337","391160","0.0-8.0-2.29","FL","3yxnw7xt1g","1366","768","de","cz06an18","null","","","","learningBlock2","","","","<div style=""font-size:60px;""> </div>","null","FL","learning/Slide110.JPG","That was a bim.","",""
"","image-keyboard-response","338","391336","0.0-8.0-0.30","FL","3yxnw7xt1g","1366","768","de","cz06an18","null","","","","","","","","learning/Slide111.JPG","null","","","","",""
"","html-keyboard-response","339","392494","0.0-8.0-1.30","FL","3yxnw7xt1g","1366","768","de","cz06an18","null","","","","learningBlock2","","","","That was a tob.","null","","","","",""
"","html-keyboard-response","340","393498","0.0-8.0-2.30","FL","3yxnw7xt1g","1366","768","de","cz06an18","null","","","","learningBlock2","","","","<div style=""font-size:60px;""> </div>","null","FL","learning/Slide111.JPG","That was a tob.","",""
"","image-keyboard-response","341","393682","0.0-8.0-0.31","FL","3yxnw7xt1g","1366","768","de","cz06an18","null","","","","","","","","learning/Slide112.JPG","null","","","","",""
"","html-keyboard-response","342","394847","0.0-8.0-1.31","FL","3yxnw7xt1g","1366","768","de","cz06an18","null","","","","learningBlock2","","","","That was a wug.","null","","","","",""
"","html-keyboard-response","343","395849","0.0-8.0-2.31","FL","3yxnw7xt1g","1366","768","de","cz06an18","null","","","","learningBlock2","","","","<div style=""font-size:60px;""> </div>","null","FL","learning/Slide112.JPG","That was a wug.","",""
"","image-keyboard-response","344","396034","0.0-8.0-0.32","FL","3yxnw7xt1g","1366","768","de","cz06an18","null","","","","","","","","learning/Slide113.JPG","null","","","","",""
"","html-keyboard-response","345","397190","0.0-8.0-1.32","FL","3yxnw7xt1g","1366","768","de","cz06an18","null","","","","learningBlock2","","","","That was a tob.","null","","","","",""
"","html-keyboard-response","346","398193","0.0-8.0-2.32","FL","3yxnw7xt1g","1366","768","de","cz06an18","null","","","","learningBlock2","","","","<div style=""font-size:60px;""> </div>","null","FL","learning/Slide113.JPG","That was a tob.","",""
"","image-keyboard-response","347","398377","0.0-8.0-0.33","FL","3yxnw7xt1g","1366","768","de","cz06an18","null","","","","","","","","learning/Slide114.JPG","null","","","","",""
"","html-keyboard-response","348","399543","0.0-8.0-1.33","FL","3yxnw7xt1g","1366","768","de","cz06an18","null","","","","learningBlock2","","","","That was a wug.","null","","","","",""
"","html-keyboard-response","349","400546","0.0-8.0-2.33","FL","3yxnw7xt1g","1366","768","de","cz06an18","null","","","","learningBlock2","","","","<div style=""font-size:60px;""> </div>","null","FL","learning/Slide114.JPG","That was a wug.","",""
"","image-keyboard-response","350","400731","0.0-8.0-0.34","FL","3yxnw7xt1g","1366","768","de","cz06an18","null","","","","","","","","learning/Slide115.JPG","null","","","","",""
"","html-keyboard-response","351","401887","0.0-8.0-1.34","FL","3yxnw7xt1g","1366","768","de","cz06an18","null","","","","learningBlock2","","","","That was a bim.","null","","","","",""
"","html-keyboard-response","352","402889","0.0-8.0-2.34","FL","3yxnw7xt1g","1366","768","de","cz06an18","null","","","","learningBlock2","","","","<div style=""font-size:60px;""> </div>","null","FL","learning/Slide115.JPG","That was a bim.","",""
"","image-keyboard-response","353","403067","0.0-8.0-0.35","FL","3yxnw7xt1g","1366","768","de","cz06an18","null","","","","","","","","learning/Slide116.JPG","null","","","","",""
"","html-keyboard-response","354","404222","0.0-8.0-1.35","FL","3yxnw7xt1g","1366","768","de","cz06an18","null","","","","learningBlock2","","","","That was a dep.","null","","","","",""
"","html-keyboard-response","355","405224","0.0-8.0-2.35","FL","3yxnw7xt1g","1366","768","de","cz06an18","null","","","","learningBlock2","","","","<div style=""font-size:60px;""> </div>","null","FL","learning/Slide116.JPG","That was a dep.","",""
"","image-keyboard-response","356","405409","0.0-8.0-0.36","FL","3yxnw7xt1g","1366","768","de","cz06an18","null","","","","","","","","learning/Slide117.JPG","null","","","","",""
"","html-keyboard-response","357","406574","0.0-8.0-1.36","FL","3yxnw7xt1g","1366","768","de","cz06an18","null","","","","learningBlock2","","","","That was a tob.","null","","","","",""
"","html-keyboard-response","358","407577","0.0-8.0-2.36","FL","3yxnw7xt1g","1366","768","de","cz06an18","null","","","","learningBlock2","","","","<div style=""font-size:60px;""> </div>","null","FL","learning/Slide117.JPG","That was a tob.","",""
"","image-keyboard-response","359","407762","0.0-8.0-0.37","FL","3yxnw7xt1g","1366","768","de","cz06an18","null","","","","","","","","learning/Slide118.JPG","null","","","","",""
"","html-keyboard-response","360","408919","0.0-8.0-1.37","FL","3yxnw7xt1g","1366","768","de","cz06an18","null","","","","learningBlock2","","","","That was a dep.","null","","","","",""
"","html-keyboard-response","361","409921","0.0-8.0-2.37","FL","3yxnw7xt1g","1366","768","de","cz06an18","null","","","","learningBlock2","","","","<div style=""font-size:60px;""> </div>","null","FL","learning/Slide118.JPG","That was a dep.","",""
"","image-keyboard-response","362","410106","0.0-8.0-0.38","FL","3yxnw7xt1g","1366","768","de","cz06an18","null","","","","","","","","learning/Slide119.JPG","null","","","","",""
"","html-keyboard-response","363","411270","0.0-8.0-1.38","FL","3yxnw7xt1g","1366","768","de","cz06an18","null","","","","learningBlock2","","","","That was a wug.","null","","","","",""
"","html-keyboard-response","364","412271","0.0-8.0-2.38","FL","3yxnw7xt1g","1366","768","de","cz06an18","null","","","","learningBlock2","","","","<div style=""font-size:60px;""> </div>","null","FL","learning/Slide119.JPG","That was a wug.","",""
"","image-keyboard-response","365","412456","0.0-8.0-0.39","FL","3yxnw7xt1g","1366","768","de","cz06an18","null","","","","","","","","learning/Slide120.JPG","null","","","","",""
"","html-keyboard-response","366","413612","0.0-8.0-1.39","FL","3yxnw7xt1g","1366","768","de","cz06an18","null","","","","learningBlock2","","","","That was a dep.","null","","","","",""
"","html-keyboard-response","367","414616","0.0-8.0-2.39","FL","3yxnw7xt1g","1366","768","de","cz06an18","null","","","","learningBlock2","","","","<div style=""font-size:60px;""> </div>","null","FL","learning/Slide120.JPG","That was a dep.","",""
"","image-keyboard-response","368","414793","0.0-8.0-0.40","FL","3yxnw7xt1g","1366","768","de","cz06an18","null","","","","","","","","learning/Slide121.JPG","null","","","","",""
"","html-keyboard-response","369","415951","0.0-8.0-1.40","FL","3yxnw7xt1g","1366","768","de","cz06an18","null","","","","learningBlock2","","","","That was a bim.","null","","","","",""
"","html-keyboard-response","370","416953","0.0-8.0-2.40","FL","3yxnw7xt1g","1366","768","de","cz06an18","null","","","","learningBlock2","","","","<div style=""font-size:60px;""> </div>","null","FL","learning/Slide121.JPG","That was a bim.","",""
"","image-keyboard-response","371","417137","0.0-8.0-0.41","FL","3yxnw7xt1g","1366","768","de","cz06an18","null","","","","","","","","learning/Slide122.JPG","null","","","","",""
"","html-keyboard-response","372","418302","0.0-8.0-1.41","FL","3yxnw7xt1g","1366","768","de","cz06an18","null","","","","learningBlock2","","","","That was a wug.","null","","","","",""
"","html-keyboard-response","373","419305","0.0-8.0-2.41","FL","3yxnw7xt1g","1366","768","de","cz06an18","null","","","","learningBlock2","","","","<div style=""font-size:60px;""> </div>","null","FL","learning/Slide122.JPG","That was a wug.","",""
"","image-keyboard-response","374","419490","0.0-8.0-0.42","FL","3yxnw7xt1g","1366","768","de","cz06an18","null","","","","","","","","learning/Slide123.JPG","null","","","","",""
"","html-keyboard-response","375","420646","0.0-8.0-1.42","FL","3yxnw7xt1g","1366","768","de","cz06an18","null","","","","learningBlock2","","","","That was a bim.","null","","","","",""
"","html-keyboard-response","376","421649","0.0-8.0-2.42","FL","3yxnw7xt1g","1366","768","de","cz06an18","null","","","","learningBlock2","","","","<div style=""font-size:60px;""> </div>","null","FL","learning/Slide123.JPG","That was a bim.","",""
"","image-keyboard-response","377","421834","0.0-8.0-0.43","FL","3yxnw7xt1g","1366","768","de","cz06an18","null","","","","","","","","learning/Slide124.JPG","null","","","","",""
"","html-keyboard-response","378","422999","0.0-8.0-1.43","FL","3yxnw7xt1g","1366","768","de","cz06an18","null","","","","learningBlock2","","","","That was a tob.","null","","","","",""
"","html-keyboard-response","379","424002","0.0-8.0-2.43","FL","3yxnw7xt1g","1366","768","de","cz06an18","null","","","","learningBlock2","","","","<div style=""font-size:60px;""> </div>","null","FL","learning/Slide124.JPG","That was a tob.","",""
"","image-keyboard-response","380","424186","0.0-8.0-0.44","FL","3yxnw7xt1g","1366","768","de","cz06an18","null","","","","","","","","learning/Slide125.JPG","null","","","","",""
"","html-keyboard-response","381","425342","0.0-8.0-1.44","FL","3yxnw7xt1g","1366","768","de","cz06an18","null","","","","learningBlock2","","","","That was a bim.","null","","","","",""
"","html-keyboard-response","382","426359","0.0-8.0-2.44","FL","3yxnw7xt1g","1366","768","de","cz06an18","null","","","","learningBlock2","","","","<div style=""font-size:60px;""> </div>","null","FL","learning/Slide125.JPG","That was a bim.","",""
"","image-keyboard-response","383","426546","0.0-8.0-0.45","FL","3yxnw7xt1g","1366","768","de","cz06an18","null","","","","","","","","learning/Slide126.JPG","null","","","","",""
"","html-keyboard-response","384","427711","0.0-8.0-1.45","FL","3yxnw7xt1g","1366","768","de","cz06an18","null","","","","learningBlock2","","","","That was a tob.","null","","","","",""
"","html-keyboard-response","385","428714","0.0-8.0-2.45","FL","3yxnw7xt1g","1366","768","de","cz06an18","null","","","","learningBlock2","","","","<div style=""font-size:60px;""> </div>","null","FL","learning/Slide126.JPG","That was a tob.","",""
"","image-keyboard-response","386","428898","0.0-8.0-0.46","FL","3yxnw7xt1g","1366","768","de","cz06an18","null","","","","","","","","learning/Slide127.JPG","null","","","","",""
"","html-keyboard-response","387","430055","0.0-8.0-1.46","FL","3yxnw7xt1g","1366","768","de","cz06an18","null","","","","learningBlock2","","","","That was a dep.","null","","","","",""
"","html-keyboard-response","388","431057","0.0-8.0-2.46","FL","3yxnw7xt1g","1366","768","de","cz06an18","null","","","","learningBlock2","","","","<div style=""font-size:60px;""> </div>","null","FL","learning/Slide127.JPG","That was a dep.","",""
"","image-keyboard-response","389","431235","0.0-8.0-0.47","FL","3yxnw7xt1g","1366","768","de","cz06an18","null","","","","","","","","learning/Slide128.JPG","null","","","","",""
"","html-keyboard-response","390","432392","0.0-8.0-1.47","FL","3yxnw7xt1g","1366","768","de","cz06an18","null","","","","learningBlock2","","","","That was a wug.","null","","","","",""
"","html-keyboard-response","391","433396","0.0-8.0-2.47","FL","3yxnw7xt1g","1366","768","de","cz06an18","null","","","","learningBlock2","","","","<div style=""font-size:60px;""> </div>","null","FL","learning/Slide128.JPG","That was a wug.","",""
"","image-keyboard-response","392","433581","0.0-8.0-0.48","FL","3yxnw7xt1g","1366","768","de","cz06an18","null","","","","","","","","learning/Slide129.JPG","null","","","","",""
"","html-keyboard-response","393","434745","0.0-8.0-1.48","FL","3yxnw7xt1g","1366","768","de","cz06an18","null","","","","learningBlock2","","","","That was a tob.","null","","","","",""
"","html-keyboard-response","394","435749","0.0-8.0-2.48","FL","3yxnw7xt1g","1366","768","de","cz06an18","null","","","","learningBlock2","","","","<div style=""font-size:60px;""> </div>","null","FL","learning/Slide129.JPG","That was a tob.","",""
"","image-keyboard-response","395","435933","0.0-8.0-0.49","FL","3yxnw7xt1g","1366","768","de","cz06an18","null","","","","","","","","learning/Slide130.JPG","null","","","","",""
"","html-keyboard-response","396","437089","0.0-8.0-1.49","FL","3yxnw7xt1g","1366","768","de","cz06an18","null","","","","learningBlock2","","","","That was a wug.","null","","","","",""
"","html-keyboard-response","397","438091","0.0-8.0-2.49","FL","3yxnw7xt1g","1366","768","de","cz06an18","null","","","","learningBlock2","","","","<div style=""font-size:60px;""> </div>","null","FL","learning/Slide130.JPG","That was a wug.","",""
"","image-keyboard-response","398","438276","0.0-8.0-0.50","FL","3yxnw7xt1g","1366","768","de","cz06an18","null","","","","","","","","learning/Slide131.JPG","null","","","","",""
"","html-keyboard-response","399","439434","0.0-8.0-1.50","FL","3yxnw7xt1g","1366","768","de","cz06an18","null","","","","learningBlock2","","","","That was a bim.","null","","","","",""
"","html-keyboard-response","400","440442","0.0-8.0-2.50","FL","3yxnw7xt1g","1366","768","de","cz06an18","null","","","","learningBlock2","","","","<div style=""font-size:60px;""> </div>","null","FL","learning/Slide131.JPG","That was a bim.","",""
"","image-keyboard-response","401","440627","0.0-8.0-0.51","FL","3yxnw7xt1g","1366","768","de","cz06an18","null","","","","","","","","learning/Slide132.JPG","null","","","","",""
"","html-keyboard-response","402","441782","0.0-8.0-1.51","FL","3yxnw7xt1g","1366","768","de","cz06an18","null","","","","learningBlock2","","","","That was a dep.","null","","","","",""
"","html-keyboard-response","403","442785","0.0-8.0-2.51","FL","3yxnw7xt1g","1366","768","de","cz06an18","null","","","","learningBlock2","","","","<div style=""font-size:60px;""> </div>","null","FL","learning/Slide132.JPG","That was a dep.","",""
"","image-keyboard-response","404","442964","0.0-8.0-0.52","FL","3yxnw7xt1g","1366","768","de","cz06an18","null","","","","","","","","learning/Slide133.JPG","null","","","","",""
"","html-keyboard-response","405","444120","0.0-8.0-1.52","FL","3yxnw7xt1g","1366","768","de","cz06an18","null","","","","learningBlock2","","","","That was a tob.","null","","","","",""
"","html-keyboard-response","406","445123","0.0-8.0-2.52","FL","3yxnw7xt1g","1366","768","de","cz06an18","null","","","","learningBlock2","","","","<div style=""font-size:60px;""> </div>","null","FL","learning/Slide133.JPG","That was a tob.","",""
"","image-keyboard-response","407","445300","0.0-8.0-0.53","FL","3yxnw7xt1g","1366","768","de","cz06an18","null","","","","","","","","learning/Slide134.JPG","null","","","","",""
"","html-keyboard-response","408","446457","0.0-8.0-1.53","FL","3yxnw7xt1g","1366","768","de","cz06an18","null","","","","learningBlock2","","","","That was a dep.","null","","","","",""
"","html-keyboard-response","409","447460","0.0-8.0-2.53","FL","3yxnw7xt1g","1366","768","de","cz06an18","null","","","","learningBlock2","","","","<div style=""font-size:60px;""> </div>","null","FL","learning/Slide134.JPG","That was a dep.","",""
"","image-keyboard-response","410","447644","0.0-8.0-0.54","FL","3yxnw7xt1g","1366","768","de","cz06an18","null","","","","","","","","learning/Slide135.JPG","null","","","","",""
"","html-keyboard-response","411","448802","0.0-8.0-1.54","FL","3yxnw7xt1g","1366","768","de","cz06an18","null","","","","learningBlock2","","","","That was a tob.","null","","","","",""
"","html-keyboard-response","412","449805","0.0-8.0-2.54","FL","3yxnw7xt1g","1366","768","de","cz06an18","null","","","","learningBlock2","","","","<div style=""font-size:60px;""> </div>","null","FL","learning/Slide135.JPG","That was a tob.","",""
"","image-keyboard-response","413","449983","0.0-8.0-0.55","FL","3yxnw7xt1g","1366","768","de","cz06an18","null","","","","","","","","learning/Slide136.JPG","null","","","","",""
"","html-keyboard-response","414","451138","0.0-8.0-1.55","FL","3yxnw7xt1g","1366","768","de","cz06an18","null","","","","learningBlock2","","","","That was a wug.","null","","","","",""
"","html-keyboard-response","415","452141","0.0-8.0-2.55","FL","3yxnw7xt1g","1366","768","de","cz06an18","null","","","","learningBlock2","","","","<div style=""font-size:60px;""> </div>","null","FL","learning/Slide136.JPG","That was a wug.","",""
"","image-keyboard-response","416","452317","0.0-8.0-0.56","FL","3yxnw7xt1g","1366","768","de","cz06an18","null","","","","","","","","learning/Slide137.JPG","null","","","","",""
"","html-keyboard-response","417","453478","0.0-8.0-1.56","FL","3yxnw7xt1g","1366","768","de","cz06an18","null","","","","learningBlock2","","","","That was a tob.","null","","","","",""
"","html-keyboard-response","418","454492","0.0-8.0-2.56","FL","3yxnw7xt1g","1366","768","de","cz06an18","null","","","","learningBlock2","","","","<div style=""font-size:60px;""> </div>","null","FL","learning/Slide137.JPG","That was a tob.","",""
"","image-keyboard-response","419","454677","0.0-8.0-0.57","FL","3yxnw7xt1g","1366","768","de","cz06an18","null","","","","","","","","learning/Slide138.JPG","null","","","","",""
"","html-keyboard-response","420","455833","0.0-8.0-1.57","FL","3yxnw7xt1g","1366","768","de","cz06an18","null","","","","learningBlock2","","","","That was a bim.","null","","","","",""
"","html-keyboard-response","421","456836","0.0-8.0-2.57","FL","3yxnw7xt1g","1366","768","de","cz06an18","null","","","","learningBlock2","","","","<div style=""font-size:60px;""> </div>","null","FL","learning/Slide138.JPG","That was a bim.","",""
"","image-keyboard-response","422","457021","0.0-8.0-0.58","FL","3yxnw7xt1g","1366","768","de","cz06an18","null","","","","","","","","learning/Slide139.JPG","null","","","","",""
"","html-keyboard-response","423","458187","0.0-8.0-1.58","FL","3yxnw7xt1g","1366","768","de","cz06an18","null","","","","learningBlock2","","","","That was a wug.","null","","","","",""
"","html-keyboard-response","424","459202","0.0-8.0-2.58","FL","3yxnw7xt1g","1366","768","de","cz06an18","null","","","","learningBlock2","","","","<div style=""font-size:60px;""> </div>","null","FL","learning/Slide139.JPG","That was a wug.","",""
"","image-keyboard-response","425","459378","0.0-8.0-0.59","FL","3yxnw7xt1g","1366","768","de","cz06an18","null","","","","","","","","learning/Slide140.JPG","null","","","","",""
"","html-keyboard-response","426","460542","0.0-8.0-1.59","FL","3yxnw7xt1g","1366","768","de","cz06an18","null","","","","learningBlock2","","","","That was a dep.","null","","","","",""
"","html-keyboard-response","427","461545","0.0-8.0-2.59","FL","3yxnw7xt1g","1366","768","de","cz06an18","null","","","","learningBlock2","","","","<div style=""font-size:60px;""> </div>","null","FL","learning/Slide140.JPG","That was a dep.","",""
"","image-keyboard-response","428","461722","0.0-8.0-0.60","FL","3yxnw7xt1g","1366","768","de","cz06an18","null","","","","","","","","learning/Slide141.JPG","null","","","","",""
"","html-keyboard-response","429","462879","0.0-8.0-1.60","FL","3yxnw7xt1g","1366","768","de","cz06an18","null","","","","learningBlock2","","","","That was a tob.","null","","","","",""
"","html-keyboard-response","430","463882","0.0-8.0-2.60","FL","3yxnw7xt1g","1366","768","de","cz06an18","null","","","","learningBlock2","","","","<div style=""font-size:60px;""> </div>","null","FL","learning/Slide141.JPG","That was a tob.","",""
"","image-keyboard-response","431","464066","0.0-8.0-0.61","FL","3yxnw7xt1g","1366","768","de","cz06an18","null","","","","","","","","learning/Slide142.JPG","null","","","","",""
"","html-keyboard-response","432","465231","0.0-8.0-1.61","FL","3yxnw7xt1g","1366","768","de","cz06an18","null","","","","learningBlock2","","","","That was a wug.","null","","","","",""
"","html-keyboard-response","433","466234","0.0-8.0-2.61","FL","3yxnw7xt1g","1366","768","de","cz06an18","null","","","","learningBlock2","","","","<div style=""font-size:60px;""> </div>","null","FL","learning/Slide142.JPG","That was a wug.","",""
"","image-keyboard-response","434","466418","0.0-8.0-0.62","FL","3yxnw7xt1g","1366","768","de","cz06an18","null","","","","","","","","learning/Slide143.JPG","null","","","","",""
"","html-keyboard-response","435","467584","0.0-8.0-1.62","FL","3yxnw7xt1g","1366","768","de","cz06an18","null","","","","learningBlock2","","","","That was a bim.","null","","","","",""
"","html-keyboard-response","436","468592","0.0-8.0-2.62","FL","3yxnw7xt1g","1366","768","de","cz06an18","null","","","","learningBlock2","","","","<div style=""font-size:60px;""> </div>","null","FL","learning/Slide143.JPG","That was a bim.","",""
"","image-keyboard-response","437","468777","0.0-8.0-0.63","FL","3yxnw7xt1g","1366","768","de","cz06an18","null","","","","","","","","learning/Slide144.JPG","null","","","","",""
"","html-keyboard-response","438","469943","0.0-8.0-1.63","FL","3yxnw7xt1g","1366","768","de","cz06an18","null","","","","learningBlock2","","","","That was a dep.","null","","","","",""
"","html-keyboard-response","439","470946","0.0-8.0-2.63","FL","3yxnw7xt1g","1366","768","de","cz06an18","null","","","","learningBlock2","","","","<div style=""font-size:60px;""> </div>","null","FL","learning/Slide144.JPG","That was a dep.","",""
"","image-keyboard-response","440","471131","0.0-8.0-0.64","FL","3yxnw7xt1g","1366","768","de","cz06an18","null","","","","","","","","learning/Slide145.JPG","null","","","","",""
"","html-keyboard-response","441","472288","0.0-8.0-1.64","FL","3yxnw7xt1g","1366","768","de","cz06an18","null","","","","learningBlock2","","","","That was a bim.","null","","","","",""
"","html-keyboard-response","442","473290","0.0-8.0-2.64","FL","3yxnw7xt1g","1366","768","de","cz06an18","null","","","","learningBlock2","","","","<div style=""font-size:60px;""> </div>","null","FL","learning/Slide145.JPG","That was a bim.","",""
"","image-keyboard-response","443","473467","0.0-8.0-0.65","FL","3yxnw7xt1g","1366","768","de","cz06an18","null","","","","","","","","learning/Slide146.JPG","null","","","","",""
"","html-keyboard-response","444","474633","0.0-8.0-1.65","FL","3yxnw7xt1g","1366","768","de","cz06an18","null","","","","learningBlock2","","","","That was a tob.","null","","","","",""
"","html-keyboard-response","445","475642","0.0-8.0-2.65","FL","3yxnw7xt1g","1366","768","de","cz06an18","null","","","","learningBlock2","","","","<div style=""font-size:60px;""> </div>","null","FL","learning/Slide146.JPG","That was a tob.","",""
"","image-keyboard-response","446","475827","0.0-8.0-0.66","FL","3yxnw7xt1g","1366","768","de","cz06an18","null","","","","","","","","learning/Slide147.JPG","null","","","","",""
"","html-keyboard-response","447","476982","0.0-8.0-1.66","FL","3yxnw7xt1g","1366","768","de","cz06an18","null","","","","learningBlock2","","","","That was a wug.","null","","","","",""
"","html-keyboard-response","448","477985","0.0-8.0-2.66","FL","3yxnw7xt1g","1366","768","de","cz06an18","null","","","","learningBlock2","","","","<div style=""font-size:60px;""> </div>","null","FL","learning/Slide147.JPG","That was a wug.","",""
"","image-keyboard-response","449","478163","0.0-8.0-0.67","FL","3yxnw7xt1g","1366","768","de","cz06an18","null","","","","","","","","learning/Slide148.JPG","null","","","","",""
"","html-keyboard-response","450","479319","0.0-8.0-1.67","FL","3yxnw7xt1g","1366","768","de","cz06an18","null","","","","learningBlock2","","","","That was a bim.","null","","","","",""
"","html-keyboard-response","451","480322","0.0-8.0-2.67","FL","3yxnw7xt1g","1366","768","de","cz06an18","null","","","","learningBlock2","","","","<div style=""font-size:60px;""> </div>","null","FL","learning/Slide148.JPG","That was a bim.","",""
"","image-keyboard-response","452","480509","0.0-8.0-0.68","FL","3yxnw7xt1g","1366","768","de","cz06an18","null","","","","","","","","learning/Slide149.JPG","null","","","","",""
"","html-keyboard-response","453","481674","0.0-8.0-1.68","FL","3yxnw7xt1g","1366","768","de","cz06an18","null","","","","learningBlock2","","","","That was a dep.","null","","","","",""
"","html-keyboard-response","454","482695","0.0-8.0-2.68","FL","3yxnw7xt1g","1366","768","de","cz06an18","null","","","","learningBlock2","","","","<div style=""font-size:60px;""> </div>","null","FL","learning/Slide149.JPG","That was a dep.","",""
"","image-keyboard-response","455","482873","0.0-8.0-0.69","FL","3yxnw7xt1g","1366","768","de","cz06an18","null","","","","","","","","learning/Slide150.JPG","null","","","","",""
"","html-keyboard-response","456","484030","0.0-8.0-1.69","FL","3yxnw7xt1g","1366","768","de","cz06an18","null","","","","learningBlock2","","","","That was a wug.","null","","","","",""
"","html-keyboard-response","457","485035","0.0-8.0-2.69","FL","3yxnw7xt1g","1366","768","de","cz06an18","null","","","","learningBlock2","","","","<div style=""font-size:60px;""> </div>","null","FL","learning/Slide150.JPG","That was a wug.","",""
"","image-keyboard-response","458","485217","0.0-8.0-0.70","FL","3yxnw7xt1g","1366","768","de","cz06an18","null","","","","","","","","learning/Slide151.JPG","null","","","","",""
"","html-keyboard-response","459","486374","0.0-8.0-1.70","FL","3yxnw7xt1g","1366","768","de","cz06an18","null","","","","learningBlock2","","","","That was a dep.","null","","","","",""
"","html-keyboard-response","460","487378","0.0-8.0-2.70","FL","3yxnw7xt1g","1366","768","de","cz06an18","null","","","","learningBlock2","","","","<div style=""font-size:60px;""> </div>","null","FL","learning/Slide151.JPG","That was a dep.","",""
"","image-keyboard-response","461","487554","0.0-8.0-0.71","FL","3yxnw7xt1g","1366","768","de","cz06an18","null","","","","","","","","learning/Slide152.JPG","null","","","","",""
"","html-keyboard-response","462","488707","0.0-8.0-1.71","FL","3yxnw7xt1g","1366","768","de","cz06an18","null","","","","learningBlock2","","","","That was a wug.","null","","","","",""
"","html-keyboard-response","463","489710","0.0-8.0-2.71","FL","3yxnw7xt1g","1366","768","de","cz06an18","null","","","","learningBlock2","","","","<div style=""font-size:60px;""> </div>","null","FL","learning/Slide152.JPG","That was a wug.","",""
"","image-keyboard-response","464","489888","0.0-8.0-0.72","FL","3yxnw7xt1g","1366","768","de","cz06an18","null","","","","","","","","learning/Slide153.JPG","null","","","","",""
"","html-keyboard-response","465","491045","0.0-8.0-1.72","FL","3yxnw7xt1g","1366","768","de","cz06an18","null","","","","learningBlock2","","","","That was a bim.","null","","","","",""
"","html-keyboard-response","466","492048","0.0-8.0-2.72","FL","3yxnw7xt1g","1366","768","de","cz06an18","null","","","","learningBlock2","","","","<div style=""font-size:60px;""> </div>","null","FL","learning/Slide153.JPG","That was a bim.","",""
"","image-keyboard-response","467","492233","0.0-8.0-0.73","FL","3yxnw7xt1g","1366","768","de","cz06an18","null","","","","","","","","learning/Slide154.JPG","null","","","","",""
"","html-keyboard-response","468","493391","0.0-8.0-1.73","FL","3yxnw7xt1g","1366","768","de","cz06an18","null","","","","learningBlock2","","","","That was a tob.","null","","","","",""
"","html-keyboard-response","469","494393","0.0-8.0-2.73","FL","3yxnw7xt1g","1366","768","de","cz06an18","null","","","","learningBlock2","","","","<div style=""font-size:60px;""> </div>","null","FL","learning/Slide154.JPG","That was a tob.","",""
"","image-keyboard-response","470","494570","0.0-8.0-0.74","FL","3yxnw7xt1g","1366","768","de","cz06an18","null","","","","","","","","learning/Slide155.JPG","null","","","","",""
"","html-keyboard-response","471","495724","0.0-8.0-1.74","FL","3yxnw7xt1g","1366","768","de","cz06an18","null","","","","learningBlock2","","","","That was a dep.","null","","","","",""
"","html-keyboard-response","472","496726","0.0-8.0-2.74","FL","3yxnw7xt1g","1366","768","de","cz06an18","null","","","","learningBlock2","","","","<div style=""font-size:60px;""> </div>","null","FL","learning/Slide155.JPG","That was a dep.","",""
"","image-keyboard-response","473","496903","0.0-8.0-0.75","FL","3yxnw7xt1g","1366","768","de","cz06an18","null","","","","","","","","learning/Slide156.JPG","null","","","","",""
"","html-keyboard-response","474","498059","0.0-8.0-1.75","FL","3yxnw7xt1g","1366","768","de","cz06an18","null","","","","learningBlock2","","","","That was a bim.","null","","","","",""
"","html-keyboard-response","475","499062","0.0-8.0-2.75","FL","3yxnw7xt1g","1366","768","de","cz06an18","null","","","","learningBlock2","","","","<div style=""font-size:60px;""> </div>","null","FL","learning/Slide156.JPG","That was a bim.","",""
"","image-keyboard-response","476","499247","0.0-8.0-0.76","FL","3yxnw7xt1g","1366","768","de","cz06an18","null","","","","","","","","learning/Slide157.JPG","null","","","","",""
"","html-keyboard-response","477","500405","0.0-8.0-1.76","FL","3yxnw7xt1g","1366","768","de","cz06an18","null","","","","learningBlock2","","","","That was a dep.","null","","","","",""
"","html-keyboard-response","478","501410","0.0-8.0-2.76","FL","3yxnw7xt1g","1366","768","de","cz06an18","null","","","","learningBlock2","","","","<div style=""font-size:60px;""> </div>","null","FL","learning/Slide157.JPG","That was a dep.","",""
"","image-keyboard-response","479","501609","0.0-8.0-0.77","FL","3yxnw7xt1g","1366","768","de","cz06an18","null","","","","","","","","learning/Slide158.JPG","null","","","","",""
"","html-keyboard-response","480","502770","0.0-8.0-1.77","FL","3yxnw7xt1g","1366","768","de","cz06an18","null","","","","learningBlock2","","","","That was a tob.","null","","","","",""
"","html-keyboard-response","481","503773","0.0-8.0-2.77","FL","3yxnw7xt1g","1366","768","de","cz06an18","null","","","","learningBlock2","","","","<div style=""font-size:60px;""> </div>","null","FL","learning/Slide158.JPG","That was a tob.","",""
"","image-keyboard-response","482","503958","0.0-8.0-0.78","FL","3yxnw7xt1g","1366","768","de","cz06an18","null","","","","","","","","learning/Slide159.JPG","null","","","","",""
"","html-keyboard-response","483","505125","0.0-8.0-1.78","FL","3yxnw7xt1g","1366","768","de","cz06an18","null","","","","learningBlock2","","","","That was a dep.","null","","","","",""
"","html-keyboard-response","484","506127","0.0-8.0-2.78","FL","3yxnw7xt1g","1366","768","de","cz06an18","null","","","","learningBlock2","","","","<div style=""font-size:60px;""> </div>","null","FL","learning/Slide159.JPG","That was a dep.","",""
"","image-keyboard-response","485","506304","0.0-8.0-0.79","FL","3yxnw7xt1g","1366","768","de","cz06an18","null","","","","","","","","learning/Slide160.JPG","null","","","","",""
"","html-keyboard-response","486","507471","0.0-8.0-1.79","FL","3yxnw7xt1g","1366","768","de","cz06an18","null","","","","learningBlock2","","","","That was a wug.","null","","","","",""
"","html-keyboard-response","487","508473","0.0-8.0-2.79","FL","3yxnw7xt1g","1366","768","de","cz06an18","null","","","","learningBlock2","","","","<div style=""font-size:60px;""> </div>","null","FL","learning/Slide160.JPG","That was a wug.","",""
"","resize2","488","511811","0.0-9.0","FL","3yxnw7xt1g","1366","768","de","cz06an18","","","","","","","104","1.04","","","","","","",""
