"success","trial_type","trial_index","time_elapsed","internal_node_id","condition","subject","screen_width","screen_height","language","codeword","rt","responses","url","view_history","test_part","final_height_px","final_width_px","scale_factor","stimulus","key_press","learningType","presentedImage","presentedLabel","button_pressed","response"
"true","fullscreen","0","4541","0.0-0.0","LF","re8dk0velw","1440","900","en","ic25an08","","","","","","","","","","","","","","",""
"","survey-html-form","1","10557","0.0-1.0","LF","re8dk0velw","1440","900","en","ic25an08","6011","{""language"":""en""}","","","","","","","","","","","","",""
"","external-html","2","120727","0.0-3.0-0.0","LF","re8dk0velw","1440","900","en","ic25an08","114530.00000000001","","text/information_english.html","","","","","","","","","","","",""
"","external-html","3","139897","0.0-3.0-1.0","LF","re8dk0velw","1440","900","en","ic25an08","19107","","text/consent_english.html","","","","","","","","","","","",""
"","survey-html-form","4","215052","0.0-3.0-2.0","LF","re8dk0velw","1440","900","en","ic25an08","75150.99999999997","{""codeword_enter"":""ic25an08""}","","","","","","","","","","","","",""
"","instructions","5","233498","0.0-4.0","LF","re8dk0velw","1440","900","en","ic25an08","NA","","","[{""page_index"":0,""viewing_time"":3206},{""page_index"":1,""viewing_time"":13735.00000000003}]","instructions","","","","","","","","","",""
"","resize","6","316996","0.0-5.0","LF","re8dk0velw","1440","900","en","ic25an08","","","","","","","432","2.742857142857143","","","","","","",""
"","html-keyboard-response","7","318001","0.0-6.0-0.0","LF","re8dk0velw","1440","900","en","ic25an08","null","","","","learningBlock1","","","","This is a tob:","null","","","","",""
"","image-keyboard-response","8","318330","0.0-6.0-1.0","LF","re8dk0velw","1440","900","en","ic25an08","null","","","","","","","","learning/Slide1.JPG","null","","","","",""
"","html-keyboard-response","9","319333","0.0-6.0-2.0","LF","re8dk0velw","1440","900","en","ic25an08","null","","","","learningBlock1","","","","<div style=""font-size:60px;""> </div>","null","LF","learning/Slide1.JPG","This is a tob:","",""
"","html-keyboard-response","10","320336","0.0-6.0-0.1","LF","re8dk0velw","1440","900","en","ic25an08","null","","","","learningBlock1","","","","This is a wug:","null","","","","",""
"","image-keyboard-response","11","320663","0.0-6.0-1.1","LF","re8dk0velw","1440","900","en","ic25an08","null","","","","","","","","learning/Slide2.JPG","null","","","","",""
"","html-keyboard-response","12","321666","0.0-6.0-2.1","LF","re8dk0velw","1440","900","en","ic25an08","null","","","","learningBlock1","","","","<div style=""font-size:60px;""> </div>","null","LF","learning/Slide2.JPG","This is a wug:","",""
"","html-keyboard-response","13","322670","0.0-6.0-0.2","LF","re8dk0velw","1440","900","en","ic25an08","null","","","","learningBlock1","","","","This is a bim:","null","","","","",""
"","image-keyboard-response","14","322998","0.0-6.0-1.2","LF","re8dk0velw","1440","900","en","ic25an08","null","","","","","","","","learning/Slide3.JPG","null","","","","",""
"","html-keyboard-response","15","324001","0.0-6.0-2.2","LF","re8dk0velw","1440","900","en","ic25an08","null","","","","learningBlock1","","","","<div style=""font-size:60px;""> </div>","null","LF","learning/Slide3.JPG","This is a bim:","",""
"","html-keyboard-response","16","325005","0.0-6.0-0.3","LF","re8dk0velw","1440","900","en","ic25an08","null","","","","learningBlock1","","","","This is a dep:","null","","","","",""
"","image-keyboard-response","17","325333","0.0-6.0-1.3","LF","re8dk0velw","1440","900","en","ic25an08","null","","","","","","","","learning/Slide4.JPG","null","","","","",""
"","html-keyboard-response","18","326336","0.0-6.0-2.3","LF","re8dk0velw","1440","900","en","ic25an08","null","","","","learningBlock1","","","","<div style=""font-size:60px;""> </div>","null","LF","learning/Slide4.JPG","This is a dep:","",""
"","html-keyboard-response","19","327339","0.0-6.0-0.4","LF","re8dk0velw","1440","900","en","ic25an08","null","","","","learningBlock1","","","","This is a wug:","null","","","","",""
"","image-keyboard-response","20","327668","0.0-6.0-1.4","LF","re8dk0velw","1440","900","en","ic25an08","null","","","","","","","","learning/Slide5.JPG","null","","","","",""
"","html-keyboard-response","21","328670","0.0-6.0-2.4","LF","re8dk0velw","1440","900","en","ic25an08","null","","","","learningBlock1","","","","<div style=""font-size:60px;""> </div>","null","LF","learning/Slide5.JPG","This is a wug:","",""
"","html-keyboard-response","22","329674","0.0-6.0-0.5","LF","re8dk0velw","1440","900","en","ic25an08","null","","","","learningBlock1","","","","This is a dep:","null","","","","",""
"","image-keyboard-response","23","330002","0.0-6.0-1.5","LF","re8dk0velw","1440","900","en","ic25an08","null","","","","","","","","learning/Slide6.JPG","null","","","","",""
"","html-keyboard-response","24","331005","0.0-6.0-2.5","LF","re8dk0velw","1440","900","en","ic25an08","null","","","","learningBlock1","","","","<div style=""font-size:60px;""> </div>","null","LF","learning/Slide6.JPG","This is a dep:","",""
"","html-keyboard-response","25","332008","0.0-6.0-0.6","LF","re8dk0velw","1440","900","en","ic25an08","null","","","","learningBlock1","","","","This is a wug:","null","","","","",""
"","image-keyboard-response","26","332336","0.0-6.0-1.6","LF","re8dk0velw","1440","900","en","ic25an08","null","","","","","","","","learning/Slide7.JPG","null","","","","",""
"","html-keyboard-response","27","333338","0.0-6.0-2.6","LF","re8dk0velw","1440","900","en","ic25an08","null","","","","learningBlock1","","","","<div style=""font-size:60px;""> </div>","null","LF","learning/Slide7.JPG","This is a wug:","",""
"","html-keyboard-response","28","334341","0.0-6.0-0.7","LF","re8dk0velw","1440","900","en","ic25an08","null","","","","learningBlock1","","","","This is a bim:","null","","","","",""
"","image-keyboard-response","29","334670","0.0-6.0-1.7","LF","re8dk0velw","1440","900","en","ic25an08","null","","","","","","","","learning/Slide8.JPG","null","","","","",""
"","html-keyboard-response","30","335673","0.0-6.0-2.7","LF","re8dk0velw","1440","900","en","ic25an08","null","","","","learningBlock1","","","","<div style=""font-size:60px;""> </div>","null","LF","learning/Slide8.JPG","This is a bim:","",""
"","html-keyboard-response","31","336676","0.0-6.0-0.8","LF","re8dk0velw","1440","900","en","ic25an08","null","","","","learningBlock1","","","","This is a wug:","null","","","","",""
"","image-keyboard-response","32","337005","0.0-6.0-1.8","LF","re8dk0velw","1440","900","en","ic25an08","null","","","","","","","","learning/Slide9.JPG","null","","","","",""
"","html-keyboard-response","33","338008","0.0-6.0-2.8","LF","re8dk0velw","1440","900","en","ic25an08","null","","","","learningBlock1","","","","<div style=""font-size:60px;""> </div>","null","LF","learning/Slide9.JPG","This is a wug:","",""
"","html-keyboard-response","34","339012","0.0-6.0-0.9","LF","re8dk0velw","1440","900","en","ic25an08","null","","","","learningBlock1","","","","This is a dep:","null","","","","",""
"","image-keyboard-response","35","339339","0.0-6.0-1.9","LF","re8dk0velw","1440","900","en","ic25an08","null","","","","","","","","learning/Slide10.JPG","null","","","","",""
"","html-keyboard-response","36","340342","0.0-6.0-2.9","LF","re8dk0velw","1440","900","en","ic25an08","null","","","","learningBlock1","","","","<div style=""font-size:60px;""> </div>","null","LF","learning/Slide10.JPG","This is a dep:","",""
"","html-keyboard-response","37","341346","0.0-6.0-0.10","LF","re8dk0velw","1440","900","en","ic25an08","null","","","","learningBlock1","","","","This is a tob:","null","","","","",""
"","image-keyboard-response","38","341674","0.0-6.0-1.10","LF","re8dk0velw","1440","900","en","ic25an08","null","","","","","","","","learning/Slide11.JPG","null","","","","",""
"","html-keyboard-response","39","342677","0.0-6.0-2.10","LF","re8dk0velw","1440","900","en","ic25an08","null","","","","learningBlock1","","","","<div style=""font-size:60px;""> </div>","null","LF","learning/Slide11.JPG","This is a tob:","",""
"","html-keyboard-response","40","343680","0.0-6.0-0.11","LF","re8dk0velw","1440","900","en","ic25an08","null","","","","learningBlock1","","","","This is a dep:","null","","","","",""
"","image-keyboard-response","41","344008","0.0-6.0-1.11","LF","re8dk0velw","1440","900","en","ic25an08","null","","","","","","","","learning/Slide12.JPG","null","","","","",""
"","html-keyboard-response","42","345011","0.0-6.0-2.11","LF","re8dk0velw","1440","900","en","ic25an08","null","","","","learningBlock1","","","","<div style=""font-size:60px;""> </div>","null","LF","learning/Slide12.JPG","This is a dep:","",""
"","html-keyboard-response","43","346014","0.0-6.0-0.12","LF","re8dk0velw","1440","900","en","ic25an08","null","","","","learningBlock1","","","","This is a bim:","null","","","","",""
"","image-keyboard-response","44","346342","0.0-6.0-1.12","LF","re8dk0velw","1440","900","en","ic25an08","null","","","","","","","","learning/Slide13.JPG","null","","","","",""
"","html-keyboard-response","45","347344","0.0-6.0-2.12","LF","re8dk0velw","1440","900","en","ic25an08","null","","","","learningBlock1","","","","<div style=""font-size:60px;""> </div>","null","LF","learning/Slide13.JPG","This is a bim:","",""
"","html-keyboard-response","46","348348","0.0-6.0-0.13","LF","re8dk0velw","1440","900","en","ic25an08","null","","","","learningBlock1","","","","This is a wug:","null","","","","",""
"","image-keyboard-response","47","348676","0.0-6.0-1.13","LF","re8dk0velw","1440","900","en","ic25an08","null","","","","","","","","learning/Slide14.JPG","null","","","","",""
"","html-keyboard-response","48","349678","0.0-6.0-2.13","LF","re8dk0velw","1440","900","en","ic25an08","null","","","","learningBlock1","","","","<div style=""font-size:60px;""> </div>","null","LF","learning/Slide14.JPG","This is a wug:","",""
"","html-keyboard-response","49","350680","0.0-6.0-0.14","LF","re8dk0velw","1440","900","en","ic25an08","null","","","","learningBlock1","","","","This is a tob:","null","","","","",""
"","image-keyboard-response","50","351008","0.0-6.0-1.14","LF","re8dk0velw","1440","900","en","ic25an08","null","","","","","","","","learning/Slide15.JPG","null","","","","",""
"","html-keyboard-response","51","352011","0.0-6.0-2.14","LF","re8dk0velw","1440","900","en","ic25an08","null","","","","learningBlock1","","","","<div style=""font-size:60px;""> </div>","null","LF","learning/Slide15.JPG","This is a tob:","",""
"","html-keyboard-response","52","353014","0.0-6.0-0.15","LF","re8dk0velw","1440","900","en","ic25an08","null","","","","learningBlock1","","","","This is a dep:","null","","","","",""
"","image-keyboard-response","53","353342","0.0-6.0-1.15","LF","re8dk0velw","1440","900","en","ic25an08","null","","","","","","","","learning/Slide16.JPG","null","","","","",""
"","html-keyboard-response","54","354345","0.0-6.0-2.15","LF","re8dk0velw","1440","900","en","ic25an08","null","","","","learningBlock1","","","","<div style=""font-size:60px;""> </div>","null","LF","learning/Slide16.JPG","This is a dep:","",""
"","html-keyboard-response","55","355348","0.0-6.0-0.16","LF","re8dk0velw","1440","900","en","ic25an08","null","","","","learningBlock1","","","","This is a bim:","null","","","","",""
"","image-keyboard-response","56","355676","0.0-6.0-1.16","LF","re8dk0velw","1440","900","en","ic25an08","null","","","","","","","","learning/Slide17.JPG","null","","","","",""
"","html-keyboard-response","57","356679","0.0-6.0-2.16","LF","re8dk0velw","1440","900","en","ic25an08","null","","","","learningBlock1","","","","<div style=""font-size:60px;""> </div>","null","LF","learning/Slide17.JPG","This is a bim:","",""
"","html-keyboard-response","58","357682","0.0-6.0-0.17","LF","re8dk0velw","1440","900","en","ic25an08","null","","","","learningBlock1","","","","This is a tob:","null","","","","",""
"","image-keyboard-response","59","358010","0.0-6.0-1.17","LF","re8dk0velw","1440","900","en","ic25an08","null","","","","","","","","learning/Slide18.JPG","null","","","","",""
"","html-keyboard-response","60","359012","0.0-6.0-2.17","LF","re8dk0velw","1440","900","en","ic25an08","null","","","","learningBlock1","","","","<div style=""font-size:60px;""> </div>","null","LF","learning/Slide18.JPG","This is a tob:","",""
"","html-keyboard-response","61","360016","0.0-6.0-0.18","LF","re8dk0velw","1440","900","en","ic25an08","null","","","","learningBlock1","","","","This is a wug:","null","","","","",""
"","image-keyboard-response","62","360343","0.0-6.0-1.18","LF","re8dk0velw","1440","900","en","ic25an08","null","","","","","","","","learning/Slide19.JPG","null","","","","",""
"","html-keyboard-response","63","361346","0.0-6.0-2.18","LF","re8dk0velw","1440","900","en","ic25an08","null","","","","learningBlock1","","","","<div style=""font-size:60px;""> </div>","null","LF","learning/Slide19.JPG","This is a wug:","",""
"","html-keyboard-response","64","362349","0.0-6.0-0.19","LF","re8dk0velw","1440","900","en","ic25an08","null","","","","learningBlock1","","","","This is a bim:","null","","","","",""
"","image-keyboard-response","65","362677","0.0-6.0-1.19","LF","re8dk0velw","1440","900","en","ic25an08","null","","","","","","","","learning/Slide20.JPG","null","","","","",""
"","html-keyboard-response","66","363679","0.0-6.0-2.19","LF","re8dk0velw","1440","900","en","ic25an08","null","","","","learningBlock1","","","","<div style=""font-size:60px;""> </div>","null","LF","learning/Slide20.JPG","This is a bim:","",""
"","html-keyboard-response","67","364682","0.0-6.0-0.20","LF","re8dk0velw","1440","900","en","ic25an08","null","","","","learningBlock1","","","","This is a dep:","null","","","","",""
"","image-keyboard-response","68","365010","0.0-6.0-1.20","LF","re8dk0velw","1440","900","en","ic25an08","null","","","","","","","","learning/Slide21.JPG","null","","","","",""
"","html-keyboard-response","69","366013","0.0-6.0-2.20","LF","re8dk0velw","1440","900","en","ic25an08","null","","","","learningBlock1","","","","<div style=""font-size:60px;""> </div>","null","LF","learning/Slide21.JPG","This is a dep:","",""
"","html-keyboard-response","70","367016","0.0-6.0-0.21","LF","re8dk0velw","1440","900","en","ic25an08","null","","","","learningBlock1","","","","This is a bim:","null","","","","",""
"","image-keyboard-response","71","367344","0.0-6.0-1.21","LF","re8dk0velw","1440","900","en","ic25an08","null","","","","","","","","learning/Slide22.JPG","null","","","","",""
"","html-keyboard-response","72","368347","0.0-6.0-2.21","LF","re8dk0velw","1440","900","en","ic25an08","null","","","","learningBlock1","","","","<div style=""font-size:60px;""> </div>","null","LF","learning/Slide22.JPG","This is a bim:","",""
"","html-keyboard-response","73","369350","0.0-6.0-0.22","LF","re8dk0velw","1440","900","en","ic25an08","null","","","","learningBlock1","","","","This is a tob:","null","","","","",""
"","image-keyboard-response","74","369677","0.0-6.0-1.22","LF","re8dk0velw","1440","900","en","ic25an08","null","","","","","","","","learning/Slide23.JPG","null","","","","",""
"","html-keyboard-response","75","370680","0.0-6.0-2.22","LF","re8dk0velw","1440","900","en","ic25an08","null","","","","learningBlock1","","","","<div style=""font-size:60px;""> </div>","null","LF","learning/Slide23.JPG","This is a tob:","",""
"","html-keyboard-response","76","371683","0.0-6.0-0.23","LF","re8dk0velw","1440","900","en","ic25an08","null","","","","learningBlock1","","","","This is a wug:","null","","","","",""
"","image-keyboard-response","77","372011","0.0-6.0-1.23","LF","re8dk0velw","1440","900","en","ic25an08","null","","","","","","","","learning/Slide24.JPG","null","","","","",""
"","html-keyboard-response","78","373014","0.0-6.0-2.23","LF","re8dk0velw","1440","900","en","ic25an08","null","","","","learningBlock1","","","","<div style=""font-size:60px;""> </div>","null","LF","learning/Slide24.JPG","This is a wug:","",""
"","html-keyboard-response","79","374016","0.0-6.0-0.24","LF","re8dk0velw","1440","900","en","ic25an08","null","","","","learningBlock1","","","","This is a dep:","null","","","","",""
"","image-keyboard-response","80","374344","0.0-6.0-1.24","LF","re8dk0velw","1440","900","en","ic25an08","null","","","","","","","","learning/Slide25.JPG","null","","","","",""
"","html-keyboard-response","81","375347","0.0-6.0-2.24","LF","re8dk0velw","1440","900","en","ic25an08","null","","","","learningBlock1","","","","<div style=""font-size:60px;""> </div>","null","LF","learning/Slide25.JPG","This is a dep:","",""
"","html-keyboard-response","82","376350","0.0-6.0-0.25","LF","re8dk0velw","1440","900","en","ic25an08","null","","","","learningBlock1","","","","This is a wug:","null","","","","",""
"","image-keyboard-response","83","376678","0.0-6.0-1.25","LF","re8dk0velw","1440","900","en","ic25an08","null","","","","","","","","learning/Slide26.JPG","null","","","","",""
"","html-keyboard-response","84","377680","0.0-6.0-2.25","LF","re8dk0velw","1440","900","en","ic25an08","null","","","","learningBlock1","","","","<div style=""font-size:60px;""> </div>","null","LF","learning/Slide26.JPG","This is a wug:","",""
"","html-keyboard-response","85","378684","0.0-6.0-0.26","LF","re8dk0velw","1440","900","en","ic25an08","null","","","","learningBlock1","","","","This is a bim:","null","","","","",""
"","image-keyboard-response","86","379011","0.0-6.0-1.26","LF","re8dk0velw","1440","900","en","ic25an08","null","","","","","","","","learning/Slide27.JPG","null","","","","",""
"","html-keyboard-response","87","380014","0.0-6.0-2.26","LF","re8dk0velw","1440","900","en","ic25an08","null","","","","learningBlock1","","","","<div style=""font-size:60px;""> </div>","null","LF","learning/Slide27.JPG","This is a bim:","",""
"","html-keyboard-response","88","381017","0.0-6.0-0.27","LF","re8dk0velw","1440","900","en","ic25an08","null","","","","learningBlock1","","","","This is a dep:","null","","","","",""
"","image-keyboard-response","89","381345","0.0-6.0-1.27","LF","re8dk0velw","1440","900","en","ic25an08","null","","","","","","","","learning/Slide28.JPG","null","","","","",""
"","html-keyboard-response","90","382347","0.0-6.0-2.27","LF","re8dk0velw","1440","900","en","ic25an08","null","","","","learningBlock1","","","","<div style=""font-size:60px;""> </div>","null","LF","learning/Slide28.JPG","This is a dep:","",""
"","html-keyboard-response","91","383351","0.0-6.0-0.28","LF","re8dk0velw","1440","900","en","ic25an08","null","","","","learningBlock1","","","","This is a tob:","null","","","","",""
"","image-keyboard-response","92","383678","0.0-6.0-1.28","LF","re8dk0velw","1440","900","en","ic25an08","null","","","","","","","","learning/Slide29.JPG","null","","","","",""
"","html-keyboard-response","93","384681","0.0-6.0-2.28","LF","re8dk0velw","1440","900","en","ic25an08","null","","","","learningBlock1","","","","<div style=""font-size:60px;""> </div>","null","LF","learning/Slide29.JPG","This is a tob:","",""
"","html-keyboard-response","94","385684","0.0-6.0-0.29","LF","re8dk0velw","1440","900","en","ic25an08","null","","","","learningBlock1","","","","This is a dep:","null","","","","",""
"","image-keyboard-response","95","386012","0.0-6.0-1.29","LF","re8dk0velw","1440","900","en","ic25an08","null","","","","","","","","learning/Slide30.JPG","null","","","","",""
"","html-keyboard-response","96","387014","0.0-6.0-2.29","LF","re8dk0velw","1440","900","en","ic25an08","null","","","","learningBlock1","","","","<div style=""font-size:60px;""> </div>","null","LF","learning/Slide30.JPG","This is a dep:","",""
"","html-keyboard-response","97","388017","0.0-6.0-0.30","LF","re8dk0velw","1440","900","en","ic25an08","null","","","","learningBlock1","","","","This is a wug:","null","","","","",""
"","image-keyboard-response","98","388345","0.0-6.0-1.30","LF","re8dk0velw","1440","900","en","ic25an08","null","","","","","","","","learning/Slide31.JPG","null","","","","",""
"","html-keyboard-response","99","389348","0.0-6.0-2.30","LF","re8dk0velw","1440","900","en","ic25an08","null","","","","learningBlock1","","","","<div style=""font-size:60px;""> </div>","null","LF","learning/Slide31.JPG","This is a wug:","",""
"","html-keyboard-response","100","390351","0.0-6.0-0.31","LF","re8dk0velw","1440","900","en","ic25an08","null","","","","learningBlock1","","","","This is a tob:","null","","","","",""
"","image-keyboard-response","101","390679","0.0-6.0-1.31","LF","re8dk0velw","1440","900","en","ic25an08","null","","","","","","","","learning/Slide32.JPG","null","","","","",""
"","html-keyboard-response","102","391682","0.0-6.0-2.31","LF","re8dk0velw","1440","900","en","ic25an08","null","","","","learningBlock1","","","","<div style=""font-size:60px;""> </div>","null","LF","learning/Slide32.JPG","This is a tob:","",""
"","html-keyboard-response","103","392685","0.0-6.0-0.32","LF","re8dk0velw","1440","900","en","ic25an08","null","","","","learningBlock1","","","","This is a bim:","null","","","","",""
"","image-keyboard-response","104","393013","0.0-6.0-1.32","LF","re8dk0velw","1440","900","en","ic25an08","null","","","","","","","","learning/Slide33.JPG","null","","","","",""
"","html-keyboard-response","105","394016","0.0-6.0-2.32","LF","re8dk0velw","1440","900","en","ic25an08","null","","","","learningBlock1","","","","<div style=""font-size:60px;""> </div>","null","LF","learning/Slide33.JPG","This is a bim:","",""
"","html-keyboard-response","106","395019","0.0-6.0-0.33","LF","re8dk0velw","1440","900","en","ic25an08","null","","","","learningBlock1","","","","This is a tob:","null","","","","",""
"","image-keyboard-response","107","395348","0.0-6.0-1.33","LF","re8dk0velw","1440","900","en","ic25an08","null","","","","","","","","learning/Slide34.JPG","null","","","","",""
"","html-keyboard-response","108","396350","0.0-6.0-2.33","LF","re8dk0velw","1440","900","en","ic25an08","null","","","","learningBlock1","","","","<div style=""font-size:60px;""> </div>","null","LF","learning/Slide34.JPG","This is a tob:","",""
"","html-keyboard-response","109","397354","0.0-6.0-0.34","LF","re8dk0velw","1440","900","en","ic25an08","null","","","","learningBlock1","","","","This is a bim:","null","","","","",""
"","image-keyboard-response","110","397681","0.0-6.0-1.34","LF","re8dk0velw","1440","900","en","ic25an08","null","","","","","","","","learning/Slide35.JPG","null","","","","",""
"","html-keyboard-response","111","398684","0.0-6.0-2.34","LF","re8dk0velw","1440","900","en","ic25an08","null","","","","learningBlock1","","","","<div style=""font-size:60px;""> </div>","null","LF","learning/Slide35.JPG","This is a bim:","",""
"","html-keyboard-response","112","399687","0.0-6.0-0.35","LF","re8dk0velw","1440","900","en","ic25an08","null","","","","learningBlock1","","","","This is a dep:","null","","","","",""
"","image-keyboard-response","113","400015","0.0-6.0-1.35","LF","re8dk0velw","1440","900","en","ic25an08","null","","","","","","","","learning/Slide36.JPG","null","","","","",""
"","html-keyboard-response","114","401018","0.0-6.0-2.35","LF","re8dk0velw","1440","900","en","ic25an08","null","","","","learningBlock1","","","","<div style=""font-size:60px;""> </div>","null","LF","learning/Slide36.JPG","This is a dep:","",""
"","html-keyboard-response","115","402021","0.0-6.0-0.36","LF","re8dk0velw","1440","900","en","ic25an08","null","","","","learningBlock1","","","","This is a tob:","null","","","","",""
"","image-keyboard-response","116","402349","0.0-6.0-1.36","LF","re8dk0velw","1440","900","en","ic25an08","null","","","","","","","","learning/Slide37.JPG","null","","","","",""
"","html-keyboard-response","117","403351","0.0-6.0-2.36","LF","re8dk0velw","1440","900","en","ic25an08","null","","","","learningBlock1","","","","<div style=""font-size:60px;""> </div>","null","LF","learning/Slide37.JPG","This is a tob:","",""
"","html-keyboard-response","118","404355","0.0-6.0-0.37","LF","re8dk0velw","1440","900","en","ic25an08","null","","","","learningBlock1","","","","This is a wug:","null","","","","",""
"","image-keyboard-response","119","404683","0.0-6.0-1.37","LF","re8dk0velw","1440","900","en","ic25an08","null","","","","","","","","learning/Slide38.JPG","null","","","","",""
"","html-keyboard-response","120","405685","0.0-6.0-2.37","LF","re8dk0velw","1440","900","en","ic25an08","null","","","","learningBlock1","","","","<div style=""font-size:60px;""> </div>","null","LF","learning/Slide38.JPG","This is a wug:","",""
"","html-keyboard-response","121","406688","0.0-6.0-0.38","LF","re8dk0velw","1440","900","en","ic25an08","null","","","","learningBlock1","","","","This is a bim:","null","","","","",""
"","image-keyboard-response","122","407017","0.0-6.0-1.38","LF","re8dk0velw","1440","900","en","ic25an08","null","","","","","","","","learning/Slide39.JPG","null","","","","",""
"","html-keyboard-response","123","408019","0.0-6.0-2.38","LF","re8dk0velw","1440","900","en","ic25an08","null","","","","learningBlock1","","","","<div style=""font-size:60px;""> </div>","null","LF","learning/Slide39.JPG","This is a bim:","",""
"","html-keyboard-response","124","409022","0.0-6.0-0.39","LF","re8dk0velw","1440","900","en","ic25an08","null","","","","learningBlock1","","","","This is a tob:","null","","","","",""
"","image-keyboard-response","125","409351","0.0-6.0-1.39","LF","re8dk0velw","1440","900","en","ic25an08","null","","","","","","","","learning/Slide40.JPG","null","","","","",""
"","html-keyboard-response","126","410353","0.0-6.0-2.39","LF","re8dk0velw","1440","900","en","ic25an08","null","","","","learningBlock1","","","","<div style=""font-size:60px;""> </div>","null","LF","learning/Slide40.JPG","This is a tob:","",""
"","html-keyboard-response","127","411357","0.0-6.0-0.40","LF","re8dk0velw","1440","900","en","ic25an08","null","","","","learningBlock1","","","","This is a bim:","null","","","","",""
"","image-keyboard-response","128","411685","0.0-6.0-1.40","LF","re8dk0velw","1440","900","en","ic25an08","null","","","","","","","","learning/Slide41.JPG","null","","","","",""
"","html-keyboard-response","129","412687","0.0-6.0-2.40","LF","re8dk0velw","1440","900","en","ic25an08","null","","","","learningBlock1","","","","<div style=""font-size:60px;""> </div>","null","LF","learning/Slide41.JPG","This is a bim:","",""
"","html-keyboard-response","130","413690","0.0-6.0-0.41","LF","re8dk0velw","1440","900","en","ic25an08","null","","","","learningBlock1","","","","This is a dep:","null","","","","",""
"","image-keyboard-response","131","414019","0.0-6.0-1.41","LF","re8dk0velw","1440","900","en","ic25an08","null","","","","","","","","learning/Slide42.JPG","null","","","","",""
"","html-keyboard-response","132","415021","0.0-6.0-2.41","LF","re8dk0velw","1440","900","en","ic25an08","null","","","","learningBlock1","","","","<div style=""font-size:60px;""> </div>","null","LF","learning/Slide42.JPG","This is a dep:","",""
"","html-keyboard-response","133","416024","0.0-6.0-0.42","LF","re8dk0velw","1440","900","en","ic25an08","null","","","","learningBlock1","","","","This is a wug:","null","","","","",""
"","image-keyboard-response","134","416353","0.0-6.0-1.42","LF","re8dk0velw","1440","900","en","ic25an08","null","","","","","","","","learning/Slide43.JPG","null","","","","",""
"","html-keyboard-response","135","417354","0.0-6.0-2.42","LF","re8dk0velw","1440","900","en","ic25an08","null","","","","learningBlock1","","","","<div style=""font-size:60px;""> </div>","null","LF","learning/Slide43.JPG","This is a wug:","",""
"","html-keyboard-response","136","418358","0.0-6.0-0.43","LF","re8dk0velw","1440","900","en","ic25an08","null","","","","learningBlock1","","","","This is a bim:","null","","","","",""
"","image-keyboard-response","137","418686","0.0-6.0-1.43","LF","re8dk0velw","1440","900","en","ic25an08","null","","","","","","","","learning/Slide44.JPG","null","","","","",""
"","html-keyboard-response","138","419688","0.0-6.0-2.43","LF","re8dk0velw","1440","900","en","ic25an08","null","","","","learningBlock1","","","","<div style=""font-size:60px;""> </div>","null","LF","learning/Slide44.JPG","This is a bim:","",""
"","html-keyboard-response","139","420691","0.0-6.0-0.44","LF","re8dk0velw","1440","900","en","ic25an08","null","","","","learningBlock1","","","","This is a wug:","null","","","","",""
"","image-keyboard-response","140","421019","0.0-6.0-1.44","LF","re8dk0velw","1440","900","en","ic25an08","null","","","","","","","","learning/Slide45.JPG","null","","","","",""
"","html-keyboard-response","141","422022","0.0-6.0-2.44","LF","re8dk0velw","1440","900","en","ic25an08","null","","","","learningBlock1","","","","<div style=""font-size:60px;""> </div>","null","LF","learning/Slide45.JPG","This is a wug:","",""
"","html-keyboard-response","142","423025","0.0-6.0-0.45","LF","re8dk0velw","1440","900","en","ic25an08","null","","","","learningBlock1","","","","This is a dep:","null","","","","",""
"","image-keyboard-response","143","423352","0.0-6.0-1.45","LF","re8dk0velw","1440","900","en","ic25an08","null","","","","","","","","learning/Slide46.JPG","null","","","","",""
"","html-keyboard-response","144","424355","0.0-6.0-2.45","LF","re8dk0velw","1440","900","en","ic25an08","null","","","","learningBlock1","","","","<div style=""font-size:60px;""> </div>","null","LF","learning/Slide46.JPG","This is a dep:","",""
"","html-keyboard-response","145","425358","0.0-6.0-0.46","LF","re8dk0velw","1440","900","en","ic25an08","null","","","","learningBlock1","","","","This is a tob:","null","","","","",""
"","image-keyboard-response","146","425686","0.0-6.0-1.46","LF","re8dk0velw","1440","900","en","ic25an08","null","","","","","","","","learning/Slide47.JPG","null","","","","",""
"","html-keyboard-response","147","426689","0.0-6.0-2.46","LF","re8dk0velw","1440","900","en","ic25an08","null","","","","learningBlock1","","","","<div style=""font-size:60px;""> </div>","null","LF","learning/Slide47.JPG","This is a tob:","",""
"","html-keyboard-response","148","427692","0.0-6.0-0.47","LF","re8dk0velw","1440","900","en","ic25an08","null","","","","learningBlock1","","","","This is a bim:","null","","","","",""
"","image-keyboard-response","149","428020","0.0-6.0-1.47","LF","re8dk0velw","1440","900","en","ic25an08","null","","","","","","","","learning/Slide48.JPG","null","","","","",""
"","html-keyboard-response","150","429022","0.0-6.0-2.47","LF","re8dk0velw","1440","900","en","ic25an08","null","","","","learningBlock1","","","","<div style=""font-size:60px;""> </div>","null","LF","learning/Slide48.JPG","This is a bim:","",""
"","html-keyboard-response","151","430026","0.0-6.0-0.48","LF","re8dk0velw","1440","900","en","ic25an08","null","","","","learningBlock1","","","","This is a dep:","null","","","","",""
"","image-keyboard-response","152","430354","0.0-6.0-1.48","LF","re8dk0velw","1440","900","en","ic25an08","null","","","","","","","","learning/Slide49.JPG","null","","","","",""
"","html-keyboard-response","153","431356","0.0-6.0-2.48","LF","re8dk0velw","1440","900","en","ic25an08","null","","","","learningBlock1","","","","<div style=""font-size:60px;""> </div>","null","LF","learning/Slide49.JPG","This is a dep:","",""
"","html-keyboard-response","154","432359","0.0-6.0-0.49","LF","re8dk0velw","1440","900","en","ic25an08","null","","","","learningBlock1","","","","This is a tob:","null","","","","",""
"","image-keyboard-response","155","432687","0.0-6.0-1.49","LF","re8dk0velw","1440","900","en","ic25an08","null","","","","","","","","learning/Slide50.JPG","null","","","","",""
"","html-keyboard-response","156","433689","0.0-6.0-2.49","LF","re8dk0velw","1440","900","en","ic25an08","null","","","","learningBlock1","","","","<div style=""font-size:60px;""> </div>","null","LF","learning/Slide50.JPG","This is a tob:","",""
"","html-keyboard-response","157","434693","0.0-6.0-0.50","LF","re8dk0velw","1440","900","en","ic25an08","null","","","","learningBlock1","","","","This is a bim:","null","","","","",""
"","image-keyboard-response","158","435021","0.0-6.0-1.50","LF","re8dk0velw","1440","900","en","ic25an08","null","","","","","","","","learning/Slide51.JPG","null","","","","",""
"","html-keyboard-response","159","436023","0.0-6.0-2.50","LF","re8dk0velw","1440","900","en","ic25an08","null","","","","learningBlock1","","","","<div style=""font-size:60px;""> </div>","null","LF","learning/Slide51.JPG","This is a bim:","",""
"","html-keyboard-response","160","437026","0.0-6.0-0.51","LF","re8dk0velw","1440","900","en","ic25an08","null","","","","learningBlock1","","","","This is a wug:","null","","","","",""
"","image-keyboard-response","161","437354","0.0-6.0-1.51","LF","re8dk0velw","1440","900","en","ic25an08","null","","","","","","","","learning/Slide52.JPG","null","","","","",""
"","html-keyboard-response","162","438356","0.0-6.0-2.51","LF","re8dk0velw","1440","900","en","ic25an08","null","","","","learningBlock1","","","","<div style=""font-size:60px;""> </div>","null","LF","learning/Slide52.JPG","This is a wug:","",""
"","html-keyboard-response","163","439359","0.0-6.0-0.52","LF","re8dk0velw","1440","900","en","ic25an08","null","","","","learningBlock1","","","","This is a tob:","null","","","","",""
"","image-keyboard-response","164","439688","0.0-6.0-1.52","LF","re8dk0velw","1440","900","en","ic25an08","null","","","","","","","","learning/Slide53.JPG","null","","","","",""
"","html-keyboard-response","165","440690","0.0-6.0-2.52","LF","re8dk0velw","1440","900","en","ic25an08","null","","","","learningBlock1","","","","<div style=""font-size:60px;""> </div>","null","LF","learning/Slide53.JPG","This is a tob:","",""
"","html-keyboard-response","166","441693","0.0-6.0-0.53","LF","re8dk0velw","1440","900","en","ic25an08","null","","","","learningBlock1","","","","This is a dep:","null","","","","",""
"","image-keyboard-response","167","442021","0.0-6.0-1.53","LF","re8dk0velw","1440","900","en","ic25an08","null","","","","","","","","learning/Slide54.JPG","null","","","","",""
"","html-keyboard-response","168","443023","0.0-6.0-2.53","LF","re8dk0velw","1440","900","en","ic25an08","null","","","","learningBlock1","","","","<div style=""font-size:60px;""> </div>","null","LF","learning/Slide54.JPG","This is a dep:","",""
"","html-keyboard-response","169","444027","0.0-6.0-0.54","LF","re8dk0velw","1440","900","en","ic25an08","null","","","","learningBlock1","","","","This is a bim:","null","","","","",""
"","image-keyboard-response","170","444355","0.0-6.0-1.54","LF","re8dk0velw","1440","900","en","ic25an08","null","","","","","","","","learning/Slide55.JPG","null","","","","",""
"","html-keyboard-response","171","445358","0.0-6.0-2.54","LF","re8dk0velw","1440","900","en","ic25an08","null","","","","learningBlock1","","","","<div style=""font-size:60px;""> </div>","null","LF","learning/Slide55.JPG","This is a bim:","",""
"","html-keyboard-response","172","446361","0.0-6.0-0.55","LF","re8dk0velw","1440","900","en","ic25an08","null","","","","learningBlock1","","","","This is a tob:","null","","","","",""
"","image-keyboard-response","173","446688","0.0-6.0-1.55","LF","re8dk0velw","1440","900","en","ic25an08","null","","","","","","","","learning/Slide56.JPG","null","","","","",""
"","html-keyboard-response","174","447689","0.0-6.0-2.55","LF","re8dk0velw","1440","900","en","ic25an08","null","","","","learningBlock1","","","","<div style=""font-size:60px;""> </div>","null","LF","learning/Slide56.JPG","This is a tob:","",""
"","html-keyboard-response","175","448693","0.0-6.0-0.56","LF","re8dk0velw","1440","900","en","ic25an08","null","","","","learningBlock1","","","","This is a dep:","null","","","","",""
"","image-keyboard-response","176","449021","0.0-6.0-1.56","LF","re8dk0velw","1440","900","en","ic25an08","null","","","","","","","","learning/Slide57.JPG","null","","","","",""
"","html-keyboard-response","177","450023","0.0-6.0-2.56","LF","re8dk0velw","1440","900","en","ic25an08","null","","","","learningBlock1","","","","<div style=""font-size:60px;""> </div>","null","LF","learning/Slide57.JPG","This is a dep:","",""
"","html-keyboard-response","178","451026","0.0-6.0-0.57","LF","re8dk0velw","1440","900","en","ic25an08","null","","","","learningBlock1","","","","This is a wug:","null","","","","",""
"","image-keyboard-response","179","451355","0.0-6.0-1.57","LF","re8dk0velw","1440","900","en","ic25an08","null","","","","","","","","learning/Slide58.JPG","null","","","","",""
"","html-keyboard-response","180","452356","0.0-6.0-2.57","LF","re8dk0velw","1440","900","en","ic25an08","null","","","","learningBlock1","","","","<div style=""font-size:60px;""> </div>","null","LF","learning/Slide58.JPG","This is a wug:","",""
"","html-keyboard-response","181","453359","0.0-6.0-0.58","LF","re8dk0velw","1440","900","en","ic25an08","null","","","","learningBlock1","","","","This is a dep:","null","","","","",""
"","image-keyboard-response","182","453687","0.0-6.0-1.58","LF","re8dk0velw","1440","900","en","ic25an08","null","","","","","","","","learning/Slide59.JPG","null","","","","",""
"","html-keyboard-response","183","454690","0.0-6.0-2.58","LF","re8dk0velw","1440","900","en","ic25an08","null","","","","learningBlock1","","","","<div style=""font-size:60px;""> </div>","null","LF","learning/Slide59.JPG","This is a dep:","",""
"","html-keyboard-response","184","455693","0.0-6.0-0.59","LF","re8dk0velw","1440","900","en","ic25an08","null","","","","learningBlock1","","","","This is a wug:","null","","","","",""
"","image-keyboard-response","185","456021","0.0-6.0-1.59","LF","re8dk0velw","1440","900","en","ic25an08","null","","","","","","","","learning/Slide60.JPG","null","","","","",""
"","html-keyboard-response","186","457024","0.0-6.0-2.59","LF","re8dk0velw","1440","900","en","ic25an08","null","","","","learningBlock1","","","","<div style=""font-size:60px;""> </div>","null","LF","learning/Slide60.JPG","This is a wug:","",""
"","html-keyboard-response","187","458027","0.0-6.0-0.60","LF","re8dk0velw","1440","900","en","ic25an08","null","","","","learningBlock1","","","","This is a bim:","null","","","","",""
"","image-keyboard-response","188","458355","0.0-6.0-1.60","LF","re8dk0velw","1440","900","en","ic25an08","null","","","","","","","","learning/Slide61.JPG","null","","","","",""
"","html-keyboard-response","189","459358","0.0-6.0-2.60","LF","re8dk0velw","1440","900","en","ic25an08","null","","","","learningBlock1","","","","<div style=""font-size:60px;""> </div>","null","LF","learning/Slide61.JPG","This is a bim:","",""
"","html-keyboard-response","190","460361","0.0-6.0-0.61","LF","re8dk0velw","1440","900","en","ic25an08","null","","","","learningBlock1","","","","This is a dep:","null","","","","",""
"","image-keyboard-response","191","460689","0.0-6.0-1.61","LF","re8dk0velw","1440","900","en","ic25an08","null","","","","","","","","learning/Slide62.JPG","null","","","","",""
"","html-keyboard-response","192","461691","0.0-6.0-2.61","LF","re8dk0velw","1440","900","en","ic25an08","null","","","","learningBlock1","","","","<div style=""font-size:60px;""> </div>","null","LF","learning/Slide62.JPG","This is a dep:","",""
"","html-keyboard-response","193","462694","0.0-6.0-0.62","LF","re8dk0velw","1440","900","en","ic25an08","null","","","","learningBlock1","","","","This is a bim:","null","","","","",""
"","image-keyboard-response","194","463023","0.0-6.0-1.62","LF","re8dk0velw","1440","900","en","ic25an08","null","","","","","","","","learning/Slide63.JPG","null","","","","",""
"","html-keyboard-response","195","464025","0.0-6.0-2.62","LF","re8dk0velw","1440","900","en","ic25an08","null","","","","learningBlock1","","","","<div style=""font-size:60px;""> </div>","null","LF","learning/Slide63.JPG","This is a bim:","",""
"","html-keyboard-response","196","465028","0.0-6.0-0.63","LF","re8dk0velw","1440","900","en","ic25an08","null","","","","learningBlock1","","","","This is a tob:","null","","","","",""
"","image-keyboard-response","197","465356","0.0-6.0-1.63","LF","re8dk0velw","1440","900","en","ic25an08","null","","","","","","","","learning/Slide64.JPG","null","","","","",""
"","html-keyboard-response","198","466359","0.0-6.0-2.63","LF","re8dk0velw","1440","900","en","ic25an08","null","","","","learningBlock1","","","","<div style=""font-size:60px;""> </div>","null","LF","learning/Slide64.JPG","This is a tob:","",""
"","html-keyboard-response","199","467362","0.0-6.0-0.64","LF","re8dk0velw","1440","900","en","ic25an08","null","","","","learningBlock1","","","","This is a wug:","null","","","","",""
"","image-keyboard-response","200","467690","0.0-6.0-1.64","LF","re8dk0velw","1440","900","en","ic25an08","null","","","","","","","","learning/Slide65.JPG","null","","","","",""
"","html-keyboard-response","201","468692","0.0-6.0-2.64","LF","re8dk0velw","1440","900","en","ic25an08","null","","","","learningBlock1","","","","<div style=""font-size:60px;""> </div>","null","LF","learning/Slide65.JPG","This is a wug:","",""
"","html-keyboard-response","202","469695","0.0-6.0-0.65","LF","re8dk0velw","1440","900","en","ic25an08","null","","","","learningBlock1","","","","This is a dep:","null","","","","",""
"","image-keyboard-response","203","470023","0.0-6.0-1.65","LF","re8dk0velw","1440","900","en","ic25an08","null","","","","","","","","learning/Slide66.JPG","null","","","","",""
"","html-keyboard-response","204","471026","0.0-6.0-2.65","LF","re8dk0velw","1440","900","en","ic25an08","null","","","","learningBlock1","","","","<div style=""font-size:60px;""> </div>","null","LF","learning/Slide66.JPG","This is a dep:","",""
"","html-keyboard-response","205","472029","0.0-6.0-0.66","LF","re8dk0velw","1440","900","en","ic25an08","null","","","","learningBlock1","","","","This is a tob:","null","","","","",""
"","image-keyboard-response","206","472357","0.0-6.0-1.66","LF","re8dk0velw","1440","900","en","ic25an08","null","","","","","","","","learning/Slide67.JPG","null","","","","",""
"","html-keyboard-response","207","473359","0.0-6.0-2.66","LF","re8dk0velw","1440","900","en","ic25an08","null","","","","learningBlock1","","","","<div style=""font-size:60px;""> </div>","null","LF","learning/Slide67.JPG","This is a tob:","",""
"","html-keyboard-response","208","474362","0.0-6.0-0.67","LF","re8dk0velw","1440","900","en","ic25an08","null","","","","learningBlock1","","","","This is a wug:","null","","","","",""
"","image-keyboard-response","209","474690","0.0-6.0-1.67","LF","re8dk0velw","1440","900","en","ic25an08","null","","","","","","","","learning/Slide68.JPG","null","","","","",""
"","html-keyboard-response","210","475692","0.0-6.0-2.67","LF","re8dk0velw","1440","900","en","ic25an08","null","","","","learningBlock1","","","","<div style=""font-size:60px;""> </div>","null","LF","learning/Slide68.JPG","This is a wug:","",""
"","html-keyboard-response","211","476695","0.0-6.0-0.68","LF","re8dk0velw","1440","900","en","ic25an08","null","","","","learningBlock1","","","","This is a tob:","null","","","","",""
"","image-keyboard-response","212","477023","0.0-6.0-1.68","LF","re8dk0velw","1440","900","en","ic25an08","null","","","","","","","","learning/Slide69.JPG","null","","","","",""
"","html-keyboard-response","213","478026","0.0-6.0-2.68","LF","re8dk0velw","1440","900","en","ic25an08","null","","","","learningBlock1","","","","<div style=""font-size:60px;""> </div>","null","LF","learning/Slide69.JPG","This is a tob:","",""
"","html-keyboard-response","214","479029","0.0-6.0-0.69","LF","re8dk0velw","1440","900","en","ic25an08","null","","","","learningBlock1","","","","This is a dep:","null","","","","",""
"","image-keyboard-response","215","479357","0.0-6.0-1.69","LF","re8dk0velw","1440","900","en","ic25an08","null","","","","","","","","learning/Slide70.JPG","null","","","","",""
"","html-keyboard-response","216","480360","0.0-6.0-2.69","LF","re8dk0velw","1440","900","en","ic25an08","null","","","","learningBlock1","","","","<div style=""font-size:60px;""> </div>","null","LF","learning/Slide70.JPG","This is a dep:","",""
"","html-keyboard-response","217","481363","0.0-6.0-0.70","LF","re8dk0velw","1440","900","en","ic25an08","null","","","","learningBlock1","","","","This is a wug:","null","","","","",""
"","image-keyboard-response","218","481691","0.0-6.0-1.70","LF","re8dk0velw","1440","900","en","ic25an08","null","","","","","","","","learning/Slide71.JPG","null","","","","",""
"","html-keyboard-response","219","482693","0.0-6.0-2.70","LF","re8dk0velw","1440","900","en","ic25an08","null","","","","learningBlock1","","","","<div style=""font-size:60px;""> </div>","null","LF","learning/Slide71.JPG","This is a wug:","",""
"","html-keyboard-response","220","483696","0.0-6.0-0.71","LF","re8dk0velw","1440","900","en","ic25an08","null","","","","learningBlock1","","","","This is a bim:","null","","","","",""
"","image-keyboard-response","221","484024","0.0-6.0-1.71","LF","re8dk0velw","1440","900","en","ic25an08","null","","","","","","","","learning/Slide72.JPG","null","","","","",""
"","html-keyboard-response","222","485027","0.0-6.0-2.71","LF","re8dk0velw","1440","900","en","ic25an08","null","","","","learningBlock1","","","","<div style=""font-size:60px;""> </div>","null","LF","learning/Slide72.JPG","This is a bim:","",""
"","html-keyboard-response","223","486030","0.0-6.0-0.72","LF","re8dk0velw","1440","900","en","ic25an08","null","","","","learningBlock1","","","","This is a wug:","null","","","","",""
"","image-keyboard-response","224","486358","0.0-6.0-1.72","LF","re8dk0velw","1440","900","en","ic25an08","null","","","","","","","","learning/Slide73.JPG","null","","","","",""
"","html-keyboard-response","225","487360","0.0-6.0-2.72","LF","re8dk0velw","1440","900","en","ic25an08","null","","","","learningBlock1","","","","<div style=""font-size:60px;""> </div>","null","LF","learning/Slide73.JPG","This is a wug:","",""
"","html-keyboard-response","226","488363","0.0-6.0-0.73","LF","re8dk0velw","1440","900","en","ic25an08","null","","","","learningBlock1","","","","This is a dep:","null","","","","",""
"","image-keyboard-response","227","488692","0.0-6.0-1.73","LF","re8dk0velw","1440","900","en","ic25an08","null","","","","","","","","learning/Slide74.JPG","null","","","","",""
"","html-keyboard-response","228","489694","0.0-6.0-2.73","LF","re8dk0velw","1440","900","en","ic25an08","null","","","","learningBlock1","","","","<div style=""font-size:60px;""> </div>","null","LF","learning/Slide74.JPG","This is a dep:","",""
"","html-keyboard-response","229","490697","0.0-6.0-0.74","LF","re8dk0velw","1440","900","en","ic25an08","null","","","","learningBlock1","","","","This is a tob:","null","","","","",""
"","image-keyboard-response","230","491025","0.0-6.0-1.74","LF","re8dk0velw","1440","900","en","ic25an08","null","","","","","","","","learning/Slide75.JPG","null","","","","",""
"","html-keyboard-response","231","492027","0.0-6.0-2.74","LF","re8dk0velw","1440","900","en","ic25an08","null","","","","learningBlock1","","","","<div style=""font-size:60px;""> </div>","null","LF","learning/Slide75.JPG","This is a tob:","",""
"","html-keyboard-response","232","493030","0.0-6.0-0.75","LF","re8dk0velw","1440","900","en","ic25an08","null","","","","learningBlock1","","","","This is a bim:","null","","","","",""
"","image-keyboard-response","233","493359","0.0-6.0-1.75","LF","re8dk0velw","1440","900","en","ic25an08","null","","","","","","","","learning/Slide76.JPG","null","","","","",""
"","html-keyboard-response","234","494361","0.0-6.0-2.75","LF","re8dk0velw","1440","900","en","ic25an08","null","","","","learningBlock1","","","","<div style=""font-size:60px;""> </div>","null","LF","learning/Slide76.JPG","This is a bim:","",""
"","html-keyboard-response","235","495364","0.0-6.0-0.76","LF","re8dk0velw","1440","900","en","ic25an08","null","","","","learningBlock1","","","","This is a tob:","null","","","","",""
"","image-keyboard-response","236","495692","0.0-6.0-1.76","LF","re8dk0velw","1440","900","en","ic25an08","null","","","","","","","","learning/Slide77.JPG","null","","","","",""
"","html-keyboard-response","237","496694","0.0-6.0-2.76","LF","re8dk0velw","1440","900","en","ic25an08","null","","","","learningBlock1","","","","<div style=""font-size:60px;""> </div>","null","LF","learning/Slide77.JPG","This is a tob:","",""
"","html-keyboard-response","238","497697","0.0-6.0-0.77","LF","re8dk0velw","1440","900","en","ic25an08","null","","","","learningBlock1","","","","This is a wug:","null","","","","",""
"","image-keyboard-response","239","498026","0.0-6.0-1.77","LF","re8dk0velw","1440","900","en","ic25an08","null","","","","","","","","learning/Slide78.JPG","null","","","","",""
"","html-keyboard-response","240","499028","0.0-6.0-2.77","LF","re8dk0velw","1440","900","en","ic25an08","null","","","","learningBlock1","","","","<div style=""font-size:60px;""> </div>","null","LF","learning/Slide78.JPG","This is a wug:","",""
"","html-keyboard-response","241","500031","0.0-6.0-0.78","LF","re8dk0velw","1440","900","en","ic25an08","null","","","","learningBlock1","","","","This is a bim:","null","","","","",""
"","image-keyboard-response","242","500359","0.0-6.0-1.78","LF","re8dk0velw","1440","900","en","ic25an08","null","","","","","","","","learning/Slide79.JPG","null","","","","",""
"","html-keyboard-response","243","501361","0.0-6.0-2.78","LF","re8dk0velw","1440","900","en","ic25an08","null","","","","learningBlock1","","","","<div style=""font-size:60px;""> </div>","null","LF","learning/Slide79.JPG","This is a bim:","",""
"","html-keyboard-response","244","502364","0.0-6.0-0.79","LF","re8dk0velw","1440","900","en","ic25an08","null","","","","learningBlock1","","","","This is a tob:","null","","","","",""
"","image-keyboard-response","245","502692","0.0-6.0-1.79","LF","re8dk0velw","1440","900","en","ic25an08","null","","","","","","","","learning/Slide80.JPG","null","","","","",""
"","html-keyboard-response","246","503694","0.0-6.0-2.79","LF","re8dk0velw","1440","900","en","ic25an08","null","","","","learningBlock1","","","","<div style=""font-size:60px;""> </div>","null","LF","learning/Slide80.JPG","This is a tob:","",""
"","instructions","247","507513","0.0-7.0","LF","re8dk0velw","1440","900","en","ic25an08","NA","","","[{""page_index"":0,""viewing_time"":3818}]","instructions","","","","","","","","","",""
"","html-keyboard-response","248","508517","0.0-8.0-0.0","LF","re8dk0velw","1440","900","en","ic25an08","null","","","","learningBlock2","","","","This is a wug:","null","","","","",""
"","image-keyboard-response","249","508845","0.0-8.0-1.0","LF","re8dk0velw","1440","900","en","ic25an08","null","","","","","","","","learning/Slide81.JPG","null","","","","",""
"","html-keyboard-response","250","509848","0.0-8.0-2.0","LF","re8dk0velw","1440","900","en","ic25an08","null","","","","learningBlock2","","","","<div style=""font-size:60px;""> </div>","null","LF","learning/Slide81.JPG","This is a wug:","",""
"","html-keyboard-response","251","510851","0.0-8.0-0.1","LF","re8dk0velw","1440","900","en","ic25an08","null","","","","learningBlock2","","","","This is a bim:","null","","","","",""
"","image-keyboard-response","252","511178","0.0-8.0-1.1","LF","re8dk0velw","1440","900","en","ic25an08","null","","","","","","","","learning/Slide82.JPG","null","","","","",""
"","html-keyboard-response","253","512181","0.0-8.0-2.1","LF","re8dk0velw","1440","900","en","ic25an08","null","","","","learningBlock2","","","","<div style=""font-size:60px;""> </div>","null","LF","learning/Slide82.JPG","This is a bim:","",""
"","html-keyboard-response","254","513184","0.0-8.0-0.2","LF","re8dk0velw","1440","900","en","ic25an08","null","","","","learningBlock2","","","","This is a wug:","null","","","","",""
"","image-keyboard-response","255","513511","0.0-8.0-1.2","LF","re8dk0velw","1440","900","en","ic25an08","null","","","","","","","","learning/Slide83.JPG","null","","","","",""
"","html-keyboard-response","256","514514","0.0-8.0-2.2","LF","re8dk0velw","1440","900","en","ic25an08","null","","","","learningBlock2","","","","<div style=""font-size:60px;""> </div>","null","LF","learning/Slide83.JPG","This is a wug:","",""
"","html-keyboard-response","257","515516","0.0-8.0-0.3","LF","re8dk0velw","1440","900","en","ic25an08","null","","","","learningBlock2","","","","This is a dep:","null","","","","",""
"","image-keyboard-response","258","515844","0.0-8.0-1.3","LF","re8dk0velw","1440","900","en","ic25an08","null","","","","","","","","learning/Slide84.JPG","null","","","","",""
"","html-keyboard-response","259","516845","0.0-8.0-2.3","LF","re8dk0velw","1440","900","en","ic25an08","null","","","","learningBlock2","","","","<div style=""font-size:60px;""> </div>","null","LF","learning/Slide84.JPG","This is a dep:","",""
"","html-keyboard-response","260","517848","0.0-8.0-0.4","LF","re8dk0velw","1440","900","en","ic25an08","null","","","","learningBlock2","","","","This is a bim:","null","","","","",""
"","image-keyboard-response","261","518176","0.0-8.0-1.4","LF","re8dk0velw","1440","900","en","ic25an08","null","","","","","","","","learning/Slide85.JPG","null","","","","",""
"","html-keyboard-response","262","519179","0.0-8.0-2.4","LF","re8dk0velw","1440","900","en","ic25an08","null","","","","learningBlock2","","","","<div style=""font-size:60px;""> </div>","null","LF","learning/Slide85.JPG","This is a bim:","",""
"","html-keyboard-response","263","520182","0.0-8.0-0.5","LF","re8dk0velw","1440","900","en","ic25an08","null","","","","learningBlock2","","","","This is a tob:","null","","","","",""
"","image-keyboard-response","264","520510","0.0-8.0-1.5","LF","re8dk0velw","1440","900","en","ic25an08","null","","","","","","","","learning/Slide86.JPG","null","","","","",""
"","html-keyboard-response","265","521513","0.0-8.0-2.5","LF","re8dk0velw","1440","900","en","ic25an08","null","","","","learningBlock2","","","","<div style=""font-size:60px;""> </div>","null","LF","learning/Slide86.JPG","This is a tob:","",""
"","html-keyboard-response","266","522516","0.0-8.0-0.6","LF","re8dk0velw","1440","900","en","ic25an08","null","","","","learningBlock2","","","","This is a wug:","null","","","","",""
"","image-keyboard-response","267","522844","0.0-8.0-1.6","LF","re8dk0velw","1440","900","en","ic25an08","null","","","","","","","","learning/Slide87.JPG","null","","","","",""
"","html-keyboard-response","268","523847","0.0-8.0-2.6","LF","re8dk0velw","1440","900","en","ic25an08","null","","","","learningBlock2","","","","<div style=""font-size:60px;""> </div>","null","LF","learning/Slide87.JPG","This is a wug:","",""
"","html-keyboard-response","269","524850","0.0-8.0-0.7","LF","re8dk0velw","1440","900","en","ic25an08","null","","","","learningBlock2","","","","This is a tob:","null","","","","",""
"","image-keyboard-response","270","525177","0.0-8.0-1.7","LF","re8dk0velw","1440","900","en","ic25an08","null","","","","","","","","learning/Slide88.JPG","null","","","","",""
"","html-keyboard-response","271","526180","0.0-8.0-2.7","LF","re8dk0velw","1440","900","en","ic25an08","null","","","","learningBlock2","","","","<div style=""font-size:60px;""> </div>","null","LF","learning/Slide88.JPG","This is a tob:","",""
"","html-keyboard-response","272","527182","0.0-8.0-0.8","LF","re8dk0velw","1440","900","en","ic25an08","null","","","","learningBlock2","","","","This is a bim:","null","","","","",""
"","image-keyboard-response","273","527510","0.0-8.0-1.8","LF","re8dk0velw","1440","900","en","ic25an08","null","","","","","","","","learning/Slide89.JPG","null","","","","",""
"","html-keyboard-response","274","528513","0.0-8.0-2.8","LF","re8dk0velw","1440","900","en","ic25an08","null","","","","learningBlock2","","","","<div style=""font-size:60px;""> </div>","null","LF","learning/Slide89.JPG","This is a bim:","",""
"","html-keyboard-response","275","529516","0.0-8.0-0.9","LF","re8dk0velw","1440","900","en","ic25an08","null","","","","learningBlock2","","","","This is a dep:","null","","","","",""
"","image-keyboard-response","276","529844","0.0-8.0-1.9","LF","re8dk0velw","1440","900","en","ic25an08","null","","","","","","","","learning/Slide90.JPG","null","","","","",""
"","html-keyboard-response","277","530847","0.0-8.0-2.9","LF","re8dk0velw","1440","900","en","ic25an08","null","","","","learningBlock2","","","","<div style=""font-size:60px;""> </div>","null","LF","learning/Slide90.JPG","This is a dep:","",""
"","html-keyboard-response","278","531850","0.0-8.0-0.10","LF","re8dk0velw","1440","900","en","ic25an08","null","","","","learningBlock2","","","","This is a wug:","null","","","","",""
"","image-keyboard-response","279","532178","0.0-8.0-1.10","LF","re8dk0velw","1440","900","en","ic25an08","null","","","","","","","","learning/Slide91.JPG","null","","","","",""
"","html-keyboard-response","280","533180","0.0-8.0-2.10","LF","re8dk0velw","1440","900","en","ic25an08","null","","","","learningBlock2","","","","<div style=""font-size:60px;""> </div>","null","LF","learning/Slide91.JPG","This is a wug:","",""
"","html-keyboard-response","281","534183","0.0-8.0-0.11","LF","re8dk0velw","1440","900","en","ic25an08","null","","","","learningBlock2","","","","This is a tob:","null","","","","",""
"","image-keyboard-response","282","534511","0.0-8.0-1.11","LF","re8dk0velw","1440","900","en","ic25an08","null","","","","","","","","learning/Slide92.JPG","null","","","","",""
"","html-keyboard-response","283","535513","0.0-8.0-2.11","LF","re8dk0velw","1440","900","en","ic25an08","null","","","","learningBlock2","","","","<div style=""font-size:60px;""> </div>","null","LF","learning/Slide92.JPG","This is a tob:","",""
"","html-keyboard-response","284","536516","0.0-8.0-0.12","LF","re8dk0velw","1440","900","en","ic25an08","null","","","","learningBlock2","","","","This is a bim:","null","","","","",""
"","image-keyboard-response","285","536845","0.0-8.0-1.12","LF","re8dk0velw","1440","900","en","ic25an08","null","","","","","","","","learning/Slide93.JPG","null","","","","",""
"","html-keyboard-response","286","537847","0.0-8.0-2.12","LF","re8dk0velw","1440","900","en","ic25an08","null","","","","learningBlock2","","","","<div style=""font-size:60px;""> </div>","null","LF","learning/Slide93.JPG","This is a bim:","",""
"","html-keyboard-response","287","538850","0.0-8.0-0.13","LF","re8dk0velw","1440","900","en","ic25an08","null","","","","learningBlock2","","","","This is a tob:","null","","","","",""
"","image-keyboard-response","288","539179","0.0-8.0-1.13","LF","re8dk0velw","1440","900","en","ic25an08","null","","","","","","","","learning/Slide94.JPG","null","","","","",""
"","html-keyboard-response","289","540180","0.0-8.0-2.13","LF","re8dk0velw","1440","900","en","ic25an08","null","","","","learningBlock2","","","","<div style=""font-size:60px;""> </div>","null","LF","learning/Slide94.JPG","This is a tob:","",""
"","html-keyboard-response","290","541183","0.0-8.0-0.14","LF","re8dk0velw","1440","900","en","ic25an08","null","","","","learningBlock2","","","","This is a wug:","null","","","","",""
"","image-keyboard-response","291","541511","0.0-8.0-1.14","LF","re8dk0velw","1440","900","en","ic25an08","null","","","","","","","","learning/Slide95.JPG","null","","","","",""
"","html-keyboard-response","292","542512","0.0-8.0-2.14","LF","re8dk0velw","1440","900","en","ic25an08","null","","","","learningBlock2","","","","<div style=""font-size:60px;""> </div>","null","LF","learning/Slide95.JPG","This is a wug:","",""
"","html-keyboard-response","293","543515","0.0-8.0-0.15","LF","re8dk0velw","1440","900","en","ic25an08","null","","","","learningBlock2","","","","This is a tob:","null","","","","",""
"","image-keyboard-response","294","543843","0.0-8.0-1.15","LF","re8dk0velw","1440","900","en","ic25an08","null","","","","","","","","learning/Slide96.JPG","null","","","","",""
"","html-keyboard-response","295","544846","0.0-8.0-2.15","LF","re8dk0velw","1440","900","en","ic25an08","null","","","","learningBlock2","","","","<div style=""font-size:60px;""> </div>","null","LF","learning/Slide96.JPG","This is a tob:","",""
"","html-keyboard-response","296","545849","0.0-8.0-0.16","LF","re8dk0velw","1440","900","en","ic25an08","null","","","","learningBlock2","","","","This is a dep:","null","","","","",""
"","image-keyboard-response","297","546177","0.0-8.0-1.16","LF","re8dk0velw","1440","900","en","ic25an08","null","","","","","","","","learning/Slide97.JPG","null","","","","",""
"","html-keyboard-response","298","547180","0.0-8.0-2.16","LF","re8dk0velw","1440","900","en","ic25an08","null","","","","learningBlock2","","","","<div style=""font-size:60px;""> </div>","null","LF","learning/Slide97.JPG","This is a dep:","",""
"","html-keyboard-response","299","548183","0.0-8.0-0.17","LF","re8dk0velw","1440","900","en","ic25an08","null","","","","learningBlock2","","","","This is a bim:","null","","","","",""
"","image-keyboard-response","300","548511","0.0-8.0-1.17","LF","re8dk0velw","1440","900","en","ic25an08","null","","","","","","","","learning/Slide98.JPG","null","","","","",""
"","html-keyboard-response","301","549513","0.0-8.0-2.17","LF","re8dk0velw","1440","900","en","ic25an08","null","","","","learningBlock2","","","","<div style=""font-size:60px;""> </div>","null","LF","learning/Slide98.JPG","This is a bim:","",""
"","html-keyboard-response","302","550517","0.0-8.0-0.18","LF","re8dk0velw","1440","900","en","ic25an08","null","","","","learningBlock2","","","","This is a dep:","null","","","","",""
"","image-keyboard-response","303","550845","0.0-8.0-1.18","LF","re8dk0velw","1440","900","en","ic25an08","null","","","","","","","","learning/Slide99.JPG","null","","","","",""
"","html-keyboard-response","304","551847","0.0-8.0-2.18","LF","re8dk0velw","1440","900","en","ic25an08","null","","","","learningBlock2","","","","<div style=""font-size:60px;""> </div>","null","LF","learning/Slide99.JPG","This is a dep:","",""
"","html-keyboard-response","305","552850","0.0-8.0-0.19","LF","re8dk0velw","1440","900","en","ic25an08","null","","","","learningBlock2","","","","This is a bim:","null","","","","",""
"","image-keyboard-response","306","553178","0.0-8.0-1.19","LF","re8dk0velw","1440","900","en","ic25an08","null","","","","","","","","learning/Slide100.JPG","null","","","","",""
"","html-keyboard-response","307","554181","0.0-8.0-2.19","LF","re8dk0velw","1440","900","en","ic25an08","null","","","","learningBlock2","","","","<div style=""font-size:60px;""> </div>","null","LF","learning/Slide100.JPG","This is a bim:","",""
"","html-keyboard-response","308","555184","0.0-8.0-0.20","LF","re8dk0velw","1440","900","en","ic25an08","null","","","","learningBlock2","","","","This is a tob:","null","","","","",""
"","image-keyboard-response","309","555511","0.0-8.0-1.20","LF","re8dk0velw","1440","900","en","ic25an08","null","","","","","","","","learning/Slide101.JPG","null","","","","",""
"","html-keyboard-response","310","556514","0.0-8.0-2.20","LF","re8dk0velw","1440","900","en","ic25an08","null","","","","learningBlock2","","","","<div style=""font-size:60px;""> </div>","null","LF","learning/Slide101.JPG","This is a tob:","",""
"","html-keyboard-response","311","557517","0.0-8.0-0.21","LF","re8dk0velw","1440","900","en","ic25an08","null","","","","learningBlock2","","","","This is a bim:","null","","","","",""
"","image-keyboard-response","312","557845","0.0-8.0-1.21","LF","re8dk0velw","1440","900","en","ic25an08","null","","","","","","","","learning/Slide102.JPG","null","","","","",""
"","html-keyboard-response","313","558848","0.0-8.0-2.21","LF","re8dk0velw","1440","900","en","ic25an08","null","","","","learningBlock2","","","","<div style=""font-size:60px;""> </div>","null","LF","learning/Slide102.JPG","This is a bim:","",""
"","html-keyboard-response","314","559851","0.0-8.0-0.22","LF","re8dk0velw","1440","900","en","ic25an08","null","","","","learningBlock2","","","","This is a dep:","null","","","","",""
"","image-keyboard-response","315","560179","0.0-8.0-1.22","LF","re8dk0velw","1440","900","en","ic25an08","null","","","","","","","","learning/Slide103.JPG","null","","","","",""
"","html-keyboard-response","316","561182","0.0-8.0-2.22","LF","re8dk0velw","1440","900","en","ic25an08","null","","","","learningBlock2","","","","<div style=""font-size:60px;""> </div>","null","LF","learning/Slide103.JPG","This is a dep:","",""
"","html-keyboard-response","317","562185","0.0-8.0-0.23","LF","re8dk0velw","1440","900","en","ic25an08","null","","","","learningBlock2","","","","This is a tob:","null","","","","",""
"","image-keyboard-response","318","562513","0.0-8.0-1.23","LF","re8dk0velw","1440","900","en","ic25an08","null","","","","","","","","learning/Slide104.JPG","null","","","","",""
"","html-keyboard-response","319","563515","0.0-8.0-2.23","LF","re8dk0velw","1440","900","en","ic25an08","null","","","","learningBlock2","","","","<div style=""font-size:60px;""> </div>","null","LF","learning/Slide104.JPG","This is a tob:","",""
"","html-keyboard-response","320","564518","0.0-8.0-0.24","LF","re8dk0velw","1440","900","en","ic25an08","null","","","","learningBlock2","","","","This is a dep:","null","","","","",""
"","image-keyboard-response","321","564847","0.0-8.0-1.24","LF","re8dk0velw","1440","900","en","ic25an08","null","","","","","","","","learning/Slide105.JPG","null","","","","",""
"","html-keyboard-response","322","565849","0.0-8.0-2.24","LF","re8dk0velw","1440","900","en","ic25an08","null","","","","learningBlock2","","","","<div style=""font-size:60px;""> </div>","null","LF","learning/Slide105.JPG","This is a dep:","",""
"","html-keyboard-response","323","566852","0.0-8.0-0.25","LF","re8dk0velw","1440","900","en","ic25an08","null","","","","learningBlock2","","","","This is a wug:","null","","","","",""
"","image-keyboard-response","324","567179","0.0-8.0-1.25","LF","re8dk0velw","1440","900","en","ic25an08","null","","","","","","","","learning/Slide106.JPG","null","","","","",""
"","html-keyboard-response","325","568182","0.0-8.0-2.25","LF","re8dk0velw","1440","900","en","ic25an08","null","","","","learningBlock2","","","","<div style=""font-size:60px;""> </div>","null","LF","learning/Slide106.JPG","This is a wug:","",""
"","html-keyboard-response","326","569185","0.0-8.0-0.26","LF","re8dk0velw","1440","900","en","ic25an08","null","","","","learningBlock2","","","","This is a bim:","null","","","","",""
"","image-keyboard-response","327","569513","0.0-8.0-1.26","LF","re8dk0velw","1440","900","en","ic25an08","null","","","","","","","","learning/Slide107.JPG","null","","","","",""
"","html-keyboard-response","328","570515","0.0-8.0-2.26","LF","re8dk0velw","1440","900","en","ic25an08","null","","","","learningBlock2","","","","<div style=""font-size:60px;""> </div>","null","LF","learning/Slide107.JPG","This is a bim:","",""
"","html-keyboard-response","329","571519","0.0-8.0-0.27","LF","re8dk0velw","1440","900","en","ic25an08","null","","","","learningBlock2","","","","This is a dep:","null","","","","",""
"","image-keyboard-response","330","571847","0.0-8.0-1.27","LF","re8dk0velw","1440","900","en","ic25an08","null","","","","","","","","learning/Slide108.JPG","null","","","","",""
"","html-keyboard-response","331","572849","0.0-8.0-2.27","LF","re8dk0velw","1440","900","en","ic25an08","null","","","","learningBlock2","","","","<div style=""font-size:60px;""> </div>","null","LF","learning/Slide108.JPG","This is a dep:","",""
"","html-keyboard-response","332","573852","0.0-8.0-0.28","LF","re8dk0velw","1440","900","en","ic25an08","null","","","","learningBlock2","","","","This is a wug:","null","","","","",""
"","image-keyboard-response","333","574181","0.0-8.0-1.28","LF","re8dk0velw","1440","900","en","ic25an08","null","","","","","","","","learning/Slide109.JPG","null","","","","",""
"","html-keyboard-response","334","575183","0.0-8.0-2.28","LF","re8dk0velw","1440","900","en","ic25an08","null","","","","learningBlock2","","","","<div style=""font-size:60px;""> </div>","null","LF","learning/Slide109.JPG","This is a wug:","",""
"","html-keyboard-response","335","576186","0.0-8.0-0.29","LF","re8dk0velw","1440","900","en","ic25an08","null","","","","learningBlock2","","","","This is a bim:","null","","","","",""
"","image-keyboard-response","336","576515","0.0-8.0-1.29","LF","re8dk0velw","1440","900","en","ic25an08","null","","","","","","","","learning/Slide110.JPG","null","","","","",""
"","html-keyboard-response","337","577517","0.0-8.0-2.29","LF","re8dk0velw","1440","900","en","ic25an08","null","","","","learningBlock2","","","","<div style=""font-size:60px;""> </div>","null","LF","learning/Slide110.JPG","This is a bim:","",""
"","html-keyboard-response","338","578520","0.0-8.0-0.30","LF","re8dk0velw","1440","900","en","ic25an08","null","","","","learningBlock2","","","","This is a tob:","null","","","","",""
"","image-keyboard-response","339","578848","0.0-8.0-1.30","LF","re8dk0velw","1440","900","en","ic25an08","null","","","","","","","","learning/Slide111.JPG","null","","","","",""
"","html-keyboard-response","340","579851","0.0-8.0-2.30","LF","re8dk0velw","1440","900","en","ic25an08","null","","","","learningBlock2","","","","<div style=""font-size:60px;""> </div>","null","LF","learning/Slide111.JPG","This is a tob:","",""
"","html-keyboard-response","341","580854","0.0-8.0-0.31","LF","re8dk0velw","1440","900","en","ic25an08","null","","","","learningBlock2","","","","This is a wug:","null","","","","",""
"","image-keyboard-response","342","581182","0.0-8.0-1.31","LF","re8dk0velw","1440","900","en","ic25an08","null","","","","","","","","learning/Slide112.JPG","null","","","","",""
"","html-keyboard-response","343","582185","0.0-8.0-2.31","LF","re8dk0velw","1440","900","en","ic25an08","null","","","","learningBlock2","","","","<div style=""font-size:60px;""> </div>","null","LF","learning/Slide112.JPG","This is a wug:","",""
"","html-keyboard-response","344","583188","0.0-8.0-0.32","LF","re8dk0velw","1440","900","en","ic25an08","null","","","","learningBlock2","","","","This is a tob:","null","","","","",""
"","image-keyboard-response","345","583516","0.0-8.0-1.32","LF","re8dk0velw","1440","900","en","ic25an08","null","","","","","","","","learning/Slide113.JPG","null","","","","",""
"","html-keyboard-response","346","584518","0.0-8.0-2.32","LF","re8dk0velw","1440","900","en","ic25an08","null","","","","learningBlock2","","","","<div style=""font-size:60px;""> </div>","null","LF","learning/Slide113.JPG","This is a tob:","",""
"","html-keyboard-response","347","585521","0.0-8.0-0.33","LF","re8dk0velw","1440","900","en","ic25an08","null","","","","learningBlock2","","","","This is a wug:","null","","","","",""
"","image-keyboard-response","348","585850","0.0-8.0-1.33","LF","re8dk0velw","1440","900","en","ic25an08","null","","","","","","","","learning/Slide114.JPG","null","","","","",""
"","html-keyboard-response","349","586852","0.0-8.0-2.33","LF","re8dk0velw","1440","900","en","ic25an08","null","","","","learningBlock2","","","","<div style=""font-size:60px;""> </div>","null","LF","learning/Slide114.JPG","This is a wug:","",""
"","html-keyboard-response","350","587855","0.0-8.0-0.34","LF","re8dk0velw","1440","900","en","ic25an08","null","","","","learningBlock2","","","","This is a bim:","null","","","","",""
"","image-keyboard-response","351","588183","0.0-8.0-1.34","LF","re8dk0velw","1440","900","en","ic25an08","null","","","","","","","","learning/Slide115.JPG","null","","","","",""
"","html-keyboard-response","352","589186","0.0-8.0-2.34","LF","re8dk0velw","1440","900","en","ic25an08","null","","","","learningBlock2","","","","<div style=""font-size:60px;""> </div>","null","LF","learning/Slide115.JPG","This is a bim:","",""
"","html-keyboard-response","353","590189","0.0-8.0-0.35","LF","re8dk0velw","1440","900","en","ic25an08","null","","","","learningBlock2","","","","This is a dep:","null","","","","",""
"","image-keyboard-response","354","590517","0.0-8.0-1.35","LF","re8dk0velw","1440","900","en","ic25an08","null","","","","","","","","learning/Slide116.JPG","null","","","","",""
"","html-keyboard-response","355","591519","0.0-8.0-2.35","LF","re8dk0velw","1440","900","en","ic25an08","null","","","","learningBlock2","","","","<div style=""font-size:60px;""> </div>","null","LF","learning/Slide116.JPG","This is a dep:","",""
"","html-keyboard-response","356","592521","0.0-8.0-0.36","LF","re8dk0velw","1440","900","en","ic25an08","null","","","","learningBlock2","","","","This is a tob:","null","","","","",""
"","image-keyboard-response","357","592849","0.0-8.0-1.36","LF","re8dk0velw","1440","900","en","ic25an08","null","","","","","","","","learning/Slide117.JPG","null","","","","",""
"","html-keyboard-response","358","593851","0.0-8.0-2.36","LF","re8dk0velw","1440","900","en","ic25an08","null","","","","learningBlock2","","","","<div style=""font-size:60px;""> </div>","null","LF","learning/Slide117.JPG","This is a tob:","",""
"","html-keyboard-response","359","594855","0.0-8.0-0.37","LF","re8dk0velw","1440","900","en","ic25an08","null","","","","learningBlock2","","","","This is a dep:","null","","","","",""
"","image-keyboard-response","360","595183","0.0-8.0-1.37","LF","re8dk0velw","1440","900","en","ic25an08","null","","","","","","","","learning/Slide118.JPG","null","","","","",""
"","html-keyboard-response","361","596185","0.0-8.0-2.37","LF","re8dk0velw","1440","900","en","ic25an08","null","","","","learningBlock2","","","","<div style=""font-size:60px;""> </div>","null","LF","learning/Slide118.JPG","This is a dep:","",""
"","html-keyboard-response","362","597189","0.0-8.0-0.38","LF","re8dk0velw","1440","900","en","ic25an08","null","","","","learningBlock2","","","","This is a wug:","null","","","","",""
"","image-keyboard-response","363","597517","0.0-8.0-1.38","LF","re8dk0velw","1440","900","en","ic25an08","null","","","","","","","","learning/Slide119.JPG","null","","","","",""
"","html-keyboard-response","364","598519","0.0-8.0-2.38","LF","re8dk0velw","1440","900","en","ic25an08","null","","","","learningBlock2","","","","<div style=""font-size:60px;""> </div>","null","LF","learning/Slide119.JPG","This is a wug:","",""
"","html-keyboard-response","365","599522","0.0-8.0-0.39","LF","re8dk0velw","1440","900","en","ic25an08","null","","","","learningBlock2","","","","This is a dep:","null","","","","",""
"","image-keyboard-response","366","599851","0.0-8.0-1.39","LF","re8dk0velw","1440","900","en","ic25an08","null","","","","","","","","learning/Slide120.JPG","null","","","","",""
"","html-keyboard-response","367","600853","0.0-8.0-2.39","LF","re8dk0velw","1440","900","en","ic25an08","null","","","","learningBlock2","","","","<div style=""font-size:60px;""> </div>","null","LF","learning/Slide120.JPG","This is a dep:","",""
"","html-keyboard-response","368","601856","0.0-8.0-0.40","LF","re8dk0velw","1440","900","en","ic25an08","null","","","","learningBlock2","","","","This is a bim:","null","","","","",""
"","image-keyboard-response","369","602184","0.0-8.0-1.40","LF","re8dk0velw","1440","900","en","ic25an08","null","","","","","","","","learning/Slide121.JPG","null","","","","",""
"","html-keyboard-response","370","603187","0.0-8.0-2.40","LF","re8dk0velw","1440","900","en","ic25an08","null","","","","learningBlock2","","","","<div style=""font-size:60px;""> </div>","null","LF","learning/Slide121.JPG","This is a bim:","",""
"","html-keyboard-response","371","604190","0.0-8.0-0.41","LF","re8dk0velw","1440","900","en","ic25an08","null","","","","learningBlock2","","","","This is a wug:","null","","","","",""
"","image-keyboard-response","372","604518","0.0-8.0-1.41","LF","re8dk0velw","1440","900","en","ic25an08","null","","","","","","","","learning/Slide122.JPG","null","","","","",""
"","html-keyboard-response","373","605520","0.0-8.0-2.41","LF","re8dk0velw","1440","900","en","ic25an08","null","","","","learningBlock2","","","","<div style=""font-size:60px;""> </div>","null","LF","learning/Slide122.JPG","This is a wug:","",""
"","html-keyboard-response","374","606523","0.0-8.0-0.42","LF","re8dk0velw","1440","900","en","ic25an08","null","","","","learningBlock2","","","","This is a bim:","null","","","","",""
"","image-keyboard-response","375","606851","0.0-8.0-1.42","LF","re8dk0velw","1440","900","en","ic25an08","null","","","","","","","","learning/Slide123.JPG","null","","","","",""
"","html-keyboard-response","376","607853","0.0-8.0-2.42","LF","re8dk0velw","1440","900","en","ic25an08","null","","","","learningBlock2","","","","<div style=""font-size:60px;""> </div>","null","LF","learning/Slide123.JPG","This is a bim:","",""
"","html-keyboard-response","377","608857","0.0-8.0-0.43","LF","re8dk0velw","1440","900","en","ic25an08","null","","","","learningBlock2","","","","This is a tob:","null","","","","",""
"","image-keyboard-response","378","609185","0.0-8.0-1.43","LF","re8dk0velw","1440","900","en","ic25an08","null","","","","","","","","learning/Slide124.JPG","null","","","","",""
"","html-keyboard-response","379","610187","0.0-8.0-2.43","LF","re8dk0velw","1440","900","en","ic25an08","null","","","","learningBlock2","","","","<div style=""font-size:60px;""> </div>","null","LF","learning/Slide124.JPG","This is a tob:","",""
"","html-keyboard-response","380","611190","0.0-8.0-0.44","LF","re8dk0velw","1440","900","en","ic25an08","null","","","","learningBlock2","","","","This is a bim:","null","","","","",""
"","image-keyboard-response","381","611518","0.0-8.0-1.44","LF","re8dk0velw","1440","900","en","ic25an08","null","","","","","","","","learning/Slide125.JPG","null","","","","",""
"","html-keyboard-response","382","612521","0.0-8.0-2.44","LF","re8dk0velw","1440","900","en","ic25an08","null","","","","learningBlock2","","","","<div style=""font-size:60px;""> </div>","null","LF","learning/Slide125.JPG","This is a bim:","",""
"","html-keyboard-response","383","613524","0.0-8.0-0.45","LF","re8dk0velw","1440","900","en","ic25an08","null","","","","learningBlock2","","","","This is a tob:","null","","","","",""
"","image-keyboard-response","384","613852","0.0-8.0-1.45","LF","re8dk0velw","1440","900","en","ic25an08","null","","","","","","","","learning/Slide126.JPG","null","","","","",""
"","html-keyboard-response","385","614854","0.0-8.0-2.45","LF","re8dk0velw","1440","900","en","ic25an08","null","","","","learningBlock2","","","","<div style=""font-size:60px;""> </div>","null","LF","learning/Slide126.JPG","This is a tob:","",""
"","html-keyboard-response","386","615857","0.0-8.0-0.46","LF","re8dk0velw","1440","900","en","ic25an08","null","","","","learningBlock2","","","","This is a dep:","null","","","","",""
"","image-keyboard-response","387","616185","0.0-8.0-1.46","LF","re8dk0velw","1440","900","en","ic25an08","null","","","","","","","","learning/Slide127.JPG","null","","","","",""
"","html-keyboard-response","388","617188","0.0-8.0-2.46","LF","re8dk0velw","1440","900","en","ic25an08","null","","","","learningBlock2","","","","<div style=""font-size:60px;""> </div>","null","LF","learning/Slide127.JPG","This is a dep:","",""
"","html-keyboard-response","389","618191","0.0-8.0-0.47","LF","re8dk0velw","1440","900","en","ic25an08","null","","","","learningBlock2","","","","This is a wug:","null","","","","",""
"","image-keyboard-response","390","618517","0.0-8.0-1.47","LF","re8dk0velw","1440","900","en","ic25an08","null","","","","","","","","learning/Slide128.JPG","null","","","","",""
"","html-keyboard-response","391","619519","0.0-8.0-2.47","LF","re8dk0velw","1440","900","en","ic25an08","null","","","","learningBlock2","","","","<div style=""font-size:60px;""> </div>","null","LF","learning/Slide128.JPG","This is a wug:","",""
"","html-keyboard-response","392","620522","0.0-8.0-0.48","LF","re8dk0velw","1440","900","en","ic25an08","null","","","","learningBlock2","","","","This is a tob:","null","","","","",""
"","image-keyboard-response","393","620850","0.0-8.0-1.48","LF","re8dk0velw","1440","900","en","ic25an08","null","","","","","","","","learning/Slide129.JPG","null","","","","",""
"","html-keyboard-response","394","621852","0.0-8.0-2.48","LF","re8dk0velw","1440","900","en","ic25an08","null","","","","learningBlock2","","","","<div style=""font-size:60px;""> </div>","null","LF","learning/Slide129.JPG","This is a tob:","",""
"","html-keyboard-response","395","622855","0.0-8.0-0.49","LF","re8dk0velw","1440","900","en","ic25an08","null","","","","learningBlock2","","","","This is a wug:","null","","","","",""
"","image-keyboard-response","396","623184","0.0-8.0-1.49","LF","re8dk0velw","1440","900","en","ic25an08","null","","","","","","","","learning/Slide130.JPG","null","","","","",""
"","html-keyboard-response","397","624186","0.0-8.0-2.49","LF","re8dk0velw","1440","900","en","ic25an08","null","","","","learningBlock2","","","","<div style=""font-size:60px;""> </div>","null","LF","learning/Slide130.JPG","This is a wug:","",""
"","html-keyboard-response","398","625189","0.0-8.0-0.50","LF","re8dk0velw","1440","900","en","ic25an08","null","","","","learningBlock2","","","","This is a bim:","null","","","","",""
"","image-keyboard-response","399","625518","0.0-8.0-1.50","LF","re8dk0velw","1440","900","en","ic25an08","null","","","","","","","","learning/Slide131.JPG","null","","","","",""
"","html-keyboard-response","400","626520","0.0-8.0-2.50","LF","re8dk0velw","1440","900","en","ic25an08","null","","","","learningBlock2","","","","<div style=""font-size:60px;""> </div>","null","LF","learning/Slide131.JPG","This is a bim:","",""
"","html-keyboard-response","401","627523","0.0-8.0-0.51","LF","re8dk0velw","1440","900","en","ic25an08","null","","","","learningBlock2","","","","This is a dep:","null","","","","",""
"","image-keyboard-response","402","627852","0.0-8.0-1.51","LF","re8dk0velw","1440","900","en","ic25an08","null","","","","","","","","learning/Slide132.JPG","null","","","","",""
"","html-keyboard-response","403","628854","0.0-8.0-2.51","LF","re8dk0velw","1440","900","en","ic25an08","null","","","","learningBlock2","","","","<div style=""font-size:60px;""> </div>","null","LF","learning/Slide132.JPG","This is a dep:","",""
"","html-keyboard-response","404","629857","0.0-8.0-0.52","LF","re8dk0velw","1440","900","en","ic25an08","null","","","","learningBlock2","","","","This is a tob:","null","","","","",""
"","image-keyboard-response","405","630186","0.0-8.0-1.52","LF","re8dk0velw","1440","900","en","ic25an08","null","","","","","","","","learning/Slide133.JPG","null","","","","",""
"","html-keyboard-response","406","631188","0.0-8.0-2.52","LF","re8dk0velw","1440","900","en","ic25an08","null","","","","learningBlock2","","","","<div style=""font-size:60px;""> </div>","null","LF","learning/Slide133.JPG","This is a tob:","",""
"","html-keyboard-response","407","632191","0.0-8.0-0.53","LF","re8dk0velw","1440","900","en","ic25an08","null","","","","learningBlock2","","","","This is a dep:","null","","","","",""
"","image-keyboard-response","408","632518","0.0-8.0-1.53","LF","re8dk0velw","1440","900","en","ic25an08","null","","","","","","","","learning/Slide134.JPG","null","","","","",""
"","html-keyboard-response","409","633521","0.0-8.0-2.53","LF","re8dk0velw","1440","900","en","ic25an08","null","","","","learningBlock2","","","","<div style=""font-size:60px;""> </div>","null","LF","learning/Slide134.JPG","This is a dep:","",""
"","html-keyboard-response","410","634524","0.0-8.0-0.54","LF","re8dk0velw","1440","900","en","ic25an08","null","","","","learningBlock2","","","","This is a tob:","null","","","","",""
"","image-keyboard-response","411","634852","0.0-8.0-1.54","LF","re8dk0velw","1440","900","en","ic25an08","null","","","","","","","","learning/Slide135.JPG","null","","","","",""
"","html-keyboard-response","412","635854","0.0-8.0-2.54","LF","re8dk0velw","1440","900","en","ic25an08","null","","","","learningBlock2","","","","<div style=""font-size:60px;""> </div>","null","LF","learning/Slide135.JPG","This is a tob:","",""
"","html-keyboard-response","413","636857","0.0-8.0-0.55","LF","re8dk0velw","1440","900","en","ic25an08","null","","","","learningBlock2","","","","This is a wug:","null","","","","",""
"","image-keyboard-response","414","637186","0.0-8.0-1.55","LF","re8dk0velw","1440","900","en","ic25an08","null","","","","","","","","learning/Slide136.JPG","null","","","","",""
"","html-keyboard-response","415","638188","0.0-8.0-2.55","LF","re8dk0velw","1440","900","en","ic25an08","null","","","","learningBlock2","","","","<div style=""font-size:60px;""> </div>","null","LF","learning/Slide136.JPG","This is a wug:","",""
"","html-keyboard-response","416","639191","0.0-8.0-0.56","LF","re8dk0velw","1440","900","en","ic25an08","null","","","","learningBlock2","","","","This is a tob:","null","","","","",""
"","image-keyboard-response","417","639519","0.0-8.0-1.56","LF","re8dk0velw","1440","900","en","ic25an08","null","","","","","","","","learning/Slide137.JPG","null","","","","",""
"","html-keyboard-response","418","640521","0.0-8.0-2.56","LF","re8dk0velw","1440","900","en","ic25an08","null","","","","learningBlock2","","","","<div style=""font-size:60px;""> </div>","null","LF","learning/Slide137.JPG","This is a tob:","",""
"","html-keyboard-response","419","641524","0.0-8.0-0.57","LF","re8dk0velw","1440","900","en","ic25an08","null","","","","learningBlock2","","","","This is a bim:","null","","","","",""
"","image-keyboard-response","420","641852","0.0-8.0-1.57","LF","re8dk0velw","1440","900","en","ic25an08","null","","","","","","","","learning/Slide138.JPG","null","","","","",""
"","html-keyboard-response","421","642855","0.0-8.0-2.57","LF","re8dk0velw","1440","900","en","ic25an08","null","","","","learningBlock2","","","","<div style=""font-size:60px;""> </div>","null","LF","learning/Slide138.JPG","This is a bim:","",""
"","html-keyboard-response","422","643858","0.0-8.0-0.58","LF","re8dk0velw","1440","900","en","ic25an08","null","","","","learningBlock2","","","","This is a wug:","null","","","","",""
"","image-keyboard-response","423","644186","0.0-8.0-1.58","LF","re8dk0velw","1440","900","en","ic25an08","null","","","","","","","","learning/Slide139.JPG","null","","","","",""
"","html-keyboard-response","424","645188","0.0-8.0-2.58","LF","re8dk0velw","1440","900","en","ic25an08","null","","","","learningBlock2","","","","<div style=""font-size:60px;""> </div>","null","LF","learning/Slide139.JPG","This is a wug:","",""
"","html-keyboard-response","425","646191","0.0-8.0-0.59","LF","re8dk0velw","1440","900","en","ic25an08","null","","","","learningBlock2","","","","This is a dep:","null","","","","",""
"","image-keyboard-response","426","646519","0.0-8.0-1.59","LF","re8dk0velw","1440","900","en","ic25an08","null","","","","","","","","learning/Slide140.JPG","null","","","","",""
"","html-keyboard-response","427","647522","0.0-8.0-2.59","LF","re8dk0velw","1440","900","en","ic25an08","null","","","","learningBlock2","","","","<div style=""font-size:60px;""> </div>","null","LF","learning/Slide140.JPG","This is a dep:","",""
"","html-keyboard-response","428","648525","0.0-8.0-0.60","LF","re8dk0velw","1440","900","en","ic25an08","null","","","","learningBlock2","","","","This is a tob:","null","","","","",""
"","image-keyboard-response","429","648853","0.0-8.0-1.60","LF","re8dk0velw","1440","900","en","ic25an08","null","","","","","","","","learning/Slide141.JPG","null","","","","",""
"","html-keyboard-response","430","649856","0.0-8.0-2.60","LF","re8dk0velw","1440","900","en","ic25an08","null","","","","learningBlock2","","","","<div style=""font-size:60px;""> </div>","null","LF","learning/Slide141.JPG","This is a tob:","",""
"","html-keyboard-response","431","650859","0.0-8.0-0.61","LF","re8dk0velw","1440","900","en","ic25an08","null","","","","learningBlock2","","","","This is a wug:","null","","","","",""
"","image-keyboard-response","432","651187","0.0-8.0-1.61","LF","re8dk0velw","1440","900","en","ic25an08","null","","","","","","","","learning/Slide142.JPG","null","","","","",""
"","html-keyboard-response","433","652189","0.0-8.0-2.61","LF","re8dk0velw","1440","900","en","ic25an08","null","","","","learningBlock2","","","","<div style=""font-size:60px;""> </div>","null","LF","learning/Slide142.JPG","This is a wug:","",""
"","html-keyboard-response","434","653193","0.0-8.0-0.62","LF","re8dk0velw","1440","900","en","ic25an08","null","","","","learningBlock2","","","","This is a bim:","null","","","","",""
"","image-keyboard-response","435","653521","0.0-8.0-1.62","LF","re8dk0velw","1440","900","en","ic25an08","null","","","","","","","","learning/Slide143.JPG","null","","","","",""
"","html-keyboard-response","436","654523","0.0-8.0-2.62","LF","re8dk0velw","1440","900","en","ic25an08","null","","","","learningBlock2","","","","<div style=""font-size:60px;""> </div>","null","LF","learning/Slide143.JPG","This is a bim:","",""
"","html-keyboard-response","437","655526","0.0-8.0-0.63","LF","re8dk0velw","1440","900","en","ic25an08","null","","","","learningBlock2","","","","This is a dep:","null","","","","",""
"","image-keyboard-response","438","655855","0.0-8.0-1.63","LF","re8dk0velw","1440","900","en","ic25an08","null","","","","","","","","learning/Slide144.JPG","null","","","","",""
"","html-keyboard-response","439","656857","0.0-8.0-2.63","LF","re8dk0velw","1440","900","en","ic25an08","null","","","","learningBlock2","","","","<div style=""font-size:60px;""> </div>","null","LF","learning/Slide144.JPG","This is a dep:","",""
"","html-keyboard-response","440","657860","0.0-8.0-0.64","LF","re8dk0velw","1440","900","en","ic25an08","null","","","","learningBlock2","","","","This is a bim:","null","","","","",""
"","image-keyboard-response","441","658188","0.0-8.0-1.64","LF","re8dk0velw","1440","900","en","ic25an08","null","","","","","","","","learning/Slide145.JPG","null","","","","",""
"","html-keyboard-response","442","659191","0.0-8.0-2.64","LF","re8dk0velw","1440","900","en","ic25an08","null","","","","learningBlock2","","","","<div style=""font-size:60px;""> </div>","null","LF","learning/Slide145.JPG","This is a bim:","",""
"","html-keyboard-response","443","660193","0.0-8.0-0.65","LF","re8dk0velw","1440","900","en","ic25an08","null","","","","learningBlock2","","","","This is a tob:","null","","","","",""
"","image-keyboard-response","444","660521","0.0-8.0-1.65","LF","re8dk0velw","1440","900","en","ic25an08","null","","","","","","","","learning/Slide146.JPG","null","","","","",""
"","html-keyboard-response","445","661524","0.0-8.0-2.65","LF","re8dk0velw","1440","900","en","ic25an08","null","","","","learningBlock2","","","","<div style=""font-size:60px;""> </div>","null","LF","learning/Slide146.JPG","This is a tob:","",""
"","html-keyboard-response","446","662526","0.0-8.0-0.66","LF","re8dk0velw","1440","900","en","ic25an08","null","","","","learningBlock2","","","","This is a wug:","null","","","","",""
"","image-keyboard-response","447","662854","0.0-8.0-1.66","LF","re8dk0velw","1440","900","en","ic25an08","null","","","","","","","","learning/Slide147.JPG","null","","","","",""
"","html-keyboard-response","448","663856","0.0-8.0-2.66","LF","re8dk0velw","1440","900","en","ic25an08","null","","","","learningBlock2","","","","<div style=""font-size:60px;""> </div>","null","LF","learning/Slide147.JPG","This is a wug:","",""
"","html-keyboard-response","449","664859","0.0-8.0-0.67","LF","re8dk0velw","1440","900","en","ic25an08","null","","","","learningBlock2","","","","This is a bim:","null","","","","",""
"","image-keyboard-response","450","665187","0.0-8.0-1.67","LF","re8dk0velw","1440","900","en","ic25an08","null","","","","","","","","learning/Slide148.JPG","null","","","","",""
"","html-keyboard-response","451","666189","0.0-8.0-2.67","LF","re8dk0velw","1440","900","en","ic25an08","null","","","","learningBlock2","","","","<div style=""font-size:60px;""> </div>","null","LF","learning/Slide148.JPG","This is a bim:","",""
"","html-keyboard-response","452","667192","0.0-8.0-0.68","LF","re8dk0velw","1440","900","en","ic25an08","null","","","","learningBlock2","","","","This is a dep:","null","","","","",""
"","image-keyboard-response","453","667520","0.0-8.0-1.68","LF","re8dk0velw","1440","900","en","ic25an08","null","","","","","","","","learning/Slide149.JPG","null","","","","",""
"","html-keyboard-response","454","668523","0.0-8.0-2.68","LF","re8dk0velw","1440","900","en","ic25an08","null","","","","learningBlock2","","","","<div style=""font-size:60px;""> </div>","null","LF","learning/Slide149.JPG","This is a dep:","",""
"","html-keyboard-response","455","669526","0.0-8.0-0.69","LF","re8dk0velw","1440","900","en","ic25an08","null","","","","learningBlock2","","","","This is a wug:","null","","","","",""
"","image-keyboard-response","456","669854","0.0-8.0-1.69","LF","re8dk0velw","1440","900","en","ic25an08","null","","","","","","","","learning/Slide150.JPG","null","","","","",""
"","html-keyboard-response","457","670856","0.0-8.0-2.69","LF","re8dk0velw","1440","900","en","ic25an08","null","","","","learningBlock2","","","","<div style=""font-size:60px;""> </div>","null","LF","learning/Slide150.JPG","This is a wug:","",""
"","html-keyboard-response","458","671859","0.0-8.0-0.70","LF","re8dk0velw","1440","900","en","ic25an08","null","","","","learningBlock2","","","","This is a dep:","null","","","","",""
"","image-keyboard-response","459","672187","0.0-8.0-1.70","LF","re8dk0velw","1440","900","en","ic25an08","null","","","","","","","","learning/Slide151.JPG","null","","","","",""
"","html-keyboard-response","460","673190","0.0-8.0-2.70","LF","re8dk0velw","1440","900","en","ic25an08","null","","","","learningBlock2","","","","<div style=""font-size:60px;""> </div>","null","LF","learning/Slide151.JPG","This is a dep:","",""
"","html-keyboard-response","461","674193","0.0-8.0-0.71","LF","re8dk0velw","1440","900","en","ic25an08","null","","","","learningBlock2","","","","This is a wug:","null","","","","",""
"","image-keyboard-response","462","674523","0.0-8.0-1.71","LF","re8dk0velw","1440","900","en","ic25an08","null","","","","","","","","learning/Slide152.JPG","null","","","","",""
"","html-keyboard-response","463","675526","0.0-8.0-2.71","LF","re8dk0velw","1440","900","en","ic25an08","null","","","","learningBlock2","","","","<div style=""font-size:60px;""> </div>","null","LF","learning/Slide152.JPG","This is a wug:","",""
"","html-keyboard-response","464","676529","0.0-8.0-0.72","LF","re8dk0velw","1440","900","en","ic25an08","null","","","","learningBlock2","","","","This is a bim:","null","","","","",""
"","image-keyboard-response","465","676857","0.0-8.0-1.72","LF","re8dk0velw","1440","900","en","ic25an08","null","","","","","","","","learning/Slide153.JPG","null","","","","",""
"","html-keyboard-response","466","677859","0.0-8.0-2.72","LF","re8dk0velw","1440","900","en","ic25an08","null","","","","learningBlock2","","","","<div style=""font-size:60px;""> </div>","null","LF","learning/Slide153.JPG","This is a bim:","",""
"","html-keyboard-response","467","678862","0.0-8.0-0.73","LF","re8dk0velw","1440","900","en","ic25an08","null","","","","learningBlock2","","","","This is a tob:","null","","","","",""
"","image-keyboard-response","468","679191","0.0-8.0-1.73","LF","re8dk0velw","1440","900","en","ic25an08","null","","","","","","","","learning/Slide154.JPG","null","","","","",""
"","html-keyboard-response","469","680193","0.0-8.0-2.73","LF","re8dk0velw","1440","900","en","ic25an08","null","","","","learningBlock2","","","","<div style=""font-size:60px;""> </div>","null","LF","learning/Slide154.JPG","This is a tob:","",""
"","html-keyboard-response","470","681196","0.0-8.0-0.74","LF","re8dk0velw","1440","900","en","ic25an08","null","","","","learningBlock2","","","","This is a dep:","null","","","","",""
"","image-keyboard-response","471","681524","0.0-8.0-1.74","LF","re8dk0velw","1440","900","en","ic25an08","null","","","","","","","","learning/Slide155.JPG","null","","","","",""
"","html-keyboard-response","472","682526","0.0-8.0-2.74","LF","re8dk0velw","1440","900","en","ic25an08","null","","","","learningBlock2","","","","<div style=""font-size:60px;""> </div>","null","LF","learning/Slide155.JPG","This is a dep:","",""
"","html-keyboard-response","473","683529","0.0-8.0-0.75","LF","re8dk0velw","1440","900","en","ic25an08","null","","","","learningBlock2","","","","This is a bim:","null","","","","",""
"","image-keyboard-response","474","683856","0.0-8.0-1.75","LF","re8dk0velw","1440","900","en","ic25an08","null","","","","","","","","learning/Slide156.JPG","null","","","","",""
"","html-keyboard-response","475","684860","0.0-8.0-2.75","LF","re8dk0velw","1440","900","en","ic25an08","null","","","","learningBlock2","","","","<div style=""font-size:60px;""> </div>","null","LF","learning/Slide156.JPG","This is a bim:","",""
"","html-keyboard-response","476","685863","0.0-8.0-0.76","LF","re8dk0velw","1440","900","en","ic25an08","null","","","","learningBlock2","","","","This is a dep:","null","","","","",""
"","image-keyboard-response","477","686191","0.0-8.0-1.76","LF","re8dk0velw","1440","900","en","ic25an08","null","","","","","","","","learning/Slide157.JPG","null","","","","",""
"","html-keyboard-response","478","687193","0.0-8.0-2.76","LF","re8dk0velw","1440","900","en","ic25an08","null","","","","learningBlock2","","","","<div style=""font-size:60px;""> </div>","null","LF","learning/Slide157.JPG","This is a dep:","",""
"","html-keyboard-response","479","688197","0.0-8.0-0.77","LF","re8dk0velw","1440","900","en","ic25an08","null","","","","learningBlock2","","","","This is a tob:","null","","","","",""
"","image-keyboard-response","480","688525","0.0-8.0-1.77","LF","re8dk0velw","1440","900","en","ic25an08","null","","","","","","","","learning/Slide158.JPG","null","","","","",""
"","html-keyboard-response","481","689527","0.0-8.0-2.77","LF","re8dk0velw","1440","900","en","ic25an08","null","","","","learningBlock2","","","","<div style=""font-size:60px;""> </div>","null","LF","learning/Slide158.JPG","This is a tob:","",""
"","html-keyboard-response","482","690530","0.0-8.0-0.78","LF","re8dk0velw","1440","900","en","ic25an08","null","","","","learningBlock2","","","","This is a dep:","null","","","","",""
"","image-keyboard-response","483","690858","0.0-8.0-1.78","LF","re8dk0velw","1440","900","en","ic25an08","null","","","","","","","","learning/Slide159.JPG","null","","","","",""
"","html-keyboard-response","484","691860","0.0-8.0-2.78","LF","re8dk0velw","1440","900","en","ic25an08","null","","","","learningBlock2","","","","<div style=""font-size:60px;""> </div>","null","LF","learning/Slide159.JPG","This is a dep:","",""
"","html-keyboard-response","485","692864","0.0-8.0-0.79","LF","re8dk0velw","1440","900","en","ic25an08","null","","","","learningBlock2","","","","This is a wug:","null","","","","",""
"","image-keyboard-response","486","693192","0.0-8.0-1.79","LF","re8dk0velw","1440","900","en","ic25an08","null","","","","","","","","learning/Slide160.JPG","null","","","","",""
"","html-keyboard-response","487","694194","0.0-8.0-2.79","LF","re8dk0velw","1440","900","en","ic25an08","null","","","","learningBlock2","","","","<div style=""font-size:60px;""> </div>","null","LF","learning/Slide160.JPG","This is a wug:","",""
"","resize2","488","697554","0.0-9.0","LF","re8dk0velw","1440","900","en","ic25an08","","","","","","","104","1.04","","","","","","",""
"","instructions","489","706340","0.0-10.0","LF","re8dk0velw","1440","900","en","ic25an08","NA","","","[{""page_index"":0,""viewing_time"":8784}]","instructions","","","","","","","","","",""
"","html-keyboard-response","490","707343","0.0-11.0-0.0","LF","re8dk0velw","1440","900","en","ic25an08","null","","","","","","","","<div style=""font-size:60px;"">+</div>","null","","","","",""
