"success","trial_type","trial_index","time_elapsed","internal_node_id","condition","subject","screen_width","screen_height","language","codeword","rt","responses","url","view_history","test_part","final_height_px","final_width_px","scale_factor","stimulus","key_press","learningType","presentedImage","presentedLabel","button_pressed","response"
"true","fullscreen","0","32442","0.0-0.0","FL","kpfcu6m48v","1600","900","en","in07er09","","","","","","","","","","","","","","",""
"","survey-html-form","1","54528","0.0-1.0","FL","kpfcu6m48v","1600","900","en","in07er09","22080.19999996759","{""language"":""en""}","","","","","","","","","","","","",""
"","external-html","2","285192","0.0-3.0-0.0","FL","kpfcu6m48v","1600","900","en","in07er09","230512.98000011593","","text/information_english.html","","","","","","","","","","","",""
"","external-html","3","419336","0.0-3.0-1.0","FL","kpfcu6m48v","1600","900","en","in07er09","134006.92500011064","","text/consent_english.html","","","","","","","","","","","",""
"","survey-html-form","4","526849","0.0-3.0-2.0","FL","kpfcu6m48v","1600","900","en","in07er09","107510.93000010587","{""codeword_enter"":""in07er09""}","","","","","","","","","","","","",""
"","instructions","5","565745","0.0-4.0","FL","kpfcu6m48v","1600","900","en","in07er09","NA","","","[{""page_index"":0,""viewing_time"":18776.004999876022},{""page_index"":1,""viewing_time"":18615.860000019893}]","instructions","","","","","","","","","",""
"","resize","6","667849","0.0-5.0","FL","kpfcu6m48v","1600","900","en","in07er09","","","","","","","442","2.8063492063492066","","","","","","",""
"","image-keyboard-response","7","668027","0.0-6.0-0.0","FL","kpfcu6m48v","1600","900","en","in07er09","null","","","","","","","","learning/Slide1.JPG","null","","","","",""
"","html-keyboard-response","8","669181","0.0-6.0-1.0","FL","kpfcu6m48v","1600","900","en","in07er09","null","","","","learningBlock1","","","","That was a tob.","null","","","","",""
"","html-keyboard-response","9","670185","0.0-6.0-2.0","FL","kpfcu6m48v","1600","900","en","in07er09","null","","","","learningBlock1","","","","<div style=""font-size:60px;""> </div>","null","FL","learning/Slide1.JPG","That was a tob.","",""
"","image-keyboard-response","10","670363","0.0-6.0-0.1","FL","kpfcu6m48v","1600","900","en","in07er09","null","","","","","","","","learning/Slide2.JPG","null","","","","",""
"","html-keyboard-response","11","671516","0.0-6.0-1.1","FL","kpfcu6m48v","1600","900","en","in07er09","null","","","","learningBlock1","","","","That was a wug.","null","","","","",""
"","html-keyboard-response","12","672518","0.0-6.0-2.1","FL","kpfcu6m48v","1600","900","en","in07er09","null","","","","learningBlock1","","","","<div style=""font-size:60px;""> </div>","null","FL","learning/Slide2.JPG","That was a wug.","",""
"","image-keyboard-response","13","672696","0.0-6.0-0.2","FL","kpfcu6m48v","1600","900","en","in07er09","null","","","","","","","","learning/Slide3.JPG","null","","","","",""
"","html-keyboard-response","14","673848","0.0-6.0-1.2","FL","kpfcu6m48v","1600","900","en","in07er09","null","","","","learningBlock1","","","","That was a bim.","null","","","","",""
"","html-keyboard-response","15","674852","0.0-6.0-2.2","FL","kpfcu6m48v","1600","900","en","in07er09","null","","","","learningBlock1","","","","<div style=""font-size:60px;""> </div>","null","FL","learning/Slide3.JPG","That was a bim.","",""
"","image-keyboard-response","16","675029","0.0-6.0-0.3","FL","kpfcu6m48v","1600","900","en","in07er09","null","","","","","","","","learning/Slide4.JPG","null","","","","",""
"","html-keyboard-response","17","676181","0.0-6.0-1.3","FL","kpfcu6m48v","1600","900","en","in07er09","null","","","","learningBlock1","","","","That was a dep.","null","","","","",""
"","html-keyboard-response","18","677183","0.0-6.0-2.3","FL","kpfcu6m48v","1600","900","en","in07er09","null","","","","learningBlock1","","","","<div style=""font-size:60px;""> </div>","null","FL","learning/Slide4.JPG","That was a dep.","",""
"","image-keyboard-response","19","677360","0.0-6.0-0.4","FL","kpfcu6m48v","1600","900","en","in07er09","null","","","","","","","","learning/Slide5.JPG","null","","","","",""
"","html-keyboard-response","20","678512","0.0-6.0-1.4","FL","kpfcu6m48v","1600","900","en","in07er09","null","","","","learningBlock1","","","","That was a wug.","null","","","","",""
"","html-keyboard-response","21","679515","0.0-6.0-2.4","FL","kpfcu6m48v","1600","900","en","in07er09","null","","","","learningBlock1","","","","<div style=""font-size:60px;""> </div>","null","FL","learning/Slide5.JPG","That was a wug.","",""
"","image-keyboard-response","22","679693","0.0-6.0-0.5","FL","kpfcu6m48v","1600","900","en","in07er09","null","","","","","","","","learning/Slide6.JPG","null","","","","",""
"","html-keyboard-response","23","680846","0.0-6.0-1.5","FL","kpfcu6m48v","1600","900","en","in07er09","null","","","","learningBlock1","","","","That was a dep.","null","","","","",""
"","html-keyboard-response","24","681848","0.0-6.0-2.5","FL","kpfcu6m48v","1600","900","en","in07er09","null","","","","learningBlock1","","","","<div style=""font-size:60px;""> </div>","null","FL","learning/Slide6.JPG","That was a dep.","",""
"","image-keyboard-response","25","682025","0.0-6.0-0.6","FL","kpfcu6m48v","1600","900","en","in07er09","null","","","","","","","","learning/Slide7.JPG","null","","","","",""
"","html-keyboard-response","26","683178","0.0-6.0-1.6","FL","kpfcu6m48v","1600","900","en","in07er09","null","","","","learningBlock1","","","","That was a wug.","null","","","","",""
"","html-keyboard-response","27","684180","0.0-6.0-2.6","FL","kpfcu6m48v","1600","900","en","in07er09","null","","","","learningBlock1","","","","<div style=""font-size:60px;""> </div>","null","FL","learning/Slide7.JPG","That was a wug.","",""
"","image-keyboard-response","28","684359","0.0-6.0-0.7","FL","kpfcu6m48v","1600","900","en","in07er09","null","","","","","","","","learning/Slide8.JPG","null","","","","",""
"","html-keyboard-response","29","685511","0.0-6.0-1.7","FL","kpfcu6m48v","1600","900","en","in07er09","null","","","","learningBlock1","","","","That was a bim.","null","","","","",""
"","html-keyboard-response","30","686513","0.0-6.0-2.7","FL","kpfcu6m48v","1600","900","en","in07er09","null","","","","learningBlock1","","","","<div style=""font-size:60px;""> </div>","null","FL","learning/Slide8.JPG","That was a bim.","",""
"","image-keyboard-response","31","686691","0.0-6.0-0.8","FL","kpfcu6m48v","1600","900","en","in07er09","null","","","","","","","","learning/Slide9.JPG","null","","","","",""
"","html-keyboard-response","32","687843","0.0-6.0-1.8","FL","kpfcu6m48v","1600","900","en","in07er09","null","","","","learningBlock1","","","","That was a wug.","null","","","","",""
"","html-keyboard-response","33","688845","0.0-6.0-2.8","FL","kpfcu6m48v","1600","900","en","in07er09","null","","","","learningBlock1","","","","<div style=""font-size:60px;""> </div>","null","FL","learning/Slide9.JPG","That was a wug.","",""
"","image-keyboard-response","34","689025","0.0-6.0-0.9","FL","kpfcu6m48v","1600","900","en","in07er09","null","","","","","","","","learning/Slide10.JPG","null","","","","",""
"","html-keyboard-response","35","690178","0.0-6.0-1.9","FL","kpfcu6m48v","1600","900","en","in07er09","null","","","","learningBlock1","","","","That was a dep.","null","","","","",""
"","html-keyboard-response","36","691181","0.0-6.0-2.9","FL","kpfcu6m48v","1600","900","en","in07er09","null","","","","learningBlock1","","","","<div style=""font-size:60px;""> </div>","null","FL","learning/Slide10.JPG","That was a dep.","",""
"","image-keyboard-response","37","691358","0.0-6.0-0.10","FL","kpfcu6m48v","1600","900","en","in07er09","null","","","","","","","","learning/Slide11.JPG","null","","","","",""
"","html-keyboard-response","38","692511","0.0-6.0-1.10","FL","kpfcu6m48v","1600","900","en","in07er09","null","","","","learningBlock1","","","","That was a tob.","null","","","","",""
"","html-keyboard-response","39","693513","0.0-6.0-2.10","FL","kpfcu6m48v","1600","900","en","in07er09","null","","","","learningBlock1","","","","<div style=""font-size:60px;""> </div>","null","FL","learning/Slide11.JPG","That was a tob.","",""
"","image-keyboard-response","40","693691","0.0-6.0-0.11","FL","kpfcu6m48v","1600","900","en","in07er09","null","","","","","","","","learning/Slide12.JPG","null","","","","",""
"","html-keyboard-response","41","694843","0.0-6.0-1.11","FL","kpfcu6m48v","1600","900","en","in07er09","null","","","","learningBlock1","","","","That was a dep.","null","","","","",""
"","html-keyboard-response","42","695845","0.0-6.0-2.11","FL","kpfcu6m48v","1600","900","en","in07er09","null","","","","learningBlock1","","","","<div style=""font-size:60px;""> </div>","null","FL","learning/Slide12.JPG","That was a dep.","",""
"","image-keyboard-response","43","696022","0.0-6.0-0.12","FL","kpfcu6m48v","1600","900","en","in07er09","null","","","","","","","","learning/Slide13.JPG","null","","","","",""
"","html-keyboard-response","44","697175","0.0-6.0-1.12","FL","kpfcu6m48v","1600","900","en","in07er09","null","","","","learningBlock1","","","","That was a bim.","null","","","","",""
"","html-keyboard-response","45","698177","0.0-6.0-2.12","FL","kpfcu6m48v","1600","900","en","in07er09","null","","","","learningBlock1","","","","<div style=""font-size:60px;""> </div>","null","FL","learning/Slide13.JPG","That was a bim.","",""
"","image-keyboard-response","46","698354","0.0-6.0-0.13","FL","kpfcu6m48v","1600","900","en","in07er09","null","","","","","","","","learning/Slide14.JPG","null","","","","",""
"","html-keyboard-response","47","699507","0.0-6.0-1.13","FL","kpfcu6m48v","1600","900","en","in07er09","null","","","","learningBlock1","","","","That was a wug.","null","","","","",""
"","html-keyboard-response","48","700509","0.0-6.0-2.13","FL","kpfcu6m48v","1600","900","en","in07er09","null","","","","learningBlock1","","","","<div style=""font-size:60px;""> </div>","null","FL","learning/Slide14.JPG","That was a wug.","",""
"","image-keyboard-response","49","700686","0.0-6.0-0.14","FL","kpfcu6m48v","1600","900","en","in07er09","null","","","","","","","","learning/Slide15.JPG","null","","","","",""
"","html-keyboard-response","50","701838","0.0-6.0-1.14","FL","kpfcu6m48v","1600","900","en","in07er09","null","","","","learningBlock1","","","","That was a tob.","null","","","","",""
"","html-keyboard-response","51","702840","0.0-6.0-2.14","FL","kpfcu6m48v","1600","900","en","in07er09","null","","","","learningBlock1","","","","<div style=""font-size:60px;""> </div>","null","FL","learning/Slide15.JPG","That was a tob.","",""
"","image-keyboard-response","52","703017","0.0-6.0-0.15","FL","kpfcu6m48v","1600","900","en","in07er09","null","","","","","","","","learning/Slide16.JPG","null","","","","",""
"","html-keyboard-response","53","704170","0.0-6.0-1.15","FL","kpfcu6m48v","1600","900","en","in07er09","null","","","","learningBlock1","","","","That was a dep.","null","","","","",""
"","html-keyboard-response","54","705173","0.0-6.0-2.15","FL","kpfcu6m48v","1600","900","en","in07er09","null","","","","learningBlock1","","","","<div style=""font-size:60px;""> </div>","null","FL","learning/Slide16.JPG","That was a dep.","",""
"","image-keyboard-response","55","705351","0.0-6.0-0.16","FL","kpfcu6m48v","1600","900","en","in07er09","null","","","","","","","","learning/Slide17.JPG","null","","","","",""
"","html-keyboard-response","56","706503","0.0-6.0-1.16","FL","kpfcu6m48v","1600","900","en","in07er09","null","","","","learningBlock1","","","","That was a bim.","null","","","","",""
"","html-keyboard-response","57","707506","0.0-6.0-2.16","FL","kpfcu6m48v","1600","900","en","in07er09","null","","","","learningBlock1","","","","<div style=""font-size:60px;""> </div>","null","FL","learning/Slide17.JPG","That was a bim.","",""
"","image-keyboard-response","58","707682","0.0-6.0-0.17","FL","kpfcu6m48v","1600","900","en","in07er09","null","","","","","","","","learning/Slide18.JPG","null","","","","",""
"","html-keyboard-response","59","708835","0.0-6.0-1.17","FL","kpfcu6m48v","1600","900","en","in07er09","null","","","","learningBlock1","","","","That was a tob.","null","","","","",""
"","html-keyboard-response","60","709837","0.0-6.0-2.17","FL","kpfcu6m48v","1600","900","en","in07er09","null","","","","learningBlock1","","","","<div style=""font-size:60px;""> </div>","null","FL","learning/Slide18.JPG","That was a tob.","",""
"","image-keyboard-response","61","710014","0.0-6.0-0.18","FL","kpfcu6m48v","1600","900","en","in07er09","null","","","","","","","","learning/Slide19.JPG","null","","","","",""
"","html-keyboard-response","62","711166","0.0-6.0-1.18","FL","kpfcu6m48v","1600","900","en","in07er09","null","","","","learningBlock1","","","","That was a wug.","null","","","","",""
"","html-keyboard-response","63","712168","0.0-6.0-2.18","FL","kpfcu6m48v","1600","900","en","in07er09","null","","","","learningBlock1","","","","<div style=""font-size:60px;""> </div>","null","FL","learning/Slide19.JPG","That was a wug.","",""
"","image-keyboard-response","64","712345","0.0-6.0-0.19","FL","kpfcu6m48v","1600","900","en","in07er09","null","","","","","","","","learning/Slide20.JPG","null","","","","",""
"","html-keyboard-response","65","713497","0.0-6.0-1.19","FL","kpfcu6m48v","1600","900","en","in07er09","null","","","","learningBlock1","","","","That was a bim.","null","","","","",""
"","html-keyboard-response","66","714499","0.0-6.0-2.19","FL","kpfcu6m48v","1600","900","en","in07er09","null","","","","learningBlock1","","","","<div style=""font-size:60px;""> </div>","null","FL","learning/Slide20.JPG","That was a bim.","",""
"","image-keyboard-response","67","714677","0.0-6.0-0.20","FL","kpfcu6m48v","1600","900","en","in07er09","null","","","","","","","","learning/Slide21.JPG","null","","","","",""
"","html-keyboard-response","68","715829","0.0-6.0-1.20","FL","kpfcu6m48v","1600","900","en","in07er09","null","","","","learningBlock1","","","","That was a dep.","null","","","","",""
"","html-keyboard-response","69","716835","0.0-6.0-2.20","FL","kpfcu6m48v","1600","900","en","in07er09","null","","","","learningBlock1","","","","<div style=""font-size:60px;""> </div>","null","FL","learning/Slide21.JPG","That was a dep.","",""
"","image-keyboard-response","70","717012","0.0-6.0-0.21","FL","kpfcu6m48v","1600","900","en","in07er09","null","","","","","","","","learning/Slide22.JPG","null","","","","",""
"","html-keyboard-response","71","718165","0.0-6.0-1.21","FL","kpfcu6m48v","1600","900","en","in07er09","null","","","","learningBlock1","","","","That was a bim.","null","","","","",""
"","html-keyboard-response","72","719166","0.0-6.0-2.21","FL","kpfcu6m48v","1600","900","en","in07er09","null","","","","learningBlock1","","","","<div style=""font-size:60px;""> </div>","null","FL","learning/Slide22.JPG","That was a bim.","",""
"","image-keyboard-response","73","719344","0.0-6.0-0.22","FL","kpfcu6m48v","1600","900","en","in07er09","null","","","","","","","","learning/Slide23.JPG","null","","","","",""
"","html-keyboard-response","74","720496","0.0-6.0-1.22","FL","kpfcu6m48v","1600","900","en","in07er09","null","","","","learningBlock1","","","","That was a tob.","null","","","","",""
"","html-keyboard-response","75","721498","0.0-6.0-2.22","FL","kpfcu6m48v","1600","900","en","in07er09","null","","","","learningBlock1","","","","<div style=""font-size:60px;""> </div>","null","FL","learning/Slide23.JPG","That was a tob.","",""
"","image-keyboard-response","76","721675","0.0-6.0-0.23","FL","kpfcu6m48v","1600","900","en","in07er09","null","","","","","","","","learning/Slide24.JPG","null","","","","",""
"","html-keyboard-response","77","722827","0.0-6.0-1.23","FL","kpfcu6m48v","1600","900","en","in07er09","null","","","","learningBlock1","","","","That was a wug.","null","","","","",""
"","html-keyboard-response","78","723829","0.0-6.0-2.23","FL","kpfcu6m48v","1600","900","en","in07er09","null","","","","learningBlock1","","","","<div style=""font-size:60px;""> </div>","null","FL","learning/Slide24.JPG","That was a wug.","",""
"","image-keyboard-response","79","724007","0.0-6.0-0.24","FL","kpfcu6m48v","1600","900","en","in07er09","null","","","","","","","","learning/Slide25.JPG","null","","","","",""
"","html-keyboard-response","80","725160","0.0-6.0-1.24","FL","kpfcu6m48v","1600","900","en","in07er09","null","","","","learningBlock1","","","","That was a dep.","null","","","","",""
"","html-keyboard-response","81","726162","0.0-6.0-2.24","FL","kpfcu6m48v","1600","900","en","in07er09","null","","","","learningBlock1","","","","<div style=""font-size:60px;""> </div>","null","FL","learning/Slide25.JPG","That was a dep.","",""
"","image-keyboard-response","82","726338","0.0-6.0-0.25","FL","kpfcu6m48v","1600","900","en","in07er09","null","","","","","","","","learning/Slide26.JPG","null","","","","",""
"","html-keyboard-response","83","727492","0.0-6.0-1.25","FL","kpfcu6m48v","1600","900","en","in07er09","null","","","","learningBlock1","","","","That was a wug.","null","","","","",""
"","html-keyboard-response","84","728494","0.0-6.0-2.25","FL","kpfcu6m48v","1600","900","en","in07er09","null","","","","learningBlock1","","","","<div style=""font-size:60px;""> </div>","null","FL","learning/Slide26.JPG","That was a wug.","",""
"","image-keyboard-response","85","728672","0.0-6.0-0.26","FL","kpfcu6m48v","1600","900","en","in07er09","null","","","","","","","","learning/Slide27.JPG","null","","","","",""
"","html-keyboard-response","86","729825","0.0-6.0-1.26","FL","kpfcu6m48v","1600","900","en","in07er09","null","","","","learningBlock1","","","","That was a bim.","null","","","","",""
"","html-keyboard-response","87","730827","0.0-6.0-2.26","FL","kpfcu6m48v","1600","900","en","in07er09","null","","","","learningBlock1","","","","<div style=""font-size:60px;""> </div>","null","FL","learning/Slide27.JPG","That was a bim.","",""
"","image-keyboard-response","88","731004","0.0-6.0-0.27","FL","kpfcu6m48v","1600","900","en","in07er09","null","","","","","","","","learning/Slide28.JPG","null","","","","",""
"","html-keyboard-response","89","732157","0.0-6.0-1.27","FL","kpfcu6m48v","1600","900","en","in07er09","null","","","","learningBlock1","","","","That was a dep.","null","","","","",""
"","html-keyboard-response","90","733159","0.0-6.0-2.27","FL","kpfcu6m48v","1600","900","en","in07er09","null","","","","learningBlock1","","","","<div style=""font-size:60px;""> </div>","null","FL","learning/Slide28.JPG","That was a dep.","",""
"","image-keyboard-response","91","733337","0.0-6.0-0.28","FL","kpfcu6m48v","1600","900","en","in07er09","null","","","","","","","","learning/Slide29.JPG","null","","","","",""
"","html-keyboard-response","92","734488","0.0-6.0-1.28","FL","kpfcu6m48v","1600","900","en","in07er09","null","","","","learningBlock1","","","","That was a tob.","null","","","","",""
"","html-keyboard-response","93","735490","0.0-6.0-2.28","FL","kpfcu6m48v","1600","900","en","in07er09","null","","","","learningBlock1","","","","<div style=""font-size:60px;""> </div>","null","FL","learning/Slide29.JPG","That was a tob.","",""
"","image-keyboard-response","94","735666","0.0-6.0-0.29","FL","kpfcu6m48v","1600","900","en","in07er09","null","","","","","","","","learning/Slide30.JPG","null","","","","",""
"","html-keyboard-response","95","736819","0.0-6.0-1.29","FL","kpfcu6m48v","1600","900","en","in07er09","null","","","","learningBlock1","","","","That was a dep.","null","","","","",""
"","html-keyboard-response","96","737820","0.0-6.0-2.29","FL","kpfcu6m48v","1600","900","en","in07er09","null","","","","learningBlock1","","","","<div style=""font-size:60px;""> </div>","null","FL","learning/Slide30.JPG","That was a dep.","",""
"","image-keyboard-response","97","737997","0.0-6.0-0.30","FL","kpfcu6m48v","1600","900","en","in07er09","null","","","","","","","","learning/Slide31.JPG","null","","","","",""
"","html-keyboard-response","98","739150","0.0-6.0-1.30","FL","kpfcu6m48v","1600","900","en","in07er09","null","","","","learningBlock1","","","","That was a wug.","null","","","","",""
"","html-keyboard-response","99","740153","0.0-6.0-2.30","FL","kpfcu6m48v","1600","900","en","in07er09","null","","","","learningBlock1","","","","<div style=""font-size:60px;""> </div>","null","FL","learning/Slide31.JPG","That was a wug.","",""
"","image-keyboard-response","100","740330","0.0-6.0-0.31","FL","kpfcu6m48v","1600","900","en","in07er09","null","","","","","","","","learning/Slide32.JPG","null","","","","",""
"","html-keyboard-response","101","741482","0.0-6.0-1.31","FL","kpfcu6m48v","1600","900","en","in07er09","null","","","","learningBlock1","","","","That was a tob.","null","","","","",""
"","html-keyboard-response","102","742484","0.0-6.0-2.31","FL","kpfcu6m48v","1600","900","en","in07er09","null","","","","learningBlock1","","","","<div style=""font-size:60px;""> </div>","null","FL","learning/Slide32.JPG","That was a tob.","",""
"","image-keyboard-response","103","742663","0.0-6.0-0.32","FL","kpfcu6m48v","1600","900","en","in07er09","null","","","","","","","","learning/Slide33.JPG","null","","","","",""
"","html-keyboard-response","104","743815","0.0-6.0-1.32","FL","kpfcu6m48v","1600","900","en","in07er09","null","","","","learningBlock1","","","","That was a bim.","null","","","","",""
"","html-keyboard-response","105","744817","0.0-6.0-2.32","FL","kpfcu6m48v","1600","900","en","in07er09","null","","","","learningBlock1","","","","<div style=""font-size:60px;""> </div>","null","FL","learning/Slide33.JPG","That was a bim.","",""
"","image-keyboard-response","106","744994","0.0-6.0-0.33","FL","kpfcu6m48v","1600","900","en","in07er09","null","","","","","","","","learning/Slide34.JPG","null","","","","",""
"","html-keyboard-response","107","746147","0.0-6.0-1.33","FL","kpfcu6m48v","1600","900","en","in07er09","null","","","","learningBlock1","","","","That was a tob.","null","","","","",""
"","html-keyboard-response","108","747149","0.0-6.0-2.33","FL","kpfcu6m48v","1600","900","en","in07er09","null","","","","learningBlock1","","","","<div style=""font-size:60px;""> </div>","null","FL","learning/Slide34.JPG","That was a tob.","",""
"","image-keyboard-response","109","747327","0.0-6.0-0.34","FL","kpfcu6m48v","1600","900","en","in07er09","null","","","","","","","","learning/Slide35.JPG","null","","","","",""
"","html-keyboard-response","110","748480","0.0-6.0-1.34","FL","kpfcu6m48v","1600","900","en","in07er09","null","","","","learningBlock1","","","","That was a bim.","null","","","","",""
"","html-keyboard-response","111","749483","0.0-6.0-2.34","FL","kpfcu6m48v","1600","900","en","in07er09","null","","","","learningBlock1","","","","<div style=""font-size:60px;""> </div>","null","FL","learning/Slide35.JPG","That was a bim.","",""
"","image-keyboard-response","112","749660","0.0-6.0-0.35","FL","kpfcu6m48v","1600","900","en","in07er09","null","","","","","","","","learning/Slide36.JPG","null","","","","",""
"","html-keyboard-response","113","750814","0.0-6.0-1.35","FL","kpfcu6m48v","1600","900","en","in07er09","null","","","","learningBlock1","","","","That was a dep.","null","","","","",""
"","html-keyboard-response","114","751816","0.0-6.0-2.35","FL","kpfcu6m48v","1600","900","en","in07er09","null","","","","learningBlock1","","","","<div style=""font-size:60px;""> </div>","null","FL","learning/Slide36.JPG","That was a dep.","",""
"","image-keyboard-response","115","751994","0.0-6.0-0.36","FL","kpfcu6m48v","1600","900","en","in07er09","null","","","","","","","","learning/Slide37.JPG","null","","","","",""
"","html-keyboard-response","116","753147","0.0-6.0-1.36","FL","kpfcu6m48v","1600","900","en","in07er09","null","","","","learningBlock1","","","","That was a tob.","null","","","","",""
"","html-keyboard-response","117","754150","0.0-6.0-2.36","FL","kpfcu6m48v","1600","900","en","in07er09","null","","","","learningBlock1","","","","<div style=""font-size:60px;""> </div>","null","FL","learning/Slide37.JPG","That was a tob.","",""
"","image-keyboard-response","118","754326","0.0-6.0-0.37","FL","kpfcu6m48v","1600","900","en","in07er09","null","","","","","","","","learning/Slide38.JPG","null","","","","",""
"","html-keyboard-response","119","755479","0.0-6.0-1.37","FL","kpfcu6m48v","1600","900","en","in07er09","null","","","","learningBlock1","","","","That was a wug.","null","","","","",""
"","html-keyboard-response","120","756481","0.0-6.0-2.37","FL","kpfcu6m48v","1600","900","en","in07er09","null","","","","learningBlock1","","","","<div style=""font-size:60px;""> </div>","null","FL","learning/Slide38.JPG","That was a wug.","",""
"","image-keyboard-response","121","756658","0.0-6.0-0.38","FL","kpfcu6m48v","1600","900","en","in07er09","null","","","","","","","","learning/Slide39.JPG","null","","","","",""
"","html-keyboard-response","122","757810","0.0-6.0-1.38","FL","kpfcu6m48v","1600","900","en","in07er09","null","","","","learningBlock1","","","","That was a bim.","null","","","","",""
"","html-keyboard-response","123","758813","0.0-6.0-2.38","FL","kpfcu6m48v","1600","900","en","in07er09","null","","","","learningBlock1","","","","<div style=""font-size:60px;""> </div>","null","FL","learning/Slide39.JPG","That was a bim.","",""
"","image-keyboard-response","124","758990","0.0-6.0-0.39","FL","kpfcu6m48v","1600","900","en","in07er09","null","","","","","","","","learning/Slide40.JPG","null","","","","",""
"","html-keyboard-response","125","760142","0.0-6.0-1.39","FL","kpfcu6m48v","1600","900","en","in07er09","null","","","","learningBlock1","","","","That was a tob.","null","","","","",""
"","html-keyboard-response","126","761145","0.0-6.0-2.39","FL","kpfcu6m48v","1600","900","en","in07er09","null","","","","learningBlock1","","","","<div style=""font-size:60px;""> </div>","null","FL","learning/Slide40.JPG","That was a tob.","",""
"","image-keyboard-response","127","761322","0.0-6.0-0.40","FL","kpfcu6m48v","1600","900","en","in07er09","null","","","","","","","","learning/Slide41.JPG","null","","","","",""
"","html-keyboard-response","128","762476","0.0-6.0-1.40","FL","kpfcu6m48v","1600","900","en","in07er09","null","","","","learningBlock1","","","","That was a bim.","null","","","","",""
"","html-keyboard-response","129","763478","0.0-6.0-2.40","FL","kpfcu6m48v","1600","900","en","in07er09","null","","","","learningBlock1","","","","<div style=""font-size:60px;""> </div>","null","FL","learning/Slide41.JPG","That was a bim.","",""
"","image-keyboard-response","130","763655","0.0-6.0-0.41","FL","kpfcu6m48v","1600","900","en","in07er09","null","","","","","","","","learning/Slide42.JPG","null","","","","",""
"","html-keyboard-response","131","764807","0.0-6.0-1.41","FL","kpfcu6m48v","1600","900","en","in07er09","null","","","","learningBlock1","","","","That was a dep.","null","","","","",""
"","html-keyboard-response","132","765809","0.0-6.0-2.41","FL","kpfcu6m48v","1600","900","en","in07er09","null","","","","learningBlock1","","","","<div style=""font-size:60px;""> </div>","null","FL","learning/Slide42.JPG","That was a dep.","",""
"","image-keyboard-response","133","765986","0.0-6.0-0.42","FL","kpfcu6m48v","1600","900","en","in07er09","null","","","","","","","","learning/Slide43.JPG","null","","","","",""
"","html-keyboard-response","134","767138","0.0-6.0-1.42","FL","kpfcu6m48v","1600","900","en","in07er09","null","","","","learningBlock1","","","","That was a wug.","null","","","","",""
"","html-keyboard-response","135","768140","0.0-6.0-2.42","FL","kpfcu6m48v","1600","900","en","in07er09","null","","","","learningBlock1","","","","<div style=""font-size:60px;""> </div>","null","FL","learning/Slide43.JPG","That was a wug.","",""
"","image-keyboard-response","136","768317","0.0-6.0-0.43","FL","kpfcu6m48v","1600","900","en","in07er09","null","","","","","","","","learning/Slide44.JPG","null","","","","",""
"","html-keyboard-response","137","769470","0.0-6.0-1.43","FL","kpfcu6m48v","1600","900","en","in07er09","null","","","","learningBlock1","","","","That was a bim.","null","","","","",""
"","html-keyboard-response","138","770473","0.0-6.0-2.43","FL","kpfcu6m48v","1600","900","en","in07er09","null","","","","learningBlock1","","","","<div style=""font-size:60px;""> </div>","null","FL","learning/Slide44.JPG","That was a bim.","",""
"","image-keyboard-response","139","770650","0.0-6.0-0.44","FL","kpfcu6m48v","1600","900","en","in07er09","null","","","","","","","","learning/Slide45.JPG","null","","","","",""
"","html-keyboard-response","140","771803","0.0-6.0-1.44","FL","kpfcu6m48v","1600","900","en","in07er09","null","","","","learningBlock1","","","","That was a wug.","null","","","","",""
"","html-keyboard-response","141","772806","0.0-6.0-2.44","FL","kpfcu6m48v","1600","900","en","in07er09","null","","","","learningBlock1","","","","<div style=""font-size:60px;""> </div>","null","FL","learning/Slide45.JPG","That was a wug.","",""
"","image-keyboard-response","142","772983","0.0-6.0-0.45","FL","kpfcu6m48v","1600","900","en","in07er09","null","","","","","","","","learning/Slide46.JPG","null","","","","",""
"","html-keyboard-response","143","774134","0.0-6.0-1.45","FL","kpfcu6m48v","1600","900","en","in07er09","null","","","","learningBlock1","","","","That was a dep.","null","","","","",""
"","html-keyboard-response","144","775137","0.0-6.0-2.45","FL","kpfcu6m48v","1600","900","en","in07er09","null","","","","learningBlock1","","","","<div style=""font-size:60px;""> </div>","null","FL","learning/Slide46.JPG","That was a dep.","",""
"","image-keyboard-response","145","775315","0.0-6.0-0.46","FL","kpfcu6m48v","1600","900","en","in07er09","null","","","","","","","","learning/Slide47.JPG","null","","","","",""
"","html-keyboard-response","146","776467","0.0-6.0-1.46","FL","kpfcu6m48v","1600","900","en","in07er09","null","","","","learningBlock1","","","","That was a tob.","null","","","","",""
"","html-keyboard-response","147","777469","0.0-6.0-2.46","FL","kpfcu6m48v","1600","900","en","in07er09","null","","","","learningBlock1","","","","<div style=""font-size:60px;""> </div>","null","FL","learning/Slide47.JPG","That was a tob.","",""
"","image-keyboard-response","148","777647","0.0-6.0-0.47","FL","kpfcu6m48v","1600","900","en","in07er09","null","","","","","","","","learning/Slide48.JPG","null","","","","",""
"","html-keyboard-response","149","778800","0.0-6.0-1.47","FL","kpfcu6m48v","1600","900","en","in07er09","null","","","","learningBlock1","","","","That was a bim.","null","","","","",""
"","html-keyboard-response","150","779803","0.0-6.0-2.47","FL","kpfcu6m48v","1600","900","en","in07er09","null","","","","learningBlock1","","","","<div style=""font-size:60px;""> </div>","null","FL","learning/Slide48.JPG","That was a bim.","",""
"","image-keyboard-response","151","779980","0.0-6.0-0.48","FL","kpfcu6m48v","1600","900","en","in07er09","null","","","","","","","","learning/Slide49.JPG","null","","","","",""
"","html-keyboard-response","152","781134","0.0-6.0-1.48","FL","kpfcu6m48v","1600","900","en","in07er09","null","","","","learningBlock1","","","","That was a dep.","null","","","","",""
"","html-keyboard-response","153","782137","0.0-6.0-2.48","FL","kpfcu6m48v","1600","900","en","in07er09","null","","","","learningBlock1","","","","<div style=""font-size:60px;""> </div>","null","FL","learning/Slide49.JPG","That was a dep.","",""
"","image-keyboard-response","154","782314","0.0-6.0-0.49","FL","kpfcu6m48v","1600","900","en","in07er09","null","","","","","","","","learning/Slide50.JPG","null","","","","",""
"","html-keyboard-response","155","783467","0.0-6.0-1.49","FL","kpfcu6m48v","1600","900","en","in07er09","null","","","","learningBlock1","","","","That was a tob.","null","","","","",""
"","html-keyboard-response","156","784469","0.0-6.0-2.49","FL","kpfcu6m48v","1600","900","en","in07er09","null","","","","learningBlock1","","","","<div style=""font-size:60px;""> </div>","null","FL","learning/Slide50.JPG","That was a tob.","",""
"","image-keyboard-response","157","784647","0.0-6.0-0.50","FL","kpfcu6m48v","1600","900","en","in07er09","null","","","","","","","","learning/Slide51.JPG","null","","","","",""
"","html-keyboard-response","158","785800","0.0-6.0-1.50","FL","kpfcu6m48v","1600","900","en","in07er09","null","","","","learningBlock1","","","","That was a bim.","null","","","","",""
"","html-keyboard-response","159","786802","0.0-6.0-2.50","FL","kpfcu6m48v","1600","900","en","in07er09","null","","","","learningBlock1","","","","<div style=""font-size:60px;""> </div>","null","FL","learning/Slide51.JPG","That was a bim.","",""
"","image-keyboard-response","160","786979","0.0-6.0-0.51","FL","kpfcu6m48v","1600","900","en","in07er09","null","","","","","","","","learning/Slide52.JPG","null","","","","",""
"","html-keyboard-response","161","788133","0.0-6.0-1.51","FL","kpfcu6m48v","1600","900","en","in07er09","null","","","","learningBlock1","","","","That was a wug.","null","","","","",""
"","html-keyboard-response","162","789135","0.0-6.0-2.51","FL","kpfcu6m48v","1600","900","en","in07er09","null","","","","learningBlock1","","","","<div style=""font-size:60px;""> </div>","null","FL","learning/Slide52.JPG","That was a wug.","",""
"","image-keyboard-response","163","789313","0.0-6.0-0.52","FL","kpfcu6m48v","1600","900","en","in07er09","null","","","","","","","","learning/Slide53.JPG","null","","","","",""
"","html-keyboard-response","164","790465","0.0-6.0-1.52","FL","kpfcu6m48v","1600","900","en","in07er09","null","","","","learningBlock1","","","","That was a tob.","null","","","","",""
"","html-keyboard-response","165","791467","0.0-6.0-2.52","FL","kpfcu6m48v","1600","900","en","in07er09","null","","","","learningBlock1","","","","<div style=""font-size:60px;""> </div>","null","FL","learning/Slide53.JPG","That was a tob.","",""
"","image-keyboard-response","166","791646","0.0-6.0-0.53","FL","kpfcu6m48v","1600","900","en","in07er09","null","","","","","","","","learning/Slide54.JPG","null","","","","",""
"","html-keyboard-response","167","792798","0.0-6.0-1.53","FL","kpfcu6m48v","1600","900","en","in07er09","null","","","","learningBlock1","","","","That was a dep.","null","","","","",""
"","html-keyboard-response","168","793800","0.0-6.0-2.53","FL","kpfcu6m48v","1600","900","en","in07er09","null","","","","learningBlock1","","","","<div style=""font-size:60px;""> </div>","null","FL","learning/Slide54.JPG","That was a dep.","",""
"","image-keyboard-response","169","793977","0.0-6.0-0.54","FL","kpfcu6m48v","1600","900","en","in07er09","null","","","","","","","","learning/Slide55.JPG","null","","","","",""
"","html-keyboard-response","170","795129","0.0-6.0-1.54","FL","kpfcu6m48v","1600","900","en","in07er09","null","","","","learningBlock1","","","","That was a bim.","null","","","","",""
"","html-keyboard-response","171","796131","0.0-6.0-2.54","FL","kpfcu6m48v","1600","900","en","in07er09","null","","","","learningBlock1","","","","<div style=""font-size:60px;""> </div>","null","FL","learning/Slide55.JPG","That was a bim.","",""
"","image-keyboard-response","172","796308","0.0-6.0-0.55","FL","kpfcu6m48v","1600","900","en","in07er09","null","","","","","","","","learning/Slide56.JPG","null","","","","",""
"","html-keyboard-response","173","797460","0.0-6.0-1.55","FL","kpfcu6m48v","1600","900","en","in07er09","null","","","","learningBlock1","","","","That was a tob.","null","","","","",""
"","html-keyboard-response","174","798462","0.0-6.0-2.55","FL","kpfcu6m48v","1600","900","en","in07er09","null","","","","learningBlock1","","","","<div style=""font-size:60px;""> </div>","null","FL","learning/Slide56.JPG","That was a tob.","",""
"","image-keyboard-response","175","798639","0.0-6.0-0.56","FL","kpfcu6m48v","1600","900","en","in07er09","null","","","","","","","","learning/Slide57.JPG","null","","","","",""
"","html-keyboard-response","176","799792","0.0-6.0-1.56","FL","kpfcu6m48v","1600","900","en","in07er09","null","","","","learningBlock1","","","","That was a dep.","null","","","","",""
"","html-keyboard-response","177","800794","0.0-6.0-2.56","FL","kpfcu6m48v","1600","900","en","in07er09","null","","","","learningBlock1","","","","<div style=""font-size:60px;""> </div>","null","FL","learning/Slide57.JPG","That was a dep.","",""
"","image-keyboard-response","178","800975","0.0-6.0-0.57","FL","kpfcu6m48v","1600","900","en","in07er09","null","","","","","","","","learning/Slide58.JPG","null","","","","",""
"","html-keyboard-response","179","802127","0.0-6.0-1.57","FL","kpfcu6m48v","1600","900","en","in07er09","null","","","","learningBlock1","","","","That was a wug.","null","","","","",""
"","html-keyboard-response","180","803129","0.0-6.0-2.57","FL","kpfcu6m48v","1600","900","en","in07er09","null","","","","learningBlock1","","","","<div style=""font-size:60px;""> </div>","null","FL","learning/Slide58.JPG","That was a wug.","",""
"","image-keyboard-response","181","803307","0.0-6.0-0.58","FL","kpfcu6m48v","1600","900","en","in07er09","null","","","","","","","","learning/Slide59.JPG","null","","","","",""
"","html-keyboard-response","182","804459","0.0-6.0-1.58","FL","kpfcu6m48v","1600","900","en","in07er09","null","","","","learningBlock1","","","","That was a dep.","null","","","","",""
"","html-keyboard-response","183","805462","0.0-6.0-2.58","FL","kpfcu6m48v","1600","900","en","in07er09","null","","","","learningBlock1","","","","<div style=""font-size:60px;""> </div>","null","FL","learning/Slide59.JPG","That was a dep.","",""
"","image-keyboard-response","184","805640","0.0-6.0-0.59","FL","kpfcu6m48v","1600","900","en","in07er09","null","","","","","","","","learning/Slide60.JPG","null","","","","",""
"","html-keyboard-response","185","806792","0.0-6.0-1.59","FL","kpfcu6m48v","1600","900","en","in07er09","null","","","","learningBlock1","","","","That was a wug.","null","","","","",""
"","html-keyboard-response","186","807795","0.0-6.0-2.59","FL","kpfcu6m48v","1600","900","en","in07er09","null","","","","learningBlock1","","","","<div style=""font-size:60px;""> </div>","null","FL","learning/Slide60.JPG","That was a wug.","",""
"","image-keyboard-response","187","807972","0.0-6.0-0.60","FL","kpfcu6m48v","1600","900","en","in07er09","null","","","","","","","","learning/Slide61.JPG","null","","","","",""
"","html-keyboard-response","188","809124","0.0-6.0-1.60","FL","kpfcu6m48v","1600","900","en","in07er09","null","","","","learningBlock1","","","","That was a bim.","null","","","","",""
"","html-keyboard-response","189","810126","0.0-6.0-2.60","FL","kpfcu6m48v","1600","900","en","in07er09","null","","","","learningBlock1","","","","<div style=""font-size:60px;""> </div>","null","FL","learning/Slide61.JPG","That was a bim.","",""
"","image-keyboard-response","190","810305","0.0-6.0-0.61","FL","kpfcu6m48v","1600","900","en","in07er09","null","","","","","","","","learning/Slide62.JPG","null","","","","",""
"","html-keyboard-response","191","811457","0.0-6.0-1.61","FL","kpfcu6m48v","1600","900","en","in07er09","null","","","","learningBlock1","","","","That was a dep.","null","","","","",""
"","html-keyboard-response","192","812460","0.0-6.0-2.61","FL","kpfcu6m48v","1600","900","en","in07er09","null","","","","learningBlock1","","","","<div style=""font-size:60px;""> </div>","null","FL","learning/Slide62.JPG","That was a dep.","",""
"","image-keyboard-response","193","812637","0.0-6.0-0.62","FL","kpfcu6m48v","1600","900","en","in07er09","null","","","","","","","","learning/Slide63.JPG","null","","","","",""
"","html-keyboard-response","194","813790","0.0-6.0-1.62","FL","kpfcu6m48v","1600","900","en","in07er09","null","","","","learningBlock1","","","","That was a bim.","null","","","","",""
"","html-keyboard-response","195","814793","0.0-6.0-2.62","FL","kpfcu6m48v","1600","900","en","in07er09","null","","","","learningBlock1","","","","<div style=""font-size:60px;""> </div>","null","FL","learning/Slide63.JPG","That was a bim.","",""
"","image-keyboard-response","196","814972","0.0-6.0-0.63","FL","kpfcu6m48v","1600","900","en","in07er09","null","","","","","","","","learning/Slide64.JPG","null","","","","",""
"","html-keyboard-response","197","816125","0.0-6.0-1.63","FL","kpfcu6m48v","1600","900","en","in07er09","null","","","","learningBlock1","","","","That was a tob.","null","","","","",""
"","html-keyboard-response","198","817127","0.0-6.0-2.63","FL","kpfcu6m48v","1600","900","en","in07er09","null","","","","learningBlock1","","","","<div style=""font-size:60px;""> </div>","null","FL","learning/Slide64.JPG","That was a tob.","",""
"","image-keyboard-response","199","817305","0.0-6.0-0.64","FL","kpfcu6m48v","1600","900","en","in07er09","null","","","","","","","","learning/Slide65.JPG","null","","","","",""
"","html-keyboard-response","200","818457","0.0-6.0-1.64","FL","kpfcu6m48v","1600","900","en","in07er09","null","","","","learningBlock1","","","","That was a wug.","null","","","","",""
"","html-keyboard-response","201","819464","0.0-6.0-2.64","FL","kpfcu6m48v","1600","900","en","in07er09","null","","","","learningBlock1","","","","<div style=""font-size:60px;""> </div>","null","FL","learning/Slide65.JPG","That was a wug.","",""
"","image-keyboard-response","202","819642","0.0-6.0-0.65","FL","kpfcu6m48v","1600","900","en","in07er09","null","","","","","","","","learning/Slide66.JPG","null","","","","",""
"","html-keyboard-response","203","820794","0.0-6.0-1.65","FL","kpfcu6m48v","1600","900","en","in07er09","null","","","","learningBlock1","","","","That was a dep.","null","","","","",""
"","html-keyboard-response","204","821796","0.0-6.0-2.65","FL","kpfcu6m48v","1600","900","en","in07er09","null","","","","learningBlock1","","","","<div style=""font-size:60px;""> </div>","null","FL","learning/Slide66.JPG","That was a dep.","",""
"","image-keyboard-response","205","821973","0.0-6.0-0.66","FL","kpfcu6m48v","1600","900","en","in07er09","null","","","","","","","","learning/Slide67.JPG","null","","","","",""
"","html-keyboard-response","206","823126","0.0-6.0-1.66","FL","kpfcu6m48v","1600","900","en","in07er09","null","","","","learningBlock1","","","","That was a tob.","null","","","","",""
"","html-keyboard-response","207","824128","0.0-6.0-2.66","FL","kpfcu6m48v","1600","900","en","in07er09","null","","","","learningBlock1","","","","<div style=""font-size:60px;""> </div>","null","FL","learning/Slide67.JPG","That was a tob.","",""
"","image-keyboard-response","208","824305","0.0-6.0-0.67","FL","kpfcu6m48v","1600","900","en","in07er09","null","","","","","","","","learning/Slide68.JPG","null","","","","",""
"","html-keyboard-response","209","825458","0.0-6.0-1.67","FL","kpfcu6m48v","1600","900","en","in07er09","null","","","","learningBlock1","","","","That was a wug.","null","","","","",""
"","html-keyboard-response","210","826461","0.0-6.0-2.67","FL","kpfcu6m48v","1600","900","en","in07er09","null","","","","learningBlock1","","","","<div style=""font-size:60px;""> </div>","null","FL","learning/Slide68.JPG","That was a wug.","",""
"","image-keyboard-response","211","826638","0.0-6.0-0.68","FL","kpfcu6m48v","1600","900","en","in07er09","null","","","","","","","","learning/Slide69.JPG","null","","","","",""
"","html-keyboard-response","212","827791","0.0-6.0-1.68","FL","kpfcu6m48v","1600","900","en","in07er09","null","","","","learningBlock1","","","","That was a tob.","null","","","","",""
"","html-keyboard-response","213","828794","0.0-6.0-2.68","FL","kpfcu6m48v","1600","900","en","in07er09","null","","","","learningBlock1","","","","<div style=""font-size:60px;""> </div>","null","FL","learning/Slide69.JPG","That was a tob.","",""
"","image-keyboard-response","214","828971","0.0-6.0-0.69","FL","kpfcu6m48v","1600","900","en","in07er09","null","","","","","","","","learning/Slide70.JPG","null","","","","",""
"","html-keyboard-response","215","830124","0.0-6.0-1.69","FL","kpfcu6m48v","1600","900","en","in07er09","null","","","","learningBlock1","","","","That was a dep.","null","","","","",""
"","html-keyboard-response","216","831125","0.0-6.0-2.69","FL","kpfcu6m48v","1600","900","en","in07er09","null","","","","learningBlock1","","","","<div style=""font-size:60px;""> </div>","null","FL","learning/Slide70.JPG","That was a dep.","",""
"","image-keyboard-response","217","831303","0.0-6.0-0.70","FL","kpfcu6m48v","1600","900","en","in07er09","null","","","","","","","","learning/Slide71.JPG","null","","","","",""
"","html-keyboard-response","218","832455","0.0-6.0-1.70","FL","kpfcu6m48v","1600","900","en","in07er09","null","","","","learningBlock1","","","","That was a wug.","null","","","","",""
"","html-keyboard-response","219","833457","0.0-6.0-2.70","FL","kpfcu6m48v","1600","900","en","in07er09","null","","","","learningBlock1","","","","<div style=""font-size:60px;""> </div>","null","FL","learning/Slide71.JPG","That was a wug.","",""
"","image-keyboard-response","220","833634","0.0-6.0-0.71","FL","kpfcu6m48v","1600","900","en","in07er09","null","","","","","","","","learning/Slide72.JPG","null","","","","",""
"","html-keyboard-response","221","834787","0.0-6.0-1.71","FL","kpfcu6m48v","1600","900","en","in07er09","null","","","","learningBlock1","","","","That was a bim.","null","","","","",""
"","html-keyboard-response","222","835789","0.0-6.0-2.71","FL","kpfcu6m48v","1600","900","en","in07er09","null","","","","learningBlock1","","","","<div style=""font-size:60px;""> </div>","null","FL","learning/Slide72.JPG","That was a bim.","",""
"","image-keyboard-response","223","835966","0.0-6.0-0.72","FL","kpfcu6m48v","1600","900","en","in07er09","null","","","","","","","","learning/Slide73.JPG","null","","","","",""
"","html-keyboard-response","224","837119","0.0-6.0-1.72","FL","kpfcu6m48v","1600","900","en","in07er09","null","","","","learningBlock1","","","","That was a wug.","null","","","","",""
"","html-keyboard-response","225","838121","0.0-6.0-2.72","FL","kpfcu6m48v","1600","900","en","in07er09","null","","","","learningBlock1","","","","<div style=""font-size:60px;""> </div>","null","FL","learning/Slide73.JPG","That was a wug.","",""
"","image-keyboard-response","226","838299","0.0-6.0-0.73","FL","kpfcu6m48v","1600","900","en","in07er09","null","","","","","","","","learning/Slide74.JPG","null","","","","",""
"","html-keyboard-response","227","839452","0.0-6.0-1.73","FL","kpfcu6m48v","1600","900","en","in07er09","null","","","","learningBlock1","","","","That was a dep.","null","","","","",""
"","html-keyboard-response","228","840455","0.0-6.0-2.73","FL","kpfcu6m48v","1600","900","en","in07er09","null","","","","learningBlock1","","","","<div style=""font-size:60px;""> </div>","null","FL","learning/Slide74.JPG","That was a dep.","",""
"","image-keyboard-response","229","840632","0.0-6.0-0.74","FL","kpfcu6m48v","1600","900","en","in07er09","null","","","","","","","","learning/Slide75.JPG","null","","","","",""
"","html-keyboard-response","230","841784","0.0-6.0-1.74","FL","kpfcu6m48v","1600","900","en","in07er09","null","","","","learningBlock1","","","","That was a tob.","null","","","","",""
"","html-keyboard-response","231","842786","0.0-6.0-2.74","FL","kpfcu6m48v","1600","900","en","in07er09","null","","","","learningBlock1","","","","<div style=""font-size:60px;""> </div>","null","FL","learning/Slide75.JPG","That was a tob.","",""
"","image-keyboard-response","232","842964","0.0-6.0-0.75","FL","kpfcu6m48v","1600","900","en","in07er09","null","","","","","","","","learning/Slide76.JPG","null","","","","",""
"","html-keyboard-response","233","844116","0.0-6.0-1.75","FL","kpfcu6m48v","1600","900","en","in07er09","null","","","","learningBlock1","","","","That was a bim.","null","","","","",""
"","html-keyboard-response","234","845118","0.0-6.0-2.75","FL","kpfcu6m48v","1600","900","en","in07er09","null","","","","learningBlock1","","","","<div style=""font-size:60px;""> </div>","null","FL","learning/Slide76.JPG","That was a bim.","",""
"","image-keyboard-response","235","845295","0.0-6.0-0.76","FL","kpfcu6m48v","1600","900","en","in07er09","null","","","","","","","","learning/Slide77.JPG","null","","","","",""
"","html-keyboard-response","236","846446","0.0-6.0-1.76","FL","kpfcu6m48v","1600","900","en","in07er09","null","","","","learningBlock1","","","","That was a tob.","null","","","","",""
"","html-keyboard-response","237","847449","0.0-6.0-2.76","FL","kpfcu6m48v","1600","900","en","in07er09","null","","","","learningBlock1","","","","<div style=""font-size:60px;""> </div>","null","FL","learning/Slide77.JPG","That was a tob.","",""
"","image-keyboard-response","238","847626","0.0-6.0-0.77","FL","kpfcu6m48v","1600","900","en","in07er09","null","","","","","","","","learning/Slide78.JPG","null","","","","",""
"","html-keyboard-response","239","848779","0.0-6.0-1.77","FL","kpfcu6m48v","1600","900","en","in07er09","null","","","","learningBlock1","","","","That was a wug.","null","","","","",""
"","html-keyboard-response","240","849781","0.0-6.0-2.77","FL","kpfcu6m48v","1600","900","en","in07er09","null","","","","learningBlock1","","","","<div style=""font-size:60px;""> </div>","null","FL","learning/Slide78.JPG","That was a wug.","",""
"","image-keyboard-response","241","849959","0.0-6.0-0.78","FL","kpfcu6m48v","1600","900","en","in07er09","null","","","","","","","","learning/Slide79.JPG","null","","","","",""
"","html-keyboard-response","242","851113","0.0-6.0-1.78","FL","kpfcu6m48v","1600","900","en","in07er09","null","","","","learningBlock1","","","","That was a bim.","null","","","","",""
"","html-keyboard-response","243","852114","0.0-6.0-2.78","FL","kpfcu6m48v","1600","900","en","in07er09","null","","","","learningBlock1","","","","<div style=""font-size:60px;""> </div>","null","FL","learning/Slide79.JPG","That was a bim.","",""
"","image-keyboard-response","244","852292","0.0-6.0-0.79","FL","kpfcu6m48v","1600","900","en","in07er09","null","","","","","","","","learning/Slide80.JPG","null","","","","",""
"","html-keyboard-response","245","853444","0.0-6.0-1.79","FL","kpfcu6m48v","1600","900","en","in07er09","null","","","","learningBlock1","","","","That was a tob.","null","","","","",""
"","html-keyboard-response","246","854447","0.0-6.0-2.79","FL","kpfcu6m48v","1600","900","en","in07er09","null","","","","learningBlock1","","","","<div style=""font-size:60px;""> </div>","null","FL","learning/Slide80.JPG","That was a tob.","",""
"","instructions","247","877250","0.0-7.0","FL","kpfcu6m48v","1600","900","en","in07er09","NA","","","[{""page_index"":0,""viewing_time"":22801.754999905825}]","instructions","","","","","","","","","",""
"","image-keyboard-response","248","877427","0.0-8.0-0.0","FL","kpfcu6m48v","1600","900","en","in07er09","null","","","","","","","","learning/Slide81.JPG","null","","","","",""
"","html-keyboard-response","249","878581","0.0-8.0-1.0","FL","kpfcu6m48v","1600","900","en","in07er09","null","","","","learningBlock2","","","","That was a wug.","null","","","","",""
"","html-keyboard-response","250","879583","0.0-8.0-2.0","FL","kpfcu6m48v","1600","900","en","in07er09","null","","","","learningBlock2","","","","<div style=""font-size:60px;""> </div>","null","FL","learning/Slide81.JPG","That was a wug.","",""
"","image-keyboard-response","251","879761","0.0-8.0-0.1","FL","kpfcu6m48v","1600","900","en","in07er09","null","","","","","","","","learning/Slide82.JPG","null","","","","",""
"","html-keyboard-response","252","880913","0.0-8.0-1.1","FL","kpfcu6m48v","1600","900","en","in07er09","null","","","","learningBlock2","","","","That was a bim.","null","","","","",""
"","html-keyboard-response","253","881916","0.0-8.0-2.1","FL","kpfcu6m48v","1600","900","en","in07er09","null","","","","learningBlock2","","","","<div style=""font-size:60px;""> </div>","null","FL","learning/Slide82.JPG","That was a bim.","",""
"","image-keyboard-response","254","882093","0.0-8.0-0.2","FL","kpfcu6m48v","1600","900","en","in07er09","null","","","","","","","","learning/Slide83.JPG","null","","","","",""
"","html-keyboard-response","255","883246","0.0-8.0-1.2","FL","kpfcu6m48v","1600","900","en","in07er09","null","","","","learningBlock2","","","","That was a wug.","null","","","","",""
"","html-keyboard-response","256","884248","0.0-8.0-2.2","FL","kpfcu6m48v","1600","900","en","in07er09","null","","","","learningBlock2","","","","<div style=""font-size:60px;""> </div>","null","FL","learning/Slide83.JPG","That was a wug.","",""
"","image-keyboard-response","257","884425","0.0-8.0-0.3","FL","kpfcu6m48v","1600","900","en","in07er09","null","","","","","","","","learning/Slide84.JPG","null","","","","",""
"","html-keyboard-response","258","885577","0.0-8.0-1.3","FL","kpfcu6m48v","1600","900","en","in07er09","null","","","","learningBlock2","","","","That was a dep.","null","","","","",""
"","html-keyboard-response","259","886579","0.0-8.0-2.3","FL","kpfcu6m48v","1600","900","en","in07er09","null","","","","learningBlock2","","","","<div style=""font-size:60px;""> </div>","null","FL","learning/Slide84.JPG","That was a dep.","",""
"","image-keyboard-response","260","886756","0.0-8.0-0.4","FL","kpfcu6m48v","1600","900","en","in07er09","null","","","","","","","","learning/Slide85.JPG","null","","","","",""
"","html-keyboard-response","261","887909","0.0-8.0-1.4","FL","kpfcu6m48v","1600","900","en","in07er09","null","","","","learningBlock2","","","","That was a bim.","null","","","","",""
"","html-keyboard-response","262","888911","0.0-8.0-2.4","FL","kpfcu6m48v","1600","900","en","in07er09","null","","","","learningBlock2","","","","<div style=""font-size:60px;""> </div>","null","FL","learning/Slide85.JPG","That was a bim.","",""
"","image-keyboard-response","263","889088","0.0-8.0-0.5","FL","kpfcu6m48v","1600","900","en","in07er09","null","","","","","","","","learning/Slide86.JPG","null","","","","",""
"","html-keyboard-response","264","890243","0.0-8.0-1.5","FL","kpfcu6m48v","1600","900","en","in07er09","null","","","","learningBlock2","","","","That was a tob.","null","","","","",""
"","html-keyboard-response","265","891245","0.0-8.0-2.5","FL","kpfcu6m48v","1600","900","en","in07er09","null","","","","learningBlock2","","","","<div style=""font-size:60px;""> </div>","null","FL","learning/Slide86.JPG","That was a tob.","",""
"","image-keyboard-response","266","891424","0.0-8.0-0.6","FL","kpfcu6m48v","1600","900","en","in07er09","null","","","","","","","","learning/Slide87.JPG","null","","","","",""
"","html-keyboard-response","267","892577","0.0-8.0-1.6","FL","kpfcu6m48v","1600","900","en","in07er09","null","","","","learningBlock2","","","","That was a wug.","null","","","","",""
"","html-keyboard-response","268","893579","0.0-8.0-2.6","FL","kpfcu6m48v","1600","900","en","in07er09","null","","","","learningBlock2","","","","<div style=""font-size:60px;""> </div>","null","FL","learning/Slide87.JPG","That was a wug.","",""
"","image-keyboard-response","269","893757","0.0-8.0-0.7","FL","kpfcu6m48v","1600","900","en","in07er09","null","","","","","","","","learning/Slide88.JPG","null","","","","",""
"","html-keyboard-response","270","894910","0.0-8.0-1.7","FL","kpfcu6m48v","1600","900","en","in07er09","null","","","","learningBlock2","","","","That was a tob.","null","","","","",""
"","html-keyboard-response","271","895912","0.0-8.0-2.7","FL","kpfcu6m48v","1600","900","en","in07er09","null","","","","learningBlock2","","","","<div style=""font-size:60px;""> </div>","null","FL","learning/Slide88.JPG","That was a tob.","",""
"","image-keyboard-response","272","896089","0.0-8.0-0.8","FL","kpfcu6m48v","1600","900","en","in07er09","null","","","","","","","","learning/Slide89.JPG","null","","","","",""
"","html-keyboard-response","273","897241","0.0-8.0-1.8","FL","kpfcu6m48v","1600","900","en","in07er09","null","","","","learningBlock2","","","","That was a bim.","null","","","","",""
"","html-keyboard-response","274","898243","0.0-8.0-2.8","FL","kpfcu6m48v","1600","900","en","in07er09","null","","","","learningBlock2","","","","<div style=""font-size:60px;""> </div>","null","FL","learning/Slide89.JPG","That was a bim.","",""
"","image-keyboard-response","275","898420","0.0-8.0-0.9","FL","kpfcu6m48v","1600","900","en","in07er09","null","","","","","","","","learning/Slide90.JPG","null","","","","",""
"","html-keyboard-response","276","899573","0.0-8.0-1.9","FL","kpfcu6m48v","1600","900","en","in07er09","null","","","","learningBlock2","","","","That was a dep.","null","","","","",""
"","html-keyboard-response","277","900576","0.0-8.0-2.9","FL","kpfcu6m48v","1600","900","en","in07er09","null","","","","learningBlock2","","","","<div style=""font-size:60px;""> </div>","null","FL","learning/Slide90.JPG","That was a dep.","",""
"","image-keyboard-response","278","900753","0.0-8.0-0.10","FL","kpfcu6m48v","1600","900","en","in07er09","null","","","","","","","","learning/Slide91.JPG","null","","","","",""
"","html-keyboard-response","279","901905","0.0-8.0-1.10","FL","kpfcu6m48v","1600","900","en","in07er09","null","","","","learningBlock2","","","","That was a wug.","null","","","","",""
"","html-keyboard-response","280","902908","0.0-8.0-2.10","FL","kpfcu6m48v","1600","900","en","in07er09","null","","","","learningBlock2","","","","<div style=""font-size:60px;""> </div>","null","FL","learning/Slide91.JPG","That was a wug.","",""
"","image-keyboard-response","281","903086","0.0-8.0-0.11","FL","kpfcu6m48v","1600","900","en","in07er09","null","","","","","","","","learning/Slide92.JPG","null","","","","",""
"","html-keyboard-response","282","904238","0.0-8.0-1.11","FL","kpfcu6m48v","1600","900","en","in07er09","null","","","","learningBlock2","","","","That was a tob.","null","","","","",""
"","html-keyboard-response","283","905239","0.0-8.0-2.11","FL","kpfcu6m48v","1600","900","en","in07er09","null","","","","learningBlock2","","","","<div style=""font-size:60px;""> </div>","null","FL","learning/Slide92.JPG","That was a tob.","",""
"","image-keyboard-response","284","905417","0.0-8.0-0.12","FL","kpfcu6m48v","1600","900","en","in07er09","null","","","","","","","","learning/Slide93.JPG","null","","","","",""
"","html-keyboard-response","285","906569","0.0-8.0-1.12","FL","kpfcu6m48v","1600","900","en","in07er09","null","","","","learningBlock2","","","","That was a bim.","null","","","","",""
"","html-keyboard-response","286","907571","0.0-8.0-2.12","FL","kpfcu6m48v","1600","900","en","in07er09","null","","","","learningBlock2","","","","<div style=""font-size:60px;""> </div>","null","FL","learning/Slide93.JPG","That was a bim.","",""
"","image-keyboard-response","287","907748","0.0-8.0-0.13","FL","kpfcu6m48v","1600","900","en","in07er09","null","","","","","","","","learning/Slide94.JPG","null","","","","",""
"","html-keyboard-response","288","908902","0.0-8.0-1.13","FL","kpfcu6m48v","1600","900","en","in07er09","null","","","","learningBlock2","","","","That was a tob.","null","","","","",""
"","html-keyboard-response","289","909906","0.0-8.0-2.13","FL","kpfcu6m48v","1600","900","en","in07er09","null","","","","learningBlock2","","","","<div style=""font-size:60px;""> </div>","null","FL","learning/Slide94.JPG","That was a tob.","",""
"","image-keyboard-response","290","910083","0.0-8.0-0.14","FL","kpfcu6m48v","1600","900","en","in07er09","null","","","","","","","","learning/Slide95.JPG","null","","","","",""
"","html-keyboard-response","291","911235","0.0-8.0-1.14","FL","kpfcu6m48v","1600","900","en","in07er09","null","","","","learningBlock2","","","","That was a wug.","null","","","","",""
"","html-keyboard-response","292","912237","0.0-8.0-2.14","FL","kpfcu6m48v","1600","900","en","in07er09","null","","","","learningBlock2","","","","<div style=""font-size:60px;""> </div>","null","FL","learning/Slide95.JPG","That was a wug.","",""
"","image-keyboard-response","293","912414","0.0-8.0-0.15","FL","kpfcu6m48v","1600","900","en","in07er09","null","","","","","","","","learning/Slide96.JPG","null","","","","",""
"","html-keyboard-response","294","913567","0.0-8.0-1.15","FL","kpfcu6m48v","1600","900","en","in07er09","null","","","","learningBlock2","","","","That was a tob.","null","","","","",""
"","html-keyboard-response","295","914569","0.0-8.0-2.15","FL","kpfcu6m48v","1600","900","en","in07er09","null","","","","learningBlock2","","","","<div style=""font-size:60px;""> </div>","null","FL","learning/Slide96.JPG","That was a tob.","",""
"","image-keyboard-response","296","914746","0.0-8.0-0.16","FL","kpfcu6m48v","1600","900","en","in07er09","null","","","","","","","","learning/Slide97.JPG","null","","","","",""
"","html-keyboard-response","297","915899","0.0-8.0-1.16","FL","kpfcu6m48v","1600","900","en","in07er09","null","","","","learningBlock2","","","","That was a dep.","null","","","","",""
"","html-keyboard-response","298","916903","0.0-8.0-2.16","FL","kpfcu6m48v","1600","900","en","in07er09","null","","","","learningBlock2","","","","<div style=""font-size:60px;""> </div>","null","FL","learning/Slide97.JPG","That was a dep.","",""
"","image-keyboard-response","299","917081","0.0-8.0-0.17","FL","kpfcu6m48v","1600","900","en","in07er09","null","","","","","","","","learning/Slide98.JPG","null","","","","",""
"","html-keyboard-response","300","918233","0.0-8.0-1.17","FL","kpfcu6m48v","1600","900","en","in07er09","null","","","","learningBlock2","","","","That was a bim.","null","","","","",""
"","html-keyboard-response","301","919235","0.0-8.0-2.17","FL","kpfcu6m48v","1600","900","en","in07er09","null","","","","learningBlock2","","","","<div style=""font-size:60px;""> </div>","null","FL","learning/Slide98.JPG","That was a bim.","",""
"","image-keyboard-response","302","919413","0.0-8.0-0.18","FL","kpfcu6m48v","1600","900","en","in07er09","null","","","","","","","","learning/Slide99.JPG","null","","","","",""
"","html-keyboard-response","303","920566","0.0-8.0-1.18","FL","kpfcu6m48v","1600","900","en","in07er09","null","","","","learningBlock2","","","","That was a dep.","null","","","","",""
"","html-keyboard-response","304","921568","0.0-8.0-2.18","FL","kpfcu6m48v","1600","900","en","in07er09","null","","","","learningBlock2","","","","<div style=""font-size:60px;""> </div>","null","FL","learning/Slide99.JPG","That was a dep.","",""
"","image-keyboard-response","305","921745","0.0-8.0-0.19","FL","kpfcu6m48v","1600","900","en","in07er09","null","","","","","","","","learning/Slide100.JPG","null","","","","",""
"","html-keyboard-response","306","922897","0.0-8.0-1.19","FL","kpfcu6m48v","1600","900","en","in07er09","null","","","","learningBlock2","","","","That was a bim.","null","","","","",""
"","html-keyboard-response","307","923899","0.0-8.0-2.19","FL","kpfcu6m48v","1600","900","en","in07er09","null","","","","learningBlock2","","","","<div style=""font-size:60px;""> </div>","null","FL","learning/Slide100.JPG","That was a bim.","",""
"","image-keyboard-response","308","924076","0.0-8.0-0.20","FL","kpfcu6m48v","1600","900","en","in07er09","null","","","","","","","","learning/Slide101.JPG","null","","","","",""
"","html-keyboard-response","309","925228","0.0-8.0-1.20","FL","kpfcu6m48v","1600","900","en","in07er09","null","","","","learningBlock2","","","","That was a tob.","null","","","","",""
"","html-keyboard-response","310","926230","0.0-8.0-2.20","FL","kpfcu6m48v","1600","900","en","in07er09","null","","","","learningBlock2","","","","<div style=""font-size:60px;""> </div>","null","FL","learning/Slide101.JPG","That was a tob.","",""
"","image-keyboard-response","311","926409","0.0-8.0-0.21","FL","kpfcu6m48v","1600","900","en","in07er09","null","","","","","","","","learning/Slide102.JPG","null","","","","",""
"","html-keyboard-response","312","927562","0.0-8.0-1.21","FL","kpfcu6m48v","1600","900","en","in07er09","null","","","","learningBlock2","","","","That was a bim.","null","","","","",""
"","html-keyboard-response","313","928565","0.0-8.0-2.21","FL","kpfcu6m48v","1600","900","en","in07er09","null","","","","learningBlock2","","","","<div style=""font-size:60px;""> </div>","null","FL","learning/Slide102.JPG","That was a bim.","",""
"","image-keyboard-response","314","928742","0.0-8.0-0.22","FL","kpfcu6m48v","1600","900","en","in07er09","null","","","","","","","","learning/Slide103.JPG","null","","","","",""
"","html-keyboard-response","315","929895","0.0-8.0-1.22","FL","kpfcu6m48v","1600","900","en","in07er09","null","","","","learningBlock2","","","","That was a dep.","null","","","","",""
"","html-keyboard-response","316","930897","0.0-8.0-2.22","FL","kpfcu6m48v","1600","900","en","in07er09","null","","","","learningBlock2","","","","<div style=""font-size:60px;""> </div>","null","FL","learning/Slide103.JPG","That was a dep.","",""
"","image-keyboard-response","317","931076","0.0-8.0-0.23","FL","kpfcu6m48v","1600","900","en","in07er09","null","","","","","","","","learning/Slide104.JPG","null","","","","",""
"","html-keyboard-response","318","932228","0.0-8.0-1.23","FL","kpfcu6m48v","1600","900","en","in07er09","null","","","","learningBlock2","","","","That was a tob.","null","","","","",""
"","html-keyboard-response","319","933230","0.0-8.0-2.23","FL","kpfcu6m48v","1600","900","en","in07er09","null","","","","learningBlock2","","","","<div style=""font-size:60px;""> </div>","null","FL","learning/Slide104.JPG","That was a tob.","",""
"","image-keyboard-response","320","933407","0.0-8.0-0.24","FL","kpfcu6m48v","1600","900","en","in07er09","null","","","","","","","","learning/Slide105.JPG","null","","","","",""
"","html-keyboard-response","321","934560","0.0-8.0-1.24","FL","kpfcu6m48v","1600","900","en","in07er09","null","","","","learningBlock2","","","","That was a dep.","null","","","","",""
"","html-keyboard-response","322","935562","0.0-8.0-2.24","FL","kpfcu6m48v","1600","900","en","in07er09","null","","","","learningBlock2","","","","<div style=""font-size:60px;""> </div>","null","FL","learning/Slide105.JPG","That was a dep.","",""
"","image-keyboard-response","323","935740","0.0-8.0-0.25","FL","kpfcu6m48v","1600","900","en","in07er09","null","","","","","","","","learning/Slide106.JPG","null","","","","",""
"","html-keyboard-response","324","936893","0.0-8.0-1.25","FL","kpfcu6m48v","1600","900","en","in07er09","null","","","","learningBlock2","","","","That was a wug.","null","","","","",""
"","html-keyboard-response","325","937895","0.0-8.0-2.25","FL","kpfcu6m48v","1600","900","en","in07er09","null","","","","learningBlock2","","","","<div style=""font-size:60px;""> </div>","null","FL","learning/Slide106.JPG","That was a wug.","",""
"","image-keyboard-response","326","938072","0.0-8.0-0.26","FL","kpfcu6m48v","1600","900","en","in07er09","null","","","","","","","","learning/Slide107.JPG","null","","","","",""
"","html-keyboard-response","327","939224","0.0-8.0-1.26","FL","kpfcu6m48v","1600","900","en","in07er09","null","","","","learningBlock2","","","","That was a bim.","null","","","","",""
"","html-keyboard-response","328","940226","0.0-8.0-2.26","FL","kpfcu6m48v","1600","900","en","in07er09","null","","","","learningBlock2","","","","<div style=""font-size:60px;""> </div>","null","FL","learning/Slide107.JPG","That was a bim.","",""
"","image-keyboard-response","329","940404","0.0-8.0-0.27","FL","kpfcu6m48v","1600","900","en","in07er09","null","","","","","","","","learning/Slide108.JPG","null","","","","",""
"","html-keyboard-response","330","941556","0.0-8.0-1.27","FL","kpfcu6m48v","1600","900","en","in07er09","null","","","","learningBlock2","","","","That was a dep.","null","","","","",""
"","html-keyboard-response","331","942558","0.0-8.0-2.27","FL","kpfcu6m48v","1600","900","en","in07er09","null","","","","learningBlock2","","","","<div style=""font-size:60px;""> </div>","null","FL","learning/Slide108.JPG","That was a dep.","",""
"","image-keyboard-response","332","942736","0.0-8.0-0.28","FL","kpfcu6m48v","1600","900","en","in07er09","null","","","","","","","","learning/Slide109.JPG","null","","","","",""
"","html-keyboard-response","333","943889","0.0-8.0-1.28","FL","kpfcu6m48v","1600","900","en","in07er09","null","","","","learningBlock2","","","","That was a wug.","null","","","","",""
"","html-keyboard-response","334","944892","0.0-8.0-2.28","FL","kpfcu6m48v","1600","900","en","in07er09","null","","","","learningBlock2","","","","<div style=""font-size:60px;""> </div>","null","FL","learning/Slide109.JPG","That was a wug.","",""
"","image-keyboard-response","335","945070","0.0-8.0-0.29","FL","kpfcu6m48v","1600","900","en","in07er09","null","","","","","","","","learning/Slide110.JPG","null","","","","",""
"","html-keyboard-response","336","946223","0.0-8.0-1.29","FL","kpfcu6m48v","1600","900","en","in07er09","null","","","","learningBlock2","","","","That was a bim.","null","","","","",""
"","html-keyboard-response","337","947225","0.0-8.0-2.29","FL","kpfcu6m48v","1600","900","en","in07er09","null","","","","learningBlock2","","","","<div style=""font-size:60px;""> </div>","null","FL","learning/Slide110.JPG","That was a bim.","",""
"","image-keyboard-response","338","947403","0.0-8.0-0.30","FL","kpfcu6m48v","1600","900","en","in07er09","null","","","","","","","","learning/Slide111.JPG","null","","","","",""
"","html-keyboard-response","339","948556","0.0-8.0-1.30","FL","kpfcu6m48v","1600","900","en","in07er09","null","","","","learningBlock2","","","","That was a tob.","null","","","","",""
"","html-keyboard-response","340","949558","0.0-8.0-2.30","FL","kpfcu6m48v","1600","900","en","in07er09","null","","","","learningBlock2","","","","<div style=""font-size:60px;""> </div>","null","FL","learning/Slide111.JPG","That was a tob.","",""
"","image-keyboard-response","341","949736","0.0-8.0-0.31","FL","kpfcu6m48v","1600","900","en","in07er09","null","","","","","","","","learning/Slide112.JPG","null","","","","",""
"","html-keyboard-response","342","950889","0.0-8.0-1.31","FL","kpfcu6m48v","1600","900","en","in07er09","null","","","","learningBlock2","","","","That was a wug.","null","","","","",""
"","html-keyboard-response","343","951892","0.0-8.0-2.31","FL","kpfcu6m48v","1600","900","en","in07er09","null","","","","learningBlock2","","","","<div style=""font-size:60px;""> </div>","null","FL","learning/Slide112.JPG","That was a wug.","",""
"","image-keyboard-response","344","952069","0.0-8.0-0.32","FL","kpfcu6m48v","1600","900","en","in07er09","null","","","","","","","","learning/Slide113.JPG","null","","","","",""
"","html-keyboard-response","345","953223","0.0-8.0-1.32","FL","kpfcu6m48v","1600","900","en","in07er09","null","","","","learningBlock2","","","","That was a tob.","null","","","","",""
"","html-keyboard-response","346","954226","0.0-8.0-2.32","FL","kpfcu6m48v","1600","900","en","in07er09","null","","","","learningBlock2","","","","<div style=""font-size:60px;""> </div>","null","FL","learning/Slide113.JPG","That was a tob.","",""
"","image-keyboard-response","347","954404","0.0-8.0-0.33","FL","kpfcu6m48v","1600","900","en","in07er09","null","","","","","","","","learning/Slide114.JPG","null","","","","",""
"","html-keyboard-response","348","955556","0.0-8.0-1.33","FL","kpfcu6m48v","1600","900","en","in07er09","null","","","","learningBlock2","","","","That was a wug.","null","","","","",""
"","html-keyboard-response","349","956559","0.0-8.0-2.33","FL","kpfcu6m48v","1600","900","en","in07er09","null","","","","learningBlock2","","","","<div style=""font-size:60px;""> </div>","null","FL","learning/Slide114.JPG","That was a wug.","",""
"","image-keyboard-response","350","956736","0.0-8.0-0.34","FL","kpfcu6m48v","1600","900","en","in07er09","null","","","","","","","","learning/Slide115.JPG","null","","","","",""
"","html-keyboard-response","351","957888","0.0-8.0-1.34","FL","kpfcu6m48v","1600","900","en","in07er09","null","","","","learningBlock2","","","","That was a bim.","null","","","","",""
"","html-keyboard-response","352","958890","0.0-8.0-2.34","FL","kpfcu6m48v","1600","900","en","in07er09","null","","","","learningBlock2","","","","<div style=""font-size:60px;""> </div>","null","FL","learning/Slide115.JPG","That was a bim.","",""
"","image-keyboard-response","353","959067","0.0-8.0-0.35","FL","kpfcu6m48v","1600","900","en","in07er09","null","","","","","","","","learning/Slide116.JPG","null","","","","",""
"","html-keyboard-response","354","960220","0.0-8.0-1.35","FL","kpfcu6m48v","1600","900","en","in07er09","null","","","","learningBlock2","","","","That was a dep.","null","","","","",""
"","html-keyboard-response","355","961222","0.0-8.0-2.35","FL","kpfcu6m48v","1600","900","en","in07er09","null","","","","learningBlock2","","","","<div style=""font-size:60px;""> </div>","null","FL","learning/Slide116.JPG","That was a dep.","",""
"","image-keyboard-response","356","961400","0.0-8.0-0.36","FL","kpfcu6m48v","1600","900","en","in07er09","null","","","","","","","","learning/Slide117.JPG","null","","","","",""
"","html-keyboard-response","357","962552","0.0-8.0-1.36","FL","kpfcu6m48v","1600","900","en","in07er09","null","","","","learningBlock2","","","","That was a tob.","null","","","","",""
"","html-keyboard-response","358","963555","0.0-8.0-2.36","FL","kpfcu6m48v","1600","900","en","in07er09","null","","","","learningBlock2","","","","<div style=""font-size:60px;""> </div>","null","FL","learning/Slide117.JPG","That was a tob.","",""
"","image-keyboard-response","359","963732","0.0-8.0-0.37","FL","kpfcu6m48v","1600","900","en","in07er09","null","","","","","","","","learning/Slide118.JPG","null","","","","",""
"","html-keyboard-response","360","964885","0.0-8.0-1.37","FL","kpfcu6m48v","1600","900","en","in07er09","null","","","","learningBlock2","","","","That was a dep.","null","","","","",""
"","html-keyboard-response","361","965887","0.0-8.0-2.37","FL","kpfcu6m48v","1600","900","en","in07er09","null","","","","learningBlock2","","","","<div style=""font-size:60px;""> </div>","null","FL","learning/Slide118.JPG","That was a dep.","",""
"","image-keyboard-response","362","966065","0.0-8.0-0.38","FL","kpfcu6m48v","1600","900","en","in07er09","null","","","","","","","","learning/Slide119.JPG","null","","","","",""
"","html-keyboard-response","363","967217","0.0-8.0-1.38","FL","kpfcu6m48v","1600","900","en","in07er09","null","","","","learningBlock2","","","","That was a wug.","null","","","","",""
"","html-keyboard-response","364","968219","0.0-8.0-2.38","FL","kpfcu6m48v","1600","900","en","in07er09","null","","","","learningBlock2","","","","<div style=""font-size:60px;""> </div>","null","FL","learning/Slide119.JPG","That was a wug.","",""
"","image-keyboard-response","365","968396","0.0-8.0-0.39","FL","kpfcu6m48v","1600","900","en","in07er09","null","","","","","","","","learning/Slide120.JPG","null","","","","",""
"","html-keyboard-response","366","969548","0.0-8.0-1.39","FL","kpfcu6m48v","1600","900","en","in07er09","null","","","","learningBlock2","","","","That was a dep.","null","","","","",""
"","html-keyboard-response","367","970550","0.0-8.0-2.39","FL","kpfcu6m48v","1600","900","en","in07er09","null","","","","learningBlock2","","","","<div style=""font-size:60px;""> </div>","null","FL","learning/Slide120.JPG","That was a dep.","",""
"","image-keyboard-response","368","970729","0.0-8.0-0.40","FL","kpfcu6m48v","1600","900","en","in07er09","null","","","","","","","","learning/Slide121.JPG","null","","","","",""
"","html-keyboard-response","369","971883","0.0-8.0-1.40","FL","kpfcu6m48v","1600","900","en","in07er09","null","","","","learningBlock2","","","","That was a bim.","null","","","","",""
"","html-keyboard-response","370","972885","0.0-8.0-2.40","FL","kpfcu6m48v","1600","900","en","in07er09","null","","","","learningBlock2","","","","<div style=""font-size:60px;""> </div>","null","FL","learning/Slide121.JPG","That was a bim.","",""
"","image-keyboard-response","371","973063","0.0-8.0-0.41","FL","kpfcu6m48v","1600","900","en","in07er09","null","","","","","","","","learning/Slide122.JPG","null","","","","",""
"","html-keyboard-response","372","974216","0.0-8.0-1.41","FL","kpfcu6m48v","1600","900","en","in07er09","null","","","","learningBlock2","","","","That was a wug.","null","","","","",""
"","html-keyboard-response","373","975217","0.0-8.0-2.41","FL","kpfcu6m48v","1600","900","en","in07er09","null","","","","learningBlock2","","","","<div style=""font-size:60px;""> </div>","null","FL","learning/Slide122.JPG","That was a wug.","",""
"","image-keyboard-response","374","975396","0.0-8.0-0.42","FL","kpfcu6m48v","1600","900","en","in07er09","null","","","","","","","","learning/Slide123.JPG","null","","","","",""
"","html-keyboard-response","375","976548","0.0-8.0-1.42","FL","kpfcu6m48v","1600","900","en","in07er09","null","","","","learningBlock2","","","","That was a bim.","null","","","","",""
"","html-keyboard-response","376","977552","0.0-8.0-2.42","FL","kpfcu6m48v","1600","900","en","in07er09","null","","","","learningBlock2","","","","<div style=""font-size:60px;""> </div>","null","FL","learning/Slide123.JPG","That was a bim.","",""
"","image-keyboard-response","377","977730","0.0-8.0-0.43","FL","kpfcu6m48v","1600","900","en","in07er09","null","","","","","","","","learning/Slide124.JPG","null","","","","",""
"","html-keyboard-response","378","978883","0.0-8.0-1.43","FL","kpfcu6m48v","1600","900","en","in07er09","null","","","","learningBlock2","","","","That was a tob.","null","","","","",""
"","html-keyboard-response","379","979886","0.0-8.0-2.43","FL","kpfcu6m48v","1600","900","en","in07er09","null","","","","learningBlock2","","","","<div style=""font-size:60px;""> </div>","null","FL","learning/Slide124.JPG","That was a tob.","",""
"","image-keyboard-response","380","980063","0.0-8.0-0.44","FL","kpfcu6m48v","1600","900","en","in07er09","null","","","","","","","","learning/Slide125.JPG","null","","","","",""
"","html-keyboard-response","381","981217","0.0-8.0-1.44","FL","kpfcu6m48v","1600","900","en","in07er09","null","","","","learningBlock2","","","","That was a bim.","null","","","","",""
"","html-keyboard-response","382","982219","0.0-8.0-2.44","FL","kpfcu6m48v","1600","900","en","in07er09","null","","","","learningBlock2","","","","<div style=""font-size:60px;""> </div>","null","FL","learning/Slide125.JPG","That was a bim.","",""
"","image-keyboard-response","383","982396","0.0-8.0-0.45","FL","kpfcu6m48v","1600","900","en","in07er09","null","","","","","","","","learning/Slide126.JPG","null","","","","",""
"","html-keyboard-response","384","983549","0.0-8.0-1.45","FL","kpfcu6m48v","1600","900","en","in07er09","null","","","","learningBlock2","","","","That was a tob.","null","","","","",""
"","html-keyboard-response","385","984552","0.0-8.0-2.45","FL","kpfcu6m48v","1600","900","en","in07er09","null","","","","learningBlock2","","","","<div style=""font-size:60px;""> </div>","null","FL","learning/Slide126.JPG","That was a tob.","",""
"","image-keyboard-response","386","984729","0.0-8.0-0.46","FL","kpfcu6m48v","1600","900","en","in07er09","null","","","","","","","","learning/Slide127.JPG","null","","","","",""
"","html-keyboard-response","387","985882","0.0-8.0-1.46","FL","kpfcu6m48v","1600","900","en","in07er09","null","","","","learningBlock2","","","","That was a dep.","null","","","","",""
"","html-keyboard-response","388","986885","0.0-8.0-2.46","FL","kpfcu6m48v","1600","900","en","in07er09","null","","","","learningBlock2","","","","<div style=""font-size:60px;""> </div>","null","FL","learning/Slide127.JPG","That was a dep.","",""
"","image-keyboard-response","389","987062","0.0-8.0-0.47","FL","kpfcu6m48v","1600","900","en","in07er09","null","","","","","","","","learning/Slide128.JPG","null","","","","",""
"","html-keyboard-response","390","988214","0.0-8.0-1.47","FL","kpfcu6m48v","1600","900","en","in07er09","null","","","","learningBlock2","","","","That was a wug.","null","","","","",""
"","html-keyboard-response","391","989216","0.0-8.0-2.47","FL","kpfcu6m48v","1600","900","en","in07er09","null","","","","learningBlock2","","","","<div style=""font-size:60px;""> </div>","null","FL","learning/Slide128.JPG","That was a wug.","",""
"","image-keyboard-response","392","989394","0.0-8.0-0.48","FL","kpfcu6m48v","1600","900","en","in07er09","null","","","","","","","","learning/Slide129.JPG","null","","","","",""
"","html-keyboard-response","393","990546","0.0-8.0-1.48","FL","kpfcu6m48v","1600","900","en","in07er09","null","","","","learningBlock2","","","","That was a tob.","null","","","","",""
"","html-keyboard-response","394","991549","0.0-8.0-2.48","FL","kpfcu6m48v","1600","900","en","in07er09","null","","","","learningBlock2","","","","<div style=""font-size:60px;""> </div>","null","FL","learning/Slide129.JPG","That was a tob.","",""
"","image-keyboard-response","395","991727","0.0-8.0-0.49","FL","kpfcu6m48v","1600","900","en","in07er09","null","","","","","","","","learning/Slide130.JPG","null","","","","",""
"","html-keyboard-response","396","992879","0.0-8.0-1.49","FL","kpfcu6m48v","1600","900","en","in07er09","null","","","","learningBlock2","","","","That was a wug.","null","","","","",""
"","html-keyboard-response","397","993882","0.0-8.0-2.49","FL","kpfcu6m48v","1600","900","en","in07er09","null","","","","learningBlock2","","","","<div style=""font-size:60px;""> </div>","null","FL","learning/Slide130.JPG","That was a wug.","",""
"","image-keyboard-response","398","994059","0.0-8.0-0.50","FL","kpfcu6m48v","1600","900","en","in07er09","null","","","","","","","","learning/Slide131.JPG","null","","","","",""
"","html-keyboard-response","399","995214","0.0-8.0-1.50","FL","kpfcu6m48v","1600","900","en","in07er09","null","","","","learningBlock2","","","","That was a bim.","null","","","","",""
"","html-keyboard-response","400","996217","0.0-8.0-2.50","FL","kpfcu6m48v","1600","900","en","in07er09","null","","","","learningBlock2","","","","<div style=""font-size:60px;""> </div>","null","FL","learning/Slide131.JPG","That was a bim.","",""
"","image-keyboard-response","401","996395","0.0-8.0-0.51","FL","kpfcu6m48v","1600","900","en","in07er09","null","","","","","","","","learning/Slide132.JPG","null","","","","",""
"","html-keyboard-response","402","997548","0.0-8.0-1.51","FL","kpfcu6m48v","1600","900","en","in07er09","null","","","","learningBlock2","","","","That was a dep.","null","","","","",""
"","html-keyboard-response","403","998550","0.0-8.0-2.51","FL","kpfcu6m48v","1600","900","en","in07er09","null","","","","learningBlock2","","","","<div style=""font-size:60px;""> </div>","null","FL","learning/Slide132.JPG","That was a dep.","",""
"","image-keyboard-response","404","998732","0.0-8.0-0.52","FL","kpfcu6m48v","1600","900","en","in07er09","null","","","","","","","","learning/Slide133.JPG","null","","","","",""
"","html-keyboard-response","405","999884","0.0-8.0-1.52","FL","kpfcu6m48v","1600","900","en","in07er09","null","","","","learningBlock2","","","","That was a tob.","null","","","","",""
"","html-keyboard-response","406","1000887","0.0-8.0-2.52","FL","kpfcu6m48v","1600","900","en","in07er09","null","","","","learningBlock2","","","","<div style=""font-size:60px;""> </div>","null","FL","learning/Slide133.JPG","That was a tob.","",""
"","image-keyboard-response","407","1001064","0.0-8.0-0.53","FL","kpfcu6m48v","1600","900","en","in07er09","null","","","","","","","","learning/Slide134.JPG","null","","","","",""
"","html-keyboard-response","408","1002217","0.0-8.0-1.53","FL","kpfcu6m48v","1600","900","en","in07er09","null","","","","learningBlock2","","","","That was a dep.","null","","","","",""
"","html-keyboard-response","409","1003219","0.0-8.0-2.53","FL","kpfcu6m48v","1600","900","en","in07er09","null","","","","learningBlock2","","","","<div style=""font-size:60px;""> </div>","null","FL","learning/Slide134.JPG","That was a dep.","",""
"","image-keyboard-response","410","1003397","0.0-8.0-0.54","FL","kpfcu6m48v","1600","900","en","in07er09","null","","","","","","","","learning/Slide135.JPG","null","","","","",""
"","html-keyboard-response","411","1004549","0.0-8.0-1.54","FL","kpfcu6m48v","1600","900","en","in07er09","null","","","","learningBlock2","","","","That was a tob.","null","","","","",""
"","html-keyboard-response","412","1005551","0.0-8.0-2.54","FL","kpfcu6m48v","1600","900","en","in07er09","null","","","","learningBlock2","","","","<div style=""font-size:60px;""> </div>","null","FL","learning/Slide135.JPG","That was a tob.","",""
"","image-keyboard-response","413","1005729","0.0-8.0-0.55","FL","kpfcu6m48v","1600","900","en","in07er09","null","","","","","","","","learning/Slide136.JPG","null","","","","",""
"","html-keyboard-response","414","1006883","0.0-8.0-1.55","FL","kpfcu6m48v","1600","900","en","in07er09","null","","","","learningBlock2","","","","That was a wug.","null","","","","",""
"","html-keyboard-response","415","1007885","0.0-8.0-2.55","FL","kpfcu6m48v","1600","900","en","in07er09","null","","","","learningBlock2","","","","<div style=""font-size:60px;""> </div>","null","FL","learning/Slide136.JPG","That was a wug.","",""
"","image-keyboard-response","416","1008062","0.0-8.0-0.56","FL","kpfcu6m48v","1600","900","en","in07er09","null","","","","","","","","learning/Slide137.JPG","null","","","","",""
"","html-keyboard-response","417","1009215","0.0-8.0-1.56","FL","kpfcu6m48v","1600","900","en","in07er09","null","","","","learningBlock2","","","","That was a tob.","null","","","","",""
"","html-keyboard-response","418","1010217","0.0-8.0-2.56","FL","kpfcu6m48v","1600","900","en","in07er09","null","","","","learningBlock2","","","","<div style=""font-size:60px;""> </div>","null","FL","learning/Slide137.JPG","That was a tob.","",""
"","image-keyboard-response","419","1010395","0.0-8.0-0.57","FL","kpfcu6m48v","1600","900","en","in07er09","null","","","","","","","","learning/Slide138.JPG","null","","","","",""
"","html-keyboard-response","420","1011549","0.0-8.0-1.57","FL","kpfcu6m48v","1600","900","en","in07er09","null","","","","learningBlock2","","","","That was a bim.","null","","","","",""
"","html-keyboard-response","421","1012552","0.0-8.0-2.57","FL","kpfcu6m48v","1600","900","en","in07er09","null","","","","learningBlock2","","","","<div style=""font-size:60px;""> </div>","null","FL","learning/Slide138.JPG","That was a bim.","",""
"","image-keyboard-response","422","1012730","0.0-8.0-0.58","FL","kpfcu6m48v","1600","900","en","in07er09","null","","","","","","","","learning/Slide139.JPG","null","","","","",""
"","html-keyboard-response","423","1013883","0.0-8.0-1.58","FL","kpfcu6m48v","1600","900","en","in07er09","null","","","","learningBlock2","","","","That was a wug.","null","","","","",""
"","html-keyboard-response","424","1014885","0.0-8.0-2.58","FL","kpfcu6m48v","1600","900","en","in07er09","null","","","","learningBlock2","","","","<div style=""font-size:60px;""> </div>","null","FL","learning/Slide139.JPG","That was a wug.","",""
"","image-keyboard-response","425","1015063","0.0-8.0-0.59","FL","kpfcu6m48v","1600","900","en","in07er09","null","","","","","","","","learning/Slide140.JPG","null","","","","",""
"","html-keyboard-response","426","1016216","0.0-8.0-1.59","FL","kpfcu6m48v","1600","900","en","in07er09","null","","","","learningBlock2","","","","That was a dep.","null","","","","",""
"","html-keyboard-response","427","1017219","0.0-8.0-2.59","FL","kpfcu6m48v","1600","900","en","in07er09","null","","","","learningBlock2","","","","<div style=""font-size:60px;""> </div>","null","FL","learning/Slide140.JPG","That was a dep.","",""
"","image-keyboard-response","428","1017396","0.0-8.0-0.60","FL","kpfcu6m48v","1600","900","en","in07er09","null","","","","","","","","learning/Slide141.JPG","null","","","","",""
"","html-keyboard-response","429","1018549","0.0-8.0-1.60","FL","kpfcu6m48v","1600","900","en","in07er09","null","","","","learningBlock2","","","","That was a tob.","null","","","","",""
"","html-keyboard-response","430","1019553","0.0-8.0-2.60","FL","kpfcu6m48v","1600","900","en","in07er09","null","","","","learningBlock2","","","","<div style=""font-size:60px;""> </div>","null","FL","learning/Slide141.JPG","That was a tob.","",""
"","image-keyboard-response","431","1019730","0.0-8.0-0.61","FL","kpfcu6m48v","1600","900","en","in07er09","null","","","","","","","","learning/Slide142.JPG","null","","","","",""
"","html-keyboard-response","432","1020882","0.0-8.0-1.61","FL","kpfcu6m48v","1600","900","en","in07er09","null","","","","learningBlock2","","","","That was a wug.","null","","","","",""
"","html-keyboard-response","433","1021884","0.0-8.0-2.61","FL","kpfcu6m48v","1600","900","en","in07er09","null","","","","learningBlock2","","","","<div style=""font-size:60px;""> </div>","null","FL","learning/Slide142.JPG","That was a wug.","",""
"","image-keyboard-response","434","1022062","0.0-8.0-0.62","FL","kpfcu6m48v","1600","900","en","in07er09","null","","","","","","","","learning/Slide143.JPG","null","","","","",""
"","html-keyboard-response","435","1023214","0.0-8.0-1.62","FL","kpfcu6m48v","1600","900","en","in07er09","null","","","","learningBlock2","","","","That was a bim.","null","","","","",""
"","html-keyboard-response","436","1024217","0.0-8.0-2.62","FL","kpfcu6m48v","1600","900","en","in07er09","null","","","","learningBlock2","","","","<div style=""font-size:60px;""> </div>","null","FL","learning/Slide143.JPG","That was a bim.","",""
"","image-keyboard-response","437","1024395","0.0-8.0-0.63","FL","kpfcu6m48v","1600","900","en","in07er09","null","","","","","","","","learning/Slide144.JPG","null","","","","",""
"","html-keyboard-response","438","1025548","0.0-8.0-1.63","FL","kpfcu6m48v","1600","900","en","in07er09","null","","","","learningBlock2","","","","That was a dep.","null","","","","",""
"","html-keyboard-response","439","1026552","0.0-8.0-2.63","FL","kpfcu6m48v","1600","900","en","in07er09","null","","","","learningBlock2","","","","<div style=""font-size:60px;""> </div>","null","FL","learning/Slide144.JPG","That was a dep.","",""
"","image-keyboard-response","440","1026730","0.0-8.0-0.64","FL","kpfcu6m48v","1600","900","en","in07er09","null","","","","","","","","learning/Slide145.JPG","null","","","","",""
"","html-keyboard-response","441","1027882","0.0-8.0-1.64","FL","kpfcu6m48v","1600","900","en","in07er09","null","","","","learningBlock2","","","","That was a bim.","null","","","","",""
"","html-keyboard-response","442","1028885","0.0-8.0-2.64","FL","kpfcu6m48v","1600","900","en","in07er09","null","","","","learningBlock2","","","","<div style=""font-size:60px;""> </div>","null","FL","learning/Slide145.JPG","That was a bim.","",""
"","image-keyboard-response","443","1029063","0.0-8.0-0.65","FL","kpfcu6m48v","1600","900","en","in07er09","null","","","","","","","","learning/Slide146.JPG","null","","","","",""
"","html-keyboard-response","444","1030215","0.0-8.0-1.65","FL","kpfcu6m48v","1600","900","en","in07er09","null","","","","learningBlock2","","","","That was a tob.","null","","","","",""
"","html-keyboard-response","445","1031217","0.0-8.0-2.65","FL","kpfcu6m48v","1600","900","en","in07er09","null","","","","learningBlock2","","","","<div style=""font-size:60px;""> </div>","null","FL","learning/Slide146.JPG","That was a tob.","",""
"","image-keyboard-response","446","1031395","0.0-8.0-0.66","FL","kpfcu6m48v","1600","900","en","in07er09","null","","","","","","","","learning/Slide147.JPG","null","","","","",""
"","html-keyboard-response","447","1032548","0.0-8.0-1.66","FL","kpfcu6m48v","1600","900","en","in07er09","null","","","","learningBlock2","","","","That was a wug.","null","","","","",""
"","html-keyboard-response","448","1033550","0.0-8.0-2.66","FL","kpfcu6m48v","1600","900","en","in07er09","null","","","","learningBlock2","","","","<div style=""font-size:60px;""> </div>","null","FL","learning/Slide147.JPG","That was a wug.","",""
"","image-keyboard-response","449","1033727","0.0-8.0-0.67","FL","kpfcu6m48v","1600","900","en","in07er09","null","","","","","","","","learning/Slide148.JPG","null","","","","",""
"","html-keyboard-response","450","1034879","0.0-8.0-1.67","FL","kpfcu6m48v","1600","900","en","in07er09","null","","","","learningBlock2","","","","That was a bim.","null","","","","",""
"","html-keyboard-response","451","1035881","0.0-8.0-2.67","FL","kpfcu6m48v","1600","900","en","in07er09","null","","","","learningBlock2","","","","<div style=""font-size:60px;""> </div>","null","FL","learning/Slide148.JPG","That was a bim.","",""
"","image-keyboard-response","452","1036058","0.0-8.0-0.68","FL","kpfcu6m48v","1600","900","en","in07er09","null","","","","","","","","learning/Slide149.JPG","null","","","","",""
"","html-keyboard-response","453","1037211","0.0-8.0-1.68","FL","kpfcu6m48v","1600","900","en","in07er09","null","","","","learningBlock2","","","","That was a dep.","null","","","","",""
"","html-keyboard-response","454","1038212","0.0-8.0-2.68","FL","kpfcu6m48v","1600","900","en","in07er09","null","","","","learningBlock2","","","","<div style=""font-size:60px;""> </div>","null","FL","learning/Slide149.JPG","That was a dep.","",""
"","image-keyboard-response","455","1038390","0.0-8.0-0.69","FL","kpfcu6m48v","1600","900","en","in07er09","null","","","","","","","","learning/Slide150.JPG","null","","","","",""
"","html-keyboard-response","456","1039543","0.0-8.0-1.69","FL","kpfcu6m48v","1600","900","en","in07er09","null","","","","learningBlock2","","","","That was a wug.","null","","","","",""
"","html-keyboard-response","457","1040546","0.0-8.0-2.69","FL","kpfcu6m48v","1600","900","en","in07er09","null","","","","learningBlock2","","","","<div style=""font-size:60px;""> </div>","null","FL","learning/Slide150.JPG","That was a wug.","",""
"","image-keyboard-response","458","1040723","0.0-8.0-0.70","FL","kpfcu6m48v","1600","900","en","in07er09","null","","","","","","","","learning/Slide151.JPG","null","","","","",""
"","html-keyboard-response","459","1041875","0.0-8.0-1.70","FL","kpfcu6m48v","1600","900","en","in07er09","null","","","","learningBlock2","","","","That was a dep.","null","","","","",""
"","html-keyboard-response","460","1042877","0.0-8.0-2.70","FL","kpfcu6m48v","1600","900","en","in07er09","null","","","","learningBlock2","","","","<div style=""font-size:60px;""> </div>","null","FL","learning/Slide151.JPG","That was a dep.","",""
"","image-keyboard-response","461","1043055","0.0-8.0-0.71","FL","kpfcu6m48v","1600","900","en","in07er09","null","","","","","","","","learning/Slide152.JPG","null","","","","",""
"","html-keyboard-response","462","1044207","0.0-8.0-1.71","FL","kpfcu6m48v","1600","900","en","in07er09","null","","","","learningBlock2","","","","That was a wug.","null","","","","",""
"","html-keyboard-response","463","1045210","0.0-8.0-2.71","FL","kpfcu6m48v","1600","900","en","in07er09","null","","","","learningBlock2","","","","<div style=""font-size:60px;""> </div>","null","FL","learning/Slide152.JPG","That was a wug.","",""
"","image-keyboard-response","464","1045388","0.0-8.0-0.72","FL","kpfcu6m48v","1600","900","en","in07er09","null","","","","","","","","learning/Slide153.JPG","null","","","","",""
"","html-keyboard-response","465","1046540","0.0-8.0-1.72","FL","kpfcu6m48v","1600","900","en","in07er09","null","","","","learningBlock2","","","","That was a bim.","null","","","","",""
"","html-keyboard-response","466","1047543","0.0-8.0-2.72","FL","kpfcu6m48v","1600","900","en","in07er09","null","","","","learningBlock2","","","","<div style=""font-size:60px;""> </div>","null","FL","learning/Slide153.JPG","That was a bim.","",""
"","image-keyboard-response","467","1047720","0.0-8.0-0.73","FL","kpfcu6m48v","1600","900","en","in07er09","null","","","","","","","","learning/Slide154.JPG","null","","","","",""
"","html-keyboard-response","468","1048873","0.0-8.0-1.73","FL","kpfcu6m48v","1600","900","en","in07er09","null","","","","learningBlock2","","","","That was a tob.","null","","","","",""
"","html-keyboard-response","469","1049876","0.0-8.0-2.73","FL","kpfcu6m48v","1600","900","en","in07er09","null","","","","learningBlock2","","","","<div style=""font-size:60px;""> </div>","null","FL","learning/Slide154.JPG","That was a tob.","",""
"","image-keyboard-response","470","1050053","0.0-8.0-0.74","FL","kpfcu6m48v","1600","900","en","in07er09","null","","","","","","","","learning/Slide155.JPG","null","","","","",""
"","html-keyboard-response","471","1051205","0.0-8.0-1.74","FL","kpfcu6m48v","1600","900","en","in07er09","null","","","","learningBlock2","","","","That was a dep.","null","","","","",""
"","html-keyboard-response","472","1052207","0.0-8.0-2.74","FL","kpfcu6m48v","1600","900","en","in07er09","null","","","","learningBlock2","","","","<div style=""font-size:60px;""> </div>","null","FL","learning/Slide155.JPG","That was a dep.","",""
"","image-keyboard-response","473","1052385","0.0-8.0-0.75","FL","kpfcu6m48v","1600","900","en","in07er09","null","","","","","","","","learning/Slide156.JPG","null","","","","",""
"","html-keyboard-response","474","1053537","0.0-8.0-1.75","FL","kpfcu6m48v","1600","900","en","in07er09","null","","","","learningBlock2","","","","That was a bim.","null","","","","",""
"","html-keyboard-response","475","1054539","0.0-8.0-2.75","FL","kpfcu6m48v","1600","900","en","in07er09","null","","","","learningBlock2","","","","<div style=""font-size:60px;""> </div>","null","FL","learning/Slide156.JPG","That was a bim.","",""
"","image-keyboard-response","476","1054718","0.0-8.0-0.76","FL","kpfcu6m48v","1600","900","en","in07er09","null","","","","","","","","learning/Slide157.JPG","null","","","","",""
"","html-keyboard-response","477","1055870","0.0-8.0-1.76","FL","kpfcu6m48v","1600","900","en","in07er09","null","","","","learningBlock2","","","","That was a dep.","null","","","","",""
"","html-keyboard-response","478","1056873","0.0-8.0-2.76","FL","kpfcu6m48v","1600","900","en","in07er09","null","","","","learningBlock2","","","","<div style=""font-size:60px;""> </div>","null","FL","learning/Slide157.JPG","That was a dep.","",""
"","image-keyboard-response","479","1057050","0.0-8.0-0.77","FL","kpfcu6m48v","1600","900","en","in07er09","null","","","","","","","","learning/Slide158.JPG","null","","","","",""
"","html-keyboard-response","480","1058203","0.0-8.0-1.77","FL","kpfcu6m48v","1600","900","en","in07er09","null","","","","learningBlock2","","","","That was a tob.","null","","","","",""
"","html-keyboard-response","481","1059205","0.0-8.0-2.77","FL","kpfcu6m48v","1600","900","en","in07er09","null","","","","learningBlock2","","","","<div style=""font-size:60px;""> </div>","null","FL","learning/Slide158.JPG","That was a tob.","",""
"","image-keyboard-response","482","1059382","0.0-8.0-0.78","FL","kpfcu6m48v","1600","900","en","in07er09","null","","","","","","","","learning/Slide159.JPG","null","","","","",""
"","html-keyboard-response","483","1060535","0.0-8.0-1.78","FL","kpfcu6m48v","1600","900","en","in07er09","null","","","","learningBlock2","","","","That was a dep.","null","","","","",""
"","html-keyboard-response","484","1061537","0.0-8.0-2.78","FL","kpfcu6m48v","1600","900","en","in07er09","null","","","","learningBlock2","","","","<div style=""font-size:60px;""> </div>","null","FL","learning/Slide159.JPG","That was a dep.","",""
"","image-keyboard-response","485","1061715","0.0-8.0-0.79","FL","kpfcu6m48v","1600","900","en","in07er09","null","","","","","","","","learning/Slide160.JPG","null","","","","",""
"","html-keyboard-response","486","1062868","0.0-8.0-1.79","FL","kpfcu6m48v","1600","900","en","in07er09","null","","","","learningBlock2","","","","That was a wug.","null","","","","",""
"","html-keyboard-response","487","1063870","0.0-8.0-2.79","FL","kpfcu6m48v","1600","900","en","in07er09","null","","","","learningBlock2","","","","<div style=""font-size:60px;""> </div>","null","FL","learning/Slide160.JPG","That was a wug.","",""
