"success","trial_type","trial_index","time_elapsed","internal_node_id","condition","subject","screen_width","screen_height","language","codeword","rt","responses","url","view_history","test_part","final_height_px","final_width_px","scale_factor","stimulus","key_press","learningType","presentedImage","presentedLabel","button_pressed","response"
"true","fullscreen","0","2697","0.0-0.0","LF","osnv2y9pl1","1920","1200","en","af05ra11","","","","","","","","","","","","","","",""
"","survey-html-form","1","4769","0.0-1.0","LF","osnv2y9pl1","1920","1200","en","af05ra11","2060.6849999167025","{""language"":""en""}","","","","","","","","","","","","",""
"","external-html","2","26027","0.0-3.0-0.0","LF","osnv2y9pl1","1920","1200","en","af05ra11","21233.894999953918","","text/information_english.html","","","","","","","","","","","",""
"","external-html","3","33102","0.0-3.0-1.0","LF","osnv2y9pl1","1920","1200","en","af05ra11","6895.540000055917","","text/consent_english.html","","","","","","","","","","","",""
"","survey-html-form","4","68494","0.0-3.0-2.0","LF","osnv2y9pl1","1920","1200","en","af05ra11","35390.114999958314","{""codeword_enter"":""af05ra11""}","","","","","","","","","","","","",""
"","instructions","5","77672","0.0-4.0","LF","osnv2y9pl1","1920","1200","en","af05ra11","NA","","","[{""page_index"":0,""viewing_time"":1938.6900000972673},{""page_index"":1,""viewing_time"":5735.239999950863}]","instructions","","","","","","","","","",""
"","resize","6","104782","0.0-5.0","LF","osnv2y9pl1","1920","1200","en","af05ra11","","","","","","","505","3.206349206349206","","","","","","",""
"","html-keyboard-response","7","105785","0.0-6.0-0.0","LF","osnv2y9pl1","1920","1200","en","af05ra11","null","","","","learningBlock1","","","","This is a tob:","null","","","","",""
"","image-keyboard-response","8","106119","0.0-6.0-1.0","LF","osnv2y9pl1","1920","1200","en","af05ra11","null","","","","","","","","learning/Slide1.JPG","null","","","","",""
"","html-keyboard-response","9","107123","0.0-6.0-2.0","LF","osnv2y9pl1","1920","1200","en","af05ra11","null","","","","learningBlock1","","","","<div style=""font-size:60px;""> </div>","null","LF","learning/Slide1.JPG","This is a tob:","",""
"","html-keyboard-response","10","108124","0.0-6.0-0.1","LF","osnv2y9pl1","1920","1200","en","af05ra11","null","","","","learningBlock1","","","","This is a wug:","null","","","","",""
"","image-keyboard-response","11","108457","0.0-6.0-1.1","LF","osnv2y9pl1","1920","1200","en","af05ra11","null","","","","","","","","learning/Slide2.JPG","null","","","","",""
"","html-keyboard-response","12","109462","0.0-6.0-2.1","LF","osnv2y9pl1","1920","1200","en","af05ra11","null","","","","learningBlock1","","","","<div style=""font-size:60px;""> </div>","null","LF","learning/Slide2.JPG","This is a wug:","",""
"","html-keyboard-response","13","110467","0.0-6.0-0.2","LF","osnv2y9pl1","1920","1200","en","af05ra11","null","","","","learningBlock1","","","","This is a bim:","null","","","","",""
"","image-keyboard-response","14","110798","0.0-6.0-1.2","LF","osnv2y9pl1","1920","1200","en","af05ra11","null","","","","","","","","learning/Slide3.JPG","null","","","","",""
"","html-keyboard-response","15","111799","0.0-6.0-2.2","LF","osnv2y9pl1","1920","1200","en","af05ra11","null","","","","learningBlock1","","","","<div style=""font-size:60px;""> </div>","null","LF","learning/Slide3.JPG","This is a bim:","",""
"","html-keyboard-response","16","112800","0.0-6.0-0.3","LF","osnv2y9pl1","1920","1200","en","af05ra11","null","","","","learningBlock1","","","","This is a dep:","null","","","","",""
"","image-keyboard-response","17","113129","0.0-6.0-1.3","LF","osnv2y9pl1","1920","1200","en","af05ra11","null","","","","","","","","learning/Slide4.JPG","null","","","","",""
"","html-keyboard-response","18","114132","0.0-6.0-2.3","LF","osnv2y9pl1","1920","1200","en","af05ra11","null","","","","learningBlock1","","","","<div style=""font-size:60px;""> </div>","null","LF","learning/Slide4.JPG","This is a dep:","",""
"","html-keyboard-response","19","115134","0.0-6.0-0.4","LF","osnv2y9pl1","1920","1200","en","af05ra11","null","","","","learningBlock1","","","","This is a wug:","null","","","","",""
"","image-keyboard-response","20","115468","0.0-6.0-1.4","LF","osnv2y9pl1","1920","1200","en","af05ra11","null","","","","","","","","learning/Slide5.JPG","null","","","","",""
"","html-keyboard-response","21","116472","0.0-6.0-2.4","LF","osnv2y9pl1","1920","1200","en","af05ra11","null","","","","learningBlock1","","","","<div style=""font-size:60px;""> </div>","null","LF","learning/Slide5.JPG","This is a wug:","",""
"","html-keyboard-response","22","117476","0.0-6.0-0.5","LF","osnv2y9pl1","1920","1200","en","af05ra11","null","","","","learningBlock1","","","","This is a dep:","null","","","","",""
"","image-keyboard-response","23","117804","0.0-6.0-1.5","LF","osnv2y9pl1","1920","1200","en","af05ra11","null","","","","","","","","learning/Slide6.JPG","null","","","","",""
"","html-keyboard-response","24","118806","0.0-6.0-2.5","LF","osnv2y9pl1","1920","1200","en","af05ra11","null","","","","learningBlock1","","","","<div style=""font-size:60px;""> </div>","null","LF","learning/Slide6.JPG","This is a dep:","",""
"","html-keyboard-response","25","119807","0.0-6.0-0.6","LF","osnv2y9pl1","1920","1200","en","af05ra11","null","","","","learningBlock1","","","","This is a wug:","null","","","","",""
"","image-keyboard-response","26","120138","0.0-6.0-1.6","LF","osnv2y9pl1","1920","1200","en","af05ra11","null","","","","","","","","learning/Slide7.JPG","null","","","","",""
"","html-keyboard-response","27","121142","0.0-6.0-2.6","LF","osnv2y9pl1","1920","1200","en","af05ra11","null","","","","learningBlock1","","","","<div style=""font-size:60px;""> </div>","null","LF","learning/Slide7.JPG","This is a wug:","",""
"","html-keyboard-response","28","122143","0.0-6.0-0.7","LF","osnv2y9pl1","1920","1200","en","af05ra11","null","","","","learningBlock1","","","","This is a bim:","null","","","","",""
"","image-keyboard-response","29","122474","0.0-6.0-1.7","LF","osnv2y9pl1","1920","1200","en","af05ra11","null","","","","","","","","learning/Slide8.JPG","null","","","","",""
"","html-keyboard-response","30","123478","0.0-6.0-2.7","LF","osnv2y9pl1","1920","1200","en","af05ra11","null","","","","learningBlock1","","","","<div style=""font-size:60px;""> </div>","null","LF","learning/Slide8.JPG","This is a bim:","",""
"","html-keyboard-response","31","124483","0.0-6.0-0.8","LF","osnv2y9pl1","1920","1200","en","af05ra11","null","","","","learningBlock1","","","","This is a wug:","null","","","","",""
"","image-keyboard-response","32","124810","0.0-6.0-1.8","LF","osnv2y9pl1","1920","1200","en","af05ra11","null","","","","","","","","learning/Slide9.JPG","null","","","","",""
"","html-keyboard-response","33","125811","0.0-6.0-2.8","LF","osnv2y9pl1","1920","1200","en","af05ra11","null","","","","learningBlock1","","","","<div style=""font-size:60px;""> </div>","null","LF","learning/Slide9.JPG","This is a wug:","",""
"","html-keyboard-response","34","126815","0.0-6.0-0.9","LF","osnv2y9pl1","1920","1200","en","af05ra11","null","","","","learningBlock1","","","","This is a dep:","null","","","","",""
"","image-keyboard-response","35","127147","0.0-6.0-1.9","LF","osnv2y9pl1","1920","1200","en","af05ra11","null","","","","","","","","learning/Slide10.JPG","null","","","","",""
"","html-keyboard-response","36","128151","0.0-6.0-2.9","LF","osnv2y9pl1","1920","1200","en","af05ra11","null","","","","learningBlock1","","","","<div style=""font-size:60px;""> </div>","null","LF","learning/Slide10.JPG","This is a dep:","",""
"","html-keyboard-response","37","129156","0.0-6.0-0.10","LF","osnv2y9pl1","1920","1200","en","af05ra11","null","","","","learningBlock1","","","","This is a tob:","null","","","","",""
"","image-keyboard-response","38","129489","0.0-6.0-1.10","LF","osnv2y9pl1","1920","1200","en","af05ra11","null","","","","","","","","learning/Slide11.JPG","null","","","","",""
"","html-keyboard-response","39","130494","0.0-6.0-2.10","LF","osnv2y9pl1","1920","1200","en","af05ra11","null","","","","learningBlock1","","","","<div style=""font-size:60px;""> </div>","null","LF","learning/Slide11.JPG","This is a tob:","",""
"","html-keyboard-response","40","131498","0.0-6.0-0.11","LF","osnv2y9pl1","1920","1200","en","af05ra11","null","","","","learningBlock1","","","","This is a dep:","null","","","","",""
"","image-keyboard-response","41","131828","0.0-6.0-1.11","LF","osnv2y9pl1","1920","1200","en","af05ra11","null","","","","","","","","learning/Slide12.JPG","null","","","","",""
"","html-keyboard-response","42","132829","0.0-6.0-2.11","LF","osnv2y9pl1","1920","1200","en","af05ra11","null","","","","learningBlock1","","","","<div style=""font-size:60px;""> </div>","null","LF","learning/Slide12.JPG","This is a dep:","",""
"","html-keyboard-response","43","133832","0.0-6.0-0.12","LF","osnv2y9pl1","1920","1200","en","af05ra11","null","","","","learningBlock1","","","","This is a bim:","null","","","","",""
"","image-keyboard-response","44","134166","0.0-6.0-1.12","LF","osnv2y9pl1","1920","1200","en","af05ra11","null","","","","","","","","learning/Slide13.JPG","null","","","","",""
"","html-keyboard-response","45","135170","0.0-6.0-2.12","LF","osnv2y9pl1","1920","1200","en","af05ra11","null","","","","learningBlock1","","","","<div style=""font-size:60px;""> </div>","null","LF","learning/Slide13.JPG","This is a bim:","",""
"","html-keyboard-response","46","136174","0.0-6.0-0.13","LF","osnv2y9pl1","1920","1200","en","af05ra11","null","","","","learningBlock1","","","","This is a wug:","null","","","","",""
"","image-keyboard-response","47","136505","0.0-6.0-1.13","LF","osnv2y9pl1","1920","1200","en","af05ra11","null","","","","","","","","learning/Slide14.JPG","null","","","","",""
"","html-keyboard-response","48","137509","0.0-6.0-2.13","LF","osnv2y9pl1","1920","1200","en","af05ra11","null","","","","learningBlock1","","","","<div style=""font-size:60px;""> </div>","null","LF","learning/Slide14.JPG","This is a wug:","",""
"","html-keyboard-response","49","138514","0.0-6.0-0.14","LF","osnv2y9pl1","1920","1200","en","af05ra11","null","","","","learningBlock1","","","","This is a tob:","null","","","","",""
"","image-keyboard-response","50","138847","0.0-6.0-1.14","LF","osnv2y9pl1","1920","1200","en","af05ra11","null","","","","","","","","learning/Slide15.JPG","null","","","","",""
"","html-keyboard-response","51","139852","0.0-6.0-2.14","LF","osnv2y9pl1","1920","1200","en","af05ra11","null","","","","learningBlock1","","","","<div style=""font-size:60px;""> </div>","null","LF","learning/Slide15.JPG","This is a tob:","",""
"","html-keyboard-response","52","140856","0.0-6.0-0.15","LF","osnv2y9pl1","1920","1200","en","af05ra11","null","","","","learningBlock1","","","","This is a dep:","null","","","","",""
"","image-keyboard-response","53","141190","0.0-6.0-1.15","LF","osnv2y9pl1","1920","1200","en","af05ra11","null","","","","","","","","learning/Slide16.JPG","null","","","","",""
"","html-keyboard-response","54","142193","0.0-6.0-2.15","LF","osnv2y9pl1","1920","1200","en","af05ra11","null","","","","learningBlock1","","","","<div style=""font-size:60px;""> </div>","null","LF","learning/Slide16.JPG","This is a dep:","",""
"","html-keyboard-response","55","143195","0.0-6.0-0.16","LF","osnv2y9pl1","1920","1200","en","af05ra11","null","","","","learningBlock1","","","","This is a bim:","null","","","","",""
"","image-keyboard-response","56","143529","0.0-6.0-1.16","LF","osnv2y9pl1","1920","1200","en","af05ra11","null","","","","","","","","learning/Slide17.JPG","null","","","","",""
"","html-keyboard-response","57","144533","0.0-6.0-2.16","LF","osnv2y9pl1","1920","1200","en","af05ra11","null","","","","learningBlock1","","","","<div style=""font-size:60px;""> </div>","null","LF","learning/Slide17.JPG","This is a bim:","",""
"","html-keyboard-response","58","145538","0.0-6.0-0.17","LF","osnv2y9pl1","1920","1200","en","af05ra11","null","","","","learningBlock1","","","","This is a tob:","null","","","","",""
"","image-keyboard-response","59","145866","0.0-6.0-1.17","LF","osnv2y9pl1","1920","1200","en","af05ra11","null","","","","","","","","learning/Slide18.JPG","null","","","","",""
"","html-keyboard-response","60","146870","0.0-6.0-2.17","LF","osnv2y9pl1","1920","1200","en","af05ra11","null","","","","learningBlock1","","","","<div style=""font-size:60px;""> </div>","null","LF","learning/Slide18.JPG","This is a tob:","",""
"","html-keyboard-response","61","147871","0.0-6.0-0.18","LF","osnv2y9pl1","1920","1200","en","af05ra11","null","","","","learningBlock1","","","","This is a wug:","null","","","","",""
"","image-keyboard-response","62","148202","0.0-6.0-1.18","LF","osnv2y9pl1","1920","1200","en","af05ra11","null","","","","","","","","learning/Slide19.JPG","null","","","","",""
"","html-keyboard-response","63","149206","0.0-6.0-2.18","LF","osnv2y9pl1","1920","1200","en","af05ra11","null","","","","learningBlock1","","","","<div style=""font-size:60px;""> </div>","null","LF","learning/Slide19.JPG","This is a wug:","",""
"","html-keyboard-response","64","150207","0.0-6.0-0.19","LF","osnv2y9pl1","1920","1200","en","af05ra11","null","","","","learningBlock1","","","","This is a bim:","null","","","","",""
"","image-keyboard-response","65","150536","0.0-6.0-1.19","LF","osnv2y9pl1","1920","1200","en","af05ra11","null","","","","","","","","learning/Slide20.JPG","null","","","","",""
"","html-keyboard-response","66","151540","0.0-6.0-2.19","LF","osnv2y9pl1","1920","1200","en","af05ra11","null","","","","learningBlock1","","","","<div style=""font-size:60px;""> </div>","null","LF","learning/Slide20.JPG","This is a bim:","",""
"","html-keyboard-response","67","152544","0.0-6.0-0.20","LF","osnv2y9pl1","1920","1200","en","af05ra11","null","","","","learningBlock1","","","","This is a dep:","null","","","","",""
"","image-keyboard-response","68","152874","0.0-6.0-1.20","LF","osnv2y9pl1","1920","1200","en","af05ra11","null","","","","","","","","learning/Slide21.JPG","null","","","","",""
"","html-keyboard-response","69","153885","0.0-6.0-2.20","LF","osnv2y9pl1","1920","1200","en","af05ra11","null","","","","learningBlock1","","","","<div style=""font-size:60px;""> </div>","null","LF","learning/Slide21.JPG","This is a dep:","",""
"","html-keyboard-response","70","154889","0.0-6.0-0.21","LF","osnv2y9pl1","1920","1200","en","af05ra11","null","","","","learningBlock1","","","","This is a bim:","null","","","","",""
"","image-keyboard-response","71","155223","0.0-6.0-1.21","LF","osnv2y9pl1","1920","1200","en","af05ra11","null","","","","","","","","learning/Slide22.JPG","null","","","","",""
"","html-keyboard-response","72","156228","0.0-6.0-2.21","LF","osnv2y9pl1","1920","1200","en","af05ra11","null","","","","learningBlock1","","","","<div style=""font-size:60px;""> </div>","null","LF","learning/Slide22.JPG","This is a bim:","",""
"","html-keyboard-response","73","157232","0.0-6.0-0.22","LF","osnv2y9pl1","1920","1200","en","af05ra11","null","","","","learningBlock1","","","","This is a tob:","null","","","","",""
"","image-keyboard-response","74","157563","0.0-6.0-1.22","LF","osnv2y9pl1","1920","1200","en","af05ra11","null","","","","","","","","learning/Slide23.JPG","null","","","","",""
"","html-keyboard-response","75","158567","0.0-6.0-2.22","LF","osnv2y9pl1","1920","1200","en","af05ra11","null","","","","learningBlock1","","","","<div style=""font-size:60px;""> </div>","null","LF","learning/Slide23.JPG","This is a tob:","",""
"","html-keyboard-response","76","159571","0.0-6.0-0.23","LF","osnv2y9pl1","1920","1200","en","af05ra11","null","","","","learningBlock1","","","","This is a wug:","null","","","","",""
"","image-keyboard-response","77","159905","0.0-6.0-1.23","LF","osnv2y9pl1","1920","1200","en","af05ra11","null","","","","","","","","learning/Slide24.JPG","null","","","","",""
"","html-keyboard-response","78","160909","0.0-6.0-2.23","LF","osnv2y9pl1","1920","1200","en","af05ra11","null","","","","learningBlock1","","","","<div style=""font-size:60px;""> </div>","null","LF","learning/Slide24.JPG","This is a wug:","",""
"","html-keyboard-response","79","161914","0.0-6.0-0.24","LF","osnv2y9pl1","1920","1200","en","af05ra11","null","","","","learningBlock1","","","","This is a dep:","null","","","","",""
"","image-keyboard-response","80","162247","0.0-6.0-1.24","LF","osnv2y9pl1","1920","1200","en","af05ra11","null","","","","","","","","learning/Slide25.JPG","null","","","","",""
"","html-keyboard-response","81","163252","0.0-6.0-2.24","LF","osnv2y9pl1","1920","1200","en","af05ra11","null","","","","learningBlock1","","","","<div style=""font-size:60px;""> </div>","null","LF","learning/Slide25.JPG","This is a dep:","",""
"","html-keyboard-response","82","164256","0.0-6.0-0.25","LF","osnv2y9pl1","1920","1200","en","af05ra11","null","","","","learningBlock1","","","","This is a wug:","null","","","","",""
"","image-keyboard-response","83","164589","0.0-6.0-1.25","LF","osnv2y9pl1","1920","1200","en","af05ra11","null","","","","","","","","learning/Slide26.JPG","null","","","","",""
"","html-keyboard-response","84","165594","0.0-6.0-2.25","LF","osnv2y9pl1","1920","1200","en","af05ra11","null","","","","learningBlock1","","","","<div style=""font-size:60px;""> </div>","null","LF","learning/Slide26.JPG","This is a wug:","",""
"","html-keyboard-response","85","166598","0.0-6.0-0.26","LF","osnv2y9pl1","1920","1200","en","af05ra11","null","","","","learningBlock1","","","","This is a bim:","null","","","","",""
"","image-keyboard-response","86","166932","0.0-6.0-1.26","LF","osnv2y9pl1","1920","1200","en","af05ra11","null","","","","","","","","learning/Slide27.JPG","null","","","","",""
"","html-keyboard-response","87","167936","0.0-6.0-2.26","LF","osnv2y9pl1","1920","1200","en","af05ra11","null","","","","learningBlock1","","","","<div style=""font-size:60px;""> </div>","null","LF","learning/Slide27.JPG","This is a bim:","",""
"","html-keyboard-response","88","168941","0.0-6.0-0.27","LF","osnv2y9pl1","1920","1200","en","af05ra11","null","","","","learningBlock1","","","","This is a dep:","null","","","","",""
"","image-keyboard-response","89","169272","0.0-6.0-1.27","LF","osnv2y9pl1","1920","1200","en","af05ra11","null","","","","","","","","learning/Slide28.JPG","null","","","","",""
"","html-keyboard-response","90","170276","0.0-6.0-2.27","LF","osnv2y9pl1","1920","1200","en","af05ra11","null","","","","learningBlock1","","","","<div style=""font-size:60px;""> </div>","null","LF","learning/Slide28.JPG","This is a dep:","",""
"","html-keyboard-response","91","171280","0.0-6.0-0.28","LF","osnv2y9pl1","1920","1200","en","af05ra11","null","","","","learningBlock1","","","","This is a tob:","null","","","","",""
"","image-keyboard-response","92","171614","0.0-6.0-1.28","LF","osnv2y9pl1","1920","1200","en","af05ra11","null","","","","","","","","learning/Slide29.JPG","null","","","","",""
"","html-keyboard-response","93","172618","0.0-6.0-2.28","LF","osnv2y9pl1","1920","1200","en","af05ra11","null","","","","learningBlock1","","","","<div style=""font-size:60px;""> </div>","null","LF","learning/Slide29.JPG","This is a tob:","",""
"","html-keyboard-response","94","173622","0.0-6.0-0.29","LF","osnv2y9pl1","1920","1200","en","af05ra11","null","","","","learningBlock1","","","","This is a dep:","null","","","","",""
"","image-keyboard-response","95","173953","0.0-6.0-1.29","LF","osnv2y9pl1","1920","1200","en","af05ra11","null","","","","","","","","learning/Slide30.JPG","null","","","","",""
"","html-keyboard-response","96","174957","0.0-6.0-2.29","LF","osnv2y9pl1","1920","1200","en","af05ra11","null","","","","learningBlock1","","","","<div style=""font-size:60px;""> </div>","null","LF","learning/Slide30.JPG","This is a dep:","",""
"","html-keyboard-response","97","175962","0.0-6.0-0.30","LF","osnv2y9pl1","1920","1200","en","af05ra11","null","","","","learningBlock1","","","","This is a wug:","null","","","","",""
"","image-keyboard-response","98","176296","0.0-6.0-1.30","LF","osnv2y9pl1","1920","1200","en","af05ra11","null","","","","","","","","learning/Slide31.JPG","null","","","","",""
"","html-keyboard-response","99","177300","0.0-6.0-2.30","LF","osnv2y9pl1","1920","1200","en","af05ra11","null","","","","learningBlock1","","","","<div style=""font-size:60px;""> </div>","null","LF","learning/Slide31.JPG","This is a wug:","",""
"","html-keyboard-response","100","178304","0.0-6.0-0.31","LF","osnv2y9pl1","1920","1200","en","af05ra11","null","","","","learningBlock1","","","","This is a tob:","null","","","","",""
"","image-keyboard-response","101","178632","0.0-6.0-1.31","LF","osnv2y9pl1","1920","1200","en","af05ra11","null","","","","","","","","learning/Slide32.JPG","null","","","","",""
"","html-keyboard-response","102","179633","0.0-6.0-2.31","LF","osnv2y9pl1","1920","1200","en","af05ra11","null","","","","learningBlock1","","","","<div style=""font-size:60px;""> </div>","null","LF","learning/Slide32.JPG","This is a tob:","",""
"","html-keyboard-response","103","180635","0.0-6.0-0.32","LF","osnv2y9pl1","1920","1200","en","af05ra11","null","","","","learningBlock1","","","","This is a bim:","null","","","","",""
"","image-keyboard-response","104","180968","0.0-6.0-1.32","LF","osnv2y9pl1","1920","1200","en","af05ra11","null","","","","","","","","learning/Slide33.JPG","null","","","","",""
"","html-keyboard-response","105","181973","0.0-6.0-2.32","LF","osnv2y9pl1","1920","1200","en","af05ra11","null","","","","learningBlock1","","","","<div style=""font-size:60px;""> </div>","null","LF","learning/Slide33.JPG","This is a bim:","",""
"","html-keyboard-response","106","182977","0.0-6.0-0.33","LF","osnv2y9pl1","1920","1200","en","af05ra11","null","","","","learningBlock1","","","","This is a tob:","null","","","","",""
"","image-keyboard-response","107","183308","0.0-6.0-1.33","LF","osnv2y9pl1","1920","1200","en","af05ra11","null","","","","","","","","learning/Slide34.JPG","null","","","","",""
"","html-keyboard-response","108","184309","0.0-6.0-2.33","LF","osnv2y9pl1","1920","1200","en","af05ra11","null","","","","learningBlock1","","","","<div style=""font-size:60px;""> </div>","null","LF","learning/Slide34.JPG","This is a tob:","",""
"","html-keyboard-response","109","185314","0.0-6.0-0.34","LF","osnv2y9pl1","1920","1200","en","af05ra11","null","","","","learningBlock1","","","","This is a bim:","null","","","","",""
"","image-keyboard-response","110","185647","0.0-6.0-1.34","LF","osnv2y9pl1","1920","1200","en","af05ra11","null","","","","","","","","learning/Slide35.JPG","null","","","","",""
"","html-keyboard-response","111","186652","0.0-6.0-2.34","LF","osnv2y9pl1","1920","1200","en","af05ra11","null","","","","learningBlock1","","","","<div style=""font-size:60px;""> </div>","null","LF","learning/Slide35.JPG","This is a bim:","",""
"","html-keyboard-response","112","187656","0.0-6.0-0.35","LF","osnv2y9pl1","1920","1200","en","af05ra11","null","","","","learningBlock1","","","","This is a dep:","null","","","","",""
"","image-keyboard-response","113","187990","0.0-6.0-1.35","LF","osnv2y9pl1","1920","1200","en","af05ra11","null","","","","","","","","learning/Slide36.JPG","null","","","","",""
"","html-keyboard-response","114","188994","0.0-6.0-2.35","LF","osnv2y9pl1","1920","1200","en","af05ra11","null","","","","learningBlock1","","","","<div style=""font-size:60px;""> </div>","null","LF","learning/Slide36.JPG","This is a dep:","",""
"","html-keyboard-response","115","189998","0.0-6.0-0.36","LF","osnv2y9pl1","1920","1200","en","af05ra11","null","","","","learningBlock1","","","","This is a tob:","null","","","","",""
"","image-keyboard-response","116","190329","0.0-6.0-1.36","LF","osnv2y9pl1","1920","1200","en","af05ra11","null","","","","","","","","learning/Slide37.JPG","null","","","","",""
"","html-keyboard-response","117","191333","0.0-6.0-2.36","LF","osnv2y9pl1","1920","1200","en","af05ra11","null","","","","learningBlock1","","","","<div style=""font-size:60px;""> </div>","null","LF","learning/Slide37.JPG","This is a tob:","",""
"","html-keyboard-response","118","192338","0.0-6.0-0.37","LF","osnv2y9pl1","1920","1200","en","af05ra11","null","","","","learningBlock1","","","","This is a wug:","null","","","","",""
"","image-keyboard-response","119","192671","0.0-6.0-1.37","LF","osnv2y9pl1","1920","1200","en","af05ra11","null","","","","","","","","learning/Slide38.JPG","null","","","","",""
"","html-keyboard-response","120","193672","0.0-6.0-2.37","LF","osnv2y9pl1","1920","1200","en","af05ra11","null","","","","learningBlock1","","","","<div style=""font-size:60px;""> </div>","null","LF","learning/Slide38.JPG","This is a wug:","",""
"","html-keyboard-response","121","194677","0.0-6.0-0.38","LF","osnv2y9pl1","1920","1200","en","af05ra11","null","","","","learningBlock1","","","","This is a bim:","null","","","","",""
"","image-keyboard-response","122","195011","0.0-6.0-1.38","LF","osnv2y9pl1","1920","1200","en","af05ra11","null","","","","","","","","learning/Slide39.JPG","null","","","","",""
"","html-keyboard-response","123","196015","0.0-6.0-2.38","LF","osnv2y9pl1","1920","1200","en","af05ra11","null","","","","learningBlock1","","","","<div style=""font-size:60px;""> </div>","null","LF","learning/Slide39.JPG","This is a bim:","",""
"","html-keyboard-response","124","197020","0.0-6.0-0.39","LF","osnv2y9pl1","1920","1200","en","af05ra11","null","","","","learningBlock1","","","","This is a tob:","null","","","","",""
"","image-keyboard-response","125","197350","0.0-6.0-1.39","LF","osnv2y9pl1","1920","1200","en","af05ra11","null","","","","","","","","learning/Slide40.JPG","null","","","","",""
"","html-keyboard-response","126","198354","0.0-6.0-2.39","LF","osnv2y9pl1","1920","1200","en","af05ra11","null","","","","learningBlock1","","","","<div style=""font-size:60px;""> </div>","null","LF","learning/Slide40.JPG","This is a tob:","",""
"","html-keyboard-response","127","199358","0.0-6.0-0.40","LF","osnv2y9pl1","1920","1200","en","af05ra11","null","","","","learningBlock1","","","","This is a bim:","null","","","","",""
"","image-keyboard-response","128","199693","0.0-6.0-1.40","LF","osnv2y9pl1","1920","1200","en","af05ra11","null","","","","","","","","learning/Slide41.JPG","null","","","","",""
"","html-keyboard-response","129","200697","0.0-6.0-2.40","LF","osnv2y9pl1","1920","1200","en","af05ra11","null","","","","learningBlock1","","","","<div style=""font-size:60px;""> </div>","null","LF","learning/Slide41.JPG","This is a bim:","",""
"","html-keyboard-response","130","201701","0.0-6.0-0.41","LF","osnv2y9pl1","1920","1200","en","af05ra11","null","","","","learningBlock1","","","","This is a dep:","null","","","","",""
"","image-keyboard-response","131","202035","0.0-6.0-1.41","LF","osnv2y9pl1","1920","1200","en","af05ra11","null","","","","","","","","learning/Slide42.JPG","null","","","","",""
"","html-keyboard-response","132","203039","0.0-6.0-2.41","LF","osnv2y9pl1","1920","1200","en","af05ra11","null","","","","learningBlock1","","","","<div style=""font-size:60px;""> </div>","null","LF","learning/Slide42.JPG","This is a dep:","",""
"","html-keyboard-response","133","204043","0.0-6.0-0.42","LF","osnv2y9pl1","1920","1200","en","af05ra11","null","","","","learningBlock1","","","","This is a wug:","null","","","","",""
"","image-keyboard-response","134","204374","0.0-6.0-1.42","LF","osnv2y9pl1","1920","1200","en","af05ra11","null","","","","","","","","learning/Slide43.JPG","null","","","","",""
"","html-keyboard-response","135","205376","0.0-6.0-2.42","LF","osnv2y9pl1","1920","1200","en","af05ra11","null","","","","learningBlock1","","","","<div style=""font-size:60px;""> </div>","null","LF","learning/Slide43.JPG","This is a wug:","",""
"","html-keyboard-response","136","206377","0.0-6.0-0.43","LF","osnv2y9pl1","1920","1200","en","af05ra11","null","","","","learningBlock1","","","","This is a bim:","null","","","","",""
"","image-keyboard-response","137","206711","0.0-6.0-1.43","LF","osnv2y9pl1","1920","1200","en","af05ra11","null","","","","","","","","learning/Slide44.JPG","null","","","","",""
"","html-keyboard-response","138","207715","0.0-6.0-2.43","LF","osnv2y9pl1","1920","1200","en","af05ra11","null","","","","learningBlock1","","","","<div style=""font-size:60px;""> </div>","null","LF","learning/Slide44.JPG","This is a bim:","",""
"","html-keyboard-response","139","208719","0.0-6.0-0.44","LF","osnv2y9pl1","1920","1200","en","af05ra11","null","","","","learningBlock1","","","","This is a wug:","null","","","","",""
"","image-keyboard-response","140","209053","0.0-6.0-1.44","LF","osnv2y9pl1","1920","1200","en","af05ra11","null","","","","","","","","learning/Slide45.JPG","null","","","","",""
"","html-keyboard-response","141","210056","0.0-6.0-2.44","LF","osnv2y9pl1","1920","1200","en","af05ra11","null","","","","learningBlock1","","","","<div style=""font-size:60px;""> </div>","null","LF","learning/Slide45.JPG","This is a wug:","",""
"","html-keyboard-response","142","211059","0.0-6.0-0.45","LF","osnv2y9pl1","1920","1200","en","af05ra11","null","","","","learningBlock1","","","","This is a dep:","null","","","","",""
"","image-keyboard-response","143","211390","0.0-6.0-1.45","LF","osnv2y9pl1","1920","1200","en","af05ra11","null","","","","","","","","learning/Slide46.JPG","null","","","","",""
"","html-keyboard-response","144","212394","0.0-6.0-2.45","LF","osnv2y9pl1","1920","1200","en","af05ra11","null","","","","learningBlock1","","","","<div style=""font-size:60px;""> </div>","null","LF","learning/Slide46.JPG","This is a dep:","",""
"","html-keyboard-response","145","213398","0.0-6.0-0.46","LF","osnv2y9pl1","1920","1200","en","af05ra11","null","","","","learningBlock1","","","","This is a tob:","null","","","","",""
"","image-keyboard-response","146","213732","0.0-6.0-1.46","LF","osnv2y9pl1","1920","1200","en","af05ra11","null","","","","","","","","learning/Slide47.JPG","null","","","","",""
"","html-keyboard-response","147","214736","0.0-6.0-2.46","LF","osnv2y9pl1","1920","1200","en","af05ra11","null","","","","learningBlock1","","","","<div style=""font-size:60px;""> </div>","null","LF","learning/Slide47.JPG","This is a tob:","",""
"","html-keyboard-response","148","215744","0.0-6.0-0.47","LF","osnv2y9pl1","1920","1200","en","af05ra11","null","","","","learningBlock1","","","","This is a bim:","null","","","","",""
"","image-keyboard-response","149","216077","0.0-6.0-1.47","LF","osnv2y9pl1","1920","1200","en","af05ra11","null","","","","","","","","learning/Slide48.JPG","null","","","","",""
"","html-keyboard-response","150","217082","0.0-6.0-2.47","LF","osnv2y9pl1","1920","1200","en","af05ra11","null","","","","learningBlock1","","","","<div style=""font-size:60px;""> </div>","null","LF","learning/Slide48.JPG","This is a bim:","",""
"","html-keyboard-response","151","218086","0.0-6.0-0.48","LF","osnv2y9pl1","1920","1200","en","af05ra11","null","","","","learningBlock1","","","","This is a dep:","null","","","","",""
"","image-keyboard-response","152","218413","0.0-6.0-1.48","LF","osnv2y9pl1","1920","1200","en","af05ra11","null","","","","","","","","learning/Slide49.JPG","null","","","","",""
"","html-keyboard-response","153","219418","0.0-6.0-2.48","LF","osnv2y9pl1","1920","1200","en","af05ra11","null","","","","learningBlock1","","","","<div style=""font-size:60px;""> </div>","null","LF","learning/Slide49.JPG","This is a dep:","",""
"","html-keyboard-response","154","220419","0.0-6.0-0.49","LF","osnv2y9pl1","1920","1200","en","af05ra11","null","","","","learningBlock1","","","","This is a tob:","null","","","","",""
"","image-keyboard-response","155","220753","0.0-6.0-1.49","LF","osnv2y9pl1","1920","1200","en","af05ra11","null","","","","","","","","learning/Slide50.JPG","null","","","","",""
"","html-keyboard-response","156","221758","0.0-6.0-2.49","LF","osnv2y9pl1","1920","1200","en","af05ra11","null","","","","learningBlock1","","","","<div style=""font-size:60px;""> </div>","null","LF","learning/Slide50.JPG","This is a tob:","",""
"","html-keyboard-response","157","222762","0.0-6.0-0.50","LF","osnv2y9pl1","1920","1200","en","af05ra11","null","","","","learningBlock1","","","","This is a bim:","null","","","","",""
"","image-keyboard-response","158","223092","0.0-6.0-1.50","LF","osnv2y9pl1","1920","1200","en","af05ra11","null","","","","","","","","learning/Slide51.JPG","null","","","","",""
"","html-keyboard-response","159","224097","0.0-6.0-2.50","LF","osnv2y9pl1","1920","1200","en","af05ra11","null","","","","learningBlock1","","","","<div style=""font-size:60px;""> </div>","null","LF","learning/Slide51.JPG","This is a bim:","",""
"","html-keyboard-response","160","225101","0.0-6.0-0.51","LF","osnv2y9pl1","1920","1200","en","af05ra11","null","","","","learningBlock1","","","","This is a wug:","null","","","","",""
"","image-keyboard-response","161","225435","0.0-6.0-1.51","LF","osnv2y9pl1","1920","1200","en","af05ra11","null","","","","","","","","learning/Slide52.JPG","null","","","","",""
"","html-keyboard-response","162","226439","0.0-6.0-2.51","LF","osnv2y9pl1","1920","1200","en","af05ra11","null","","","","learningBlock1","","","","<div style=""font-size:60px;""> </div>","null","LF","learning/Slide52.JPG","This is a wug:","",""
"","html-keyboard-response","163","227444","0.0-6.0-0.52","LF","osnv2y9pl1","1920","1200","en","af05ra11","null","","","","learningBlock1","","","","This is a tob:","null","","","","",""
"","image-keyboard-response","164","227777","0.0-6.0-1.52","LF","osnv2y9pl1","1920","1200","en","af05ra11","null","","","","","","","","learning/Slide53.JPG","null","","","","",""
"","html-keyboard-response","165","228782","0.0-6.0-2.52","LF","osnv2y9pl1","1920","1200","en","af05ra11","null","","","","learningBlock1","","","","<div style=""font-size:60px;""> </div>","null","LF","learning/Slide53.JPG","This is a tob:","",""
"","html-keyboard-response","166","229786","0.0-6.0-0.53","LF","osnv2y9pl1","1920","1200","en","af05ra11","null","","","","learningBlock1","","","","This is a dep:","null","","","","",""
"","image-keyboard-response","167","230120","0.0-6.0-1.53","LF","osnv2y9pl1","1920","1200","en","af05ra11","null","","","","","","","","learning/Slide54.JPG","null","","","","",""
"","html-keyboard-response","168","231124","0.0-6.0-2.53","LF","osnv2y9pl1","1920","1200","en","af05ra11","null","","","","learningBlock1","","","","<div style=""font-size:60px;""> </div>","null","LF","learning/Slide54.JPG","This is a dep:","",""
"","html-keyboard-response","169","232125","0.0-6.0-0.54","LF","osnv2y9pl1","1920","1200","en","af05ra11","null","","","","learningBlock1","","","","This is a bim:","null","","","","",""
"","image-keyboard-response","170","232456","0.0-6.0-1.54","LF","osnv2y9pl1","1920","1200","en","af05ra11","null","","","","","","","","learning/Slide55.JPG","null","","","","",""
"","html-keyboard-response","171","233460","0.0-6.0-2.54","LF","osnv2y9pl1","1920","1200","en","af05ra11","null","","","","learningBlock1","","","","<div style=""font-size:60px;""> </div>","null","LF","learning/Slide55.JPG","This is a bim:","",""
"","html-keyboard-response","172","234465","0.0-6.0-0.55","LF","osnv2y9pl1","1920","1200","en","af05ra11","null","","","","learningBlock1","","","","This is a tob:","null","","","","",""
"","image-keyboard-response","173","234798","0.0-6.0-1.55","LF","osnv2y9pl1","1920","1200","en","af05ra11","null","","","","","","","","learning/Slide56.JPG","null","","","","",""
"","html-keyboard-response","174","235802","0.0-6.0-2.55","LF","osnv2y9pl1","1920","1200","en","af05ra11","null","","","","learningBlock1","","","","<div style=""font-size:60px;""> </div>","null","LF","learning/Slide56.JPG","This is a tob:","",""
"","html-keyboard-response","175","236807","0.0-6.0-0.56","LF","osnv2y9pl1","1920","1200","en","af05ra11","null","","","","learningBlock1","","","","This is a dep:","null","","","","",""
"","image-keyboard-response","176","237138","0.0-6.0-1.56","LF","osnv2y9pl1","1920","1200","en","af05ra11","null","","","","","","","","learning/Slide57.JPG","null","","","","",""
"","html-keyboard-response","177","238139","0.0-6.0-2.56","LF","osnv2y9pl1","1920","1200","en","af05ra11","null","","","","learningBlock1","","","","<div style=""font-size:60px;""> </div>","null","LF","learning/Slide57.JPG","This is a dep:","",""
"","html-keyboard-response","178","239144","0.0-6.0-0.57","LF","osnv2y9pl1","1920","1200","en","af05ra11","null","","","","learningBlock1","","","","This is a wug:","null","","","","",""
"","image-keyboard-response","179","239477","0.0-6.0-1.57","LF","osnv2y9pl1","1920","1200","en","af05ra11","null","","","","","","","","learning/Slide58.JPG","null","","","","",""
"","html-keyboard-response","180","240481","0.0-6.0-2.57","LF","osnv2y9pl1","1920","1200","en","af05ra11","null","","","","learningBlock1","","","","<div style=""font-size:60px;""> </div>","null","LF","learning/Slide58.JPG","This is a wug:","",""
"","html-keyboard-response","181","241486","0.0-6.0-0.58","LF","osnv2y9pl1","1920","1200","en","af05ra11","null","","","","learningBlock1","","","","This is a dep:","null","","","","",""
"","image-keyboard-response","182","241817","0.0-6.0-1.58","LF","osnv2y9pl1","1920","1200","en","af05ra11","null","","","","","","","","learning/Slide59.JPG","null","","","","",""
"","html-keyboard-response","183","242821","0.0-6.0-2.58","LF","osnv2y9pl1","1920","1200","en","af05ra11","null","","","","learningBlock1","","","","<div style=""font-size:60px;""> </div>","null","LF","learning/Slide59.JPG","This is a dep:","",""
"","html-keyboard-response","184","243825","0.0-6.0-0.59","LF","osnv2y9pl1","1920","1200","en","af05ra11","null","","","","learningBlock1","","","","This is a wug:","null","","","","",""
"","image-keyboard-response","185","244159","0.0-6.0-1.59","LF","osnv2y9pl1","1920","1200","en","af05ra11","null","","","","","","","","learning/Slide60.JPG","null","","","","",""
"","html-keyboard-response","186","245163","0.0-6.0-2.59","LF","osnv2y9pl1","1920","1200","en","af05ra11","null","","","","learningBlock1","","","","<div style=""font-size:60px;""> </div>","null","LF","learning/Slide60.JPG","This is a wug:","",""
"","html-keyboard-response","187","246167","0.0-6.0-0.60","LF","osnv2y9pl1","1920","1200","en","af05ra11","null","","","","learningBlock1","","","","This is a bim:","null","","","","",""
"","image-keyboard-response","188","246498","0.0-6.0-1.60","LF","osnv2y9pl1","1920","1200","en","af05ra11","null","","","","","","","","learning/Slide61.JPG","null","","","","",""
"","html-keyboard-response","189","247503","0.0-6.0-2.60","LF","osnv2y9pl1","1920","1200","en","af05ra11","null","","","","learningBlock1","","","","<div style=""font-size:60px;""> </div>","null","LF","learning/Slide61.JPG","This is a bim:","",""
"","html-keyboard-response","190","248507","0.0-6.0-0.61","LF","osnv2y9pl1","1920","1200","en","af05ra11","null","","","","learningBlock1","","","","This is a dep:","null","","","","",""
"","image-keyboard-response","191","248840","0.0-6.0-1.61","LF","osnv2y9pl1","1920","1200","en","af05ra11","null","","","","","","","","learning/Slide62.JPG","null","","","","",""
"","html-keyboard-response","192","249845","0.0-6.0-2.61","LF","osnv2y9pl1","1920","1200","en","af05ra11","null","","","","learningBlock1","","","","<div style=""font-size:60px;""> </div>","null","LF","learning/Slide62.JPG","This is a dep:","",""
"","html-keyboard-response","193","250849","0.0-6.0-0.62","LF","osnv2y9pl1","1920","1200","en","af05ra11","null","","","","learningBlock1","","","","This is a bim:","null","","","","",""
"","image-keyboard-response","194","251182","0.0-6.0-1.62","LF","osnv2y9pl1","1920","1200","en","af05ra11","null","","","","","","","","learning/Slide63.JPG","null","","","","",""
"","html-keyboard-response","195","252187","0.0-6.0-2.62","LF","osnv2y9pl1","1920","1200","en","af05ra11","null","","","","learningBlock1","","","","<div style=""font-size:60px;""> </div>","null","LF","learning/Slide63.JPG","This is a bim:","",""
"","html-keyboard-response","196","253192","0.0-6.0-0.63","LF","osnv2y9pl1","1920","1200","en","af05ra11","null","","","","learningBlock1","","","","This is a tob:","null","","","","",""
"","image-keyboard-response","197","253525","0.0-6.0-1.63","LF","osnv2y9pl1","1920","1200","en","af05ra11","null","","","","","","","","learning/Slide64.JPG","null","","","","",""
"","html-keyboard-response","198","254530","0.0-6.0-2.63","LF","osnv2y9pl1","1920","1200","en","af05ra11","null","","","","learningBlock1","","","","<div style=""font-size:60px;""> </div>","null","LF","learning/Slide64.JPG","This is a tob:","",""
"","html-keyboard-response","199","255534","0.0-6.0-0.64","LF","osnv2y9pl1","1920","1200","en","af05ra11","null","","","","learningBlock1","","","","This is a wug:","null","","","","",""
"","image-keyboard-response","200","255868","0.0-6.0-1.64","LF","osnv2y9pl1","1920","1200","en","af05ra11","null","","","","","","","","learning/Slide65.JPG","null","","","","",""
"","html-keyboard-response","201","256872","0.0-6.0-2.64","LF","osnv2y9pl1","1920","1200","en","af05ra11","null","","","","learningBlock1","","","","<div style=""font-size:60px;""> </div>","null","LF","learning/Slide65.JPG","This is a wug:","",""
"","html-keyboard-response","202","257873","0.0-6.0-0.65","LF","osnv2y9pl1","1920","1200","en","af05ra11","null","","","","learningBlock1","","","","This is a dep:","null","","","","",""
"","image-keyboard-response","203","258207","0.0-6.0-1.65","LF","osnv2y9pl1","1920","1200","en","af05ra11","null","","","","","","","","learning/Slide66.JPG","null","","","","",""
"","html-keyboard-response","204","259211","0.0-6.0-2.65","LF","osnv2y9pl1","1920","1200","en","af05ra11","null","","","","learningBlock1","","","","<div style=""font-size:60px;""> </div>","null","LF","learning/Slide66.JPG","This is a dep:","",""
"","html-keyboard-response","205","260216","0.0-6.0-0.66","LF","osnv2y9pl1","1920","1200","en","af05ra11","null","","","","learningBlock1","","","","This is a tob:","null","","","","",""
"","image-keyboard-response","206","260549","0.0-6.0-1.66","LF","osnv2y9pl1","1920","1200","en","af05ra11","null","","","","","","","","learning/Slide67.JPG","null","","","","",""
"","html-keyboard-response","207","261554","0.0-6.0-2.66","LF","osnv2y9pl1","1920","1200","en","af05ra11","null","","","","learningBlock1","","","","<div style=""font-size:60px;""> </div>","null","LF","learning/Slide67.JPG","This is a tob:","",""
"","html-keyboard-response","208","262557","0.0-6.0-0.67","LF","osnv2y9pl1","1920","1200","en","af05ra11","null","","","","learningBlock1","","","","This is a wug:","null","","","","",""
"","image-keyboard-response","209","262889","0.0-6.0-1.67","LF","osnv2y9pl1","1920","1200","en","af05ra11","null","","","","","","","","learning/Slide68.JPG","null","","","","",""
"","html-keyboard-response","210","263893","0.0-6.0-2.67","LF","osnv2y9pl1","1920","1200","en","af05ra11","null","","","","learningBlock1","","","","<div style=""font-size:60px;""> </div>","null","LF","learning/Slide68.JPG","This is a wug:","",""
"","html-keyboard-response","211","264897","0.0-6.0-0.68","LF","osnv2y9pl1","1920","1200","en","af05ra11","null","","","","learningBlock1","","","","This is a tob:","null","","","","",""
"","image-keyboard-response","212","265231","0.0-6.0-1.68","LF","osnv2y9pl1","1920","1200","en","af05ra11","null","","","","","","","","learning/Slide69.JPG","null","","","","",""
"","html-keyboard-response","213","266234","0.0-6.0-2.68","LF","osnv2y9pl1","1920","1200","en","af05ra11","null","","","","learningBlock1","","","","<div style=""font-size:60px;""> </div>","null","LF","learning/Slide69.JPG","This is a tob:","",""
"","html-keyboard-response","214","267236","0.0-6.0-0.69","LF","osnv2y9pl1","1920","1200","en","af05ra11","null","","","","learningBlock1","","","","This is a dep:","null","","","","",""
"","image-keyboard-response","215","267568","0.0-6.0-1.69","LF","osnv2y9pl1","1920","1200","en","af05ra11","null","","","","","","","","learning/Slide70.JPG","null","","","","",""
"","html-keyboard-response","216","268571","0.0-6.0-2.69","LF","osnv2y9pl1","1920","1200","en","af05ra11","null","","","","learningBlock1","","","","<div style=""font-size:60px;""> </div>","null","LF","learning/Slide70.JPG","This is a dep:","",""
"","html-keyboard-response","217","269573","0.0-6.0-0.70","LF","osnv2y9pl1","1920","1200","en","af05ra11","null","","","","learningBlock1","","","","This is a wug:","null","","","","",""
"","image-keyboard-response","218","269907","0.0-6.0-1.70","LF","osnv2y9pl1","1920","1200","en","af05ra11","null","","","","","","","","learning/Slide71.JPG","null","","","","",""
"","html-keyboard-response","219","270911","0.0-6.0-2.70","LF","osnv2y9pl1","1920","1200","en","af05ra11","null","","","","learningBlock1","","","","<div style=""font-size:60px;""> </div>","null","LF","learning/Slide71.JPG","This is a wug:","",""
"","html-keyboard-response","220","271916","0.0-6.0-0.71","LF","osnv2y9pl1","1920","1200","en","af05ra11","null","","","","learningBlock1","","","","This is a bim:","null","","","","",""
"","image-keyboard-response","221","272249","0.0-6.0-1.71","LF","osnv2y9pl1","1920","1200","en","af05ra11","null","","","","","","","","learning/Slide72.JPG","null","","","","",""
"","html-keyboard-response","222","273254","0.0-6.0-2.71","LF","osnv2y9pl1","1920","1200","en","af05ra11","null","","","","learningBlock1","","","","<div style=""font-size:60px;""> </div>","null","LF","learning/Slide72.JPG","This is a bim:","",""
"","html-keyboard-response","223","274255","0.0-6.0-0.72","LF","osnv2y9pl1","1920","1200","en","af05ra11","null","","","","learningBlock1","","","","This is a wug:","null","","","","",""
"","image-keyboard-response","224","274589","0.0-6.0-1.72","LF","osnv2y9pl1","1920","1200","en","af05ra11","null","","","","","","","","learning/Slide73.JPG","null","","","","",""
"","html-keyboard-response","225","275593","0.0-6.0-2.72","LF","osnv2y9pl1","1920","1200","en","af05ra11","null","","","","learningBlock1","","","","<div style=""font-size:60px;""> </div>","null","LF","learning/Slide73.JPG","This is a wug:","",""
"","html-keyboard-response","226","276597","0.0-6.0-0.73","LF","osnv2y9pl1","1920","1200","en","af05ra11","null","","","","learningBlock1","","","","This is a dep:","null","","","","",""
"","image-keyboard-response","227","276931","0.0-6.0-1.73","LF","osnv2y9pl1","1920","1200","en","af05ra11","null","","","","","","","","learning/Slide74.JPG","null","","","","",""
"","html-keyboard-response","228","277935","0.0-6.0-2.73","LF","osnv2y9pl1","1920","1200","en","af05ra11","null","","","","learningBlock1","","","","<div style=""font-size:60px;""> </div>","null","LF","learning/Slide74.JPG","This is a dep:","",""
"","html-keyboard-response","229","278940","0.0-6.0-0.74","LF","osnv2y9pl1","1920","1200","en","af05ra11","null","","","","learningBlock1","","","","This is a tob:","null","","","","",""
"","image-keyboard-response","230","279274","0.0-6.0-1.74","LF","osnv2y9pl1","1920","1200","en","af05ra11","null","","","","","","","","learning/Slide75.JPG","null","","","","",""
"","html-keyboard-response","231","280278","0.0-6.0-2.74","LF","osnv2y9pl1","1920","1200","en","af05ra11","null","","","","learningBlock1","","","","<div style=""font-size:60px;""> </div>","null","LF","learning/Slide75.JPG","This is a tob:","",""
"","html-keyboard-response","232","281282","0.0-6.0-0.75","LF","osnv2y9pl1","1920","1200","en","af05ra11","null","","","","learningBlock1","","","","This is a bim:","null","","","","",""
"","image-keyboard-response","233","281616","0.0-6.0-1.75","LF","osnv2y9pl1","1920","1200","en","af05ra11","null","","","","","","","","learning/Slide76.JPG","null","","","","",""
"","html-keyboard-response","234","282620","0.0-6.0-2.75","LF","osnv2y9pl1","1920","1200","en","af05ra11","null","","","","learningBlock1","","","","<div style=""font-size:60px;""> </div>","null","LF","learning/Slide76.JPG","This is a bim:","",""
"","html-keyboard-response","235","283624","0.0-6.0-0.76","LF","osnv2y9pl1","1920","1200","en","af05ra11","null","","","","learningBlock1","","","","This is a tob:","null","","","","",""
"","image-keyboard-response","236","283958","0.0-6.0-1.76","LF","osnv2y9pl1","1920","1200","en","af05ra11","null","","","","","","","","learning/Slide77.JPG","null","","","","",""
"","html-keyboard-response","237","284962","0.0-6.0-2.76","LF","osnv2y9pl1","1920","1200","en","af05ra11","null","","","","learningBlock1","","","","<div style=""font-size:60px;""> </div>","null","LF","learning/Slide77.JPG","This is a tob:","",""
"","html-keyboard-response","238","285966","0.0-6.0-0.77","LF","osnv2y9pl1","1920","1200","en","af05ra11","null","","","","learningBlock1","","","","This is a wug:","null","","","","",""
"","image-keyboard-response","239","286300","0.0-6.0-1.77","LF","osnv2y9pl1","1920","1200","en","af05ra11","null","","","","","","","","learning/Slide78.JPG","null","","","","",""
"","html-keyboard-response","240","287301","0.0-6.0-2.77","LF","osnv2y9pl1","1920","1200","en","af05ra11","null","","","","learningBlock1","","","","<div style=""font-size:60px;""> </div>","null","LF","learning/Slide78.JPG","This is a wug:","",""
"","html-keyboard-response","241","288305","0.0-6.0-0.78","LF","osnv2y9pl1","1920","1200","en","af05ra11","null","","","","learningBlock1","","","","This is a bim:","null","","","","",""
"","image-keyboard-response","242","288633","0.0-6.0-1.78","LF","osnv2y9pl1","1920","1200","en","af05ra11","null","","","","","","","","learning/Slide79.JPG","null","","","","",""
"","html-keyboard-response","243","289634","0.0-6.0-2.78","LF","osnv2y9pl1","1920","1200","en","af05ra11","null","","","","learningBlock1","","","","<div style=""font-size:60px;""> </div>","null","LF","learning/Slide79.JPG","This is a bim:","",""
"","html-keyboard-response","244","290636","0.0-6.0-0.79","LF","osnv2y9pl1","1920","1200","en","af05ra11","null","","","","learningBlock1","","","","This is a tob:","null","","","","",""
"","image-keyboard-response","245","290967","0.0-6.0-1.79","LF","osnv2y9pl1","1920","1200","en","af05ra11","null","","","","","","","","learning/Slide80.JPG","null","","","","",""
"","html-keyboard-response","246","291971","0.0-6.0-2.79","LF","osnv2y9pl1","1920","1200","en","af05ra11","null","","","","learningBlock1","","","","<div style=""font-size:60px;""> </div>","null","LF","learning/Slide80.JPG","This is a tob:","",""
"","instructions","247","294136","0.0-7.0","LF","osnv2y9pl1","1920","1200","en","af05ra11","NA","","","[{""page_index"":0,""viewing_time"":2163.4499999927357}]","instructions","","","","","","","","","",""
"","html-keyboard-response","248","295140","0.0-8.0-0.0","LF","osnv2y9pl1","1920","1200","en","af05ra11","null","","","","learningBlock2","","","","This is a wug:","null","","","","",""
"","image-keyboard-response","249","295474","0.0-8.0-1.0","LF","osnv2y9pl1","1920","1200","en","af05ra11","null","","","","","","","","learning/Slide81.JPG","null","","","","",""
"","html-keyboard-response","250","296479","0.0-8.0-2.0","LF","osnv2y9pl1","1920","1200","en","af05ra11","null","","","","learningBlock2","","","","<div style=""font-size:60px;""> </div>","null","LF","learning/Slide81.JPG","This is a wug:","",""
"","html-keyboard-response","251","297483","0.0-8.0-0.1","LF","osnv2y9pl1","1920","1200","en","af05ra11","null","","","","learningBlock2","","","","This is a bim:","null","","","","",""
"","image-keyboard-response","252","297813","0.0-8.0-1.1","LF","osnv2y9pl1","1920","1200","en","af05ra11","null","","","","","","","","learning/Slide82.JPG","null","","","","",""
"","html-keyboard-response","253","298818","0.0-8.0-2.1","LF","osnv2y9pl1","1920","1200","en","af05ra11","null","","","","learningBlock2","","","","<div style=""font-size:60px;""> </div>","null","LF","learning/Slide82.JPG","This is a bim:","",""
"","html-keyboard-response","254","299823","0.0-8.0-0.2","LF","osnv2y9pl1","1920","1200","en","af05ra11","null","","","","learningBlock2","","","","This is a wug:","null","","","","",""
"","image-keyboard-response","255","300156","0.0-8.0-1.2","LF","osnv2y9pl1","1920","1200","en","af05ra11","null","","","","","","","","learning/Slide83.JPG","null","","","","",""
"","html-keyboard-response","256","301160","0.0-8.0-2.2","LF","osnv2y9pl1","1920","1200","en","af05ra11","null","","","","learningBlock2","","","","<div style=""font-size:60px;""> </div>","null","LF","learning/Slide83.JPG","This is a wug:","",""
"","html-keyboard-response","257","302165","0.0-8.0-0.3","LF","osnv2y9pl1","1920","1200","en","af05ra11","null","","","","learningBlock2","","","","This is a dep:","null","","","","",""
"","image-keyboard-response","258","302499","0.0-8.0-1.3","LF","osnv2y9pl1","1920","1200","en","af05ra11","null","","","","","","","","learning/Slide84.JPG","null","","","","",""
"","html-keyboard-response","259","303503","0.0-8.0-2.3","LF","osnv2y9pl1","1920","1200","en","af05ra11","null","","","","learningBlock2","","","","<div style=""font-size:60px;""> </div>","null","LF","learning/Slide84.JPG","This is a dep:","",""
"","html-keyboard-response","260","304507","0.0-8.0-0.4","LF","osnv2y9pl1","1920","1200","en","af05ra11","null","","","","learningBlock2","","","","This is a bim:","null","","","","",""
"","image-keyboard-response","261","304838","0.0-8.0-1.4","LF","osnv2y9pl1","1920","1200","en","af05ra11","null","","","","","","","","learning/Slide85.JPG","null","","","","",""
"","html-keyboard-response","262","305843","0.0-8.0-2.4","LF","osnv2y9pl1","1920","1200","en","af05ra11","null","","","","learningBlock2","","","","<div style=""font-size:60px;""> </div>","null","LF","learning/Slide85.JPG","This is a bim:","",""
"","html-keyboard-response","263","306847","0.0-8.0-0.5","LF","osnv2y9pl1","1920","1200","en","af05ra11","null","","","","learningBlock2","","","","This is a tob:","null","","","","",""
"","image-keyboard-response","264","307180","0.0-8.0-1.5","LF","osnv2y9pl1","1920","1200","en","af05ra11","null","","","","","","","","learning/Slide86.JPG","null","","","","",""
"","html-keyboard-response","265","308185","0.0-8.0-2.5","LF","osnv2y9pl1","1920","1200","en","af05ra11","null","","","","learningBlock2","","","","<div style=""font-size:60px;""> </div>","null","LF","learning/Slide86.JPG","This is a tob:","",""
"","html-keyboard-response","266","309186","0.0-8.0-0.6","LF","osnv2y9pl1","1920","1200","en","af05ra11","null","","","","learningBlock2","","","","This is a wug:","null","","","","",""
"","image-keyboard-response","267","309520","0.0-8.0-1.6","LF","osnv2y9pl1","1920","1200","en","af05ra11","null","","","","","","","","learning/Slide87.JPG","null","","","","",""
"","html-keyboard-response","268","310524","0.0-8.0-2.6","LF","osnv2y9pl1","1920","1200","en","af05ra11","null","","","","learningBlock2","","","","<div style=""font-size:60px;""> </div>","null","LF","learning/Slide87.JPG","This is a wug:","",""
"","html-keyboard-response","269","311528","0.0-8.0-0.7","LF","osnv2y9pl1","1920","1200","en","af05ra11","null","","","","learningBlock2","","","","This is a tob:","null","","","","",""
"","image-keyboard-response","270","311860","0.0-8.0-1.7","LF","osnv2y9pl1","1920","1200","en","af05ra11","null","","","","","","","","learning/Slide88.JPG","null","","","","",""
"","html-keyboard-response","271","312863","0.0-8.0-2.7","LF","osnv2y9pl1","1920","1200","en","af05ra11","null","","","","learningBlock2","","","","<div style=""font-size:60px;""> </div>","null","LF","learning/Slide88.JPG","This is a tob:","",""
"","html-keyboard-response","272","313868","0.0-8.0-0.8","LF","osnv2y9pl1","1920","1200","en","af05ra11","null","","","","learningBlock2","","","","This is a bim:","null","","","","",""
"","image-keyboard-response","273","314199","0.0-8.0-1.8","LF","osnv2y9pl1","1920","1200","en","af05ra11","null","","","","","","","","learning/Slide89.JPG","null","","","","",""
"","html-keyboard-response","274","315203","0.0-8.0-2.8","LF","osnv2y9pl1","1920","1200","en","af05ra11","null","","","","learningBlock2","","","","<div style=""font-size:60px;""> </div>","null","LF","learning/Slide89.JPG","This is a bim:","",""
"","html-keyboard-response","275","316207","0.0-8.0-0.9","LF","osnv2y9pl1","1920","1200","en","af05ra11","null","","","","learningBlock2","","","","This is a dep:","null","","","","",""
"","image-keyboard-response","276","316538","0.0-8.0-1.9","LF","osnv2y9pl1","1920","1200","en","af05ra11","null","","","","","","","","learning/Slide90.JPG","null","","","","",""
"","html-keyboard-response","277","317542","0.0-8.0-2.9","LF","osnv2y9pl1","1920","1200","en","af05ra11","null","","","","learningBlock2","","","","<div style=""font-size:60px;""> </div>","null","LF","learning/Slide90.JPG","This is a dep:","",""
"","html-keyboard-response","278","318544","0.0-8.0-0.10","LF","osnv2y9pl1","1920","1200","en","af05ra11","null","","","","learningBlock2","","","","This is a wug:","null","","","","",""
"","image-keyboard-response","279","318870","0.0-8.0-1.10","LF","osnv2y9pl1","1920","1200","en","af05ra11","null","","","","","","","","learning/Slide91.JPG","null","","","","",""
"","html-keyboard-response","280","319874","0.0-8.0-2.10","LF","osnv2y9pl1","1920","1200","en","af05ra11","null","","","","learningBlock2","","","","<div style=""font-size:60px;""> </div>","null","LF","learning/Slide91.JPG","This is a wug:","",""
"","html-keyboard-response","281","320874","0.0-8.0-0.11","LF","osnv2y9pl1","1920","1200","en","af05ra11","null","","","","learningBlock2","","","","This is a tob:","null","","","","",""
"","image-keyboard-response","282","321205","0.0-8.0-1.11","LF","osnv2y9pl1","1920","1200","en","af05ra11","null","","","","","","","","learning/Slide92.JPG","null","","","","",""
"","html-keyboard-response","283","322209","0.0-8.0-2.11","LF","osnv2y9pl1","1920","1200","en","af05ra11","null","","","","learningBlock2","","","","<div style=""font-size:60px;""> </div>","null","LF","learning/Slide92.JPG","This is a tob:","",""
"","html-keyboard-response","284","323214","0.0-8.0-0.12","LF","osnv2y9pl1","1920","1200","en","af05ra11","null","","","","learningBlock2","","","","This is a bim:","null","","","","",""
"","image-keyboard-response","285","323548","0.0-8.0-1.12","LF","osnv2y9pl1","1920","1200","en","af05ra11","null","","","","","","","","learning/Slide93.JPG","null","","","","",""
"","html-keyboard-response","286","324552","0.0-8.0-2.12","LF","osnv2y9pl1","1920","1200","en","af05ra11","null","","","","learningBlock2","","","","<div style=""font-size:60px;""> </div>","null","LF","learning/Slide93.JPG","This is a bim:","",""
"","html-keyboard-response","287","325555","0.0-8.0-0.13","LF","osnv2y9pl1","1920","1200","en","af05ra11","null","","","","learningBlock2","","","","This is a tob:","null","","","","",""
"","image-keyboard-response","288","325887","0.0-8.0-1.13","LF","osnv2y9pl1","1920","1200","en","af05ra11","null","","","","","","","","learning/Slide94.JPG","null","","","","",""
"","html-keyboard-response","289","326889","0.0-8.0-2.13","LF","osnv2y9pl1","1920","1200","en","af05ra11","null","","","","learningBlock2","","","","<div style=""font-size:60px;""> </div>","null","LF","learning/Slide94.JPG","This is a tob:","",""
"","html-keyboard-response","290","327892","0.0-8.0-0.14","LF","osnv2y9pl1","1920","1200","en","af05ra11","null","","","","learningBlock2","","","","This is a wug:","null","","","","",""
"","image-keyboard-response","291","328224","0.0-8.0-1.14","LF","osnv2y9pl1","1920","1200","en","af05ra11","null","","","","","","","","learning/Slide95.JPG","null","","","","",""
"","html-keyboard-response","292","329225","0.0-8.0-2.14","LF","osnv2y9pl1","1920","1200","en","af05ra11","null","","","","learningBlock2","","","","<div style=""font-size:60px;""> </div>","null","LF","learning/Slide95.JPG","This is a wug:","",""
"","html-keyboard-response","293","330229","0.0-8.0-0.15","LF","osnv2y9pl1","1920","1200","en","af05ra11","null","","","","learningBlock2","","","","This is a tob:","null","","","","",""
"","image-keyboard-response","294","330560","0.0-8.0-1.15","LF","osnv2y9pl1","1920","1200","en","af05ra11","null","","","","","","","","learning/Slide96.JPG","null","","","","",""
"","html-keyboard-response","295","331564","0.0-8.0-2.15","LF","osnv2y9pl1","1920","1200","en","af05ra11","null","","","","learningBlock2","","","","<div style=""font-size:60px;""> </div>","null","LF","learning/Slide96.JPG","This is a tob:","",""
"","html-keyboard-response","296","332568","0.0-8.0-0.16","LF","osnv2y9pl1","1920","1200","en","af05ra11","null","","","","learningBlock2","","","","This is a dep:","null","","","","",""
"","image-keyboard-response","297","332901","0.0-8.0-1.16","LF","osnv2y9pl1","1920","1200","en","af05ra11","null","","","","","","","","learning/Slide97.JPG","null","","","","",""
"","html-keyboard-response","298","333904","0.0-8.0-2.16","LF","osnv2y9pl1","1920","1200","en","af05ra11","null","","","","learningBlock2","","","","<div style=""font-size:60px;""> </div>","null","LF","learning/Slide97.JPG","This is a dep:","",""
"","html-keyboard-response","299","334908","0.0-8.0-0.17","LF","osnv2y9pl1","1920","1200","en","af05ra11","null","","","","learningBlock2","","","","This is a bim:","null","","","","",""
"","image-keyboard-response","300","335241","0.0-8.0-1.17","LF","osnv2y9pl1","1920","1200","en","af05ra11","null","","","","","","","","learning/Slide98.JPG","null","","","","",""
"","html-keyboard-response","301","336243","0.0-8.0-2.17","LF","osnv2y9pl1","1920","1200","en","af05ra11","null","","","","learningBlock2","","","","<div style=""font-size:60px;""> </div>","null","LF","learning/Slide98.JPG","This is a bim:","",""
"","html-keyboard-response","302","337247","0.0-8.0-0.18","LF","osnv2y9pl1","1920","1200","en","af05ra11","null","","","","learningBlock2","","","","This is a dep:","null","","","","",""
"","image-keyboard-response","303","337581","0.0-8.0-1.18","LF","osnv2y9pl1","1920","1200","en","af05ra11","null","","","","","","","","learning/Slide99.JPG","null","","","","",""
"","html-keyboard-response","304","338585","0.0-8.0-2.18","LF","osnv2y9pl1","1920","1200","en","af05ra11","null","","","","learningBlock2","","","","<div style=""font-size:60px;""> </div>","null","LF","learning/Slide99.JPG","This is a dep:","",""
"","html-keyboard-response","305","339590","0.0-8.0-0.19","LF","osnv2y9pl1","1920","1200","en","af05ra11","null","","","","learningBlock2","","","","This is a bim:","null","","","","",""
"","image-keyboard-response","306","339923","0.0-8.0-1.19","LF","osnv2y9pl1","1920","1200","en","af05ra11","null","","","","","","","","learning/Slide100.JPG","null","","","","",""
"","html-keyboard-response","307","340928","0.0-8.0-2.19","LF","osnv2y9pl1","1920","1200","en","af05ra11","null","","","","learningBlock2","","","","<div style=""font-size:60px;""> </div>","null","LF","learning/Slide100.JPG","This is a bim:","",""
"","html-keyboard-response","308","341932","0.0-8.0-0.20","LF","osnv2y9pl1","1920","1200","en","af05ra11","null","","","","learningBlock2","","","","This is a tob:","null","","","","",""
"","image-keyboard-response","309","342266","0.0-8.0-1.20","LF","osnv2y9pl1","1920","1200","en","af05ra11","null","","","","","","","","learning/Slide101.JPG","null","","","","",""
"","html-keyboard-response","310","343270","0.0-8.0-2.20","LF","osnv2y9pl1","1920","1200","en","af05ra11","null","","","","learningBlock2","","","","<div style=""font-size:60px;""> </div>","null","LF","learning/Slide101.JPG","This is a tob:","",""
"","html-keyboard-response","311","344274","0.0-8.0-0.21","LF","osnv2y9pl1","1920","1200","en","af05ra11","null","","","","learningBlock2","","","","This is a bim:","null","","","","",""
"","image-keyboard-response","312","344608","0.0-8.0-1.21","LF","osnv2y9pl1","1920","1200","en","af05ra11","null","","","","","","","","learning/Slide102.JPG","null","","","","",""
"","html-keyboard-response","313","345611","0.0-8.0-2.21","LF","osnv2y9pl1","1920","1200","en","af05ra11","null","","","","learningBlock2","","","","<div style=""font-size:60px;""> </div>","null","LF","learning/Slide102.JPG","This is a bim:","",""
"","html-keyboard-response","314","346614","0.0-8.0-0.22","LF","osnv2y9pl1","1920","1200","en","af05ra11","null","","","","learningBlock2","","","","This is a dep:","null","","","","",""
"","image-keyboard-response","315","346947","0.0-8.0-1.22","LF","osnv2y9pl1","1920","1200","en","af05ra11","null","","","","","","","","learning/Slide103.JPG","null","","","","",""
"","html-keyboard-response","316","347952","0.0-8.0-2.22","LF","osnv2y9pl1","1920","1200","en","af05ra11","null","","","","learningBlock2","","","","<div style=""font-size:60px;""> </div>","null","LF","learning/Slide103.JPG","This is a dep:","",""
"","html-keyboard-response","317","348956","0.0-8.0-0.23","LF","osnv2y9pl1","1920","1200","en","af05ra11","null","","","","learningBlock2","","","","This is a tob:","null","","","","",""
"","image-keyboard-response","318","349290","0.0-8.0-1.23","LF","osnv2y9pl1","1920","1200","en","af05ra11","null","","","","","","","","learning/Slide104.JPG","null","","","","",""
"","html-keyboard-response","319","350294","0.0-8.0-2.23","LF","osnv2y9pl1","1920","1200","en","af05ra11","null","","","","learningBlock2","","","","<div style=""font-size:60px;""> </div>","null","LF","learning/Slide104.JPG","This is a tob:","",""
"","html-keyboard-response","320","351299","0.0-8.0-0.24","LF","osnv2y9pl1","1920","1200","en","af05ra11","null","","","","learningBlock2","","","","This is a dep:","null","","","","",""
"","image-keyboard-response","321","351629","0.0-8.0-1.24","LF","osnv2y9pl1","1920","1200","en","af05ra11","null","","","","","","","","learning/Slide105.JPG","null","","","","",""
"","html-keyboard-response","322","352631","0.0-8.0-2.24","LF","osnv2y9pl1","1920","1200","en","af05ra11","null","","","","learningBlock2","","","","<div style=""font-size:60px;""> </div>","null","LF","learning/Slide105.JPG","This is a dep:","",""
"","html-keyboard-response","323","353632","0.0-8.0-0.25","LF","osnv2y9pl1","1920","1200","en","af05ra11","null","","","","learningBlock2","","","","This is a wug:","null","","","","",""
"","image-keyboard-response","324","353966","0.0-8.0-1.25","LF","osnv2y9pl1","1920","1200","en","af05ra11","null","","","","","","","","learning/Slide106.JPG","null","","","","",""
"","html-keyboard-response","325","354970","0.0-8.0-2.25","LF","osnv2y9pl1","1920","1200","en","af05ra11","null","","","","learningBlock2","","","","<div style=""font-size:60px;""> </div>","null","LF","learning/Slide106.JPG","This is a wug:","",""
"","html-keyboard-response","326","355974","0.0-8.0-0.26","LF","osnv2y9pl1","1920","1200","en","af05ra11","null","","","","learningBlock2","","","","This is a bim:","null","","","","",""
"","image-keyboard-response","327","356305","0.0-8.0-1.26","LF","osnv2y9pl1","1920","1200","en","af05ra11","null","","","","","","","","learning/Slide107.JPG","null","","","","",""
"","html-keyboard-response","328","357309","0.0-8.0-2.26","LF","osnv2y9pl1","1920","1200","en","af05ra11","null","","","","learningBlock2","","","","<div style=""font-size:60px;""> </div>","null","LF","learning/Slide107.JPG","This is a bim:","",""
"","html-keyboard-response","329","358314","0.0-8.0-0.27","LF","osnv2y9pl1","1920","1200","en","af05ra11","null","","","","learningBlock2","","","","This is a dep:","null","","","","",""
"","image-keyboard-response","330","358647","0.0-8.0-1.27","LF","osnv2y9pl1","1920","1200","en","af05ra11","null","","","","","","","","learning/Slide108.JPG","null","","","","",""
"","html-keyboard-response","331","359652","0.0-8.0-2.27","LF","osnv2y9pl1","1920","1200","en","af05ra11","null","","","","learningBlock2","","","","<div style=""font-size:60px;""> </div>","null","LF","learning/Slide108.JPG","This is a dep:","",""
"","html-keyboard-response","332","360656","0.0-8.0-0.28","LF","osnv2y9pl1","1920","1200","en","af05ra11","null","","","","learningBlock2","","","","This is a wug:","null","","","","",""
"","image-keyboard-response","333","360990","0.0-8.0-1.28","LF","osnv2y9pl1","1920","1200","en","af05ra11","null","","","","","","","","learning/Slide109.JPG","null","","","","",""
"","html-keyboard-response","334","361994","0.0-8.0-2.28","LF","osnv2y9pl1","1920","1200","en","af05ra11","null","","","","learningBlock2","","","","<div style=""font-size:60px;""> </div>","null","LF","learning/Slide109.JPG","This is a wug:","",""
"","html-keyboard-response","335","362999","0.0-8.0-0.29","LF","osnv2y9pl1","1920","1200","en","af05ra11","null","","","","learningBlock2","","","","This is a bim:","null","","","","",""
"","image-keyboard-response","336","363332","0.0-8.0-1.29","LF","osnv2y9pl1","1920","1200","en","af05ra11","null","","","","","","","","learning/Slide110.JPG","null","","","","",""
"","html-keyboard-response","337","364336","0.0-8.0-2.29","LF","osnv2y9pl1","1920","1200","en","af05ra11","null","","","","learningBlock2","","","","<div style=""font-size:60px;""> </div>","null","LF","learning/Slide110.JPG","This is a bim:","",""
"","html-keyboard-response","338","365341","0.0-8.0-0.30","LF","osnv2y9pl1","1920","1200","en","af05ra11","null","","","","learningBlock2","","","","This is a tob:","null","","","","",""
"","image-keyboard-response","339","365675","0.0-8.0-1.30","LF","osnv2y9pl1","1920","1200","en","af05ra11","null","","","","","","","","learning/Slide111.JPG","null","","","","",""
"","html-keyboard-response","340","366679","0.0-8.0-2.30","LF","osnv2y9pl1","1920","1200","en","af05ra11","null","","","","learningBlock2","","","","<div style=""font-size:60px;""> </div>","null","LF","learning/Slide111.JPG","This is a tob:","",""
"","html-keyboard-response","341","367683","0.0-8.0-0.31","LF","osnv2y9pl1","1920","1200","en","af05ra11","null","","","","learningBlock2","","","","This is a wug:","null","","","","",""
"","image-keyboard-response","342","368014","0.0-8.0-1.31","LF","osnv2y9pl1","1920","1200","en","af05ra11","null","","","","","","","","learning/Slide112.JPG","null","","","","",""
"","html-keyboard-response","343","369018","0.0-8.0-2.31","LF","osnv2y9pl1","1920","1200","en","af05ra11","null","","","","learningBlock2","","","","<div style=""font-size:60px;""> </div>","null","LF","learning/Slide112.JPG","This is a wug:","",""
"","html-keyboard-response","344","370022","0.0-8.0-0.32","LF","osnv2y9pl1","1920","1200","en","af05ra11","null","","","","learningBlock2","","","","This is a tob:","null","","","","",""
"","image-keyboard-response","345","370356","0.0-8.0-1.32","LF","osnv2y9pl1","1920","1200","en","af05ra11","null","","","","","","","","learning/Slide113.JPG","null","","","","",""
"","html-keyboard-response","346","371361","0.0-8.0-2.32","LF","osnv2y9pl1","1920","1200","en","af05ra11","null","","","","learningBlock2","","","","<div style=""font-size:60px;""> </div>","null","LF","learning/Slide113.JPG","This is a tob:","",""
"","html-keyboard-response","347","372365","0.0-8.0-0.33","LF","osnv2y9pl1","1920","1200","en","af05ra11","null","","","","learningBlock2","","","","This is a wug:","null","","","","",""
"","image-keyboard-response","348","372699","0.0-8.0-1.33","LF","osnv2y9pl1","1920","1200","en","af05ra11","null","","","","","","","","learning/Slide114.JPG","null","","","","",""
"","html-keyboard-response","349","373703","0.0-8.0-2.33","LF","osnv2y9pl1","1920","1200","en","af05ra11","null","","","","learningBlock2","","","","<div style=""font-size:60px;""> </div>","null","LF","learning/Slide114.JPG","This is a wug:","",""
"","html-keyboard-response","350","374707","0.0-8.0-0.34","LF","osnv2y9pl1","1920","1200","en","af05ra11","null","","","","learningBlock2","","","","This is a bim:","null","","","","",""
"","image-keyboard-response","351","375041","0.0-8.0-1.34","LF","osnv2y9pl1","1920","1200","en","af05ra11","null","","","","","","","","learning/Slide115.JPG","null","","","","",""
"","html-keyboard-response","352","376045","0.0-8.0-2.34","LF","osnv2y9pl1","1920","1200","en","af05ra11","null","","","","learningBlock2","","","","<div style=""font-size:60px;""> </div>","null","LF","learning/Slide115.JPG","This is a bim:","",""
"","html-keyboard-response","353","377049","0.0-8.0-0.35","LF","osnv2y9pl1","1920","1200","en","af05ra11","null","","","","learningBlock2","","","","This is a dep:","null","","","","",""
"","image-keyboard-response","354","377380","0.0-8.0-1.35","LF","osnv2y9pl1","1920","1200","en","af05ra11","null","","","","","","","","learning/Slide116.JPG","null","","","","",""
"","html-keyboard-response","355","378382","0.0-8.0-2.35","LF","osnv2y9pl1","1920","1200","en","af05ra11","null","","","","learningBlock2","","","","<div style=""font-size:60px;""> </div>","null","LF","learning/Slide116.JPG","This is a dep:","",""
"","html-keyboard-response","356","379383","0.0-8.0-0.36","LF","osnv2y9pl1","1920","1200","en","af05ra11","null","","","","learningBlock2","","","","This is a tob:","null","","","","",""
"","image-keyboard-response","357","379717","0.0-8.0-1.36","LF","osnv2y9pl1","1920","1200","en","af05ra11","null","","","","","","","","learning/Slide117.JPG","null","","","","",""
"","html-keyboard-response","358","380717","0.0-8.0-2.36","LF","osnv2y9pl1","1920","1200","en","af05ra11","null","","","","learningBlock2","","","","<div style=""font-size:60px;""> </div>","null","LF","learning/Slide117.JPG","This is a tob:","",""
"","html-keyboard-response","359","381722","0.0-8.0-0.37","LF","osnv2y9pl1","1920","1200","en","af05ra11","null","","","","learningBlock2","","","","This is a dep:","null","","","","",""
"","image-keyboard-response","360","382053","0.0-8.0-1.37","LF","osnv2y9pl1","1920","1200","en","af05ra11","null","","","","","","","","learning/Slide118.JPG","null","","","","",""
"","html-keyboard-response","361","383058","0.0-8.0-2.37","LF","osnv2y9pl1","1920","1200","en","af05ra11","null","","","","learningBlock2","","","","<div style=""font-size:60px;""> </div>","null","LF","learning/Slide118.JPG","This is a dep:","",""
"","html-keyboard-response","362","384059","0.0-8.0-0.38","LF","osnv2y9pl1","1920","1200","en","af05ra11","null","","","","learningBlock2","","","","This is a wug:","null","","","","",""
"","image-keyboard-response","363","384390","0.0-8.0-1.38","LF","osnv2y9pl1","1920","1200","en","af05ra11","null","","","","","","","","learning/Slide119.JPG","null","","","","",""
"","html-keyboard-response","364","385394","0.0-8.0-2.38","LF","osnv2y9pl1","1920","1200","en","af05ra11","null","","","","learningBlock2","","","","<div style=""font-size:60px;""> </div>","null","LF","learning/Slide119.JPG","This is a wug:","",""
"","html-keyboard-response","365","386398","0.0-8.0-0.39","LF","osnv2y9pl1","1920","1200","en","af05ra11","null","","","","learningBlock2","","","","This is a dep:","null","","","","",""
"","image-keyboard-response","366","386732","0.0-8.0-1.39","LF","osnv2y9pl1","1920","1200","en","af05ra11","null","","","","","","","","learning/Slide120.JPG","null","","","","",""
"","html-keyboard-response","367","387733","0.0-8.0-2.39","LF","osnv2y9pl1","1920","1200","en","af05ra11","null","","","","learningBlock2","","","","<div style=""font-size:60px;""> </div>","null","LF","learning/Slide120.JPG","This is a dep:","",""
"","html-keyboard-response","368","388738","0.0-8.0-0.40","LF","osnv2y9pl1","1920","1200","en","af05ra11","null","","","","learningBlock2","","","","This is a bim:","null","","","","",""
"","image-keyboard-response","369","389072","0.0-8.0-1.40","LF","osnv2y9pl1","1920","1200","en","af05ra11","null","","","","","","","","learning/Slide121.JPG","null","","","","",""
"","html-keyboard-response","370","390076","0.0-8.0-2.40","LF","osnv2y9pl1","1920","1200","en","af05ra11","null","","","","learningBlock2","","","","<div style=""font-size:60px;""> </div>","null","LF","learning/Slide121.JPG","This is a bim:","",""
"","html-keyboard-response","371","391080","0.0-8.0-0.41","LF","osnv2y9pl1","1920","1200","en","af05ra11","null","","","","learningBlock2","","","","This is a wug:","null","","","","",""
"","image-keyboard-response","372","391411","0.0-8.0-1.41","LF","osnv2y9pl1","1920","1200","en","af05ra11","null","","","","","","","","learning/Slide122.JPG","null","","","","",""
"","html-keyboard-response","373","392415","0.0-8.0-2.41","LF","osnv2y9pl1","1920","1200","en","af05ra11","null","","","","learningBlock2","","","","<div style=""font-size:60px;""> </div>","null","LF","learning/Slide122.JPG","This is a wug:","",""
"","html-keyboard-response","374","393420","0.0-8.0-0.42","LF","osnv2y9pl1","1920","1200","en","af05ra11","null","","","","learningBlock2","","","","This is a bim:","null","","","","",""
"","image-keyboard-response","375","393753","0.0-8.0-1.42","LF","osnv2y9pl1","1920","1200","en","af05ra11","null","","","","","","","","learning/Slide123.JPG","null","","","","",""
"","html-keyboard-response","376","394758","0.0-8.0-2.42","LF","osnv2y9pl1","1920","1200","en","af05ra11","null","","","","learningBlock2","","","","<div style=""font-size:60px;""> </div>","null","LF","learning/Slide123.JPG","This is a bim:","",""
"","html-keyboard-response","377","395762","0.0-8.0-0.43","LF","osnv2y9pl1","1920","1200","en","af05ra11","null","","","","learningBlock2","","","","This is a tob:","null","","","","",""
"","image-keyboard-response","378","396096","0.0-8.0-1.43","LF","osnv2y9pl1","1920","1200","en","af05ra11","null","","","","","","","","learning/Slide124.JPG","null","","","","",""
"","html-keyboard-response","379","397100","0.0-8.0-2.43","LF","osnv2y9pl1","1920","1200","en","af05ra11","null","","","","learningBlock2","","","","<div style=""font-size:60px;""> </div>","null","LF","learning/Slide124.JPG","This is a tob:","",""
"","html-keyboard-response","380","398104","0.0-8.0-0.44","LF","osnv2y9pl1","1920","1200","en","af05ra11","null","","","","learningBlock2","","","","This is a bim:","null","","","","",""
"","image-keyboard-response","381","398435","0.0-8.0-1.44","LF","osnv2y9pl1","1920","1200","en","af05ra11","null","","","","","","","","learning/Slide125.JPG","null","","","","",""
"","html-keyboard-response","382","399439","0.0-8.0-2.44","LF","osnv2y9pl1","1920","1200","en","af05ra11","null","","","","learningBlock2","","","","<div style=""font-size:60px;""> </div>","null","LF","learning/Slide125.JPG","This is a bim:","",""
"","html-keyboard-response","383","400444","0.0-8.0-0.45","LF","osnv2y9pl1","1920","1200","en","af05ra11","null","","","","learningBlock2","","","","This is a tob:","null","","","","",""
"","image-keyboard-response","384","400777","0.0-8.0-1.45","LF","osnv2y9pl1","1920","1200","en","af05ra11","null","","","","","","","","learning/Slide126.JPG","null","","","","",""
"","html-keyboard-response","385","401782","0.0-8.0-2.45","LF","osnv2y9pl1","1920","1200","en","af05ra11","null","","","","learningBlock2","","","","<div style=""font-size:60px;""> </div>","null","LF","learning/Slide126.JPG","This is a tob:","",""
"","html-keyboard-response","386","402786","0.0-8.0-0.46","LF","osnv2y9pl1","1920","1200","en","af05ra11","null","","","","learningBlock2","","","","This is a dep:","null","","","","",""
"","image-keyboard-response","387","403120","0.0-8.0-1.46","LF","osnv2y9pl1","1920","1200","en","af05ra11","null","","","","","","","","learning/Slide127.JPG","null","","","","",""
"","html-keyboard-response","388","404124","0.0-8.0-2.46","LF","osnv2y9pl1","1920","1200","en","af05ra11","null","","","","learningBlock2","","","","<div style=""font-size:60px;""> </div>","null","LF","learning/Slide127.JPG","This is a dep:","",""
"","html-keyboard-response","389","405125","0.0-8.0-0.47","LF","osnv2y9pl1","1920","1200","en","af05ra11","null","","","","learningBlock2","","","","This is a wug:","null","","","","",""
"","image-keyboard-response","390","405456","0.0-8.0-1.47","LF","osnv2y9pl1","1920","1200","en","af05ra11","null","","","","","","","","learning/Slide128.JPG","null","","","","",""
"","html-keyboard-response","391","406460","0.0-8.0-2.47","LF","osnv2y9pl1","1920","1200","en","af05ra11","null","","","","learningBlock2","","","","<div style=""font-size:60px;""> </div>","null","LF","learning/Slide128.JPG","This is a wug:","",""
"","html-keyboard-response","392","407465","0.0-8.0-0.48","LF","osnv2y9pl1","1920","1200","en","af05ra11","null","","","","learningBlock2","","","","This is a tob:","null","","","","",""
"","image-keyboard-response","393","407798","0.0-8.0-1.48","LF","osnv2y9pl1","1920","1200","en","af05ra11","null","","","","","","","","learning/Slide129.JPG","null","","","","",""
"","html-keyboard-response","394","408802","0.0-8.0-2.48","LF","osnv2y9pl1","1920","1200","en","af05ra11","null","","","","learningBlock2","","","","<div style=""font-size:60px;""> </div>","null","LF","learning/Slide129.JPG","This is a tob:","",""
"","html-keyboard-response","395","409807","0.0-8.0-0.49","LF","osnv2y9pl1","1920","1200","en","af05ra11","null","","","","learningBlock2","","","","This is a wug:","null","","","","",""
"","image-keyboard-response","396","410138","0.0-8.0-1.49","LF","osnv2y9pl1","1920","1200","en","af05ra11","null","","","","","","","","learning/Slide130.JPG","null","","","","",""
"","html-keyboard-response","397","411139","0.0-8.0-2.49","LF","osnv2y9pl1","1920","1200","en","af05ra11","null","","","","learningBlock2","","","","<div style=""font-size:60px;""> </div>","null","LF","learning/Slide130.JPG","This is a wug:","",""
"","html-keyboard-response","398","412143","0.0-8.0-0.50","LF","osnv2y9pl1","1920","1200","en","af05ra11","null","","","","learningBlock2","","","","This is a bim:","null","","","","",""
"","image-keyboard-response","399","412477","0.0-8.0-1.50","LF","osnv2y9pl1","1920","1200","en","af05ra11","null","","","","","","","","learning/Slide131.JPG","null","","","","",""
"","html-keyboard-response","400","413482","0.0-8.0-2.50","LF","osnv2y9pl1","1920","1200","en","af05ra11","null","","","","learningBlock2","","","","<div style=""font-size:60px;""> </div>","null","LF","learning/Slide131.JPG","This is a bim:","",""
"","html-keyboard-response","401","414485","0.0-8.0-0.51","LF","osnv2y9pl1","1920","1200","en","af05ra11","null","","","","learningBlock2","","","","This is a dep:","null","","","","",""
"","image-keyboard-response","402","414817","0.0-8.0-1.51","LF","osnv2y9pl1","1920","1200","en","af05ra11","null","","","","","","","","learning/Slide132.JPG","null","","","","",""
"","html-keyboard-response","403","415821","0.0-8.0-2.51","LF","osnv2y9pl1","1920","1200","en","af05ra11","null","","","","learningBlock2","","","","<div style=""font-size:60px;""> </div>","null","LF","learning/Slide132.JPG","This is a dep:","",""
"","html-keyboard-response","404","416831","0.0-8.0-0.52","LF","osnv2y9pl1","1920","1200","en","af05ra11","null","","","","learningBlock2","","","","This is a tob:","null","","","","",""
"","image-keyboard-response","405","417171","0.0-8.0-1.52","LF","osnv2y9pl1","1920","1200","en","af05ra11","null","","","","","","","","learning/Slide133.JPG","null","","","","",""
"","html-keyboard-response","406","418175","0.0-8.0-2.52","LF","osnv2y9pl1","1920","1200","en","af05ra11","null","","","","learningBlock2","","","","<div style=""font-size:60px;""> </div>","null","LF","learning/Slide133.JPG","This is a tob:","",""
"","html-keyboard-response","407","419179","0.0-8.0-0.53","LF","osnv2y9pl1","1920","1200","en","af05ra11","null","","","","learningBlock2","","","","This is a dep:","null","","","","",""
"","image-keyboard-response","408","419513","0.0-8.0-1.53","LF","osnv2y9pl1","1920","1200","en","af05ra11","null","","","","","","","","learning/Slide134.JPG","null","","","","",""
"","html-keyboard-response","409","420517","0.0-8.0-2.53","LF","osnv2y9pl1","1920","1200","en","af05ra11","null","","","","learningBlock2","","","","<div style=""font-size:60px;""> </div>","null","LF","learning/Slide134.JPG","This is a dep:","",""
"","html-keyboard-response","410","421522","0.0-8.0-0.54","LF","osnv2y9pl1","1920","1200","en","af05ra11","null","","","","learningBlock2","","","","This is a tob:","null","","","","",""
"","image-keyboard-response","411","421856","0.0-8.0-1.54","LF","osnv2y9pl1","1920","1200","en","af05ra11","null","","","","","","","","learning/Slide135.JPG","null","","","","",""
"","html-keyboard-response","412","422860","0.0-8.0-2.54","LF","osnv2y9pl1","1920","1200","en","af05ra11","null","","","","learningBlock2","","","","<div style=""font-size:60px;""> </div>","null","LF","learning/Slide135.JPG","This is a tob:","",""
"","html-keyboard-response","413","423864","0.0-8.0-0.55","LF","osnv2y9pl1","1920","1200","en","af05ra11","null","","","","learningBlock2","","","","This is a wug:","null","","","","",""
"","image-keyboard-response","414","424198","0.0-8.0-1.55","LF","osnv2y9pl1","1920","1200","en","af05ra11","null","","","","","","","","learning/Slide136.JPG","null","","","","",""
"","html-keyboard-response","415","425202","0.0-8.0-2.55","LF","osnv2y9pl1","1920","1200","en","af05ra11","null","","","","learningBlock2","","","","<div style=""font-size:60px;""> </div>","null","LF","learning/Slide136.JPG","This is a wug:","",""
"","html-keyboard-response","416","426206","0.0-8.0-0.56","LF","osnv2y9pl1","1920","1200","en","af05ra11","null","","","","learningBlock2","","","","This is a tob:","null","","","","",""
"","image-keyboard-response","417","426540","0.0-8.0-1.56","LF","osnv2y9pl1","1920","1200","en","af05ra11","null","","","","","","","","learning/Slide137.JPG","null","","","","",""
"","html-keyboard-response","418","427545","0.0-8.0-2.56","LF","osnv2y9pl1","1920","1200","en","af05ra11","null","","","","learningBlock2","","","","<div style=""font-size:60px;""> </div>","null","LF","learning/Slide137.JPG","This is a tob:","",""
"","html-keyboard-response","419","428548","0.0-8.0-0.57","LF","osnv2y9pl1","1920","1200","en","af05ra11","null","","","","learningBlock2","","","","This is a bim:","null","","","","",""
"","image-keyboard-response","420","428879","0.0-8.0-1.57","LF","osnv2y9pl1","1920","1200","en","af05ra11","null","","","","","","","","learning/Slide138.JPG","null","","","","",""
"","html-keyboard-response","421","429881","0.0-8.0-2.57","LF","osnv2y9pl1","1920","1200","en","af05ra11","null","","","","learningBlock2","","","","<div style=""font-size:60px;""> </div>","null","LF","learning/Slide138.JPG","This is a bim:","",""
"","html-keyboard-response","422","430882","0.0-8.0-0.58","LF","osnv2y9pl1","1920","1200","en","af05ra11","null","","","","learningBlock2","","","","This is a wug:","null","","","","",""
"","image-keyboard-response","423","431216","0.0-8.0-1.58","LF","osnv2y9pl1","1920","1200","en","af05ra11","null","","","","","","","","learning/Slide139.JPG","null","","","","",""
"","html-keyboard-response","424","432220","0.0-8.0-2.58","LF","osnv2y9pl1","1920","1200","en","af05ra11","null","","","","learningBlock2","","","","<div style=""font-size:60px;""> </div>","null","LF","learning/Slide139.JPG","This is a wug:","",""
"","html-keyboard-response","425","433225","0.0-8.0-0.59","LF","osnv2y9pl1","1920","1200","en","af05ra11","null","","","","learningBlock2","","","","This is a dep:","null","","","","",""
"","image-keyboard-response","426","433556","0.0-8.0-1.59","LF","osnv2y9pl1","1920","1200","en","af05ra11","null","","","","","","","","learning/Slide140.JPG","null","","","","",""
"","html-keyboard-response","427","434560","0.0-8.0-2.59","LF","osnv2y9pl1","1920","1200","en","af05ra11","null","","","","learningBlock2","","","","<div style=""font-size:60px;""> </div>","null","LF","learning/Slide140.JPG","This is a dep:","",""
"","html-keyboard-response","428","435564","0.0-8.0-0.60","LF","osnv2y9pl1","1920","1200","en","af05ra11","null","","","","learningBlock2","","","","This is a tob:","null","","","","",""
"","image-keyboard-response","429","435898","0.0-8.0-1.60","LF","osnv2y9pl1","1920","1200","en","af05ra11","null","","","","","","","","learning/Slide141.JPG","null","","","","",""
"","html-keyboard-response","430","436902","0.0-8.0-2.60","LF","osnv2y9pl1","1920","1200","en","af05ra11","null","","","","learningBlock2","","","","<div style=""font-size:60px;""> </div>","null","LF","learning/Slide141.JPG","This is a tob:","",""
"","html-keyboard-response","431","437906","0.0-8.0-0.61","LF","osnv2y9pl1","1920","1200","en","af05ra11","null","","","","learningBlock2","","","","This is a wug:","null","","","","",""
"","image-keyboard-response","432","438237","0.0-8.0-1.61","LF","osnv2y9pl1","1920","1200","en","af05ra11","null","","","","","","","","learning/Slide142.JPG","null","","","","",""
"","html-keyboard-response","433","439242","0.0-8.0-2.61","LF","osnv2y9pl1","1920","1200","en","af05ra11","null","","","","learningBlock2","","","","<div style=""font-size:60px;""> </div>","null","LF","learning/Slide142.JPG","This is a wug:","",""
"","html-keyboard-response","434","440246","0.0-8.0-0.62","LF","osnv2y9pl1","1920","1200","en","af05ra11","null","","","","learningBlock2","","","","This is a bim:","null","","","","",""
"","image-keyboard-response","435","440580","0.0-8.0-1.62","LF","osnv2y9pl1","1920","1200","en","af05ra11","null","","","","","","","","learning/Slide143.JPG","null","","","","",""
"","html-keyboard-response","436","441584","0.0-8.0-2.62","LF","osnv2y9pl1","1920","1200","en","af05ra11","null","","","","learningBlock2","","","","<div style=""font-size:60px;""> </div>","null","LF","learning/Slide143.JPG","This is a bim:","",""
"","html-keyboard-response","437","442588","0.0-8.0-0.63","LF","osnv2y9pl1","1920","1200","en","af05ra11","null","","","","learningBlock2","","","","This is a dep:","null","","","","",""
"","image-keyboard-response","438","442922","0.0-8.0-1.63","LF","osnv2y9pl1","1920","1200","en","af05ra11","null","","","","","","","","learning/Slide144.JPG","null","","","","",""
"","html-keyboard-response","439","443926","0.0-8.0-2.63","LF","osnv2y9pl1","1920","1200","en","af05ra11","null","","","","learningBlock2","","","","<div style=""font-size:60px;""> </div>","null","LF","learning/Slide144.JPG","This is a dep:","",""
"","html-keyboard-response","440","444930","0.0-8.0-0.64","LF","osnv2y9pl1","1920","1200","en","af05ra11","null","","","","learningBlock2","","","","This is a bim:","null","","","","",""
"","image-keyboard-response","441","445264","0.0-8.0-1.64","LF","osnv2y9pl1","1920","1200","en","af05ra11","null","","","","","","","","learning/Slide145.JPG","null","","","","",""
"","html-keyboard-response","442","446269","0.0-8.0-2.64","LF","osnv2y9pl1","1920","1200","en","af05ra11","null","","","","learningBlock2","","","","<div style=""font-size:60px;""> </div>","null","LF","learning/Slide145.JPG","This is a bim:","",""
"","html-keyboard-response","443","447273","0.0-8.0-0.65","LF","osnv2y9pl1","1920","1200","en","af05ra11","null","","","","learningBlock2","","","","This is a tob:","null","","","","",""
"","image-keyboard-response","444","447607","0.0-8.0-1.65","LF","osnv2y9pl1","1920","1200","en","af05ra11","null","","","","","","","","learning/Slide146.JPG","null","","","","",""
"","html-keyboard-response","445","448611","0.0-8.0-2.65","LF","osnv2y9pl1","1920","1200","en","af05ra11","null","","","","learningBlock2","","","","<div style=""font-size:60px;""> </div>","null","LF","learning/Slide146.JPG","This is a tob:","",""
"","html-keyboard-response","446","449615","0.0-8.0-0.66","LF","osnv2y9pl1","1920","1200","en","af05ra11","null","","","","learningBlock2","","","","This is a wug:","null","","","","",""
"","image-keyboard-response","447","449949","0.0-8.0-1.66","LF","osnv2y9pl1","1920","1200","en","af05ra11","null","","","","","","","","learning/Slide147.JPG","null","","","","",""
"","html-keyboard-response","448","450953","0.0-8.0-2.66","LF","osnv2y9pl1","1920","1200","en","af05ra11","null","","","","learningBlock2","","","","<div style=""font-size:60px;""> </div>","null","LF","learning/Slide147.JPG","This is a wug:","",""
"","html-keyboard-response","449","451957","0.0-8.0-0.67","LF","osnv2y9pl1","1920","1200","en","af05ra11","null","","","","learningBlock2","","","","This is a bim:","null","","","","",""
"","image-keyboard-response","450","452291","0.0-8.0-1.67","LF","osnv2y9pl1","1920","1200","en","af05ra11","null","","","","","","","","learning/Slide148.JPG","null","","","","",""
"","html-keyboard-response","451","453295","0.0-8.0-2.67","LF","osnv2y9pl1","1920","1200","en","af05ra11","null","","","","learningBlock2","","","","<div style=""font-size:60px;""> </div>","null","LF","learning/Slide148.JPG","This is a bim:","",""
"","html-keyboard-response","452","454300","0.0-8.0-0.68","LF","osnv2y9pl1","1920","1200","en","af05ra11","null","","","","learningBlock2","","","","This is a dep:","null","","","","",""
"","image-keyboard-response","453","454630","0.0-8.0-1.68","LF","osnv2y9pl1","1920","1200","en","af05ra11","null","","","","","","","","learning/Slide149.JPG","null","","","","",""
"","html-keyboard-response","454","455632","0.0-8.0-2.68","LF","osnv2y9pl1","1920","1200","en","af05ra11","null","","","","learningBlock2","","","","<div style=""font-size:60px;""> </div>","null","LF","learning/Slide149.JPG","This is a dep:","",""
"","html-keyboard-response","455","456633","0.0-8.0-0.69","LF","osnv2y9pl1","1920","1200","en","af05ra11","null","","","","learningBlock2","","","","This is a wug:","null","","","","",""
"","image-keyboard-response","456","456967","0.0-8.0-1.69","LF","osnv2y9pl1","1920","1200","en","af05ra11","null","","","","","","","","learning/Slide150.JPG","null","","","","",""
"","html-keyboard-response","457","457971","0.0-8.0-2.69","LF","osnv2y9pl1","1920","1200","en","af05ra11","null","","","","learningBlock2","","","","<div style=""font-size:60px;""> </div>","null","LF","learning/Slide150.JPG","This is a wug:","",""
"","html-keyboard-response","458","458976","0.0-8.0-0.70","LF","osnv2y9pl1","1920","1200","en","af05ra11","null","","","","learningBlock2","","","","This is a dep:","null","","","","",""
"","image-keyboard-response","459","459307","0.0-8.0-1.70","LF","osnv2y9pl1","1920","1200","en","af05ra11","null","","","","","","","","learning/Slide151.JPG","null","","","","",""
"","html-keyboard-response","460","460311","0.0-8.0-2.70","LF","osnv2y9pl1","1920","1200","en","af05ra11","null","","","","learningBlock2","","","","<div style=""font-size:60px;""> </div>","null","LF","learning/Slide151.JPG","This is a dep:","",""
"","html-keyboard-response","461","461315","0.0-8.0-0.71","LF","osnv2y9pl1","1920","1200","en","af05ra11","null","","","","learningBlock2","","","","This is a wug:","null","","","","",""
"","image-keyboard-response","462","461649","0.0-8.0-1.71","LF","osnv2y9pl1","1920","1200","en","af05ra11","null","","","","","","","","learning/Slide152.JPG","null","","","","",""
"","html-keyboard-response","463","462653","0.0-8.0-2.71","LF","osnv2y9pl1","1920","1200","en","af05ra11","null","","","","learningBlock2","","","","<div style=""font-size:60px;""> </div>","null","LF","learning/Slide152.JPG","This is a wug:","",""
"","html-keyboard-response","464","463657","0.0-8.0-0.72","LF","osnv2y9pl1","1920","1200","en","af05ra11","null","","","","learningBlock2","","","","This is a bim:","null","","","","",""
"","image-keyboard-response","465","463991","0.0-8.0-1.72","LF","osnv2y9pl1","1920","1200","en","af05ra11","null","","","","","","","","learning/Slide153.JPG","null","","","","",""
"","html-keyboard-response","466","464996","0.0-8.0-2.72","LF","osnv2y9pl1","1920","1200","en","af05ra11","null","","","","learningBlock2","","","","<div style=""font-size:60px;""> </div>","null","LF","learning/Slide153.JPG","This is a bim:","",""
"","html-keyboard-response","467","465998","0.0-8.0-0.73","LF","osnv2y9pl1","1920","1200","en","af05ra11","null","","","","learningBlock2","","","","This is a tob:","null","","","","",""
"","image-keyboard-response","468","466332","0.0-8.0-1.73","LF","osnv2y9pl1","1920","1200","en","af05ra11","null","","","","","","","","learning/Slide154.JPG","null","","","","",""
"","html-keyboard-response","469","467336","0.0-8.0-2.73","LF","osnv2y9pl1","1920","1200","en","af05ra11","null","","","","learningBlock2","","","","<div style=""font-size:60px;""> </div>","null","LF","learning/Slide154.JPG","This is a tob:","",""
"","html-keyboard-response","470","468341","0.0-8.0-0.74","LF","osnv2y9pl1","1920","1200","en","af05ra11","null","","","","learningBlock2","","","","This is a dep:","null","","","","",""
"","image-keyboard-response","471","468671","0.0-8.0-1.74","LF","osnv2y9pl1","1920","1200","en","af05ra11","null","","","","","","","","learning/Slide155.JPG","null","","","","",""
"","html-keyboard-response","472","469676","0.0-8.0-2.74","LF","osnv2y9pl1","1920","1200","en","af05ra11","null","","","","learningBlock2","","","","<div style=""font-size:60px;""> </div>","null","LF","learning/Slide155.JPG","This is a dep:","",""
"","html-keyboard-response","473","470680","0.0-8.0-0.75","LF","osnv2y9pl1","1920","1200","en","af05ra11","null","","","","learningBlock2","","","","This is a bim:","null","","","","",""
"","image-keyboard-response","474","471014","0.0-8.0-1.75","LF","osnv2y9pl1","1920","1200","en","af05ra11","null","","","","","","","","learning/Slide156.JPG","null","","","","",""
"","html-keyboard-response","475","472018","0.0-8.0-2.75","LF","osnv2y9pl1","1920","1200","en","af05ra11","null","","","","learningBlock2","","","","<div style=""font-size:60px;""> </div>","null","LF","learning/Slide156.JPG","This is a bim:","",""
"","html-keyboard-response","476","473022","0.0-8.0-0.76","LF","osnv2y9pl1","1920","1200","en","af05ra11","null","","","","learningBlock2","","","","This is a dep:","null","","","","",""
"","image-keyboard-response","477","473353","0.0-8.0-1.76","LF","osnv2y9pl1","1920","1200","en","af05ra11","null","","","","","","","","learning/Slide157.JPG","null","","","","",""
"","html-keyboard-response","478","474354","0.0-8.0-2.76","LF","osnv2y9pl1","1920","1200","en","af05ra11","null","","","","learningBlock2","","","","<div style=""font-size:60px;""> </div>","null","LF","learning/Slide157.JPG","This is a dep:","",""
"","html-keyboard-response","479","475357","0.0-8.0-0.77","LF","osnv2y9pl1","1920","1200","en","af05ra11","null","","","","learningBlock2","","","","This is a tob:","null","","","","",""
"","image-keyboard-response","480","475690","0.0-8.0-1.77","LF","osnv2y9pl1","1920","1200","en","af05ra11","null","","","","","","","","learning/Slide158.JPG","null","","","","",""
"","html-keyboard-response","481","476694","0.0-8.0-2.77","LF","osnv2y9pl1","1920","1200","en","af05ra11","null","","","","learningBlock2","","","","<div style=""font-size:60px;""> </div>","null","LF","learning/Slide158.JPG","This is a tob:","",""
"","html-keyboard-response","482","477698","0.0-8.0-0.78","LF","osnv2y9pl1","1920","1200","en","af05ra11","null","","","","learningBlock2","","","","This is a dep:","null","","","","",""
"","image-keyboard-response","483","478032","0.0-8.0-1.78","LF","osnv2y9pl1","1920","1200","en","af05ra11","null","","","","","","","","learning/Slide159.JPG","null","","","","",""
"","html-keyboard-response","484","479037","0.0-8.0-2.78","LF","osnv2y9pl1","1920","1200","en","af05ra11","null","","","","learningBlock2","","","","<div style=""font-size:60px;""> </div>","null","LF","learning/Slide159.JPG","This is a dep:","",""
"","html-keyboard-response","485","480041","0.0-8.0-0.79","LF","osnv2y9pl1","1920","1200","en","af05ra11","null","","","","learningBlock2","","","","This is a wug:","null","","","","",""
"","image-keyboard-response","486","480374","0.0-8.0-1.79","LF","osnv2y9pl1","1920","1200","en","af05ra11","null","","","","","","","","learning/Slide160.JPG","null","","","","",""
