"success","trial_type","trial_index","time_elapsed","internal_node_id","condition","subject","screen_width","screen_height","language","codeword","rt","responses","url","view_history","test_part","final_height_px","final_width_px","scale_factor","stimulus","key_press","learningType","presentedImage","presentedLabel","button_pressed","response"
"true","fullscreen","0","3462","0.0-0.0","FL","7jmcv9rt87","1280","720","en","nd05ff22","","","","","","","","","","","","","","",""
"","survey-html-form","1","7716","0.0-1.0","FL","7jmcv9rt87","1280","720","en","nd05ff22","4252.044999971986","{""language"":""en""}","","","","","","","","","","","","",""
"","external-html","2","56986","0.0-3.0-0.0","FL","7jmcv9rt87","1280","720","en","nd05ff22","49226.210000226274","","text/information_english.html","","","","","","","","","","","",""
"","external-html","3","78930","0.0-3.0-1.0","FL","7jmcv9rt87","1280","720","en","nd05ff22","21805.500000016764","","text/consent_english.html","","","","","","","","","","","",""
"","survey-html-form","4","151926","0.0-3.0-2.0","FL","7jmcv9rt87","1280","720","en","nd05ff22","72992.24499985576","{""codeword_enter"":""nd05ff22""}","","","","","","","","","","","","",""
"","instructions","5","166192","0.0-4.0","FL","7jmcv9rt87","1280","720","en","nd05ff22","NA","","","[{""page_index"":0,""viewing_time"":1830.515000037849},{""page_index"":1,""viewing_time"":10932.915000012144}]","instructions","","","","","","","","","",""
"","resize","6","250231","0.0-5.0","FL","7jmcv9rt87","1280","720","en","nd05ff22","","","","","","","378","2.4","","","","","","",""
"","image-keyboard-response","7","250409","0.0-6.0-0.0","FL","7jmcv9rt87","1280","720","en","nd05ff22","null","","","","","","","","learning/Slide1.JPG","null","","","","",""
"","html-keyboard-response","8","251563","0.0-6.0-1.0","FL","7jmcv9rt87","1280","720","en","nd05ff22","null","","","","learningBlock1","","","","That was a tob.","null","","","","",""
"","html-keyboard-response","9","252565","0.0-6.0-2.0","FL","7jmcv9rt87","1280","720","en","nd05ff22","null","","","","learningBlock1","","","","<div style=""font-size:60px;""> </div>","null","FL","learning/Slide1.JPG","That was a tob.","",""
"","image-keyboard-response","10","252742","0.0-6.0-0.1","FL","7jmcv9rt87","1280","720","en","nd05ff22","null","","","","","","","","learning/Slide2.JPG","null","","","","",""
"","html-keyboard-response","11","253895","0.0-6.0-1.1","FL","7jmcv9rt87","1280","720","en","nd05ff22","null","","","","learningBlock1","","","","That was a wug.","null","","","","",""
"","html-keyboard-response","12","254898","0.0-6.0-2.1","FL","7jmcv9rt87","1280","720","en","nd05ff22","null","","","","learningBlock1","","","","<div style=""font-size:60px;""> </div>","null","FL","learning/Slide2.JPG","That was a wug.","",""
"","image-keyboard-response","13","255074","0.0-6.0-0.2","FL","7jmcv9rt87","1280","720","en","nd05ff22","null","","","","","","","","learning/Slide3.JPG","null","","","","",""
"","html-keyboard-response","14","256227","0.0-6.0-1.2","FL","7jmcv9rt87","1280","720","en","nd05ff22","null","","","","learningBlock1","","","","That was a bim.","null","","","","",""
"","html-keyboard-response","15","257228","0.0-6.0-2.2","FL","7jmcv9rt87","1280","720","en","nd05ff22","null","","","","learningBlock1","","","","<div style=""font-size:60px;""> </div>","null","FL","learning/Slide3.JPG","That was a bim.","",""
"","image-keyboard-response","16","257405","0.0-6.0-0.3","FL","7jmcv9rt87","1280","720","en","nd05ff22","null","","","","","","","","learning/Slide4.JPG","null","","","","",""
"","html-keyboard-response","17","258558","0.0-6.0-1.3","FL","7jmcv9rt87","1280","720","en","nd05ff22","null","","","","learningBlock1","","","","That was a dep.","null","","","","",""
"","html-keyboard-response","18","259559","0.0-6.0-2.3","FL","7jmcv9rt87","1280","720","en","nd05ff22","null","","","","learningBlock1","","","","<div style=""font-size:60px;""> </div>","null","FL","learning/Slide4.JPG","That was a dep.","",""
"","image-keyboard-response","19","259737","0.0-6.0-0.4","FL","7jmcv9rt87","1280","720","en","nd05ff22","null","","","","","","","","learning/Slide5.JPG","null","","","","",""
"","html-keyboard-response","20","260890","0.0-6.0-1.4","FL","7jmcv9rt87","1280","720","en","nd05ff22","null","","","","learningBlock1","","","","That was a wug.","null","","","","",""
"","html-keyboard-response","21","261892","0.0-6.0-2.4","FL","7jmcv9rt87","1280","720","en","nd05ff22","null","","","","learningBlock1","","","","<div style=""font-size:60px;""> </div>","null","FL","learning/Slide5.JPG","That was a wug.","",""
"","image-keyboard-response","22","262069","0.0-6.0-0.5","FL","7jmcv9rt87","1280","720","en","nd05ff22","null","","","","","","","","learning/Slide6.JPG","null","","","","",""
"","html-keyboard-response","23","263222","0.0-6.0-1.5","FL","7jmcv9rt87","1280","720","en","nd05ff22","null","","","","learningBlock1","","","","That was a dep.","null","","","","",""
"","html-keyboard-response","24","264223","0.0-6.0-2.5","FL","7jmcv9rt87","1280","720","en","nd05ff22","null","","","","learningBlock1","","","","<div style=""font-size:60px;""> </div>","null","FL","learning/Slide6.JPG","That was a dep.","",""
"","image-keyboard-response","25","264400","0.0-6.0-0.6","FL","7jmcv9rt87","1280","720","en","nd05ff22","null","","","","","","","","learning/Slide7.JPG","null","","","","",""
"","html-keyboard-response","26","265553","0.0-6.0-1.6","FL","7jmcv9rt87","1280","720","en","nd05ff22","null","","","","learningBlock1","","","","That was a wug.","null","","","","",""
"","html-keyboard-response","27","266566","0.0-6.0-2.6","FL","7jmcv9rt87","1280","720","en","nd05ff22","null","","","","learningBlock1","","","","<div style=""font-size:60px;""> </div>","null","FL","learning/Slide7.JPG","That was a wug.","",""
"","image-keyboard-response","28","266742","0.0-6.0-0.7","FL","7jmcv9rt87","1280","720","en","nd05ff22","null","","","","","","","","learning/Slide8.JPG","null","","","","",""
"","html-keyboard-response","29","267895","0.0-6.0-1.7","FL","7jmcv9rt87","1280","720","en","nd05ff22","null","","","","learningBlock1","","","","That was a bim.","null","","","","",""
"","html-keyboard-response","30","268897","0.0-6.0-2.7","FL","7jmcv9rt87","1280","720","en","nd05ff22","null","","","","learningBlock1","","","","<div style=""font-size:60px;""> </div>","null","FL","learning/Slide8.JPG","That was a bim.","",""
"","image-keyboard-response","31","269074","0.0-6.0-0.8","FL","7jmcv9rt87","1280","720","en","nd05ff22","null","","","","","","","","learning/Slide9.JPG","null","","","","",""
"","html-keyboard-response","32","270226","0.0-6.0-1.8","FL","7jmcv9rt87","1280","720","en","nd05ff22","null","","","","learningBlock1","","","","That was a wug.","null","","","","",""
"","html-keyboard-response","33","271230","0.0-6.0-2.8","FL","7jmcv9rt87","1280","720","en","nd05ff22","null","","","","learningBlock1","","","","<div style=""font-size:60px;""> </div>","null","FL","learning/Slide9.JPG","That was a wug.","",""
"","image-keyboard-response","34","271406","0.0-6.0-0.9","FL","7jmcv9rt87","1280","720","en","nd05ff22","null","","","","","","","","learning/Slide10.JPG","null","","","","",""
"","html-keyboard-response","35","272559","0.0-6.0-1.9","FL","7jmcv9rt87","1280","720","en","nd05ff22","null","","","","learningBlock1","","","","That was a dep.","null","","","","",""
"","html-keyboard-response","36","273561","0.0-6.0-2.9","FL","7jmcv9rt87","1280","720","en","nd05ff22","null","","","","learningBlock1","","","","<div style=""font-size:60px;""> </div>","null","FL","learning/Slide10.JPG","That was a dep.","",""
"","image-keyboard-response","37","273738","0.0-6.0-0.10","FL","7jmcv9rt87","1280","720","en","nd05ff22","null","","","","","","","","learning/Slide11.JPG","null","","","","",""
"","html-keyboard-response","38","274890","0.0-6.0-1.10","FL","7jmcv9rt87","1280","720","en","nd05ff22","null","","","","learningBlock1","","","","That was a tob.","null","","","","",""
"","html-keyboard-response","39","275892","0.0-6.0-2.10","FL","7jmcv9rt87","1280","720","en","nd05ff22","null","","","","learningBlock1","","","","<div style=""font-size:60px;""> </div>","null","FL","learning/Slide11.JPG","That was a tob.","",""
"","image-keyboard-response","40","276069","0.0-6.0-0.11","FL","7jmcv9rt87","1280","720","en","nd05ff22","null","","","","","","","","learning/Slide12.JPG","null","","","","",""
"","html-keyboard-response","41","277222","0.0-6.0-1.11","FL","7jmcv9rt87","1280","720","en","nd05ff22","null","","","","learningBlock1","","","","That was a dep.","null","","","","",""
"","html-keyboard-response","42","278224","0.0-6.0-2.11","FL","7jmcv9rt87","1280","720","en","nd05ff22","null","","","","learningBlock1","","","","<div style=""font-size:60px;""> </div>","null","FL","learning/Slide12.JPG","That was a dep.","",""
"","image-keyboard-response","43","278401","0.0-6.0-0.12","FL","7jmcv9rt87","1280","720","en","nd05ff22","null","","","","","","","","learning/Slide13.JPG","null","","","","",""
"","html-keyboard-response","44","279553","0.0-6.0-1.12","FL","7jmcv9rt87","1280","720","en","nd05ff22","null","","","","learningBlock1","","","","That was a bim.","null","","","","",""
"","html-keyboard-response","45","280555","0.0-6.0-2.12","FL","7jmcv9rt87","1280","720","en","nd05ff22","null","","","","learningBlock1","","","","<div style=""font-size:60px;""> </div>","null","FL","learning/Slide13.JPG","That was a bim.","",""
"","image-keyboard-response","46","280732","0.0-6.0-0.13","FL","7jmcv9rt87","1280","720","en","nd05ff22","null","","","","","","","","learning/Slide14.JPG","null","","","","",""
"","html-keyboard-response","47","281885","0.0-6.0-1.13","FL","7jmcv9rt87","1280","720","en","nd05ff22","null","","","","learningBlock1","","","","That was a wug.","null","","","","",""
"","html-keyboard-response","48","282886","0.0-6.0-2.13","FL","7jmcv9rt87","1280","720","en","nd05ff22","null","","","","learningBlock1","","","","<div style=""font-size:60px;""> </div>","null","FL","learning/Slide14.JPG","That was a wug.","",""
"","image-keyboard-response","49","283063","0.0-6.0-0.14","FL","7jmcv9rt87","1280","720","en","nd05ff22","null","","","","","","","","learning/Slide15.JPG","null","","","","",""
"","html-keyboard-response","50","284215","0.0-6.0-1.14","FL","7jmcv9rt87","1280","720","en","nd05ff22","null","","","","learningBlock1","","","","That was a tob.","null","","","","",""
"","html-keyboard-response","51","285217","0.0-6.0-2.14","FL","7jmcv9rt87","1280","720","en","nd05ff22","null","","","","learningBlock1","","","","<div style=""font-size:60px;""> </div>","null","FL","learning/Slide15.JPG","That was a tob.","",""
"","image-keyboard-response","52","285394","0.0-6.0-0.15","FL","7jmcv9rt87","1280","720","en","nd05ff22","null","","","","","","","","learning/Slide16.JPG","null","","","","",""
"","html-keyboard-response","53","286546","0.0-6.0-1.15","FL","7jmcv9rt87","1280","720","en","nd05ff22","null","","","","learningBlock1","","","","That was a dep.","null","","","","",""
"","html-keyboard-response","54","287547","0.0-6.0-2.15","FL","7jmcv9rt87","1280","720","en","nd05ff22","null","","","","learningBlock1","","","","<div style=""font-size:60px;""> </div>","null","FL","learning/Slide16.JPG","That was a dep.","",""
"","image-keyboard-response","55","287725","0.0-6.0-0.16","FL","7jmcv9rt87","1280","720","en","nd05ff22","null","","","","","","","","learning/Slide17.JPG","null","","","","",""
"","html-keyboard-response","56","288879","0.0-6.0-1.16","FL","7jmcv9rt87","1280","720","en","nd05ff22","null","","","","learningBlock1","","","","That was a bim.","null","","","","",""
"","html-keyboard-response","57","289880","0.0-6.0-2.16","FL","7jmcv9rt87","1280","720","en","nd05ff22","null","","","","learningBlock1","","","","<div style=""font-size:60px;""> </div>","null","FL","learning/Slide17.JPG","That was a bim.","",""
"","image-keyboard-response","58","290056","0.0-6.0-0.17","FL","7jmcv9rt87","1280","720","en","nd05ff22","null","","","","","","","","learning/Slide18.JPG","null","","","","",""
"","html-keyboard-response","59","291209","0.0-6.0-1.17","FL","7jmcv9rt87","1280","720","en","nd05ff22","null","","","","learningBlock1","","","","That was a tob.","null","","","","",""
"","html-keyboard-response","60","292211","0.0-6.0-2.17","FL","7jmcv9rt87","1280","720","en","nd05ff22","null","","","","learningBlock1","","","","<div style=""font-size:60px;""> </div>","null","FL","learning/Slide18.JPG","That was a tob.","",""
"","image-keyboard-response","61","292388","0.0-6.0-0.18","FL","7jmcv9rt87","1280","720","en","nd05ff22","null","","","","","","","","learning/Slide19.JPG","null","","","","",""
"","html-keyboard-response","62","293540","0.0-6.0-1.18","FL","7jmcv9rt87","1280","720","en","nd05ff22","null","","","","learningBlock1","","","","That was a wug.","null","","","","",""
"","html-keyboard-response","63","294541","0.0-6.0-2.18","FL","7jmcv9rt87","1280","720","en","nd05ff22","null","","","","learningBlock1","","","","<div style=""font-size:60px;""> </div>","null","FL","learning/Slide19.JPG","That was a wug.","",""
"","image-keyboard-response","64","294719","0.0-6.0-0.19","FL","7jmcv9rt87","1280","720","en","nd05ff22","null","","","","","","","","learning/Slide20.JPG","null","","","","",""
"","html-keyboard-response","65","295871","0.0-6.0-1.19","FL","7jmcv9rt87","1280","720","en","nd05ff22","null","","","","learningBlock1","","","","That was a bim.","null","","","","",""
"","html-keyboard-response","66","296873","0.0-6.0-2.19","FL","7jmcv9rt87","1280","720","en","nd05ff22","null","","","","learningBlock1","","","","<div style=""font-size:60px;""> </div>","null","FL","learning/Slide20.JPG","That was a bim.","",""
"","image-keyboard-response","67","297050","0.0-6.0-0.20","FL","7jmcv9rt87","1280","720","en","nd05ff22","null","","","","","","","","learning/Slide21.JPG","null","","","","",""
"","html-keyboard-response","68","298203","0.0-6.0-1.20","FL","7jmcv9rt87","1280","720","en","nd05ff22","null","","","","learningBlock1","","","","That was a dep.","null","","","","",""
"","html-keyboard-response","69","299206","0.0-6.0-2.20","FL","7jmcv9rt87","1280","720","en","nd05ff22","null","","","","learningBlock1","","","","<div style=""font-size:60px;""> </div>","null","FL","learning/Slide21.JPG","That was a dep.","",""
"","image-keyboard-response","70","299384","0.0-6.0-0.21","FL","7jmcv9rt87","1280","720","en","nd05ff22","null","","","","","","","","learning/Slide22.JPG","null","","","","",""
"","html-keyboard-response","71","300536","0.0-6.0-1.21","FL","7jmcv9rt87","1280","720","en","nd05ff22","null","","","","learningBlock1","","","","That was a bim.","null","","","","",""
"","html-keyboard-response","72","301537","0.0-6.0-2.21","FL","7jmcv9rt87","1280","720","en","nd05ff22","null","","","","learningBlock1","","","","<div style=""font-size:60px;""> </div>","null","FL","learning/Slide22.JPG","That was a bim.","",""
"","image-keyboard-response","73","301715","0.0-6.0-0.22","FL","7jmcv9rt87","1280","720","en","nd05ff22","null","","","","","","","","learning/Slide23.JPG","null","","","","",""
"","html-keyboard-response","74","302867","0.0-6.0-1.22","FL","7jmcv9rt87","1280","720","en","nd05ff22","null","","","","learningBlock1","","","","That was a tob.","null","","","","",""
"","html-keyboard-response","75","303868","0.0-6.0-2.22","FL","7jmcv9rt87","1280","720","en","nd05ff22","null","","","","learningBlock1","","","","<div style=""font-size:60px;""> </div>","null","FL","learning/Slide23.JPG","That was a tob.","",""
"","image-keyboard-response","76","304045","0.0-6.0-0.23","FL","7jmcv9rt87","1280","720","en","nd05ff22","null","","","","","","","","learning/Slide24.JPG","null","","","","",""
"","html-keyboard-response","77","305198","0.0-6.0-1.23","FL","7jmcv9rt87","1280","720","en","nd05ff22","null","","","","learningBlock1","","","","That was a wug.","null","","","","",""
"","html-keyboard-response","78","306200","0.0-6.0-2.23","FL","7jmcv9rt87","1280","720","en","nd05ff22","null","","","","learningBlock1","","","","<div style=""font-size:60px;""> </div>","null","FL","learning/Slide24.JPG","That was a wug.","",""
"","image-keyboard-response","79","306377","0.0-6.0-0.24","FL","7jmcv9rt87","1280","720","en","nd05ff22","null","","","","","","","","learning/Slide25.JPG","null","","","","",""
"","html-keyboard-response","80","307530","0.0-6.0-1.24","FL","7jmcv9rt87","1280","720","en","nd05ff22","null","","","","learningBlock1","","","","That was a dep.","null","","","","",""
"","html-keyboard-response","81","308531","0.0-6.0-2.24","FL","7jmcv9rt87","1280","720","en","nd05ff22","null","","","","learningBlock1","","","","<div style=""font-size:60px;""> </div>","null","FL","learning/Slide25.JPG","That was a dep.","",""
"","image-keyboard-response","82","308708","0.0-6.0-0.25","FL","7jmcv9rt87","1280","720","en","nd05ff22","null","","","","","","","","learning/Slide26.JPG","null","","","","",""
"","html-keyboard-response","83","309861","0.0-6.0-1.25","FL","7jmcv9rt87","1280","720","en","nd05ff22","null","","","","learningBlock1","","","","That was a wug.","null","","","","",""
"","html-keyboard-response","84","310862","0.0-6.0-2.25","FL","7jmcv9rt87","1280","720","en","nd05ff22","null","","","","learningBlock1","","","","<div style=""font-size:60px;""> </div>","null","FL","learning/Slide26.JPG","That was a wug.","",""
"","image-keyboard-response","85","311039","0.0-6.0-0.26","FL","7jmcv9rt87","1280","720","en","nd05ff22","null","","","","","","","","learning/Slide27.JPG","null","","","","",""
"","html-keyboard-response","86","312192","0.0-6.0-1.26","FL","7jmcv9rt87","1280","720","en","nd05ff22","null","","","","learningBlock1","","","","That was a bim.","null","","","","",""
"","html-keyboard-response","87","313193","0.0-6.0-2.26","FL","7jmcv9rt87","1280","720","en","nd05ff22","null","","","","learningBlock1","","","","<div style=""font-size:60px;""> </div>","null","FL","learning/Slide27.JPG","That was a bim.","",""
"","image-keyboard-response","88","313370","0.0-6.0-0.27","FL","7jmcv9rt87","1280","720","en","nd05ff22","null","","","","","","","","learning/Slide28.JPG","null","","","","",""
"","html-keyboard-response","89","314523","0.0-6.0-1.27","FL","7jmcv9rt87","1280","720","en","nd05ff22","null","","","","learningBlock1","","","","That was a dep.","null","","","","",""
"","html-keyboard-response","90","315524","0.0-6.0-2.27","FL","7jmcv9rt87","1280","720","en","nd05ff22","null","","","","learningBlock1","","","","<div style=""font-size:60px;""> </div>","null","FL","learning/Slide28.JPG","That was a dep.","",""
"","image-keyboard-response","91","315701","0.0-6.0-0.28","FL","7jmcv9rt87","1280","720","en","nd05ff22","null","","","","","","","","learning/Slide29.JPG","null","","","","",""
"","html-keyboard-response","92","316853","0.0-6.0-1.28","FL","7jmcv9rt87","1280","720","en","nd05ff22","null","","","","learningBlock1","","","","That was a tob.","null","","","","",""
"","html-keyboard-response","93","317855","0.0-6.0-2.28","FL","7jmcv9rt87","1280","720","en","nd05ff22","null","","","","learningBlock1","","","","<div style=""font-size:60px;""> </div>","null","FL","learning/Slide29.JPG","That was a tob.","",""
"","image-keyboard-response","94","318031","0.0-6.0-0.29","FL","7jmcv9rt87","1280","720","en","nd05ff22","null","","","","","","","","learning/Slide30.JPG","null","","","","",""
"","html-keyboard-response","95","319183","0.0-6.0-1.29","FL","7jmcv9rt87","1280","720","en","nd05ff22","null","","","","learningBlock1","","","","That was a dep.","null","","","","",""
"","html-keyboard-response","96","320184","0.0-6.0-2.29","FL","7jmcv9rt87","1280","720","en","nd05ff22","null","","","","learningBlock1","","","","<div style=""font-size:60px;""> </div>","null","FL","learning/Slide30.JPG","That was a dep.","",""
"","image-keyboard-response","97","320361","0.0-6.0-0.30","FL","7jmcv9rt87","1280","720","en","nd05ff22","null","","","","","","","","learning/Slide31.JPG","null","","","","",""
"","html-keyboard-response","98","321514","0.0-6.0-1.30","FL","7jmcv9rt87","1280","720","en","nd05ff22","null","","","","learningBlock1","","","","That was a wug.","null","","","","",""
"","html-keyboard-response","99","322516","0.0-6.0-2.30","FL","7jmcv9rt87","1280","720","en","nd05ff22","null","","","","learningBlock1","","","","<div style=""font-size:60px;""> </div>","null","FL","learning/Slide31.JPG","That was a wug.","",""
"","image-keyboard-response","100","322693","0.0-6.0-0.31","FL","7jmcv9rt87","1280","720","en","nd05ff22","null","","","","","","","","learning/Slide32.JPG","null","","","","",""
"","html-keyboard-response","101","323845","0.0-6.0-1.31","FL","7jmcv9rt87","1280","720","en","nd05ff22","null","","","","learningBlock1","","","","That was a tob.","null","","","","",""
"","html-keyboard-response","102","324846","0.0-6.0-2.31","FL","7jmcv9rt87","1280","720","en","nd05ff22","null","","","","learningBlock1","","","","<div style=""font-size:60px;""> </div>","null","FL","learning/Slide32.JPG","That was a tob.","",""
"","image-keyboard-response","103","325023","0.0-6.0-0.32","FL","7jmcv9rt87","1280","720","en","nd05ff22","null","","","","","","","","learning/Slide33.JPG","null","","","","",""
"","html-keyboard-response","104","326175","0.0-6.0-1.32","FL","7jmcv9rt87","1280","720","en","nd05ff22","null","","","","learningBlock1","","","","That was a bim.","null","","","","",""
"","html-keyboard-response","105","327177","0.0-6.0-2.32","FL","7jmcv9rt87","1280","720","en","nd05ff22","null","","","","learningBlock1","","","","<div style=""font-size:60px;""> </div>","null","FL","learning/Slide33.JPG","That was a bim.","",""
"","image-keyboard-response","106","327353","0.0-6.0-0.33","FL","7jmcv9rt87","1280","720","en","nd05ff22","null","","","","","","","","learning/Slide34.JPG","null","","","","",""
"","html-keyboard-response","107","328507","0.0-6.0-1.33","FL","7jmcv9rt87","1280","720","en","nd05ff22","null","","","","learningBlock1","","","","That was a tob.","null","","","","",""
"","html-keyboard-response","108","329509","0.0-6.0-2.33","FL","7jmcv9rt87","1280","720","en","nd05ff22","null","","","","learningBlock1","","","","<div style=""font-size:60px;""> </div>","null","FL","learning/Slide34.JPG","That was a tob.","",""
"","image-keyboard-response","109","329686","0.0-6.0-0.34","FL","7jmcv9rt87","1280","720","en","nd05ff22","null","","","","","","","","learning/Slide35.JPG","null","","","","",""
"","html-keyboard-response","110","330838","0.0-6.0-1.34","FL","7jmcv9rt87","1280","720","en","nd05ff22","null","","","","learningBlock1","","","","That was a bim.","null","","","","",""
"","html-keyboard-response","111","331840","0.0-6.0-2.34","FL","7jmcv9rt87","1280","720","en","nd05ff22","null","","","","learningBlock1","","","","<div style=""font-size:60px;""> </div>","null","FL","learning/Slide35.JPG","That was a bim.","",""
"","image-keyboard-response","112","332017","0.0-6.0-0.35","FL","7jmcv9rt87","1280","720","en","nd05ff22","null","","","","","","","","learning/Slide36.JPG","null","","","","",""
"","html-keyboard-response","113","333170","0.0-6.0-1.35","FL","7jmcv9rt87","1280","720","en","nd05ff22","null","","","","learningBlock1","","","","That was a dep.","null","","","","",""
"","html-keyboard-response","114","334171","0.0-6.0-2.35","FL","7jmcv9rt87","1280","720","en","nd05ff22","null","","","","learningBlock1","","","","<div style=""font-size:60px;""> </div>","null","FL","learning/Slide36.JPG","That was a dep.","",""
"","image-keyboard-response","115","334349","0.0-6.0-0.36","FL","7jmcv9rt87","1280","720","en","nd05ff22","null","","","","","","","","learning/Slide37.JPG","null","","","","",""
"","html-keyboard-response","116","335501","0.0-6.0-1.36","FL","7jmcv9rt87","1280","720","en","nd05ff22","null","","","","learningBlock1","","","","That was a tob.","null","","","","",""
"","html-keyboard-response","117","336503","0.0-6.0-2.36","FL","7jmcv9rt87","1280","720","en","nd05ff22","null","","","","learningBlock1","","","","<div style=""font-size:60px;""> </div>","null","FL","learning/Slide37.JPG","That was a tob.","",""
"","image-keyboard-response","118","336680","0.0-6.0-0.37","FL","7jmcv9rt87","1280","720","en","nd05ff22","null","","","","","","","","learning/Slide38.JPG","null","","","","",""
"","html-keyboard-response","119","337833","0.0-6.0-1.37","FL","7jmcv9rt87","1280","720","en","nd05ff22","null","","","","learningBlock1","","","","That was a wug.","null","","","","",""
"","html-keyboard-response","120","338835","0.0-6.0-2.37","FL","7jmcv9rt87","1280","720","en","nd05ff22","null","","","","learningBlock1","","","","<div style=""font-size:60px;""> </div>","null","FL","learning/Slide38.JPG","That was a wug.","",""
"","image-keyboard-response","121","339012","0.0-6.0-0.38","FL","7jmcv9rt87","1280","720","en","nd05ff22","null","","","","","","","","learning/Slide39.JPG","null","","","","",""
"","html-keyboard-response","122","340164","0.0-6.0-1.38","FL","7jmcv9rt87","1280","720","en","nd05ff22","null","","","","learningBlock1","","","","That was a bim.","null","","","","",""
"","html-keyboard-response","123","341166","0.0-6.0-2.38","FL","7jmcv9rt87","1280","720","en","nd05ff22","null","","","","learningBlock1","","","","<div style=""font-size:60px;""> </div>","null","FL","learning/Slide39.JPG","That was a bim.","",""
"","image-keyboard-response","124","341343","0.0-6.0-0.39","FL","7jmcv9rt87","1280","720","en","nd05ff22","null","","","","","","","","learning/Slide40.JPG","null","","","","",""
"","html-keyboard-response","125","342500","0.0-6.0-1.39","FL","7jmcv9rt87","1280","720","en","nd05ff22","null","","","","learningBlock1","","","","That was a tob.","null","","","","",""
"","html-keyboard-response","126","343501","0.0-6.0-2.39","FL","7jmcv9rt87","1280","720","en","nd05ff22","null","","","","learningBlock1","","","","<div style=""font-size:60px;""> </div>","null","FL","learning/Slide40.JPG","That was a tob.","",""
"","image-keyboard-response","127","343678","0.0-6.0-0.40","FL","7jmcv9rt87","1280","720","en","nd05ff22","null","","","","","","","","learning/Slide41.JPG","null","","","","",""
"","html-keyboard-response","128","344831","0.0-6.0-1.40","FL","7jmcv9rt87","1280","720","en","nd05ff22","null","","","","learningBlock1","","","","That was a bim.","null","","","","",""
"","html-keyboard-response","129","345833","0.0-6.0-2.40","FL","7jmcv9rt87","1280","720","en","nd05ff22","null","","","","learningBlock1","","","","<div style=""font-size:60px;""> </div>","null","FL","learning/Slide41.JPG","That was a bim.","",""
"","image-keyboard-response","130","346009","0.0-6.0-0.41","FL","7jmcv9rt87","1280","720","en","nd05ff22","null","","","","","","","","learning/Slide42.JPG","null","","","","",""
"","html-keyboard-response","131","347162","0.0-6.0-1.41","FL","7jmcv9rt87","1280","720","en","nd05ff22","null","","","","learningBlock1","","","","That was a dep.","null","","","","",""
"","html-keyboard-response","132","348163","0.0-6.0-2.41","FL","7jmcv9rt87","1280","720","en","nd05ff22","null","","","","learningBlock1","","","","<div style=""font-size:60px;""> </div>","null","FL","learning/Slide42.JPG","That was a dep.","",""
"","image-keyboard-response","133","348341","0.0-6.0-0.42","FL","7jmcv9rt87","1280","720","en","nd05ff22","null","","","","","","","","learning/Slide43.JPG","null","","","","",""
"","html-keyboard-response","134","349493","0.0-6.0-1.42","FL","7jmcv9rt87","1280","720","en","nd05ff22","null","","","","learningBlock1","","","","That was a wug.","null","","","","",""
"","html-keyboard-response","135","350495","0.0-6.0-2.42","FL","7jmcv9rt87","1280","720","en","nd05ff22","null","","","","learningBlock1","","","","<div style=""font-size:60px;""> </div>","null","FL","learning/Slide43.JPG","That was a wug.","",""
"","image-keyboard-response","136","350672","0.0-6.0-0.43","FL","7jmcv9rt87","1280","720","en","nd05ff22","null","","","","","","","","learning/Slide44.JPG","null","","","","",""
"","html-keyboard-response","137","351824","0.0-6.0-1.43","FL","7jmcv9rt87","1280","720","en","nd05ff22","null","","","","learningBlock1","","","","That was a bim.","null","","","","",""
"","html-keyboard-response","138","352826","0.0-6.0-2.43","FL","7jmcv9rt87","1280","720","en","nd05ff22","null","","","","learningBlock1","","","","<div style=""font-size:60px;""> </div>","null","FL","learning/Slide44.JPG","That was a bim.","",""
"","image-keyboard-response","139","353003","0.0-6.0-0.44","FL","7jmcv9rt87","1280","720","en","nd05ff22","null","","","","","","","","learning/Slide45.JPG","null","","","","",""
"","html-keyboard-response","140","354156","0.0-6.0-1.44","FL","7jmcv9rt87","1280","720","en","nd05ff22","null","","","","learningBlock1","","","","That was a wug.","null","","","","",""
"","html-keyboard-response","141","355158","0.0-6.0-2.44","FL","7jmcv9rt87","1280","720","en","nd05ff22","null","","","","learningBlock1","","","","<div style=""font-size:60px;""> </div>","null","FL","learning/Slide45.JPG","That was a wug.","",""
"","image-keyboard-response","142","355334","0.0-6.0-0.45","FL","7jmcv9rt87","1280","720","en","nd05ff22","null","","","","","","","","learning/Slide46.JPG","null","","","","",""
"","html-keyboard-response","143","356487","0.0-6.0-1.45","FL","7jmcv9rt87","1280","720","en","nd05ff22","null","","","","learningBlock1","","","","That was a dep.","null","","","","",""
"","html-keyboard-response","144","357489","0.0-6.0-2.45","FL","7jmcv9rt87","1280","720","en","nd05ff22","null","","","","learningBlock1","","","","<div style=""font-size:60px;""> </div>","null","FL","learning/Slide46.JPG","That was a dep.","",""
"","image-keyboard-response","145","357666","0.0-6.0-0.46","FL","7jmcv9rt87","1280","720","en","nd05ff22","null","","","","","","","","learning/Slide47.JPG","null","","","","",""
"","html-keyboard-response","146","358818","0.0-6.0-1.46","FL","7jmcv9rt87","1280","720","en","nd05ff22","null","","","","learningBlock1","","","","That was a tob.","null","","","","",""
"","html-keyboard-response","147","359820","0.0-6.0-2.46","FL","7jmcv9rt87","1280","720","en","nd05ff22","null","","","","learningBlock1","","","","<div style=""font-size:60px;""> </div>","null","FL","learning/Slide47.JPG","That was a tob.","",""
"","image-keyboard-response","148","359996","0.0-6.0-0.47","FL","7jmcv9rt87","1280","720","en","nd05ff22","null","","","","","","","","learning/Slide48.JPG","null","","","","",""
"","html-keyboard-response","149","361149","0.0-6.0-1.47","FL","7jmcv9rt87","1280","720","en","nd05ff22","null","","","","learningBlock1","","","","That was a bim.","null","","","","",""
"","html-keyboard-response","150","362151","0.0-6.0-2.47","FL","7jmcv9rt87","1280","720","en","nd05ff22","null","","","","learningBlock1","","","","<div style=""font-size:60px;""> </div>","null","FL","learning/Slide48.JPG","That was a bim.","",""
"","image-keyboard-response","151","362328","0.0-6.0-0.48","FL","7jmcv9rt87","1280","720","en","nd05ff22","null","","","","","","","","learning/Slide49.JPG","null","","","","",""
"","html-keyboard-response","152","363481","0.0-6.0-1.48","FL","7jmcv9rt87","1280","720","en","nd05ff22","null","","","","learningBlock1","","","","That was a dep.","null","","","","",""
"","html-keyboard-response","153","364483","0.0-6.0-2.48","FL","7jmcv9rt87","1280","720","en","nd05ff22","null","","","","learningBlock1","","","","<div style=""font-size:60px;""> </div>","null","FL","learning/Slide49.JPG","That was a dep.","",""
"","image-keyboard-response","154","364661","0.0-6.0-0.49","FL","7jmcv9rt87","1280","720","en","nd05ff22","null","","","","","","","","learning/Slide50.JPG","null","","","","",""
"","html-keyboard-response","155","365813","0.0-6.0-1.49","FL","7jmcv9rt87","1280","720","en","nd05ff22","null","","","","learningBlock1","","","","That was a tob.","null","","","","",""
"","html-keyboard-response","156","366814","0.0-6.0-2.49","FL","7jmcv9rt87","1280","720","en","nd05ff22","null","","","","learningBlock1","","","","<div style=""font-size:60px;""> </div>","null","FL","learning/Slide50.JPG","That was a tob.","",""
"","image-keyboard-response","157","366991","0.0-6.0-0.50","FL","7jmcv9rt87","1280","720","en","nd05ff22","null","","","","","","","","learning/Slide51.JPG","null","","","","",""
"","html-keyboard-response","158","368144","0.0-6.0-1.50","FL","7jmcv9rt87","1280","720","en","nd05ff22","null","","","","learningBlock1","","","","That was a bim.","null","","","","",""
"","html-keyboard-response","159","369145","0.0-6.0-2.50","FL","7jmcv9rt87","1280","720","en","nd05ff22","null","","","","learningBlock1","","","","<div style=""font-size:60px;""> </div>","null","FL","learning/Slide51.JPG","That was a bim.","",""
"","image-keyboard-response","160","369322","0.0-6.0-0.51","FL","7jmcv9rt87","1280","720","en","nd05ff22","null","","","","","","","","learning/Slide52.JPG","null","","","","",""
"","html-keyboard-response","161","370475","0.0-6.0-1.51","FL","7jmcv9rt87","1280","720","en","nd05ff22","null","","","","learningBlock1","","","","That was a wug.","null","","","","",""
"","html-keyboard-response","162","371476","0.0-6.0-2.51","FL","7jmcv9rt87","1280","720","en","nd05ff22","null","","","","learningBlock1","","","","<div style=""font-size:60px;""> </div>","null","FL","learning/Slide52.JPG","That was a wug.","",""
"","image-keyboard-response","163","371654","0.0-6.0-0.52","FL","7jmcv9rt87","1280","720","en","nd05ff22","null","","","","","","","","learning/Slide53.JPG","null","","","","",""
"","html-keyboard-response","164","372805","0.0-6.0-1.52","FL","7jmcv9rt87","1280","720","en","nd05ff22","null","","","","learningBlock1","","","","That was a tob.","null","","","","",""
"","html-keyboard-response","165","373808","0.0-6.0-2.52","FL","7jmcv9rt87","1280","720","en","nd05ff22","null","","","","learningBlock1","","","","<div style=""font-size:60px;""> </div>","null","FL","learning/Slide53.JPG","That was a tob.","",""
"","image-keyboard-response","166","373986","0.0-6.0-0.53","FL","7jmcv9rt87","1280","720","en","nd05ff22","null","","","","","","","","learning/Slide54.JPG","null","","","","",""
"","html-keyboard-response","167","375138","0.0-6.0-1.53","FL","7jmcv9rt87","1280","720","en","nd05ff22","null","","","","learningBlock1","","","","That was a dep.","null","","","","",""
"","html-keyboard-response","168","376140","0.0-6.0-2.53","FL","7jmcv9rt87","1280","720","en","nd05ff22","null","","","","learningBlock1","","","","<div style=""font-size:60px;""> </div>","null","FL","learning/Slide54.JPG","That was a dep.","",""
"","image-keyboard-response","169","376317","0.0-6.0-0.54","FL","7jmcv9rt87","1280","720","en","nd05ff22","null","","","","","","","","learning/Slide55.JPG","null","","","","",""
"","html-keyboard-response","170","377469","0.0-6.0-1.54","FL","7jmcv9rt87","1280","720","en","nd05ff22","null","","","","learningBlock1","","","","That was a bim.","null","","","","",""
"","html-keyboard-response","171","378471","0.0-6.0-2.54","FL","7jmcv9rt87","1280","720","en","nd05ff22","null","","","","learningBlock1","","","","<div style=""font-size:60px;""> </div>","null","FL","learning/Slide55.JPG","That was a bim.","",""
"","image-keyboard-response","172","378648","0.0-6.0-0.55","FL","7jmcv9rt87","1280","720","en","nd05ff22","null","","","","","","","","learning/Slide56.JPG","null","","","","",""
"","html-keyboard-response","173","379800","0.0-6.0-1.55","FL","7jmcv9rt87","1280","720","en","nd05ff22","null","","","","learningBlock1","","","","That was a tob.","null","","","","",""
"","html-keyboard-response","174","380802","0.0-6.0-2.55","FL","7jmcv9rt87","1280","720","en","nd05ff22","null","","","","learningBlock1","","","","<div style=""font-size:60px;""> </div>","null","FL","learning/Slide56.JPG","That was a tob.","",""
"","image-keyboard-response","175","380980","0.0-6.0-0.56","FL","7jmcv9rt87","1280","720","en","nd05ff22","null","","","","","","","","learning/Slide57.JPG","null","","","","",""
"","html-keyboard-response","176","382131","0.0-6.0-1.56","FL","7jmcv9rt87","1280","720","en","nd05ff22","null","","","","learningBlock1","","","","That was a dep.","null","","","","",""
"","html-keyboard-response","177","383133","0.0-6.0-2.56","FL","7jmcv9rt87","1280","720","en","nd05ff22","null","","","","learningBlock1","","","","<div style=""font-size:60px;""> </div>","null","FL","learning/Slide57.JPG","That was a dep.","",""
"","image-keyboard-response","178","383309","0.0-6.0-0.57","FL","7jmcv9rt87","1280","720","en","nd05ff22","null","","","","","","","","learning/Slide58.JPG","null","","","","",""
"","html-keyboard-response","179","384462","0.0-6.0-1.57","FL","7jmcv9rt87","1280","720","en","nd05ff22","null","","","","learningBlock1","","","","That was a wug.","null","","","","",""
"","html-keyboard-response","180","385464","0.0-6.0-2.57","FL","7jmcv9rt87","1280","720","en","nd05ff22","null","","","","learningBlock1","","","","<div style=""font-size:60px;""> </div>","null","FL","learning/Slide58.JPG","That was a wug.","",""
"","image-keyboard-response","181","385641","0.0-6.0-0.58","FL","7jmcv9rt87","1280","720","en","nd05ff22","null","","","","","","","","learning/Slide59.JPG","null","","","","",""
"","html-keyboard-response","182","386795","0.0-6.0-1.58","FL","7jmcv9rt87","1280","720","en","nd05ff22","null","","","","learningBlock1","","","","That was a dep.","null","","","","",""
"","html-keyboard-response","183","387796","0.0-6.0-2.58","FL","7jmcv9rt87","1280","720","en","nd05ff22","null","","","","learningBlock1","","","","<div style=""font-size:60px;""> </div>","null","FL","learning/Slide59.JPG","That was a dep.","",""
"","image-keyboard-response","184","387973","0.0-6.0-0.59","FL","7jmcv9rt87","1280","720","en","nd05ff22","null","","","","","","","","learning/Slide60.JPG","null","","","","",""
"","html-keyboard-response","185","389126","0.0-6.0-1.59","FL","7jmcv9rt87","1280","720","en","nd05ff22","null","","","","learningBlock1","","","","That was a wug.","null","","","","",""
"","html-keyboard-response","186","390127","0.0-6.0-2.59","FL","7jmcv9rt87","1280","720","en","nd05ff22","null","","","","learningBlock1","","","","<div style=""font-size:60px;""> </div>","null","FL","learning/Slide60.JPG","That was a wug.","",""
"","image-keyboard-response","187","390305","0.0-6.0-0.60","FL","7jmcv9rt87","1280","720","en","nd05ff22","null","","","","","","","","learning/Slide61.JPG","null","","","","",""
"","html-keyboard-response","188","391457","0.0-6.0-1.60","FL","7jmcv9rt87","1280","720","en","nd05ff22","null","","","","learningBlock1","","","","That was a bim.","null","","","","",""
"","html-keyboard-response","189","392459","0.0-6.0-2.60","FL","7jmcv9rt87","1280","720","en","nd05ff22","null","","","","learningBlock1","","","","<div style=""font-size:60px;""> </div>","null","FL","learning/Slide61.JPG","That was a bim.","",""
"","image-keyboard-response","190","392636","0.0-6.0-0.61","FL","7jmcv9rt87","1280","720","en","nd05ff22","null","","","","","","","","learning/Slide62.JPG","null","","","","",""
"","html-keyboard-response","191","393788","0.0-6.0-1.61","FL","7jmcv9rt87","1280","720","en","nd05ff22","null","","","","learningBlock1","","","","That was a dep.","null","","","","",""
"","html-keyboard-response","192","394790","0.0-6.0-2.61","FL","7jmcv9rt87","1280","720","en","nd05ff22","null","","","","learningBlock1","","","","<div style=""font-size:60px;""> </div>","null","FL","learning/Slide62.JPG","That was a dep.","",""
"","image-keyboard-response","193","394968","0.0-6.0-0.62","FL","7jmcv9rt87","1280","720","en","nd05ff22","null","","","","","","","","learning/Slide63.JPG","null","","","","",""
"","html-keyboard-response","194","396121","0.0-6.0-1.62","FL","7jmcv9rt87","1280","720","en","nd05ff22","null","","","","learningBlock1","","","","That was a bim.","null","","","","",""
"","html-keyboard-response","195","397122","0.0-6.0-2.62","FL","7jmcv9rt87","1280","720","en","nd05ff22","null","","","","learningBlock1","","","","<div style=""font-size:60px;""> </div>","null","FL","learning/Slide63.JPG","That was a bim.","",""
"","image-keyboard-response","196","397299","0.0-6.0-0.63","FL","7jmcv9rt87","1280","720","en","nd05ff22","null","","","","","","","","learning/Slide64.JPG","null","","","","",""
"","html-keyboard-response","197","398451","0.0-6.0-1.63","FL","7jmcv9rt87","1280","720","en","nd05ff22","null","","","","learningBlock1","","","","That was a tob.","null","","","","",""
"","html-keyboard-response","198","399452","0.0-6.0-2.63","FL","7jmcv9rt87","1280","720","en","nd05ff22","null","","","","learningBlock1","","","","<div style=""font-size:60px;""> </div>","null","FL","learning/Slide64.JPG","That was a tob.","",""
"","image-keyboard-response","199","399629","0.0-6.0-0.64","FL","7jmcv9rt87","1280","720","en","nd05ff22","null","","","","","","","","learning/Slide65.JPG","null","","","","",""
"","html-keyboard-response","200","400781","0.0-6.0-1.64","FL","7jmcv9rt87","1280","720","en","nd05ff22","null","","","","learningBlock1","","","","That was a wug.","null","","","","",""
"","html-keyboard-response","201","401783","0.0-6.0-2.64","FL","7jmcv9rt87","1280","720","en","nd05ff22","null","","","","learningBlock1","","","","<div style=""font-size:60px;""> </div>","null","FL","learning/Slide65.JPG","That was a wug.","",""
"","image-keyboard-response","202","401959","0.0-6.0-0.65","FL","7jmcv9rt87","1280","720","en","nd05ff22","null","","","","","","","","learning/Slide66.JPG","null","","","","",""
"","html-keyboard-response","203","403112","0.0-6.0-1.65","FL","7jmcv9rt87","1280","720","en","nd05ff22","null","","","","learningBlock1","","","","That was a dep.","null","","","","",""
"","html-keyboard-response","204","404113","0.0-6.0-2.65","FL","7jmcv9rt87","1280","720","en","nd05ff22","null","","","","learningBlock1","","","","<div style=""font-size:60px;""> </div>","null","FL","learning/Slide66.JPG","That was a dep.","",""
"","image-keyboard-response","205","404290","0.0-6.0-0.66","FL","7jmcv9rt87","1280","720","en","nd05ff22","null","","","","","","","","learning/Slide67.JPG","null","","","","",""
"","html-keyboard-response","206","405443","0.0-6.0-1.66","FL","7jmcv9rt87","1280","720","en","nd05ff22","null","","","","learningBlock1","","","","That was a tob.","null","","","","",""
"","html-keyboard-response","207","406444","0.0-6.0-2.66","FL","7jmcv9rt87","1280","720","en","nd05ff22","null","","","","learningBlock1","","","","<div style=""font-size:60px;""> </div>","null","FL","learning/Slide67.JPG","That was a tob.","",""
"","image-keyboard-response","208","406621","0.0-6.0-0.67","FL","7jmcv9rt87","1280","720","en","nd05ff22","null","","","","","","","","learning/Slide68.JPG","null","","","","",""
"","html-keyboard-response","209","407774","0.0-6.0-1.67","FL","7jmcv9rt87","1280","720","en","nd05ff22","null","","","","learningBlock1","","","","That was a wug.","null","","","","",""
"","html-keyboard-response","210","408776","0.0-6.0-2.67","FL","7jmcv9rt87","1280","720","en","nd05ff22","null","","","","learningBlock1","","","","<div style=""font-size:60px;""> </div>","null","FL","learning/Slide68.JPG","That was a wug.","",""
"","image-keyboard-response","211","408953","0.0-6.0-0.68","FL","7jmcv9rt87","1280","720","en","nd05ff22","null","","","","","","","","learning/Slide69.JPG","null","","","","",""
"","html-keyboard-response","212","410106","0.0-6.0-1.68","FL","7jmcv9rt87","1280","720","en","nd05ff22","null","","","","learningBlock1","","","","That was a tob.","null","","","","",""
"","html-keyboard-response","213","411108","0.0-6.0-2.68","FL","7jmcv9rt87","1280","720","en","nd05ff22","null","","","","learningBlock1","","","","<div style=""font-size:60px;""> </div>","null","FL","learning/Slide69.JPG","That was a tob.","",""
"","image-keyboard-response","214","411284","0.0-6.0-0.69","FL","7jmcv9rt87","1280","720","en","nd05ff22","null","","","","","","","","learning/Slide70.JPG","null","","","","",""
"","html-keyboard-response","215","412437","0.0-6.0-1.69","FL","7jmcv9rt87","1280","720","en","nd05ff22","null","","","","learningBlock1","","","","That was a dep.","null","","","","",""
"","html-keyboard-response","216","413439","0.0-6.0-2.69","FL","7jmcv9rt87","1280","720","en","nd05ff22","null","","","","learningBlock1","","","","<div style=""font-size:60px;""> </div>","null","FL","learning/Slide70.JPG","That was a dep.","",""
"","image-keyboard-response","217","413616","0.0-6.0-0.70","FL","7jmcv9rt87","1280","720","en","nd05ff22","null","","","","","","","","learning/Slide71.JPG","null","","","","",""
"","html-keyboard-response","218","414768","0.0-6.0-1.70","FL","7jmcv9rt87","1280","720","en","nd05ff22","null","","","","learningBlock1","","","","That was a wug.","null","","","","",""
"","html-keyboard-response","219","415770","0.0-6.0-2.70","FL","7jmcv9rt87","1280","720","en","nd05ff22","null","","","","learningBlock1","","","","<div style=""font-size:60px;""> </div>","null","FL","learning/Slide71.JPG","That was a wug.","",""
"","image-keyboard-response","220","415947","0.0-6.0-0.71","FL","7jmcv9rt87","1280","720","en","nd05ff22","null","","","","","","","","learning/Slide72.JPG","null","","","","",""
"","html-keyboard-response","221","417100","0.0-6.0-1.71","FL","7jmcv9rt87","1280","720","en","nd05ff22","null","","","","learningBlock1","","","","That was a bim.","null","","","","",""
"","html-keyboard-response","222","418102","0.0-6.0-2.71","FL","7jmcv9rt87","1280","720","en","nd05ff22","null","","","","learningBlock1","","","","<div style=""font-size:60px;""> </div>","null","FL","learning/Slide72.JPG","That was a bim.","",""
"","image-keyboard-response","223","418279","0.0-6.0-0.72","FL","7jmcv9rt87","1280","720","en","nd05ff22","null","","","","","","","","learning/Slide73.JPG","null","","","","",""
"","html-keyboard-response","224","419431","0.0-6.0-1.72","FL","7jmcv9rt87","1280","720","en","nd05ff22","null","","","","learningBlock1","","","","That was a wug.","null","","","","",""
"","html-keyboard-response","225","420433","0.0-6.0-2.72","FL","7jmcv9rt87","1280","720","en","nd05ff22","null","","","","learningBlock1","","","","<div style=""font-size:60px;""> </div>","null","FL","learning/Slide73.JPG","That was a wug.","",""
"","image-keyboard-response","226","420610","0.0-6.0-0.73","FL","7jmcv9rt87","1280","720","en","nd05ff22","null","","","","","","","","learning/Slide74.JPG","null","","","","",""
"","html-keyboard-response","227","421763","0.0-6.0-1.73","FL","7jmcv9rt87","1280","720","en","nd05ff22","null","","","","learningBlock1","","","","That was a dep.","null","","","","",""
"","html-keyboard-response","228","422764","0.0-6.0-2.73","FL","7jmcv9rt87","1280","720","en","nd05ff22","null","","","","learningBlock1","","","","<div style=""font-size:60px;""> </div>","null","FL","learning/Slide74.JPG","That was a dep.","",""
"","image-keyboard-response","229","422941","0.0-6.0-0.74","FL","7jmcv9rt87","1280","720","en","nd05ff22","null","","","","","","","","learning/Slide75.JPG","null","","","","",""
"","html-keyboard-response","230","424092","0.0-6.0-1.74","FL","7jmcv9rt87","1280","720","en","nd05ff22","null","","","","learningBlock1","","","","That was a tob.","null","","","","",""
"","html-keyboard-response","231","425093","0.0-6.0-2.74","FL","7jmcv9rt87","1280","720","en","nd05ff22","null","","","","learningBlock1","","","","<div style=""font-size:60px;""> </div>","null","FL","learning/Slide75.JPG","That was a tob.","",""
"","image-keyboard-response","232","425271","0.0-6.0-0.75","FL","7jmcv9rt87","1280","720","en","nd05ff22","null","","","","","","","","learning/Slide76.JPG","null","","","","",""
"","html-keyboard-response","233","426423","0.0-6.0-1.75","FL","7jmcv9rt87","1280","720","en","nd05ff22","null","","","","learningBlock1","","","","That was a bim.","null","","","","",""
"","html-keyboard-response","234","427424","0.0-6.0-2.75","FL","7jmcv9rt87","1280","720","en","nd05ff22","null","","","","learningBlock1","","","","<div style=""font-size:60px;""> </div>","null","FL","learning/Slide76.JPG","That was a bim.","",""
"","image-keyboard-response","235","427601","0.0-6.0-0.76","FL","7jmcv9rt87","1280","720","en","nd05ff22","null","","","","","","","","learning/Slide77.JPG","null","","","","",""
"","html-keyboard-response","236","428754","0.0-6.0-1.76","FL","7jmcv9rt87","1280","720","en","nd05ff22","null","","","","learningBlock1","","","","That was a tob.","null","","","","",""
"","html-keyboard-response","237","429755","0.0-6.0-2.76","FL","7jmcv9rt87","1280","720","en","nd05ff22","null","","","","learningBlock1","","","","<div style=""font-size:60px;""> </div>","null","FL","learning/Slide77.JPG","That was a tob.","",""
"","image-keyboard-response","238","429932","0.0-6.0-0.77","FL","7jmcv9rt87","1280","720","en","nd05ff22","null","","","","","","","","learning/Slide78.JPG","null","","","","",""
"","html-keyboard-response","239","431085","0.0-6.0-1.77","FL","7jmcv9rt87","1280","720","en","nd05ff22","null","","","","learningBlock1","","","","That was a wug.","null","","","","",""
"","html-keyboard-response","240","432086","0.0-6.0-2.77","FL","7jmcv9rt87","1280","720","en","nd05ff22","null","","","","learningBlock1","","","","<div style=""font-size:60px;""> </div>","null","FL","learning/Slide78.JPG","That was a wug.","",""
"","image-keyboard-response","241","432263","0.0-6.0-0.78","FL","7jmcv9rt87","1280","720","en","nd05ff22","null","","","","","","","","learning/Slide79.JPG","null","","","","",""
"","html-keyboard-response","242","433416","0.0-6.0-1.78","FL","7jmcv9rt87","1280","720","en","nd05ff22","null","","","","learningBlock1","","","","That was a bim.","null","","","","",""
"","html-keyboard-response","243","434418","0.0-6.0-2.78","FL","7jmcv9rt87","1280","720","en","nd05ff22","null","","","","learningBlock1","","","","<div style=""font-size:60px;""> </div>","null","FL","learning/Slide79.JPG","That was a bim.","",""
"","image-keyboard-response","244","434595","0.0-6.0-0.79","FL","7jmcv9rt87","1280","720","en","nd05ff22","null","","","","","","","","learning/Slide80.JPG","null","","","","",""
"","html-keyboard-response","245","435749","0.0-6.0-1.79","FL","7jmcv9rt87","1280","720","en","nd05ff22","null","","","","learningBlock1","","","","That was a tob.","null","","","","",""
"","html-keyboard-response","246","436750","0.0-6.0-2.79","FL","7jmcv9rt87","1280","720","en","nd05ff22","null","","","","learningBlock1","","","","<div style=""font-size:60px;""> </div>","null","FL","learning/Slide80.JPG","That was a tob.","",""
"","instructions","247","442157","0.0-7.0","FL","7jmcv9rt87","1280","720","en","nd05ff22","NA","","","[{""page_index"":0,""viewing_time"":5405.950000043958}]","instructions","","","","","","","","","",""
"","image-keyboard-response","248","442334","0.0-8.0-0.0","FL","7jmcv9rt87","1280","720","en","nd05ff22","null","","","","","","","","learning/Slide81.JPG","null","","","","",""
"","html-keyboard-response","249","443486","0.0-8.0-1.0","FL","7jmcv9rt87","1280","720","en","nd05ff22","null","","","","learningBlock2","","","","That was a wug.","null","","","","",""
"","html-keyboard-response","250","444487","0.0-8.0-2.0","FL","7jmcv9rt87","1280","720","en","nd05ff22","null","","","","learningBlock2","","","","<div style=""font-size:60px;""> </div>","null","FL","learning/Slide81.JPG","That was a wug.","",""
"","image-keyboard-response","251","444664","0.0-8.0-0.1","FL","7jmcv9rt87","1280","720","en","nd05ff22","null","","","","","","","","learning/Slide82.JPG","null","","","","",""
"","html-keyboard-response","252","445817","0.0-8.0-1.1","FL","7jmcv9rt87","1280","720","en","nd05ff22","null","","","","learningBlock2","","","","That was a bim.","null","","","","",""
"","html-keyboard-response","253","446818","0.0-8.0-2.1","FL","7jmcv9rt87","1280","720","en","nd05ff22","null","","","","learningBlock2","","","","<div style=""font-size:60px;""> </div>","null","FL","learning/Slide82.JPG","That was a bim.","",""
"","image-keyboard-response","254","446996","0.0-8.0-0.2","FL","7jmcv9rt87","1280","720","en","nd05ff22","null","","","","","","","","learning/Slide83.JPG","null","","","","",""
"","html-keyboard-response","255","448148","0.0-8.0-1.2","FL","7jmcv9rt87","1280","720","en","nd05ff22","null","","","","learningBlock2","","","","That was a wug.","null","","","","",""
"","html-keyboard-response","256","449150","0.0-8.0-2.2","FL","7jmcv9rt87","1280","720","en","nd05ff22","null","","","","learningBlock2","","","","<div style=""font-size:60px;""> </div>","null","FL","learning/Slide83.JPG","That was a wug.","",""
"","image-keyboard-response","257","449327","0.0-8.0-0.3","FL","7jmcv9rt87","1280","720","en","nd05ff22","null","","","","","","","","learning/Slide84.JPG","null","","","","",""
"","html-keyboard-response","258","450478","0.0-8.0-1.3","FL","7jmcv9rt87","1280","720","en","nd05ff22","null","","","","learningBlock2","","","","That was a dep.","null","","","","",""
"","html-keyboard-response","259","451480","0.0-8.0-2.3","FL","7jmcv9rt87","1280","720","en","nd05ff22","null","","","","learningBlock2","","","","<div style=""font-size:60px;""> </div>","null","FL","learning/Slide84.JPG","That was a dep.","",""
"","image-keyboard-response","260","451657","0.0-8.0-0.4","FL","7jmcv9rt87","1280","720","en","nd05ff22","null","","","","","","","","learning/Slide85.JPG","null","","","","",""
"","html-keyboard-response","261","452809","0.0-8.0-1.4","FL","7jmcv9rt87","1280","720","en","nd05ff22","null","","","","learningBlock2","","","","That was a bim.","null","","","","",""
"","html-keyboard-response","262","453811","0.0-8.0-2.4","FL","7jmcv9rt87","1280","720","en","nd05ff22","null","","","","learningBlock2","","","","<div style=""font-size:60px;""> </div>","null","FL","learning/Slide85.JPG","That was a bim.","",""
"","image-keyboard-response","263","453988","0.0-8.0-0.5","FL","7jmcv9rt87","1280","720","en","nd05ff22","null","","","","","","","","learning/Slide86.JPG","null","","","","",""
"","html-keyboard-response","264","455140","0.0-8.0-1.5","FL","7jmcv9rt87","1280","720","en","nd05ff22","null","","","","learningBlock2","","","","That was a tob.","null","","","","",""
"","html-keyboard-response","265","456142","0.0-8.0-2.5","FL","7jmcv9rt87","1280","720","en","nd05ff22","null","","","","learningBlock2","","","","<div style=""font-size:60px;""> </div>","null","FL","learning/Slide86.JPG","That was a tob.","",""
"","image-keyboard-response","266","456319","0.0-8.0-0.6","FL","7jmcv9rt87","1280","720","en","nd05ff22","null","","","","","","","","learning/Slide87.JPG","null","","","","",""
"","html-keyboard-response","267","457472","0.0-8.0-1.6","FL","7jmcv9rt87","1280","720","en","nd05ff22","null","","","","learningBlock2","","","","That was a wug.","null","","","","",""
"","html-keyboard-response","268","458474","0.0-8.0-2.6","FL","7jmcv9rt87","1280","720","en","nd05ff22","null","","","","learningBlock2","","","","<div style=""font-size:60px;""> </div>","null","FL","learning/Slide87.JPG","That was a wug.","",""
"","image-keyboard-response","269","458651","0.0-8.0-0.7","FL","7jmcv9rt87","1280","720","en","nd05ff22","null","","","","","","","","learning/Slide88.JPG","null","","","","",""
"","html-keyboard-response","270","459803","0.0-8.0-1.7","FL","7jmcv9rt87","1280","720","en","nd05ff22","null","","","","learningBlock2","","","","That was a tob.","null","","","","",""
"","html-keyboard-response","271","460805","0.0-8.0-2.7","FL","7jmcv9rt87","1280","720","en","nd05ff22","null","","","","learningBlock2","","","","<div style=""font-size:60px;""> </div>","null","FL","learning/Slide88.JPG","That was a tob.","",""
"","image-keyboard-response","272","460982","0.0-8.0-0.8","FL","7jmcv9rt87","1280","720","en","nd05ff22","null","","","","","","","","learning/Slide89.JPG","null","","","","",""
"","html-keyboard-response","273","462134","0.0-8.0-1.8","FL","7jmcv9rt87","1280","720","en","nd05ff22","null","","","","learningBlock2","","","","That was a bim.","null","","","","",""
"","html-keyboard-response","274","463137","0.0-8.0-2.8","FL","7jmcv9rt87","1280","720","en","nd05ff22","null","","","","learningBlock2","","","","<div style=""font-size:60px;""> </div>","null","FL","learning/Slide89.JPG","That was a bim.","",""
"","image-keyboard-response","275","463314","0.0-8.0-0.9","FL","7jmcv9rt87","1280","720","en","nd05ff22","null","","","","","","","","learning/Slide90.JPG","null","","","","",""
"","html-keyboard-response","276","464466","0.0-8.0-1.9","FL","7jmcv9rt87","1280","720","en","nd05ff22","null","","","","learningBlock2","","","","That was a dep.","null","","","","",""
"","html-keyboard-response","277","465467","0.0-8.0-2.9","FL","7jmcv9rt87","1280","720","en","nd05ff22","null","","","","learningBlock2","","","","<div style=""font-size:60px;""> </div>","null","FL","learning/Slide90.JPG","That was a dep.","",""
"","image-keyboard-response","278","465645","0.0-8.0-0.10","FL","7jmcv9rt87","1280","720","en","nd05ff22","null","","","","","","","","learning/Slide91.JPG","null","","","","",""
"","html-keyboard-response","279","466797","0.0-8.0-1.10","FL","7jmcv9rt87","1280","720","en","nd05ff22","null","","","","learningBlock2","","","","That was a wug.","null","","","","",""
"","html-keyboard-response","280","467799","0.0-8.0-2.10","FL","7jmcv9rt87","1280","720","en","nd05ff22","null","","","","learningBlock2","","","","<div style=""font-size:60px;""> </div>","null","FL","learning/Slide91.JPG","That was a wug.","",""
"","image-keyboard-response","281","467975","0.0-8.0-0.11","FL","7jmcv9rt87","1280","720","en","nd05ff22","null","","","","","","","","learning/Slide92.JPG","null","","","","",""
"","html-keyboard-response","282","469128","0.0-8.0-1.11","FL","7jmcv9rt87","1280","720","en","nd05ff22","null","","","","learningBlock2","","","","That was a tob.","null","","","","",""
"","html-keyboard-response","283","470129","0.0-8.0-2.11","FL","7jmcv9rt87","1280","720","en","nd05ff22","null","","","","learningBlock2","","","","<div style=""font-size:60px;""> </div>","null","FL","learning/Slide92.JPG","That was a tob.","",""
"","image-keyboard-response","284","470305","0.0-8.0-0.12","FL","7jmcv9rt87","1280","720","en","nd05ff22","null","","","","","","","","learning/Slide93.JPG","null","","","","",""
"","html-keyboard-response","285","471458","0.0-8.0-1.12","FL","7jmcv9rt87","1280","720","en","nd05ff22","null","","","","learningBlock2","","","","That was a bim.","null","","","","",""
"","html-keyboard-response","286","472460","0.0-8.0-2.12","FL","7jmcv9rt87","1280","720","en","nd05ff22","null","","","","learningBlock2","","","","<div style=""font-size:60px;""> </div>","null","FL","learning/Slide93.JPG","That was a bim.","",""
"","image-keyboard-response","287","472637","0.0-8.0-0.13","FL","7jmcv9rt87","1280","720","en","nd05ff22","null","","","","","","","","learning/Slide94.JPG","null","","","","",""
"","html-keyboard-response","288","473790","0.0-8.0-1.13","FL","7jmcv9rt87","1280","720","en","nd05ff22","null","","","","learningBlock2","","","","That was a tob.","null","","","","",""
"","html-keyboard-response","289","474791","0.0-8.0-2.13","FL","7jmcv9rt87","1280","720","en","nd05ff22","null","","","","learningBlock2","","","","<div style=""font-size:60px;""> </div>","null","FL","learning/Slide94.JPG","That was a tob.","",""
"","image-keyboard-response","290","474968","0.0-8.0-0.14","FL","7jmcv9rt87","1280","720","en","nd05ff22","null","","","","","","","","learning/Slide95.JPG","null","","","","",""
"","html-keyboard-response","291","476121","0.0-8.0-1.14","FL","7jmcv9rt87","1280","720","en","nd05ff22","null","","","","learningBlock2","","","","That was a wug.","null","","","","",""
"","html-keyboard-response","292","477122","0.0-8.0-2.14","FL","7jmcv9rt87","1280","720","en","nd05ff22","null","","","","learningBlock2","","","","<div style=""font-size:60px;""> </div>","null","FL","learning/Slide95.JPG","That was a wug.","",""
"","image-keyboard-response","293","477299","0.0-8.0-0.15","FL","7jmcv9rt87","1280","720","en","nd05ff22","null","","","","","","","","learning/Slide96.JPG","null","","","","",""
"","html-keyboard-response","294","478451","0.0-8.0-1.15","FL","7jmcv9rt87","1280","720","en","nd05ff22","null","","","","learningBlock2","","","","That was a tob.","null","","","","",""
"","html-keyboard-response","295","479452","0.0-8.0-2.15","FL","7jmcv9rt87","1280","720","en","nd05ff22","null","","","","learningBlock2","","","","<div style=""font-size:60px;""> </div>","null","FL","learning/Slide96.JPG","That was a tob.","",""
"","image-keyboard-response","296","479629","0.0-8.0-0.16","FL","7jmcv9rt87","1280","720","en","nd05ff22","null","","","","","","","","learning/Slide97.JPG","null","","","","",""
"","html-keyboard-response","297","480780","0.0-8.0-1.16","FL","7jmcv9rt87","1280","720","en","nd05ff22","null","","","","learningBlock2","","","","That was a dep.","null","","","","",""
"","html-keyboard-response","298","481781","0.0-8.0-2.16","FL","7jmcv9rt87","1280","720","en","nd05ff22","null","","","","learningBlock2","","","","<div style=""font-size:60px;""> </div>","null","FL","learning/Slide97.JPG","That was a dep.","",""
"","image-keyboard-response","299","481958","0.0-8.0-0.17","FL","7jmcv9rt87","1280","720","en","nd05ff22","null","","","","","","","","learning/Slide98.JPG","null","","","","",""
"","html-keyboard-response","300","483111","0.0-8.0-1.17","FL","7jmcv9rt87","1280","720","en","nd05ff22","null","","","","learningBlock2","","","","That was a bim.","null","","","","",""
"","html-keyboard-response","301","484113","0.0-8.0-2.17","FL","7jmcv9rt87","1280","720","en","nd05ff22","null","","","","learningBlock2","","","","<div style=""font-size:60px;""> </div>","null","FL","learning/Slide98.JPG","That was a bim.","",""
"","image-keyboard-response","302","484291","0.0-8.0-0.18","FL","7jmcv9rt87","1280","720","en","nd05ff22","null","","","","","","","","learning/Slide99.JPG","null","","","","",""
"","html-keyboard-response","303","485443","0.0-8.0-1.18","FL","7jmcv9rt87","1280","720","en","nd05ff22","null","","","","learningBlock2","","","","That was a dep.","null","","","","",""
"","html-keyboard-response","304","486445","0.0-8.0-2.18","FL","7jmcv9rt87","1280","720","en","nd05ff22","null","","","","learningBlock2","","","","<div style=""font-size:60px;""> </div>","null","FL","learning/Slide99.JPG","That was a dep.","",""
"","image-keyboard-response","305","486621","0.0-8.0-0.19","FL","7jmcv9rt87","1280","720","en","nd05ff22","null","","","","","","","","learning/Slide100.JPG","null","","","","",""
"","html-keyboard-response","306","487773","0.0-8.0-1.19","FL","7jmcv9rt87","1280","720","en","nd05ff22","null","","","","learningBlock2","","","","That was a bim.","null","","","","",""
"","html-keyboard-response","307","488774","0.0-8.0-2.19","FL","7jmcv9rt87","1280","720","en","nd05ff22","null","","","","learningBlock2","","","","<div style=""font-size:60px;""> </div>","null","FL","learning/Slide100.JPG","That was a bim.","",""
"","image-keyboard-response","308","488952","0.0-8.0-0.20","FL","7jmcv9rt87","1280","720","en","nd05ff22","null","","","","","","","","learning/Slide101.JPG","null","","","","",""
"","html-keyboard-response","309","490104","0.0-8.0-1.20","FL","7jmcv9rt87","1280","720","en","nd05ff22","null","","","","learningBlock2","","","","That was a tob.","null","","","","",""
"","html-keyboard-response","310","491107","0.0-8.0-2.20","FL","7jmcv9rt87","1280","720","en","nd05ff22","null","","","","learningBlock2","","","","<div style=""font-size:60px;""> </div>","null","FL","learning/Slide101.JPG","That was a tob.","",""
"","image-keyboard-response","311","491284","0.0-8.0-0.21","FL","7jmcv9rt87","1280","720","en","nd05ff22","null","","","","","","","","learning/Slide102.JPG","null","","","","",""
"","html-keyboard-response","312","492437","0.0-8.0-1.21","FL","7jmcv9rt87","1280","720","en","nd05ff22","null","","","","learningBlock2","","","","That was a bim.","null","","","","",""
"","html-keyboard-response","313","493439","0.0-8.0-2.21","FL","7jmcv9rt87","1280","720","en","nd05ff22","null","","","","learningBlock2","","","","<div style=""font-size:60px;""> </div>","null","FL","learning/Slide102.JPG","That was a bim.","",""
"","image-keyboard-response","314","493615","0.0-8.0-0.22","FL","7jmcv9rt87","1280","720","en","nd05ff22","null","","","","","","","","learning/Slide103.JPG","null","","","","",""
"","html-keyboard-response","315","494767","0.0-8.0-1.22","FL","7jmcv9rt87","1280","720","en","nd05ff22","null","","","","learningBlock2","","","","That was a dep.","null","","","","",""
"","html-keyboard-response","316","495769","0.0-8.0-2.22","FL","7jmcv9rt87","1280","720","en","nd05ff22","null","","","","learningBlock2","","","","<div style=""font-size:60px;""> </div>","null","FL","learning/Slide103.JPG","That was a dep.","",""
"","image-keyboard-response","317","495946","0.0-8.0-0.23","FL","7jmcv9rt87","1280","720","en","nd05ff22","null","","","","","","","","learning/Slide104.JPG","null","","","","",""
"","html-keyboard-response","318","497099","0.0-8.0-1.23","FL","7jmcv9rt87","1280","720","en","nd05ff22","null","","","","learningBlock2","","","","That was a tob.","null","","","","",""
"","html-keyboard-response","319","498100","0.0-8.0-2.23","FL","7jmcv9rt87","1280","720","en","nd05ff22","null","","","","learningBlock2","","","","<div style=""font-size:60px;""> </div>","null","FL","learning/Slide104.JPG","That was a tob.","",""
"","image-keyboard-response","320","498277","0.0-8.0-0.24","FL","7jmcv9rt87","1280","720","en","nd05ff22","null","","","","","","","","learning/Slide105.JPG","null","","","","",""
"","html-keyboard-response","321","499429","0.0-8.0-1.24","FL","7jmcv9rt87","1280","720","en","nd05ff22","null","","","","learningBlock2","","","","That was a dep.","null","","","","",""
"","html-keyboard-response","322","500432","0.0-8.0-2.24","FL","7jmcv9rt87","1280","720","en","nd05ff22","null","","","","learningBlock2","","","","<div style=""font-size:60px;""> </div>","null","FL","learning/Slide105.JPG","That was a dep.","",""
"","image-keyboard-response","323","500608","0.0-8.0-0.25","FL","7jmcv9rt87","1280","720","en","nd05ff22","null","","","","","","","","learning/Slide106.JPG","null","","","","",""
"","html-keyboard-response","324","501760","0.0-8.0-1.25","FL","7jmcv9rt87","1280","720","en","nd05ff22","null","","","","learningBlock2","","","","That was a wug.","null","","","","",""
"","html-keyboard-response","325","502761","0.0-8.0-2.25","FL","7jmcv9rt87","1280","720","en","nd05ff22","null","","","","learningBlock2","","","","<div style=""font-size:60px;""> </div>","null","FL","learning/Slide106.JPG","That was a wug.","",""
"","image-keyboard-response","326","502938","0.0-8.0-0.26","FL","7jmcv9rt87","1280","720","en","nd05ff22","null","","","","","","","","learning/Slide107.JPG","null","","","","",""
"","html-keyboard-response","327","504090","0.0-8.0-1.26","FL","7jmcv9rt87","1280","720","en","nd05ff22","null","","","","learningBlock2","","","","That was a bim.","null","","","","",""
"","html-keyboard-response","328","505092","0.0-8.0-2.26","FL","7jmcv9rt87","1280","720","en","nd05ff22","null","","","","learningBlock2","","","","<div style=""font-size:60px;""> </div>","null","FL","learning/Slide107.JPG","That was a bim.","",""
"","image-keyboard-response","329","505269","0.0-8.0-0.27","FL","7jmcv9rt87","1280","720","en","nd05ff22","null","","","","","","","","learning/Slide108.JPG","null","","","","",""
"","html-keyboard-response","330","506421","0.0-8.0-1.27","FL","7jmcv9rt87","1280","720","en","nd05ff22","null","","","","learningBlock2","","","","That was a dep.","null","","","","",""
"","html-keyboard-response","331","507422","0.0-8.0-2.27","FL","7jmcv9rt87","1280","720","en","nd05ff22","null","","","","learningBlock2","","","","<div style=""font-size:60px;""> </div>","null","FL","learning/Slide108.JPG","That was a dep.","",""
"","image-keyboard-response","332","507599","0.0-8.0-0.28","FL","7jmcv9rt87","1280","720","en","nd05ff22","null","","","","","","","","learning/Slide109.JPG","null","","","","",""
"","html-keyboard-response","333","508751","0.0-8.0-1.28","FL","7jmcv9rt87","1280","720","en","nd05ff22","null","","","","learningBlock2","","","","That was a wug.","null","","","","",""
"","html-keyboard-response","334","509753","0.0-8.0-2.28","FL","7jmcv9rt87","1280","720","en","nd05ff22","null","","","","learningBlock2","","","","<div style=""font-size:60px;""> </div>","null","FL","learning/Slide109.JPG","That was a wug.","",""
"","image-keyboard-response","335","509929","0.0-8.0-0.29","FL","7jmcv9rt87","1280","720","en","nd05ff22","null","","","","","","","","learning/Slide110.JPG","null","","","","",""
"","html-keyboard-response","336","511081","0.0-8.0-1.29","FL","7jmcv9rt87","1280","720","en","nd05ff22","null","","","","learningBlock2","","","","That was a bim.","null","","","","",""
"","html-keyboard-response","337","512083","0.0-8.0-2.29","FL","7jmcv9rt87","1280","720","en","nd05ff22","null","","","","learningBlock2","","","","<div style=""font-size:60px;""> </div>","null","FL","learning/Slide110.JPG","That was a bim.","",""
"","image-keyboard-response","338","512260","0.0-8.0-0.30","FL","7jmcv9rt87","1280","720","en","nd05ff22","null","","","","","","","","learning/Slide111.JPG","null","","","","",""
"","html-keyboard-response","339","513413","0.0-8.0-1.30","FL","7jmcv9rt87","1280","720","en","nd05ff22","null","","","","learningBlock2","","","","That was a tob.","null","","","","",""
"","html-keyboard-response","340","514415","0.0-8.0-2.30","FL","7jmcv9rt87","1280","720","en","nd05ff22","null","","","","learningBlock2","","","","<div style=""font-size:60px;""> </div>","null","FL","learning/Slide111.JPG","That was a tob.","",""
"","image-keyboard-response","341","514592","0.0-8.0-0.31","FL","7jmcv9rt87","1280","720","en","nd05ff22","null","","","","","","","","learning/Slide112.JPG","null","","","","",""
"","html-keyboard-response","342","515745","0.0-8.0-1.31","FL","7jmcv9rt87","1280","720","en","nd05ff22","null","","","","learningBlock2","","","","That was a wug.","null","","","","",""
"","html-keyboard-response","343","516747","0.0-8.0-2.31","FL","7jmcv9rt87","1280","720","en","nd05ff22","null","","","","learningBlock2","","","","<div style=""font-size:60px;""> </div>","null","FL","learning/Slide112.JPG","That was a wug.","",""
"","image-keyboard-response","344","516925","0.0-8.0-0.32","FL","7jmcv9rt87","1280","720","en","nd05ff22","null","","","","","","","","learning/Slide113.JPG","null","","","","",""
"","html-keyboard-response","345","518076","0.0-8.0-1.32","FL","7jmcv9rt87","1280","720","en","nd05ff22","null","","","","learningBlock2","","","","That was a tob.","null","","","","",""
"","html-keyboard-response","346","519078","0.0-8.0-2.32","FL","7jmcv9rt87","1280","720","en","nd05ff22","null","","","","learningBlock2","","","","<div style=""font-size:60px;""> </div>","null","FL","learning/Slide113.JPG","That was a tob.","",""
"","image-keyboard-response","347","519255","0.0-8.0-0.33","FL","7jmcv9rt87","1280","720","en","nd05ff22","null","","","","","","","","learning/Slide114.JPG","null","","","","",""
"","html-keyboard-response","348","520407","0.0-8.0-1.33","FL","7jmcv9rt87","1280","720","en","nd05ff22","null","","","","learningBlock2","","","","That was a wug.","null","","","","",""
"","html-keyboard-response","349","521409","0.0-8.0-2.33","FL","7jmcv9rt87","1280","720","en","nd05ff22","null","","","","learningBlock2","","","","<div style=""font-size:60px;""> </div>","null","FL","learning/Slide114.JPG","That was a wug.","",""
"","image-keyboard-response","350","521586","0.0-8.0-0.34","FL","7jmcv9rt87","1280","720","en","nd05ff22","null","","","","","","","","learning/Slide115.JPG","null","","","","",""
"","html-keyboard-response","351","522739","0.0-8.0-1.34","FL","7jmcv9rt87","1280","720","en","nd05ff22","null","","","","learningBlock2","","","","That was a bim.","null","","","","",""
"","html-keyboard-response","352","523741","0.0-8.0-2.34","FL","7jmcv9rt87","1280","720","en","nd05ff22","null","","","","learningBlock2","","","","<div style=""font-size:60px;""> </div>","null","FL","learning/Slide115.JPG","That was a bim.","",""
"","image-keyboard-response","353","523918","0.0-8.0-0.35","FL","7jmcv9rt87","1280","720","en","nd05ff22","null","","","","","","","","learning/Slide116.JPG","null","","","","",""
"","html-keyboard-response","354","525070","0.0-8.0-1.35","FL","7jmcv9rt87","1280","720","en","nd05ff22","null","","","","learningBlock2","","","","That was a dep.","null","","","","",""
"","html-keyboard-response","355","526072","0.0-8.0-2.35","FL","7jmcv9rt87","1280","720","en","nd05ff22","null","","","","learningBlock2","","","","<div style=""font-size:60px;""> </div>","null","FL","learning/Slide116.JPG","That was a dep.","",""
"","image-keyboard-response","356","526248","0.0-8.0-0.36","FL","7jmcv9rt87","1280","720","en","nd05ff22","null","","","","","","","","learning/Slide117.JPG","null","","","","",""
"","html-keyboard-response","357","527400","0.0-8.0-1.36","FL","7jmcv9rt87","1280","720","en","nd05ff22","null","","","","learningBlock2","","","","That was a tob.","null","","","","",""
"","html-keyboard-response","358","528401","0.0-8.0-2.36","FL","7jmcv9rt87","1280","720","en","nd05ff22","null","","","","learningBlock2","","","","<div style=""font-size:60px;""> </div>","null","FL","learning/Slide117.JPG","That was a tob.","",""
"","image-keyboard-response","359","528577","0.0-8.0-0.37","FL","7jmcv9rt87","1280","720","en","nd05ff22","null","","","","","","","","learning/Slide118.JPG","null","","","","",""
"","html-keyboard-response","360","529730","0.0-8.0-1.37","FL","7jmcv9rt87","1280","720","en","nd05ff22","null","","","","learningBlock2","","","","That was a dep.","null","","","","",""
"","html-keyboard-response","361","530731","0.0-8.0-2.37","FL","7jmcv9rt87","1280","720","en","nd05ff22","null","","","","learningBlock2","","","","<div style=""font-size:60px;""> </div>","null","FL","learning/Slide118.JPG","That was a dep.","",""
"","image-keyboard-response","362","530908","0.0-8.0-0.38","FL","7jmcv9rt87","1280","720","en","nd05ff22","null","","","","","","","","learning/Slide119.JPG","null","","","","",""
"","html-keyboard-response","363","532061","0.0-8.0-1.38","FL","7jmcv9rt87","1280","720","en","nd05ff22","null","","","","learningBlock2","","","","That was a wug.","null","","","","",""
"","html-keyboard-response","364","533063","0.0-8.0-2.38","FL","7jmcv9rt87","1280","720","en","nd05ff22","null","","","","learningBlock2","","","","<div style=""font-size:60px;""> </div>","null","FL","learning/Slide119.JPG","That was a wug.","",""
"","image-keyboard-response","365","533240","0.0-8.0-0.39","FL","7jmcv9rt87","1280","720","en","nd05ff22","null","","","","","","","","learning/Slide120.JPG","null","","","","",""
"","html-keyboard-response","366","534392","0.0-8.0-1.39","FL","7jmcv9rt87","1280","720","en","nd05ff22","null","","","","learningBlock2","","","","That was a dep.","null","","","","",""
"","html-keyboard-response","367","535394","0.0-8.0-2.39","FL","7jmcv9rt87","1280","720","en","nd05ff22","null","","","","learningBlock2","","","","<div style=""font-size:60px;""> </div>","null","FL","learning/Slide120.JPG","That was a dep.","",""
"","image-keyboard-response","368","535572","0.0-8.0-0.40","FL","7jmcv9rt87","1280","720","en","nd05ff22","null","","","","","","","","learning/Slide121.JPG","null","","","","",""
"","html-keyboard-response","369","536724","0.0-8.0-1.40","FL","7jmcv9rt87","1280","720","en","nd05ff22","null","","","","learningBlock2","","","","That was a bim.","null","","","","",""
"","html-keyboard-response","370","537726","0.0-8.0-2.40","FL","7jmcv9rt87","1280","720","en","nd05ff22","null","","","","learningBlock2","","","","<div style=""font-size:60px;""> </div>","null","FL","learning/Slide121.JPG","That was a bim.","",""
"","image-keyboard-response","371","537904","0.0-8.0-0.41","FL","7jmcv9rt87","1280","720","en","nd05ff22","null","","","","","","","","learning/Slide122.JPG","null","","","","",""
"","html-keyboard-response","372","539056","0.0-8.0-1.41","FL","7jmcv9rt87","1280","720","en","nd05ff22","null","","","","learningBlock2","","","","That was a wug.","null","","","","",""
"","html-keyboard-response","373","540058","0.0-8.0-2.41","FL","7jmcv9rt87","1280","720","en","nd05ff22","null","","","","learningBlock2","","","","<div style=""font-size:60px;""> </div>","null","FL","learning/Slide122.JPG","That was a wug.","",""
"","image-keyboard-response","374","540235","0.0-8.0-0.42","FL","7jmcv9rt87","1280","720","en","nd05ff22","null","","","","","","","","learning/Slide123.JPG","null","","","","",""
"","html-keyboard-response","375","541387","0.0-8.0-1.42","FL","7jmcv9rt87","1280","720","en","nd05ff22","null","","","","learningBlock2","","","","That was a bim.","null","","","","",""
"","html-keyboard-response","376","542389","0.0-8.0-2.42","FL","7jmcv9rt87","1280","720","en","nd05ff22","null","","","","learningBlock2","","","","<div style=""font-size:60px;""> </div>","null","FL","learning/Slide123.JPG","That was a bim.","",""
"","image-keyboard-response","377","542566","0.0-8.0-0.43","FL","7jmcv9rt87","1280","720","en","nd05ff22","null","","","","","","","","learning/Slide124.JPG","null","","","","",""
"","html-keyboard-response","378","543719","0.0-8.0-1.43","FL","7jmcv9rt87","1280","720","en","nd05ff22","null","","","","learningBlock2","","","","That was a tob.","null","","","","",""
"","html-keyboard-response","379","544720","0.0-8.0-2.43","FL","7jmcv9rt87","1280","720","en","nd05ff22","null","","","","learningBlock2","","","","<div style=""font-size:60px;""> </div>","null","FL","learning/Slide124.JPG","That was a tob.","",""
"","image-keyboard-response","380","544897","0.0-8.0-0.44","FL","7jmcv9rt87","1280","720","en","nd05ff22","null","","","","","","","","learning/Slide125.JPG","null","","","","",""
"","html-keyboard-response","381","546049","0.0-8.0-1.44","FL","7jmcv9rt87","1280","720","en","nd05ff22","null","","","","learningBlock2","","","","That was a bim.","null","","","","",""
"","html-keyboard-response","382","547051","0.0-8.0-2.44","FL","7jmcv9rt87","1280","720","en","nd05ff22","null","","","","learningBlock2","","","","<div style=""font-size:60px;""> </div>","null","FL","learning/Slide125.JPG","That was a bim.","",""
"","image-keyboard-response","383","547228","0.0-8.0-0.45","FL","7jmcv9rt87","1280","720","en","nd05ff22","null","","","","","","","","learning/Slide126.JPG","null","","","","",""
"","html-keyboard-response","384","548380","0.0-8.0-1.45","FL","7jmcv9rt87","1280","720","en","nd05ff22","null","","","","learningBlock2","","","","That was a tob.","null","","","","",""
"","html-keyboard-response","385","549382","0.0-8.0-2.45","FL","7jmcv9rt87","1280","720","en","nd05ff22","null","","","","learningBlock2","","","","<div style=""font-size:60px;""> </div>","null","FL","learning/Slide126.JPG","That was a tob.","",""
"","image-keyboard-response","386","549559","0.0-8.0-0.46","FL","7jmcv9rt87","1280","720","en","nd05ff22","null","","","","","","","","learning/Slide127.JPG","null","","","","",""
"","html-keyboard-response","387","550711","0.0-8.0-1.46","FL","7jmcv9rt87","1280","720","en","nd05ff22","null","","","","learningBlock2","","","","That was a dep.","null","","","","",""
"","html-keyboard-response","388","551713","0.0-8.0-2.46","FL","7jmcv9rt87","1280","720","en","nd05ff22","null","","","","learningBlock2","","","","<div style=""font-size:60px;""> </div>","null","FL","learning/Slide127.JPG","That was a dep.","",""
"","image-keyboard-response","389","551891","0.0-8.0-0.47","FL","7jmcv9rt87","1280","720","en","nd05ff22","null","","","","","","","","learning/Slide128.JPG","null","","","","",""
"","html-keyboard-response","390","553043","0.0-8.0-1.47","FL","7jmcv9rt87","1280","720","en","nd05ff22","null","","","","learningBlock2","","","","That was a wug.","null","","","","",""
"","html-keyboard-response","391","554045","0.0-8.0-2.47","FL","7jmcv9rt87","1280","720","en","nd05ff22","null","","","","learningBlock2","","","","<div style=""font-size:60px;""> </div>","null","FL","learning/Slide128.JPG","That was a wug.","",""
"","image-keyboard-response","392","554222","0.0-8.0-0.48","FL","7jmcv9rt87","1280","720","en","nd05ff22","null","","","","","","","","learning/Slide129.JPG","null","","","","",""
"","html-keyboard-response","393","555374","0.0-8.0-1.48","FL","7jmcv9rt87","1280","720","en","nd05ff22","null","","","","learningBlock2","","","","That was a tob.","null","","","","",""
"","html-keyboard-response","394","556377","0.0-8.0-2.48","FL","7jmcv9rt87","1280","720","en","nd05ff22","null","","","","learningBlock2","","","","<div style=""font-size:60px;""> </div>","null","FL","learning/Slide129.JPG","That was a tob.","",""
"","image-keyboard-response","395","556554","0.0-8.0-0.49","FL","7jmcv9rt87","1280","720","en","nd05ff22","null","","","","","","","","learning/Slide130.JPG","null","","","","",""
"","html-keyboard-response","396","557707","0.0-8.0-1.49","FL","7jmcv9rt87","1280","720","en","nd05ff22","null","","","","learningBlock2","","","","That was a wug.","null","","","","",""
"","html-keyboard-response","397","558709","0.0-8.0-2.49","FL","7jmcv9rt87","1280","720","en","nd05ff22","null","","","","learningBlock2","","","","<div style=""font-size:60px;""> </div>","null","FL","learning/Slide130.JPG","That was a wug.","",""
"","image-keyboard-response","398","558885","0.0-8.0-0.50","FL","7jmcv9rt87","1280","720","en","nd05ff22","null","","","","","","","","learning/Slide131.JPG","null","","","","",""
"","html-keyboard-response","399","560037","0.0-8.0-1.50","FL","7jmcv9rt87","1280","720","en","nd05ff22","null","","","","learningBlock2","","","","That was a bim.","null","","","","",""
"","html-keyboard-response","400","561039","0.0-8.0-2.50","FL","7jmcv9rt87","1280","720","en","nd05ff22","null","","","","learningBlock2","","","","<div style=""font-size:60px;""> </div>","null","FL","learning/Slide131.JPG","That was a bim.","",""
"","image-keyboard-response","401","561215","0.0-8.0-0.51","FL","7jmcv9rt87","1280","720","en","nd05ff22","null","","","","","","","","learning/Slide132.JPG","null","","","","",""
"","html-keyboard-response","402","562368","0.0-8.0-1.51","FL","7jmcv9rt87","1280","720","en","nd05ff22","null","","","","learningBlock2","","","","That was a dep.","null","","","","",""
"","html-keyboard-response","403","563369","0.0-8.0-2.51","FL","7jmcv9rt87","1280","720","en","nd05ff22","null","","","","learningBlock2","","","","<div style=""font-size:60px;""> </div>","null","FL","learning/Slide132.JPG","That was a dep.","",""
"","image-keyboard-response","404","563547","0.0-8.0-0.52","FL","7jmcv9rt87","1280","720","en","nd05ff22","null","","","","","","","","learning/Slide133.JPG","null","","","","",""
"","html-keyboard-response","405","564700","0.0-8.0-1.52","FL","7jmcv9rt87","1280","720","en","nd05ff22","null","","","","learningBlock2","","","","That was a tob.","null","","","","",""
"","html-keyboard-response","406","565702","0.0-8.0-2.52","FL","7jmcv9rt87","1280","720","en","nd05ff22","null","","","","learningBlock2","","","","<div style=""font-size:60px;""> </div>","null","FL","learning/Slide133.JPG","That was a tob.","",""
"","image-keyboard-response","407","565879","0.0-8.0-0.53","FL","7jmcv9rt87","1280","720","en","nd05ff22","null","","","","","","","","learning/Slide134.JPG","null","","","","",""
"","html-keyboard-response","408","567032","0.0-8.0-1.53","FL","7jmcv9rt87","1280","720","en","nd05ff22","null","","","","learningBlock2","","","","That was a dep.","null","","","","",""
"","html-keyboard-response","409","568034","0.0-8.0-2.53","FL","7jmcv9rt87","1280","720","en","nd05ff22","null","","","","learningBlock2","","","","<div style=""font-size:60px;""> </div>","null","FL","learning/Slide134.JPG","That was a dep.","",""
"","image-keyboard-response","410","568211","0.0-8.0-0.54","FL","7jmcv9rt87","1280","720","en","nd05ff22","null","","","","","","","","learning/Slide135.JPG","null","","","","",""
"","html-keyboard-response","411","569364","0.0-8.0-1.54","FL","7jmcv9rt87","1280","720","en","nd05ff22","null","","","","learningBlock2","","","","That was a tob.","null","","","","",""
"","html-keyboard-response","412","570365","0.0-8.0-2.54","FL","7jmcv9rt87","1280","720","en","nd05ff22","null","","","","learningBlock2","","","","<div style=""font-size:60px;""> </div>","null","FL","learning/Slide135.JPG","That was a tob.","",""
"","image-keyboard-response","413","570542","0.0-8.0-0.55","FL","7jmcv9rt87","1280","720","en","nd05ff22","null","","","","","","","","learning/Slide136.JPG","null","","","","",""
"","html-keyboard-response","414","571695","0.0-8.0-1.55","FL","7jmcv9rt87","1280","720","en","nd05ff22","null","","","","learningBlock2","","","","That was a wug.","null","","","","",""
"","html-keyboard-response","415","572697","0.0-8.0-2.55","FL","7jmcv9rt87","1280","720","en","nd05ff22","null","","","","learningBlock2","","","","<div style=""font-size:60px;""> </div>","null","FL","learning/Slide136.JPG","That was a wug.","",""
"","image-keyboard-response","416","572873","0.0-8.0-0.56","FL","7jmcv9rt87","1280","720","en","nd05ff22","null","","","","","","","","learning/Slide137.JPG","null","","","","",""
"","html-keyboard-response","417","574026","0.0-8.0-1.56","FL","7jmcv9rt87","1280","720","en","nd05ff22","null","","","","learningBlock2","","","","That was a tob.","null","","","","",""
"","html-keyboard-response","418","575028","0.0-8.0-2.56","FL","7jmcv9rt87","1280","720","en","nd05ff22","null","","","","learningBlock2","","","","<div style=""font-size:60px;""> </div>","null","FL","learning/Slide137.JPG","That was a tob.","",""
"","image-keyboard-response","419","575206","0.0-8.0-0.57","FL","7jmcv9rt87","1280","720","en","nd05ff22","null","","","","","","","","learning/Slide138.JPG","null","","","","",""
"","html-keyboard-response","420","576359","0.0-8.0-1.57","FL","7jmcv9rt87","1280","720","en","nd05ff22","null","","","","learningBlock2","","","","That was a bim.","null","","","","",""
"","html-keyboard-response","421","577361","0.0-8.0-2.57","FL","7jmcv9rt87","1280","720","en","nd05ff22","null","","","","learningBlock2","","","","<div style=""font-size:60px;""> </div>","null","FL","learning/Slide138.JPG","That was a bim.","",""
"","image-keyboard-response","422","577538","0.0-8.0-0.58","FL","7jmcv9rt87","1280","720","en","nd05ff22","null","","","","","","","","learning/Slide139.JPG","null","","","","",""
"","html-keyboard-response","423","578691","0.0-8.0-1.58","FL","7jmcv9rt87","1280","720","en","nd05ff22","null","","","","learningBlock2","","","","That was a wug.","null","","","","",""
"","html-keyboard-response","424","579693","0.0-8.0-2.58","FL","7jmcv9rt87","1280","720","en","nd05ff22","null","","","","learningBlock2","","","","<div style=""font-size:60px;""> </div>","null","FL","learning/Slide139.JPG","That was a wug.","",""
"","image-keyboard-response","425","579870","0.0-8.0-0.59","FL","7jmcv9rt87","1280","720","en","nd05ff22","null","","","","","","","","learning/Slide140.JPG","null","","","","",""
"","html-keyboard-response","426","581023","0.0-8.0-1.59","FL","7jmcv9rt87","1280","720","en","nd05ff22","null","","","","learningBlock2","","","","That was a dep.","null","","","","",""
"","html-keyboard-response","427","582025","0.0-8.0-2.59","FL","7jmcv9rt87","1280","720","en","nd05ff22","null","","","","learningBlock2","","","","<div style=""font-size:60px;""> </div>","null","FL","learning/Slide140.JPG","That was a dep.","",""
"","image-keyboard-response","428","582202","0.0-8.0-0.60","FL","7jmcv9rt87","1280","720","en","nd05ff22","null","","","","","","","","learning/Slide141.JPG","null","","","","",""
"","html-keyboard-response","429","583354","0.0-8.0-1.60","FL","7jmcv9rt87","1280","720","en","nd05ff22","null","","","","learningBlock2","","","","That was a tob.","null","","","","",""
"","html-keyboard-response","430","584356","0.0-8.0-2.60","FL","7jmcv9rt87","1280","720","en","nd05ff22","null","","","","learningBlock2","","","","<div style=""font-size:60px;""> </div>","null","FL","learning/Slide141.JPG","That was a tob.","",""
"","image-keyboard-response","431","584534","0.0-8.0-0.61","FL","7jmcv9rt87","1280","720","en","nd05ff22","null","","","","","","","","learning/Slide142.JPG","null","","","","",""
"","html-keyboard-response","432","585686","0.0-8.0-1.61","FL","7jmcv9rt87","1280","720","en","nd05ff22","null","","","","learningBlock2","","","","That was a wug.","null","","","","",""
"","html-keyboard-response","433","586688","0.0-8.0-2.61","FL","7jmcv9rt87","1280","720","en","nd05ff22","null","","","","learningBlock2","","","","<div style=""font-size:60px;""> </div>","null","FL","learning/Slide142.JPG","That was a wug.","",""
"","image-keyboard-response","434","586865","0.0-8.0-0.62","FL","7jmcv9rt87","1280","720","en","nd05ff22","null","","","","","","","","learning/Slide143.JPG","null","","","","",""
"","html-keyboard-response","435","588018","0.0-8.0-1.62","FL","7jmcv9rt87","1280","720","en","nd05ff22","null","","","","learningBlock2","","","","That was a bim.","null","","","","",""
"","html-keyboard-response","436","589019","0.0-8.0-2.62","FL","7jmcv9rt87","1280","720","en","nd05ff22","null","","","","learningBlock2","","","","<div style=""font-size:60px;""> </div>","null","FL","learning/Slide143.JPG","That was a bim.","",""
"","image-keyboard-response","437","589196","0.0-8.0-0.63","FL","7jmcv9rt87","1280","720","en","nd05ff22","null","","","","","","","","learning/Slide144.JPG","null","","","","",""
"","html-keyboard-response","438","590348","0.0-8.0-1.63","FL","7jmcv9rt87","1280","720","en","nd05ff22","null","","","","learningBlock2","","","","That was a dep.","null","","","","",""
"","html-keyboard-response","439","591350","0.0-8.0-2.63","FL","7jmcv9rt87","1280","720","en","nd05ff22","null","","","","learningBlock2","","","","<div style=""font-size:60px;""> </div>","null","FL","learning/Slide144.JPG","That was a dep.","",""
"","image-keyboard-response","440","591527","0.0-8.0-0.64","FL","7jmcv9rt87","1280","720","en","nd05ff22","null","","","","","","","","learning/Slide145.JPG","null","","","","",""
"","html-keyboard-response","441","592680","0.0-8.0-1.64","FL","7jmcv9rt87","1280","720","en","nd05ff22","null","","","","learningBlock2","","","","That was a bim.","null","","","","",""
"","html-keyboard-response","442","593681","0.0-8.0-2.64","FL","7jmcv9rt87","1280","720","en","nd05ff22","null","","","","learningBlock2","","","","<div style=""font-size:60px;""> </div>","null","FL","learning/Slide145.JPG","That was a bim.","",""
"","image-keyboard-response","443","593858","0.0-8.0-0.65","FL","7jmcv9rt87","1280","720","en","nd05ff22","null","","","","","","","","learning/Slide146.JPG","null","","","","",""
"","html-keyboard-response","444","595011","0.0-8.0-1.65","FL","7jmcv9rt87","1280","720","en","nd05ff22","null","","","","learningBlock2","","","","That was a tob.","null","","","","",""
"","html-keyboard-response","445","596013","0.0-8.0-2.65","FL","7jmcv9rt87","1280","720","en","nd05ff22","null","","","","learningBlock2","","","","<div style=""font-size:60px;""> </div>","null","FL","learning/Slide146.JPG","That was a tob.","",""
"","image-keyboard-response","446","596190","0.0-8.0-0.66","FL","7jmcv9rt87","1280","720","en","nd05ff22","null","","","","","","","","learning/Slide147.JPG","null","","","","",""
"","html-keyboard-response","447","597343","0.0-8.0-1.66","FL","7jmcv9rt87","1280","720","en","nd05ff22","null","","","","learningBlock2","","","","That was a wug.","null","","","","",""
"","html-keyboard-response","448","598344","0.0-8.0-2.66","FL","7jmcv9rt87","1280","720","en","nd05ff22","null","","","","learningBlock2","","","","<div style=""font-size:60px;""> </div>","null","FL","learning/Slide147.JPG","That was a wug.","",""
"","image-keyboard-response","449","598521","0.0-8.0-0.67","FL","7jmcv9rt87","1280","720","en","nd05ff22","null","","","","","","","","learning/Slide148.JPG","null","","","","",""
"","html-keyboard-response","450","599673","0.0-8.0-1.67","FL","7jmcv9rt87","1280","720","en","nd05ff22","null","","","","learningBlock2","","","","That was a bim.","null","","","","",""
"","html-keyboard-response","451","600675","0.0-8.0-2.67","FL","7jmcv9rt87","1280","720","en","nd05ff22","null","","","","learningBlock2","","","","<div style=""font-size:60px;""> </div>","null","FL","learning/Slide148.JPG","That was a bim.","",""
"","image-keyboard-response","452","600852","0.0-8.0-0.68","FL","7jmcv9rt87","1280","720","en","nd05ff22","null","","","","","","","","learning/Slide149.JPG","null","","","","",""
"","html-keyboard-response","453","602005","0.0-8.0-1.68","FL","7jmcv9rt87","1280","720","en","nd05ff22","null","","","","learningBlock2","","","","That was a dep.","null","","","","",""
"","html-keyboard-response","454","603007","0.0-8.0-2.68","FL","7jmcv9rt87","1280","720","en","nd05ff22","null","","","","learningBlock2","","","","<div style=""font-size:60px;""> </div>","null","FL","learning/Slide149.JPG","That was a dep.","",""
"","image-keyboard-response","455","603184","0.0-8.0-0.69","FL","7jmcv9rt87","1280","720","en","nd05ff22","null","","","","","","","","learning/Slide150.JPG","null","","","","",""
"","html-keyboard-response","456","604337","0.0-8.0-1.69","FL","7jmcv9rt87","1280","720","en","nd05ff22","null","","","","learningBlock2","","","","That was a wug.","null","","","","",""
"","html-keyboard-response","457","605339","0.0-8.0-2.69","FL","7jmcv9rt87","1280","720","en","nd05ff22","null","","","","learningBlock2","","","","<div style=""font-size:60px;""> </div>","null","FL","learning/Slide150.JPG","That was a wug.","",""
"","image-keyboard-response","458","605517","0.0-8.0-0.70","FL","7jmcv9rt87","1280","720","en","nd05ff22","null","","","","","","","","learning/Slide151.JPG","null","","","","",""
"","html-keyboard-response","459","606670","0.0-8.0-1.70","FL","7jmcv9rt87","1280","720","en","nd05ff22","null","","","","learningBlock2","","","","That was a dep.","null","","","","",""
"","html-keyboard-response","460","607671","0.0-8.0-2.70","FL","7jmcv9rt87","1280","720","en","nd05ff22","null","","","","learningBlock2","","","","<div style=""font-size:60px;""> </div>","null","FL","learning/Slide151.JPG","That was a dep.","",""
"","image-keyboard-response","461","607848","0.0-8.0-0.71","FL","7jmcv9rt87","1280","720","en","nd05ff22","null","","","","","","","","learning/Slide152.JPG","null","","","","",""
"","html-keyboard-response","462","609000","0.0-8.0-1.71","FL","7jmcv9rt87","1280","720","en","nd05ff22","null","","","","learningBlock2","","","","That was a wug.","null","","","","",""
"","html-keyboard-response","463","610001","0.0-8.0-2.71","FL","7jmcv9rt87","1280","720","en","nd05ff22","null","","","","learningBlock2","","","","<div style=""font-size:60px;""> </div>","null","FL","learning/Slide152.JPG","That was a wug.","",""
"","image-keyboard-response","464","610178","0.0-8.0-0.72","FL","7jmcv9rt87","1280","720","en","nd05ff22","null","","","","","","","","learning/Slide153.JPG","null","","","","",""
"","html-keyboard-response","465","611336","0.0-8.0-1.72","FL","7jmcv9rt87","1280","720","en","nd05ff22","null","","","","learningBlock2","","","","That was a bim.","null","","","","",""
"","html-keyboard-response","466","612338","0.0-8.0-2.72","FL","7jmcv9rt87","1280","720","en","nd05ff22","null","","","","learningBlock2","","","","<div style=""font-size:60px;""> </div>","null","FL","learning/Slide153.JPG","That was a bim.","",""
"","image-keyboard-response","467","612515","0.0-8.0-0.73","FL","7jmcv9rt87","1280","720","en","nd05ff22","null","","","","","","","","learning/Slide154.JPG","null","","","","",""
"","html-keyboard-response","468","613667","0.0-8.0-1.73","FL","7jmcv9rt87","1280","720","en","nd05ff22","null","","","","learningBlock2","","","","That was a tob.","null","","","","",""
"","html-keyboard-response","469","614668","0.0-8.0-2.73","FL","7jmcv9rt87","1280","720","en","nd05ff22","null","","","","learningBlock2","","","","<div style=""font-size:60px;""> </div>","null","FL","learning/Slide154.JPG","That was a tob.","",""
"","image-keyboard-response","470","614846","0.0-8.0-0.74","FL","7jmcv9rt87","1280","720","en","nd05ff22","null","","","","","","","","learning/Slide155.JPG","null","","","","",""
"","html-keyboard-response","471","615999","0.0-8.0-1.74","FL","7jmcv9rt87","1280","720","en","nd05ff22","null","","","","learningBlock2","","","","That was a dep.","null","","","","",""
"","html-keyboard-response","472","617001","0.0-8.0-2.74","FL","7jmcv9rt87","1280","720","en","nd05ff22","null","","","","learningBlock2","","","","<div style=""font-size:60px;""> </div>","null","FL","learning/Slide155.JPG","That was a dep.","",""
"","image-keyboard-response","473","617178","0.0-8.0-0.75","FL","7jmcv9rt87","1280","720","en","nd05ff22","null","","","","","","","","learning/Slide156.JPG","null","","","","",""
"","html-keyboard-response","474","618330","0.0-8.0-1.75","FL","7jmcv9rt87","1280","720","en","nd05ff22","null","","","","learningBlock2","","","","That was a bim.","null","","","","",""
"","html-keyboard-response","475","619332","0.0-8.0-2.75","FL","7jmcv9rt87","1280","720","en","nd05ff22","null","","","","learningBlock2","","","","<div style=""font-size:60px;""> </div>","null","FL","learning/Slide156.JPG","That was a bim.","",""
"","image-keyboard-response","476","619509","0.0-8.0-0.76","FL","7jmcv9rt87","1280","720","en","nd05ff22","null","","","","","","","","learning/Slide157.JPG","null","","","","",""
"","html-keyboard-response","477","620661","0.0-8.0-1.76","FL","7jmcv9rt87","1280","720","en","nd05ff22","null","","","","learningBlock2","","","","That was a dep.","null","","","","",""
"","html-keyboard-response","478","621663","0.0-8.0-2.76","FL","7jmcv9rt87","1280","720","en","nd05ff22","null","","","","learningBlock2","","","","<div style=""font-size:60px;""> </div>","null","FL","learning/Slide157.JPG","That was a dep.","",""
"","image-keyboard-response","479","621840","0.0-8.0-0.77","FL","7jmcv9rt87","1280","720","en","nd05ff22","null","","","","","","","","learning/Slide158.JPG","null","","","","",""
"","html-keyboard-response","480","622992","0.0-8.0-1.77","FL","7jmcv9rt87","1280","720","en","nd05ff22","null","","","","learningBlock2","","","","That was a tob.","null","","","","",""
"","html-keyboard-response","481","623994","0.0-8.0-2.77","FL","7jmcv9rt87","1280","720","en","nd05ff22","null","","","","learningBlock2","","","","<div style=""font-size:60px;""> </div>","null","FL","learning/Slide158.JPG","That was a tob.","",""
"","image-keyboard-response","482","624170","0.0-8.0-0.78","FL","7jmcv9rt87","1280","720","en","nd05ff22","null","","","","","","","","learning/Slide159.JPG","null","","","","",""
"","html-keyboard-response","483","625324","0.0-8.0-1.78","FL","7jmcv9rt87","1280","720","en","nd05ff22","null","","","","learningBlock2","","","","That was a dep.","null","","","","",""
"","html-keyboard-response","484","626325","0.0-8.0-2.78","FL","7jmcv9rt87","1280","720","en","nd05ff22","null","","","","learningBlock2","","","","<div style=""font-size:60px;""> </div>","null","FL","learning/Slide159.JPG","That was a dep.","",""
"","image-keyboard-response","485","626503","0.0-8.0-0.79","FL","7jmcv9rt87","1280","720","en","nd05ff22","null","","","","","","","","learning/Slide160.JPG","null","","","","",""
"","html-keyboard-response","486","627655","0.0-8.0-1.79","FL","7jmcv9rt87","1280","720","en","nd05ff22","null","","","","learningBlock2","","","","That was a wug.","null","","","","",""
"","html-keyboard-response","487","628657","0.0-8.0-2.79","FL","7jmcv9rt87","1280","720","en","nd05ff22","null","","","","learningBlock2","","","","<div style=""font-size:60px;""> </div>","null","FL","learning/Slide160.JPG","That was a wug.","",""
"","resize2","488","633520","0.0-9.0","FL","7jmcv9rt87","1280","720","en","nd05ff22","","","","","","","104","1.04","","","","","","",""
