"success","trial_type","trial_index","time_elapsed","internal_node_id","condition","subject","screen_width","screen_height","language","codeword","rt","responses","url","view_history","test_part","final_height_px","final_width_px","scale_factor","stimulus","key_press","learningType","presentedImage","presentedLabel","button_pressed","response"
"true","fullscreen","0","2191","0.0-0.0","LF","c7w24j9nfq","1920","1080","de","ck05ng18","","","","","","","","","","","","","","",""
"","survey-html-form","1","4055","0.0-1.0","LF","c7w24j9nfq","1920","1080","de","ck05ng18","1862.6150000018242","{""language"":""de""}","","","","","","","","","","","","",""
"","external-html","2","17770","0.0-2.0-0.0","LF","c7w24j9nfq","1920","1080","de","ck05ng18","13704.639999999927","","text/information.html","","","","","","","","","","","",""
"","external-html","3","39500","0.0-2.0-1.0","LF","c7w24j9nfq","1920","1080","de","ck05ng18","21648.73499999885","","text/consent.html","","","","","","","","","","","",""
"","survey-html-form","4","116498","0.0-2.0-2.0","LF","c7w24j9nfq","1920","1080","de","ck05ng18","76994.55999999918","{""codeword_enter"":""ck05ng18""}","","","","","","","","","","","","",""
"","instructions","5","132448","0.0-4.0","LF","c7w24j9nfq","1920","1080","de","ck05ng18","NA","","","[{""page_index"":0,""viewing_time"":3070.240000000922},{""page_index"":1,""viewing_time"":11370.199999997567}]","instructions","","","","","","","","","",""
"","resize","6","171675","0.0-5.0","LF","c7w24j9nfq","1920","1080","de","ck05ng18","","","","","","","270","1.7142857142857142","","","","","","",""
"","html-keyboard-response","7","172690","0.0-6.0-0.0","LF","c7w24j9nfq","1920","1080","de","ck05ng18","null","","","","learningBlock1","","","","This is a tob:","null","","","","",""
"","image-keyboard-response","8","173022","0.0-6.0-1.0","LF","c7w24j9nfq","1920","1080","de","ck05ng18","null","","","","","","","","learning/Slide1.JPG","null","","","","",""
"","html-keyboard-response","9","174024","0.0-6.0-2.0","LF","c7w24j9nfq","1920","1080","de","ck05ng18","null","","","","learningBlock1","","","","<div style=""font-size:60px;""> </div>","null","LF","learning/Slide1.JPG","This is a tob:","",""
"","html-keyboard-response","10","175036","0.0-6.0-0.1","LF","c7w24j9nfq","1920","1080","de","ck05ng18","null","","","","learningBlock1","","","","This is a wug:","null","","","","",""
"","image-keyboard-response","11","175386","0.0-6.0-1.1","LF","c7w24j9nfq","1920","1080","de","ck05ng18","null","","","","","","","","learning/Slide2.JPG","null","","","","",""
"","html-keyboard-response","12","176402","0.0-6.0-2.1","LF","c7w24j9nfq","1920","1080","de","ck05ng18","null","","","","learningBlock1","","","","<div style=""font-size:60px;""> </div>","null","LF","learning/Slide2.JPG","This is a wug:","",""
"","html-keyboard-response","13","177403","0.0-6.0-0.2","LF","c7w24j9nfq","1920","1080","de","ck05ng18","null","","","","learningBlock1","","","","This is a bim:","null","","","","",""
"","image-keyboard-response","14","177734","0.0-6.0-1.2","LF","c7w24j9nfq","1920","1080","de","ck05ng18","null","","","","","","","","learning/Slide3.JPG","null","","","","",""
"","html-keyboard-response","15","178750","0.0-6.0-2.2","LF","c7w24j9nfq","1920","1080","de","ck05ng18","null","","","","learningBlock1","","","","<div style=""font-size:60px;""> </div>","null","LF","learning/Slide3.JPG","This is a bim:","",""
"","html-keyboard-response","16","179762","0.0-6.0-0.3","LF","c7w24j9nfq","1920","1080","de","ck05ng18","null","","","","learningBlock1","","","","This is a dep:","null","","","","",""
"","image-keyboard-response","17","180090","0.0-6.0-1.3","LF","c7w24j9nfq","1920","1080","de","ck05ng18","null","","","","","","","","learning/Slide4.JPG","null","","","","",""
"","html-keyboard-response","18","181091","0.0-6.0-2.3","LF","c7w24j9nfq","1920","1080","de","ck05ng18","null","","","","learningBlock1","","","","<div style=""font-size:60px;""> </div>","null","LF","learning/Slide4.JPG","This is a dep:","",""
"","html-keyboard-response","19","182095","0.0-6.0-0.4","LF","c7w24j9nfq","1920","1080","de","ck05ng18","null","","","","learningBlock1","","","","This is a wug:","null","","","","",""
"","image-keyboard-response","20","182427","0.0-6.0-1.4","LF","c7w24j9nfq","1920","1080","de","ck05ng18","null","","","","","","","","learning/Slide5.JPG","null","","","","",""
"","html-keyboard-response","21","183439","0.0-6.0-2.4","LF","c7w24j9nfq","1920","1080","de","ck05ng18","null","","","","learningBlock1","","","","<div style=""font-size:60px;""> </div>","null","LF","learning/Slide5.JPG","This is a wug:","",""
"","html-keyboard-response","22","184454","0.0-6.0-0.5","LF","c7w24j9nfq","1920","1080","de","ck05ng18","null","","","","learningBlock1","","","","This is a dep:","null","","","","",""
"","image-keyboard-response","23","184781","0.0-6.0-1.5","LF","c7w24j9nfq","1920","1080","de","ck05ng18","null","","","","","","","","learning/Slide6.JPG","null","","","","",""
"","html-keyboard-response","24","185787","0.0-6.0-2.5","LF","c7w24j9nfq","1920","1080","de","ck05ng18","null","","","","learningBlock1","","","","<div style=""font-size:60px;""> </div>","null","LF","learning/Slide6.JPG","This is a dep:","",""
"","html-keyboard-response","25","186801","0.0-6.0-0.6","LF","c7w24j9nfq","1920","1080","de","ck05ng18","null","","","","learningBlock1","","","","This is a wug:","null","","","","",""
"","image-keyboard-response","26","187152","0.0-6.0-1.6","LF","c7w24j9nfq","1920","1080","de","ck05ng18","null","","","","","","","","learning/Slide7.JPG","null","","","","",""
"","html-keyboard-response","27","188166","0.0-6.0-2.6","LF","c7w24j9nfq","1920","1080","de","ck05ng18","null","","","","learningBlock1","","","","<div style=""font-size:60px;""> </div>","null","LF","learning/Slide7.JPG","This is a wug:","",""
"","html-keyboard-response","28","189179","0.0-6.0-0.7","LF","c7w24j9nfq","1920","1080","de","ck05ng18","null","","","","learningBlock1","","","","This is a bim:","null","","","","",""
"","image-keyboard-response","29","189513","0.0-6.0-1.7","LF","c7w24j9nfq","1920","1080","de","ck05ng18","null","","","","","","","","learning/Slide8.JPG","null","","","","",""
"","html-keyboard-response","30","190525","0.0-6.0-2.7","LF","c7w24j9nfq","1920","1080","de","ck05ng18","null","","","","learningBlock1","","","","<div style=""font-size:60px;""> </div>","null","LF","learning/Slide8.JPG","This is a bim:","",""
"","html-keyboard-response","31","191529","0.0-6.0-0.8","LF","c7w24j9nfq","1920","1080","de","ck05ng18","null","","","","learningBlock1","","","","This is a wug:","null","","","","",""
"","image-keyboard-response","32","191863","0.0-6.0-1.8","LF","c7w24j9nfq","1920","1080","de","ck05ng18","null","","","","","","","","learning/Slide9.JPG","null","","","","",""
"","html-keyboard-response","33","192866","0.0-6.0-2.8","LF","c7w24j9nfq","1920","1080","de","ck05ng18","null","","","","learningBlock1","","","","<div style=""font-size:60px;""> </div>","null","LF","learning/Slide9.JPG","This is a wug:","",""
"","html-keyboard-response","34","193867","0.0-6.0-0.9","LF","c7w24j9nfq","1920","1080","de","ck05ng18","null","","","","learningBlock1","","","","This is a dep:","null","","","","",""
"","image-keyboard-response","35","194202","0.0-6.0-1.9","LF","c7w24j9nfq","1920","1080","de","ck05ng18","null","","","","","","","","learning/Slide10.JPG","null","","","","",""
"","html-keyboard-response","36","195206","0.0-6.0-2.9","LF","c7w24j9nfq","1920","1080","de","ck05ng18","null","","","","learningBlock1","","","","<div style=""font-size:60px;""> </div>","null","LF","learning/Slide10.JPG","This is a dep:","",""
"","html-keyboard-response","37","196209","0.0-6.0-0.10","LF","c7w24j9nfq","1920","1080","de","ck05ng18","null","","","","learningBlock1","","","","This is a tob:","null","","","","",""
"","image-keyboard-response","38","196545","0.0-6.0-1.10","LF","c7w24j9nfq","1920","1080","de","ck05ng18","null","","","","","","","","learning/Slide11.JPG","null","","","","",""
"","html-keyboard-response","39","197558","0.0-6.0-2.10","LF","c7w24j9nfq","1920","1080","de","ck05ng18","null","","","","learningBlock1","","","","<div style=""font-size:60px;""> </div>","null","LF","learning/Slide11.JPG","This is a tob:","",""
"","html-keyboard-response","40","198561","0.0-6.0-0.11","LF","c7w24j9nfq","1920","1080","de","ck05ng18","null","","","","learningBlock1","","","","This is a dep:","null","","","","",""
"","image-keyboard-response","41","198910","0.0-6.0-1.11","LF","c7w24j9nfq","1920","1080","de","ck05ng18","null","","","","","","","","learning/Slide12.JPG","null","","","","",""
"","html-keyboard-response","42","199914","0.0-6.0-2.11","LF","c7w24j9nfq","1920","1080","de","ck05ng18","null","","","","learningBlock1","","","","<div style=""font-size:60px;""> </div>","null","LF","learning/Slide12.JPG","This is a dep:","",""
"","html-keyboard-response","43","200916","0.0-6.0-0.12","LF","c7w24j9nfq","1920","1080","de","ck05ng18","null","","","","learningBlock1","","","","This is a bim:","null","","","","",""
"","image-keyboard-response","44","201265","0.0-6.0-1.12","LF","c7w24j9nfq","1920","1080","de","ck05ng18","null","","","","","","","","learning/Slide13.JPG","null","","","","",""
"","html-keyboard-response","45","202281","0.0-6.0-2.12","LF","c7w24j9nfq","1920","1080","de","ck05ng18","null","","","","learningBlock1","","","","<div style=""font-size:60px;""> </div>","null","LF","learning/Slide13.JPG","This is a bim:","",""
"","html-keyboard-response","46","203289","0.0-6.0-0.13","LF","c7w24j9nfq","1920","1080","de","ck05ng18","null","","","","learningBlock1","","","","This is a wug:","null","","","","",""
"","image-keyboard-response","47","203626","0.0-6.0-1.13","LF","c7w24j9nfq","1920","1080","de","ck05ng18","null","","","","","","","","learning/Slide14.JPG","null","","","","",""
"","html-keyboard-response","48","204640","0.0-6.0-2.13","LF","c7w24j9nfq","1920","1080","de","ck05ng18","null","","","","learningBlock1","","","","<div style=""font-size:60px;""> </div>","null","LF","learning/Slide14.JPG","This is a wug:","",""
"","html-keyboard-response","49","205655","0.0-6.0-0.14","LF","c7w24j9nfq","1920","1080","de","ck05ng18","null","","","","learningBlock1","","","","This is a tob:","null","","","","",""
"","image-keyboard-response","50","206004","0.0-6.0-1.14","LF","c7w24j9nfq","1920","1080","de","ck05ng18","null","","","","","","","","learning/Slide15.JPG","null","","","","",""
"","html-keyboard-response","51","207019","0.0-6.0-2.14","LF","c7w24j9nfq","1920","1080","de","ck05ng18","null","","","","learningBlock1","","","","<div style=""font-size:60px;""> </div>","null","LF","learning/Slide15.JPG","This is a tob:","",""
"","html-keyboard-response","52","208021","0.0-6.0-0.15","LF","c7w24j9nfq","1920","1080","de","ck05ng18","null","","","","learningBlock1","","","","This is a dep:","null","","","","",""
"","image-keyboard-response","53","208371","0.0-6.0-1.15","LF","c7w24j9nfq","1920","1080","de","ck05ng18","null","","","","","","","","learning/Slide16.JPG","null","","","","",""
"","html-keyboard-response","54","209377","0.0-6.0-2.15","LF","c7w24j9nfq","1920","1080","de","ck05ng18","null","","","","learningBlock1","","","","<div style=""font-size:60px;""> </div>","null","LF","learning/Slide16.JPG","This is a dep:","",""
"","html-keyboard-response","55","210392","0.0-6.0-0.16","LF","c7w24j9nfq","1920","1080","de","ck05ng18","null","","","","learningBlock1","","","","This is a bim:","null","","","","",""
"","image-keyboard-response","56","210729","0.0-6.0-1.16","LF","c7w24j9nfq","1920","1080","de","ck05ng18","null","","","","","","","","learning/Slide17.JPG","null","","","","",""
"","html-keyboard-response","57","211739","0.0-6.0-2.16","LF","c7w24j9nfq","1920","1080","de","ck05ng18","null","","","","learningBlock1","","","","<div style=""font-size:60px;""> </div>","null","LF","learning/Slide17.JPG","This is a bim:","",""
"","html-keyboard-response","58","212754","0.0-6.0-0.17","LF","c7w24j9nfq","1920","1080","de","ck05ng18","null","","","","learningBlock1","","","","This is a tob:","null","","","","",""
"","image-keyboard-response","59","213089","0.0-6.0-1.17","LF","c7w24j9nfq","1920","1080","de","ck05ng18","null","","","","","","","","learning/Slide18.JPG","null","","","","",""
"","html-keyboard-response","60","214104","0.0-6.0-2.17","LF","c7w24j9nfq","1920","1080","de","ck05ng18","null","","","","learningBlock1","","","","<div style=""font-size:60px;""> </div>","null","LF","learning/Slide18.JPG","This is a tob:","",""
"","html-keyboard-response","61","215106","0.0-6.0-0.18","LF","c7w24j9nfq","1920","1080","de","ck05ng18","null","","","","learningBlock1","","","","This is a wug:","null","","","","",""
"","image-keyboard-response","62","215432","0.0-6.0-1.18","LF","c7w24j9nfq","1920","1080","de","ck05ng18","null","","","","","","","","learning/Slide19.JPG","null","","","","",""
"","html-keyboard-response","63","216438","0.0-6.0-2.18","LF","c7w24j9nfq","1920","1080","de","ck05ng18","null","","","","learningBlock1","","","","<div style=""font-size:60px;""> </div>","null","LF","learning/Slide19.JPG","This is a wug:","",""
"","html-keyboard-response","64","217440","0.0-6.0-0.19","LF","c7w24j9nfq","1920","1080","de","ck05ng18","null","","","","learningBlock1","","","","This is a bim:","null","","","","",""
"","image-keyboard-response","65","217766","0.0-6.0-1.19","LF","c7w24j9nfq","1920","1080","de","ck05ng18","null","","","","","","","","learning/Slide20.JPG","null","","","","",""
"","html-keyboard-response","66","218775","0.0-6.0-2.19","LF","c7w24j9nfq","1920","1080","de","ck05ng18","null","","","","learningBlock1","","","","<div style=""font-size:60px;""> </div>","null","LF","learning/Slide20.JPG","This is a bim:","",""
"","html-keyboard-response","67","219791","0.0-6.0-0.20","LF","c7w24j9nfq","1920","1080","de","ck05ng18","null","","","","learningBlock1","","","","This is a dep:","null","","","","",""
"","image-keyboard-response","68","220140","0.0-6.0-1.20","LF","c7w24j9nfq","1920","1080","de","ck05ng18","null","","","","","","","","learning/Slide21.JPG","null","","","","",""
"","html-keyboard-response","69","221153","0.0-6.0-2.20","LF","c7w24j9nfq","1920","1080","de","ck05ng18","null","","","","learningBlock1","","","","<div style=""font-size:60px;""> </div>","null","LF","learning/Slide21.JPG","This is a dep:","",""
"","html-keyboard-response","70","222156","0.0-6.0-0.21","LF","c7w24j9nfq","1920","1080","de","ck05ng18","null","","","","learningBlock1","","","","This is a bim:","null","","","","",""
"","image-keyboard-response","71","222491","0.0-6.0-1.21","LF","c7w24j9nfq","1920","1080","de","ck05ng18","null","","","","","","","","learning/Slide22.JPG","null","","","","",""
"","html-keyboard-response","72","223502","0.0-6.0-2.21","LF","c7w24j9nfq","1920","1080","de","ck05ng18","null","","","","learningBlock1","","","","<div style=""font-size:60px;""> </div>","null","LF","learning/Slide22.JPG","This is a bim:","",""
"","html-keyboard-response","73","224505","0.0-6.0-0.22","LF","c7w24j9nfq","1920","1080","de","ck05ng18","null","","","","learningBlock1","","","","This is a tob:","null","","","","",""
"","image-keyboard-response","74","224856","0.0-6.0-1.22","LF","c7w24j9nfq","1920","1080","de","ck05ng18","null","","","","","","","","learning/Slide23.JPG","null","","","","",""
"","html-keyboard-response","75","225869","0.0-6.0-2.22","LF","c7w24j9nfq","1920","1080","de","ck05ng18","null","","","","learningBlock1","","","","<div style=""font-size:60px;""> </div>","null","LF","learning/Slide23.JPG","This is a tob:","",""
"","html-keyboard-response","76","226883","0.0-6.0-0.23","LF","c7w24j9nfq","1920","1080","de","ck05ng18","null","","","","learningBlock1","","","","This is a wug:","null","","","","",""
"","image-keyboard-response","77","227233","0.0-6.0-1.23","LF","c7w24j9nfq","1920","1080","de","ck05ng18","null","","","","","","","","learning/Slide24.JPG","null","","","","",""
"","html-keyboard-response","78","228238","0.0-6.0-2.23","LF","c7w24j9nfq","1920","1080","de","ck05ng18","null","","","","learningBlock1","","","","<div style=""font-size:60px;""> </div>","null","LF","learning/Slide24.JPG","This is a wug:","",""
"","html-keyboard-response","79","229254","0.0-6.0-0.24","LF","c7w24j9nfq","1920","1080","de","ck05ng18","null","","","","learningBlock1","","","","This is a dep:","null","","","","",""
"","image-keyboard-response","80","229588","0.0-6.0-1.24","LF","c7w24j9nfq","1920","1080","de","ck05ng18","null","","","","","","","","learning/Slide25.JPG","null","","","","",""
"","html-keyboard-response","81","230602","0.0-6.0-2.24","LF","c7w24j9nfq","1920","1080","de","ck05ng18","null","","","","learningBlock1","","","","<div style=""font-size:60px;""> </div>","null","LF","learning/Slide25.JPG","This is a dep:","",""
"","html-keyboard-response","82","231618","0.0-6.0-0.25","LF","c7w24j9nfq","1920","1080","de","ck05ng18","null","","","","learningBlock1","","","","This is a wug:","null","","","","",""
"","image-keyboard-response","83","231968","0.0-6.0-1.25","LF","c7w24j9nfq","1920","1080","de","ck05ng18","null","","","","","","","","learning/Slide26.JPG","null","","","","",""
"","html-keyboard-response","84","232969","0.0-6.0-2.25","LF","c7w24j9nfq","1920","1080","de","ck05ng18","null","","","","learningBlock1","","","","<div style=""font-size:60px;""> </div>","null","LF","learning/Slide26.JPG","This is a wug:","",""
"","html-keyboard-response","85","233986","0.0-6.0-0.26","LF","c7w24j9nfq","1920","1080","de","ck05ng18","null","","","","learningBlock1","","","","This is a bim:","null","","","","",""
"","image-keyboard-response","86","234336","0.0-6.0-1.26","LF","c7w24j9nfq","1920","1080","de","ck05ng18","null","","","","","","","","learning/Slide27.JPG","null","","","","",""
"","html-keyboard-response","87","235338","0.0-6.0-2.26","LF","c7w24j9nfq","1920","1080","de","ck05ng18","null","","","","learningBlock1","","","","<div style=""font-size:60px;""> </div>","null","LF","learning/Slide27.JPG","This is a bim:","",""
"","html-keyboard-response","88","236354","0.0-6.0-0.27","LF","c7w24j9nfq","1920","1080","de","ck05ng18","null","","","","learningBlock1","","","","This is a dep:","null","","","","",""
"","image-keyboard-response","89","236687","0.0-6.0-1.27","LF","c7w24j9nfq","1920","1080","de","ck05ng18","null","","","","","","","","learning/Slide28.JPG","null","","","","",""
"","html-keyboard-response","90","237703","0.0-6.0-2.27","LF","c7w24j9nfq","1920","1080","de","ck05ng18","null","","","","learningBlock1","","","","<div style=""font-size:60px;""> </div>","null","LF","learning/Slide28.JPG","This is a dep:","",""
"","html-keyboard-response","91","238710","0.0-6.0-0.28","LF","c7w24j9nfq","1920","1080","de","ck05ng18","null","","","","learningBlock1","","","","This is a tob:","null","","","","",""
"","image-keyboard-response","92","239061","0.0-6.0-1.28","LF","c7w24j9nfq","1920","1080","de","ck05ng18","null","","","","","","","","learning/Slide29.JPG","null","","","","",""
"","html-keyboard-response","93","240064","0.0-6.0-2.28","LF","c7w24j9nfq","1920","1080","de","ck05ng18","null","","","","learningBlock1","","","","<div style=""font-size:60px;""> </div>","null","LF","learning/Slide29.JPG","This is a tob:","",""
"","html-keyboard-response","94","241077","0.0-6.0-0.29","LF","c7w24j9nfq","1920","1080","de","ck05ng18","null","","","","learningBlock1","","","","This is a dep:","null","","","","",""
"","image-keyboard-response","95","241404","0.0-6.0-1.29","LF","c7w24j9nfq","1920","1080","de","ck05ng18","null","","","","","","","","learning/Slide30.JPG","null","","","","",""
"","html-keyboard-response","96","242416","0.0-6.0-2.29","LF","c7w24j9nfq","1920","1080","de","ck05ng18","null","","","","learningBlock1","","","","<div style=""font-size:60px;""> </div>","null","LF","learning/Slide30.JPG","This is a dep:","",""
"","html-keyboard-response","97","243430","0.0-6.0-0.30","LF","c7w24j9nfq","1920","1080","de","ck05ng18","null","","","","learningBlock1","","","","This is a wug:","null","","","","",""
"","image-keyboard-response","98","243765","0.0-6.0-1.30","LF","c7w24j9nfq","1920","1080","de","ck05ng18","null","","","","","","","","learning/Slide31.JPG","null","","","","",""
"","html-keyboard-response","99","244767","0.0-6.0-2.30","LF","c7w24j9nfq","1920","1080","de","ck05ng18","null","","","","learningBlock1","","","","<div style=""font-size:60px;""> </div>","null","LF","learning/Slide31.JPG","This is a wug:","",""
"","html-keyboard-response","100","245768","0.0-6.0-0.31","LF","c7w24j9nfq","1920","1080","de","ck05ng18","null","","","","learningBlock1","","","","This is a tob:","null","","","","",""
"","image-keyboard-response","101","246117","0.0-6.0-1.31","LF","c7w24j9nfq","1920","1080","de","ck05ng18","null","","","","","","","","learning/Slide32.JPG","null","","","","",""
"","html-keyboard-response","102","247125","0.0-6.0-2.31","LF","c7w24j9nfq","1920","1080","de","ck05ng18","null","","","","learningBlock1","","","","<div style=""font-size:60px;""> </div>","null","LF","learning/Slide32.JPG","This is a tob:","",""
"","html-keyboard-response","103","248141","0.0-6.0-0.32","LF","c7w24j9nfq","1920","1080","de","ck05ng18","null","","","","learningBlock1","","","","This is a bim:","null","","","","",""
"","image-keyboard-response","104","248468","0.0-6.0-1.32","LF","c7w24j9nfq","1920","1080","de","ck05ng18","null","","","","","","","","learning/Slide33.JPG","null","","","","",""
"","html-keyboard-response","105","249475","0.0-6.0-2.32","LF","c7w24j9nfq","1920","1080","de","ck05ng18","null","","","","learningBlock1","","","","<div style=""font-size:60px;""> </div>","null","LF","learning/Slide33.JPG","This is a bim:","",""
"","html-keyboard-response","106","250491","0.0-6.0-0.33","LF","c7w24j9nfq","1920","1080","de","ck05ng18","null","","","","learningBlock1","","","","This is a tob:","null","","","","",""
"","image-keyboard-response","107","250825","0.0-6.0-1.33","LF","c7w24j9nfq","1920","1080","de","ck05ng18","null","","","","","","","","learning/Slide34.JPG","null","","","","",""
"","html-keyboard-response","108","251839","0.0-6.0-2.33","LF","c7w24j9nfq","1920","1080","de","ck05ng18","null","","","","learningBlock1","","","","<div style=""font-size:60px;""> </div>","null","LF","learning/Slide34.JPG","This is a tob:","",""
"","html-keyboard-response","109","252853","0.0-6.0-0.34","LF","c7w24j9nfq","1920","1080","de","ck05ng18","null","","","","learningBlock1","","","","This is a bim:","null","","","","",""
"","image-keyboard-response","110","253186","0.0-6.0-1.34","LF","c7w24j9nfq","1920","1080","de","ck05ng18","null","","","","","","","","learning/Slide35.JPG","null","","","","",""
"","html-keyboard-response","111","254202","0.0-6.0-2.34","LF","c7w24j9nfq","1920","1080","de","ck05ng18","null","","","","learningBlock1","","","","<div style=""font-size:60px;""> </div>","null","LF","learning/Slide35.JPG","This is a bim:","",""
"","html-keyboard-response","112","255217","0.0-6.0-0.35","LF","c7w24j9nfq","1920","1080","de","ck05ng18","null","","","","learningBlock1","","","","This is a dep:","null","","","","",""
"","image-keyboard-response","113","255550","0.0-6.0-1.35","LF","c7w24j9nfq","1920","1080","de","ck05ng18","null","","","","","","","","learning/Slide36.JPG","null","","","","",""
"","html-keyboard-response","114","256566","0.0-6.0-2.35","LF","c7w24j9nfq","1920","1080","de","ck05ng18","null","","","","learningBlock1","","","","<div style=""font-size:60px;""> </div>","null","LF","learning/Slide36.JPG","This is a dep:","",""
"","html-keyboard-response","115","257582","0.0-6.0-0.36","LF","c7w24j9nfq","1920","1080","de","ck05ng18","null","","","","learningBlock1","","","","This is a tob:","null","","","","",""
"","image-keyboard-response","116","257918","0.0-6.0-1.36","LF","c7w24j9nfq","1920","1080","de","ck05ng18","null","","","","","","","","learning/Slide37.JPG","null","","","","",""
"","html-keyboard-response","117","258933","0.0-6.0-2.36","LF","c7w24j9nfq","1920","1080","de","ck05ng18","null","","","","learningBlock1","","","","<div style=""font-size:60px;""> </div>","null","LF","learning/Slide37.JPG","This is a tob:","",""
"","html-keyboard-response","118","259936","0.0-6.0-0.37","LF","c7w24j9nfq","1920","1080","de","ck05ng18","null","","","","learningBlock1","","","","This is a wug:","null","","","","",""
"","image-keyboard-response","119","260286","0.0-6.0-1.37","LF","c7w24j9nfq","1920","1080","de","ck05ng18","null","","","","","","","","learning/Slide38.JPG","null","","","","",""
"","html-keyboard-response","120","261288","0.0-6.0-2.37","LF","c7w24j9nfq","1920","1080","de","ck05ng18","null","","","","learningBlock1","","","","<div style=""font-size:60px;""> </div>","null","LF","learning/Slide38.JPG","This is a wug:","",""
"","html-keyboard-response","121","262290","0.0-6.0-0.38","LF","c7w24j9nfq","1920","1080","de","ck05ng18","null","","","","learningBlock1","","","","This is a bim:","null","","","","",""
"","image-keyboard-response","122","262626","0.0-6.0-1.38","LF","c7w24j9nfq","1920","1080","de","ck05ng18","null","","","","","","","","learning/Slide39.JPG","null","","","","",""
"","html-keyboard-response","123","263628","0.0-6.0-2.38","LF","c7w24j9nfq","1920","1080","de","ck05ng18","null","","","","learningBlock1","","","","<div style=""font-size:60px;""> </div>","null","LF","learning/Slide39.JPG","This is a bim:","",""
"","html-keyboard-response","124","264632","0.0-6.0-0.39","LF","c7w24j9nfq","1920","1080","de","ck05ng18","null","","","","learningBlock1","","","","This is a tob:","null","","","","",""
"","image-keyboard-response","125","264981","0.0-6.0-1.39","LF","c7w24j9nfq","1920","1080","de","ck05ng18","null","","","","","","","","learning/Slide40.JPG","null","","","","",""
"","html-keyboard-response","126","265982","0.0-6.0-2.39","LF","c7w24j9nfq","1920","1080","de","ck05ng18","null","","","","learningBlock1","","","","<div style=""font-size:60px;""> </div>","null","LF","learning/Slide40.JPG","This is a tob:","",""
"","html-keyboard-response","127","266996","0.0-6.0-0.40","LF","c7w24j9nfq","1920","1080","de","ck05ng18","null","","","","learningBlock1","","","","This is a bim:","null","","","","",""
"","image-keyboard-response","128","267331","0.0-6.0-1.40","LF","c7w24j9nfq","1920","1080","de","ck05ng18","null","","","","","","","","learning/Slide41.JPG","null","","","","",""
"","html-keyboard-response","129","268336","0.0-6.0-2.40","LF","c7w24j9nfq","1920","1080","de","ck05ng18","null","","","","learningBlock1","","","","<div style=""font-size:60px;""> </div>","null","LF","learning/Slide41.JPG","This is a bim:","",""
"","html-keyboard-response","130","269350","0.0-6.0-0.41","LF","c7w24j9nfq","1920","1080","de","ck05ng18","null","","","","learningBlock1","","","","This is a dep:","null","","","","",""
"","image-keyboard-response","131","269699","0.0-6.0-1.41","LF","c7w24j9nfq","1920","1080","de","ck05ng18","null","","","","","","","","learning/Slide42.JPG","null","","","","",""
"","html-keyboard-response","132","270712","0.0-6.0-2.41","LF","c7w24j9nfq","1920","1080","de","ck05ng18","null","","","","learningBlock1","","","","<div style=""font-size:60px;""> </div>","null","LF","learning/Slide42.JPG","This is a dep:","",""
"","html-keyboard-response","133","271726","0.0-6.0-0.42","LF","c7w24j9nfq","1920","1080","de","ck05ng18","null","","","","learningBlock1","","","","This is a wug:","null","","","","",""
"","image-keyboard-response","134","272059","0.0-6.0-1.42","LF","c7w24j9nfq","1920","1080","de","ck05ng18","null","","","","","","","","learning/Slide43.JPG","null","","","","",""
"","html-keyboard-response","135","273074","0.0-6.0-2.42","LF","c7w24j9nfq","1920","1080","de","ck05ng18","null","","","","learningBlock1","","","","<div style=""font-size:60px;""> </div>","null","LF","learning/Slide43.JPG","This is a wug:","",""
"","html-keyboard-response","136","274075","0.0-6.0-0.43","LF","c7w24j9nfq","1920","1080","de","ck05ng18","null","","","","learningBlock1","","","","This is a bim:","null","","","","",""
"","image-keyboard-response","137","274426","0.0-6.0-1.43","LF","c7w24j9nfq","1920","1080","de","ck05ng18","null","","","","","","","","learning/Slide44.JPG","null","","","","",""
"","html-keyboard-response","138","275428","0.0-6.0-2.43","LF","c7w24j9nfq","1920","1080","de","ck05ng18","null","","","","learningBlock1","","","","<div style=""font-size:60px;""> </div>","null","LF","learning/Slide44.JPG","This is a bim:","",""
"","html-keyboard-response","139","276431","0.0-6.0-0.44","LF","c7w24j9nfq","1920","1080","de","ck05ng18","null","","","","learningBlock1","","","","This is a wug:","null","","","","",""
"","image-keyboard-response","140","276766","0.0-6.0-1.44","LF","c7w24j9nfq","1920","1080","de","ck05ng18","null","","","","","","","","learning/Slide45.JPG","null","","","","",""
"","html-keyboard-response","141","277769","0.0-6.0-2.44","LF","c7w24j9nfq","1920","1080","de","ck05ng18","null","","","","learningBlock1","","","","<div style=""font-size:60px;""> </div>","null","LF","learning/Slide45.JPG","This is a wug:","",""
"","html-keyboard-response","142","278771","0.0-6.0-0.45","LF","c7w24j9nfq","1920","1080","de","ck05ng18","null","","","","learningBlock1","","","","This is a dep:","null","","","","",""
"","image-keyboard-response","143","279099","0.0-6.0-1.45","LF","c7w24j9nfq","1920","1080","de","ck05ng18","null","","","","","","","","learning/Slide46.JPG","null","","","","",""
"","html-keyboard-response","144","280108","0.0-6.0-2.45","LF","c7w24j9nfq","1920","1080","de","ck05ng18","null","","","","learningBlock1","","","","<div style=""font-size:60px;""> </div>","null","LF","learning/Slide46.JPG","This is a dep:","",""
"","html-keyboard-response","145","281120","0.0-6.0-0.46","LF","c7w24j9nfq","1920","1080","de","ck05ng18","null","","","","learningBlock1","","","","This is a tob:","null","","","","",""
"","image-keyboard-response","146","281470","0.0-6.0-1.46","LF","c7w24j9nfq","1920","1080","de","ck05ng18","null","","","","","","","","learning/Slide47.JPG","null","","","","",""
"","html-keyboard-response","147","282472","0.0-6.0-2.46","LF","c7w24j9nfq","1920","1080","de","ck05ng18","null","","","","learningBlock1","","","","<div style=""font-size:60px;""> </div>","null","LF","learning/Slide47.JPG","This is a tob:","",""
"","html-keyboard-response","148","283485","0.0-6.0-0.47","LF","c7w24j9nfq","1920","1080","de","ck05ng18","null","","","","learningBlock1","","","","This is a bim:","null","","","","",""
"","image-keyboard-response","149","283817","0.0-6.0-1.47","LF","c7w24j9nfq","1920","1080","de","ck05ng18","null","","","","","","","","learning/Slide48.JPG","null","","","","",""
"","html-keyboard-response","150","284818","0.0-6.0-2.47","LF","c7w24j9nfq","1920","1080","de","ck05ng18","null","","","","learningBlock1","","","","<div style=""font-size:60px;""> </div>","null","LF","learning/Slide48.JPG","This is a bim:","",""
"","html-keyboard-response","151","285821","0.0-6.0-0.48","LF","c7w24j9nfq","1920","1080","de","ck05ng18","null","","","","learningBlock1","","","","This is a dep:","null","","","","",""
"","image-keyboard-response","152","286168","0.0-6.0-1.48","LF","c7w24j9nfq","1920","1080","de","ck05ng18","null","","","","","","","","learning/Slide49.JPG","null","","","","",""
"","html-keyboard-response","153","287170","0.0-6.0-2.48","LF","c7w24j9nfq","1920","1080","de","ck05ng18","null","","","","learningBlock1","","","","<div style=""font-size:60px;""> </div>","null","LF","learning/Slide49.JPG","This is a dep:","",""
"","html-keyboard-response","154","288174","0.0-6.0-0.49","LF","c7w24j9nfq","1920","1080","de","ck05ng18","null","","","","learningBlock1","","","","This is a tob:","null","","","","",""
"","image-keyboard-response","155","288510","0.0-6.0-1.49","LF","c7w24j9nfq","1920","1080","de","ck05ng18","null","","","","","","","","learning/Slide50.JPG","null","","","","",""
"","html-keyboard-response","156","289525","0.0-6.0-2.49","LF","c7w24j9nfq","1920","1080","de","ck05ng18","null","","","","learningBlock1","","","","<div style=""font-size:60px;""> </div>","null","LF","learning/Slide50.JPG","This is a tob:","",""
"","html-keyboard-response","157","290531","0.0-6.0-0.50","LF","c7w24j9nfq","1920","1080","de","ck05ng18","null","","","","learningBlock1","","","","This is a bim:","null","","","","",""
"","image-keyboard-response","158","290880","0.0-6.0-1.50","LF","c7w24j9nfq","1920","1080","de","ck05ng18","null","","","","","","","","learning/Slide51.JPG","null","","","","",""
"","html-keyboard-response","159","291882","0.0-6.0-2.50","LF","c7w24j9nfq","1920","1080","de","ck05ng18","null","","","","learningBlock1","","","","<div style=""font-size:60px;""> </div>","null","LF","learning/Slide51.JPG","This is a bim:","",""
"","html-keyboard-response","160","292896","0.0-6.0-0.51","LF","c7w24j9nfq","1920","1080","de","ck05ng18","null","","","","learningBlock1","","","","This is a wug:","null","","","","",""
"","image-keyboard-response","161","293243","0.0-6.0-1.51","LF","c7w24j9nfq","1920","1080","de","ck05ng18","null","","","","","","","","learning/Slide52.JPG","null","","","","",""
"","html-keyboard-response","162","294257","0.0-6.0-2.51","LF","c7w24j9nfq","1920","1080","de","ck05ng18","null","","","","learningBlock1","","","","<div style=""font-size:60px;""> </div>","null","LF","learning/Slide52.JPG","This is a wug:","",""
"","html-keyboard-response","163","295273","0.0-6.0-0.52","LF","c7w24j9nfq","1920","1080","de","ck05ng18","null","","","","learningBlock1","","","","This is a tob:","null","","","","",""
"","image-keyboard-response","164","295608","0.0-6.0-1.52","LF","c7w24j9nfq","1920","1080","de","ck05ng18","null","","","","","","","","learning/Slide53.JPG","null","","","","",""
"","html-keyboard-response","165","296617","0.0-6.0-2.52","LF","c7w24j9nfq","1920","1080","de","ck05ng18","null","","","","learningBlock1","","","","<div style=""font-size:60px;""> </div>","null","LF","learning/Slide53.JPG","This is a tob:","",""
"","html-keyboard-response","166","297633","0.0-6.0-0.53","LF","c7w24j9nfq","1920","1080","de","ck05ng18","null","","","","learningBlock1","","","","This is a dep:","null","","","","",""
"","image-keyboard-response","167","297961","0.0-6.0-1.53","LF","c7w24j9nfq","1920","1080","de","ck05ng18","null","","","","","","","","learning/Slide54.JPG","null","","","","",""
"","html-keyboard-response","168","298961","0.0-6.0-2.53","LF","c7w24j9nfq","1920","1080","de","ck05ng18","null","","","","learningBlock1","","","","<div style=""font-size:60px;""> </div>","null","LF","learning/Slide54.JPG","This is a dep:","",""
"","html-keyboard-response","169","299965","0.0-6.0-0.54","LF","c7w24j9nfq","1920","1080","de","ck05ng18","null","","","","learningBlock1","","","","This is a bim:","null","","","","",""
"","image-keyboard-response","170","300314","0.0-6.0-1.54","LF","c7w24j9nfq","1920","1080","de","ck05ng18","null","","","","","","","","learning/Slide55.JPG","null","","","","",""
"","html-keyboard-response","171","301326","0.0-6.0-2.54","LF","c7w24j9nfq","1920","1080","de","ck05ng18","null","","","","learningBlock1","","","","<div style=""font-size:60px;""> </div>","null","LF","learning/Slide55.JPG","This is a bim:","",""
"","html-keyboard-response","172","302330","0.0-6.0-0.55","LF","c7w24j9nfq","1920","1080","de","ck05ng18","null","","","","learningBlock1","","","","This is a tob:","null","","","","",""
"","image-keyboard-response","173","302676","0.0-6.0-1.55","LF","c7w24j9nfq","1920","1080","de","ck05ng18","null","","","","","","","","learning/Slide56.JPG","null","","","","",""
"","html-keyboard-response","174","303685","0.0-6.0-2.55","LF","c7w24j9nfq","1920","1080","de","ck05ng18","null","","","","learningBlock1","","","","<div style=""font-size:60px;""> </div>","null","LF","learning/Slide56.JPG","This is a tob:","",""
"","html-keyboard-response","175","304686","0.0-6.0-0.56","LF","c7w24j9nfq","1920","1080","de","ck05ng18","null","","","","learningBlock1","","","","This is a dep:","null","","","","",""
"","image-keyboard-response","176","305019","0.0-6.0-1.56","LF","c7w24j9nfq","1920","1080","de","ck05ng18","null","","","","","","","","learning/Slide57.JPG","null","","","","",""
"","html-keyboard-response","177","306023","0.0-6.0-2.56","LF","c7w24j9nfq","1920","1080","de","ck05ng18","null","","","","learningBlock1","","","","<div style=""font-size:60px;""> </div>","null","LF","learning/Slide57.JPG","This is a dep:","",""
"","html-keyboard-response","178","307036","0.0-6.0-0.57","LF","c7w24j9nfq","1920","1080","de","ck05ng18","null","","","","learningBlock1","","","","This is a wug:","null","","","","",""
"","image-keyboard-response","179","307382","0.0-6.0-1.57","LF","c7w24j9nfq","1920","1080","de","ck05ng18","null","","","","","","","","learning/Slide58.JPG","null","","","","",""
"","html-keyboard-response","180","308397","0.0-6.0-2.57","LF","c7w24j9nfq","1920","1080","de","ck05ng18","null","","","","learningBlock1","","","","<div style=""font-size:60px;""> </div>","null","LF","learning/Slide58.JPG","This is a wug:","",""
"","html-keyboard-response","181","309400","0.0-6.0-0.58","LF","c7w24j9nfq","1920","1080","de","ck05ng18","null","","","","learningBlock1","","","","This is a dep:","null","","","","",""
"","image-keyboard-response","182","309734","0.0-6.0-1.58","LF","c7w24j9nfq","1920","1080","de","ck05ng18","null","","","","","","","","learning/Slide59.JPG","null","","","","",""
"","html-keyboard-response","183","310736","0.0-6.0-2.58","LF","c7w24j9nfq","1920","1080","de","ck05ng18","null","","","","learningBlock1","","","","<div style=""font-size:60px;""> </div>","null","LF","learning/Slide59.JPG","This is a dep:","",""
"","html-keyboard-response","184","311752","0.0-6.0-0.59","LF","c7w24j9nfq","1920","1080","de","ck05ng18","null","","","","learningBlock1","","","","This is a wug:","null","","","","",""
"","image-keyboard-response","185","312088","0.0-6.0-1.59","LF","c7w24j9nfq","1920","1080","de","ck05ng18","null","","","","","","","","learning/Slide60.JPG","null","","","","",""
"","html-keyboard-response","186","313104","0.0-6.0-2.59","LF","c7w24j9nfq","1920","1080","de","ck05ng18","null","","","","learningBlock1","","","","<div style=""font-size:60px;""> </div>","null","LF","learning/Slide60.JPG","This is a wug:","",""
"","html-keyboard-response","187","314117","0.0-6.0-0.60","LF","c7w24j9nfq","1920","1080","de","ck05ng18","null","","","","learningBlock1","","","","This is a bim:","null","","","","",""
"","image-keyboard-response","188","314464","0.0-6.0-1.60","LF","c7w24j9nfq","1920","1080","de","ck05ng18","null","","","","","","","","learning/Slide61.JPG","null","","","","",""
"","html-keyboard-response","189","315467","0.0-6.0-2.60","LF","c7w24j9nfq","1920","1080","de","ck05ng18","null","","","","learningBlock1","","","","<div style=""font-size:60px;""> </div>","null","LF","learning/Slide61.JPG","This is a bim:","",""
"","html-keyboard-response","190","316482","0.0-6.0-0.61","LF","c7w24j9nfq","1920","1080","de","ck05ng18","null","","","","learningBlock1","","","","This is a dep:","null","","","","",""
"","image-keyboard-response","191","316818","0.0-6.0-1.61","LF","c7w24j9nfq","1920","1080","de","ck05ng18","null","","","","","","","","learning/Slide62.JPG","null","","","","",""
"","html-keyboard-response","192","317832","0.0-6.0-2.61","LF","c7w24j9nfq","1920","1080","de","ck05ng18","null","","","","learningBlock1","","","","<div style=""font-size:60px;""> </div>","null","LF","learning/Slide62.JPG","This is a dep:","",""
"","html-keyboard-response","193","318846","0.0-6.0-0.62","LF","c7w24j9nfq","1920","1080","de","ck05ng18","null","","","","learningBlock1","","","","This is a bim:","null","","","","",""
"","image-keyboard-response","194","319178","0.0-6.0-1.62","LF","c7w24j9nfq","1920","1080","de","ck05ng18","null","","","","","","","","learning/Slide63.JPG","null","","","","",""
"","html-keyboard-response","195","320188","0.0-6.0-2.62","LF","c7w24j9nfq","1920","1080","de","ck05ng18","null","","","","learningBlock1","","","","<div style=""font-size:60px;""> </div>","null","LF","learning/Slide63.JPG","This is a bim:","",""
"","html-keyboard-response","196","321191","0.0-6.0-0.63","LF","c7w24j9nfq","1920","1080","de","ck05ng18","null","","","","learningBlock1","","","","This is a tob:","null","","","","",""
"","image-keyboard-response","197","321519","0.0-6.0-1.63","LF","c7w24j9nfq","1920","1080","de","ck05ng18","null","","","","","","","","learning/Slide64.JPG","null","","","","",""
"","html-keyboard-response","198","322529","0.0-6.0-2.63","LF","c7w24j9nfq","1920","1080","de","ck05ng18","null","","","","learningBlock1","","","","<div style=""font-size:60px;""> </div>","null","LF","learning/Slide64.JPG","This is a tob:","",""
"","html-keyboard-response","199","323541","0.0-6.0-0.64","LF","c7w24j9nfq","1920","1080","de","ck05ng18","null","","","","learningBlock1","","","","This is a wug:","null","","","","",""
"","image-keyboard-response","200","323878","0.0-6.0-1.64","LF","c7w24j9nfq","1920","1080","de","ck05ng18","null","","","","","","","","learning/Slide65.JPG","null","","","","",""
"","html-keyboard-response","201","324889","0.0-6.0-2.64","LF","c7w24j9nfq","1920","1080","de","ck05ng18","null","","","","learningBlock1","","","","<div style=""font-size:60px;""> </div>","null","LF","learning/Slide65.JPG","This is a wug:","",""
"","html-keyboard-response","202","325892","0.0-6.0-0.65","LF","c7w24j9nfq","1920","1080","de","ck05ng18","null","","","","learningBlock1","","","","This is a dep:","null","","","","",""
"","image-keyboard-response","203","326234","0.0-6.0-1.65","LF","c7w24j9nfq","1920","1080","de","ck05ng18","null","","","","","","","","learning/Slide66.JPG","null","","","","",""
"","html-keyboard-response","204","327250","0.0-6.0-2.65","LF","c7w24j9nfq","1920","1080","de","ck05ng18","null","","","","learningBlock1","","","","<div style=""font-size:60px;""> </div>","null","LF","learning/Slide66.JPG","This is a dep:","",""
"","html-keyboard-response","205","328265","0.0-6.0-0.66","LF","c7w24j9nfq","1920","1080","de","ck05ng18","null","","","","learningBlock1","","","","This is a tob:","null","","","","",""
"","image-keyboard-response","206","328592","0.0-6.0-1.66","LF","c7w24j9nfq","1920","1080","de","ck05ng18","null","","","","","","","","learning/Slide67.JPG","null","","","","",""
"","html-keyboard-response","207","329598","0.0-6.0-2.66","LF","c7w24j9nfq","1920","1080","de","ck05ng18","null","","","","learningBlock1","","","","<div style=""font-size:60px;""> </div>","null","LF","learning/Slide67.JPG","This is a tob:","",""
"","html-keyboard-response","208","330601","0.0-6.0-0.67","LF","c7w24j9nfq","1920","1080","de","ck05ng18","null","","","","learningBlock1","","","","This is a wug:","null","","","","",""
"","image-keyboard-response","209","330936","0.0-6.0-1.67","LF","c7w24j9nfq","1920","1080","de","ck05ng18","null","","","","","","","","learning/Slide68.JPG","null","","","","",""
"","html-keyboard-response","210","331948","0.0-6.0-2.67","LF","c7w24j9nfq","1920","1080","de","ck05ng18","null","","","","learningBlock1","","","","<div style=""font-size:60px;""> </div>","null","LF","learning/Slide68.JPG","This is a wug:","",""
"","html-keyboard-response","211","332960","0.0-6.0-0.68","LF","c7w24j9nfq","1920","1080","de","ck05ng18","null","","","","learningBlock1","","","","This is a tob:","null","","","","",""
"","image-keyboard-response","212","333287","0.0-6.0-1.68","LF","c7w24j9nfq","1920","1080","de","ck05ng18","null","","","","","","","","learning/Slide69.JPG","null","","","","",""
"","html-keyboard-response","213","334298","0.0-6.0-2.68","LF","c7w24j9nfq","1920","1080","de","ck05ng18","null","","","","learningBlock1","","","","<div style=""font-size:60px;""> </div>","null","LF","learning/Slide69.JPG","This is a tob:","",""
"","html-keyboard-response","214","335300","0.0-6.0-0.69","LF","c7w24j9nfq","1920","1080","de","ck05ng18","null","","","","learningBlock1","","","","This is a dep:","null","","","","",""
"","image-keyboard-response","215","335632","0.0-6.0-1.69","LF","c7w24j9nfq","1920","1080","de","ck05ng18","null","","","","","","","","learning/Slide70.JPG","null","","","","",""
"","html-keyboard-response","216","336643","0.0-6.0-2.69","LF","c7w24j9nfq","1920","1080","de","ck05ng18","null","","","","learningBlock1","","","","<div style=""font-size:60px;""> </div>","null","LF","learning/Slide70.JPG","This is a dep:","",""
"","html-keyboard-response","217","337658","0.0-6.0-0.70","LF","c7w24j9nfq","1920","1080","de","ck05ng18","null","","","","learningBlock1","","","","This is a wug:","null","","","","",""
"","image-keyboard-response","218","337993","0.0-6.0-1.70","LF","c7w24j9nfq","1920","1080","de","ck05ng18","null","","","","","","","","learning/Slide71.JPG","null","","","","",""
"","html-keyboard-response","219","338998","0.0-6.0-2.70","LF","c7w24j9nfq","1920","1080","de","ck05ng18","null","","","","learningBlock1","","","","<div style=""font-size:60px;""> </div>","null","LF","learning/Slide71.JPG","This is a wug:","",""
"","html-keyboard-response","220","340000","0.0-6.0-0.71","LF","c7w24j9nfq","1920","1080","de","ck05ng18","null","","","","learningBlock1","","","","This is a bim:","null","","","","",""
"","image-keyboard-response","221","340350","0.0-6.0-1.71","LF","c7w24j9nfq","1920","1080","de","ck05ng18","null","","","","","","","","learning/Slide72.JPG","null","","","","",""
"","html-keyboard-response","222","341363","0.0-6.0-2.71","LF","c7w24j9nfq","1920","1080","de","ck05ng18","null","","","","learningBlock1","","","","<div style=""font-size:60px;""> </div>","null","LF","learning/Slide72.JPG","This is a bim:","",""
"","html-keyboard-response","223","342377","0.0-6.0-0.72","LF","c7w24j9nfq","1920","1080","de","ck05ng18","null","","","","learningBlock1","","","","This is a wug:","null","","","","",""
"","image-keyboard-response","224","342706","0.0-6.0-1.72","LF","c7w24j9nfq","1920","1080","de","ck05ng18","null","","","","","","","","learning/Slide73.JPG","null","","","","",""
"","html-keyboard-response","225","343722","0.0-6.0-2.72","LF","c7w24j9nfq","1920","1080","de","ck05ng18","null","","","","learningBlock1","","","","<div style=""font-size:60px;""> </div>","null","LF","learning/Slide73.JPG","This is a wug:","",""
"","html-keyboard-response","226","344725","0.0-6.0-0.73","LF","c7w24j9nfq","1920","1080","de","ck05ng18","null","","","","learningBlock1","","","","This is a dep:","null","","","","",""
"","image-keyboard-response","227","345072","0.0-6.0-1.73","LF","c7w24j9nfq","1920","1080","de","ck05ng18","null","","","","","","","","learning/Slide74.JPG","null","","","","",""
"","html-keyboard-response","228","346083","0.0-6.0-2.73","LF","c7w24j9nfq","1920","1080","de","ck05ng18","null","","","","learningBlock1","","","","<div style=""font-size:60px;""> </div>","null","LF","learning/Slide74.JPG","This is a dep:","",""
"","html-keyboard-response","229","347100","0.0-6.0-0.74","LF","c7w24j9nfq","1920","1080","de","ck05ng18","null","","","","learningBlock1","","","","This is a tob:","null","","","","",""
"","image-keyboard-response","230","347434","0.0-6.0-1.74","LF","c7w24j9nfq","1920","1080","de","ck05ng18","null","","","","","","","","learning/Slide75.JPG","null","","","","",""
"","html-keyboard-response","231","348449","0.0-6.0-2.74","LF","c7w24j9nfq","1920","1080","de","ck05ng18","null","","","","learningBlock1","","","","<div style=""font-size:60px;""> </div>","null","LF","learning/Slide75.JPG","This is a tob:","",""
"","html-keyboard-response","232","349451","0.0-6.0-0.75","LF","c7w24j9nfq","1920","1080","de","ck05ng18","null","","","","learningBlock1","","","","This is a bim:","null","","","","",""
"","image-keyboard-response","233","349785","0.0-6.0-1.75","LF","c7w24j9nfq","1920","1080","de","ck05ng18","null","","","","","","","","learning/Slide76.JPG","null","","","","",""
"","html-keyboard-response","234","350802","0.0-6.0-2.75","LF","c7w24j9nfq","1920","1080","de","ck05ng18","null","","","","learningBlock1","","","","<div style=""font-size:60px;""> </div>","null","LF","learning/Slide76.JPG","This is a bim:","",""
"","html-keyboard-response","235","351804","0.0-6.0-0.76","LF","c7w24j9nfq","1920","1080","de","ck05ng18","null","","","","learningBlock1","","","","This is a tob:","null","","","","",""
"","image-keyboard-response","236","352154","0.0-6.0-1.76","LF","c7w24j9nfq","1920","1080","de","ck05ng18","null","","","","","","","","learning/Slide77.JPG","null","","","","",""
"","html-keyboard-response","237","353167","0.0-6.0-2.76","LF","c7w24j9nfq","1920","1080","de","ck05ng18","null","","","","learningBlock1","","","","<div style=""font-size:60px;""> </div>","null","LF","learning/Slide77.JPG","This is a tob:","",""
"","html-keyboard-response","238","354183","0.0-6.0-0.77","LF","c7w24j9nfq","1920","1080","de","ck05ng18","null","","","","learningBlock1","","","","This is a wug:","null","","","","",""
"","image-keyboard-response","239","354518","0.0-6.0-1.77","LF","c7w24j9nfq","1920","1080","de","ck05ng18","null","","","","","","","","learning/Slide78.JPG","null","","","","",""
"","html-keyboard-response","240","355529","0.0-6.0-2.77","LF","c7w24j9nfq","1920","1080","de","ck05ng18","null","","","","learningBlock1","","","","<div style=""font-size:60px;""> </div>","null","LF","learning/Slide78.JPG","This is a wug:","",""
"","html-keyboard-response","241","356540","0.0-6.0-0.78","LF","c7w24j9nfq","1920","1080","de","ck05ng18","null","","","","learningBlock1","","","","This is a bim:","null","","","","",""
"","image-keyboard-response","242","356890","0.0-6.0-1.78","LF","c7w24j9nfq","1920","1080","de","ck05ng18","null","","","","","","","","learning/Slide79.JPG","null","","","","",""
"","html-keyboard-response","243","357904","0.0-6.0-2.78","LF","c7w24j9nfq","1920","1080","de","ck05ng18","null","","","","learningBlock1","","","","<div style=""font-size:60px;""> </div>","null","LF","learning/Slide79.JPG","This is a bim:","",""
"","html-keyboard-response","244","358906","0.0-6.0-0.79","LF","c7w24j9nfq","1920","1080","de","ck05ng18","null","","","","learningBlock1","","","","This is a tob:","null","","","","",""
"","image-keyboard-response","245","359242","0.0-6.0-1.79","LF","c7w24j9nfq","1920","1080","de","ck05ng18","null","","","","","","","","learning/Slide80.JPG","null","","","","",""
"","html-keyboard-response","246","360252","0.0-6.0-2.79","LF","c7w24j9nfq","1920","1080","de","ck05ng18","null","","","","learningBlock1","","","","<div style=""font-size:60px;""> </div>","null","LF","learning/Slide80.JPG","This is a tob:","",""
"","instructions","247","375438","0.0-7.0","LF","c7w24j9nfq","1920","1080","de","ck05ng18","NA","","","[{""page_index"":0,""viewing_time"":15185.765000001993}]","instructions","","","","","","","","","",""
"","html-keyboard-response","248","376440","0.0-8.0-0.0","LF","c7w24j9nfq","1920","1080","de","ck05ng18","null","","","","learningBlock2","","","","This is a wug:","null","","","","",""
"","image-keyboard-response","249","376775","0.0-8.0-1.0","LF","c7w24j9nfq","1920","1080","de","ck05ng18","null","","","","","","","","learning/Slide81.JPG","null","","","","",""
"","html-keyboard-response","250","377780","0.0-8.0-2.0","LF","c7w24j9nfq","1920","1080","de","ck05ng18","null","","","","learningBlock2","","","","<div style=""font-size:60px;""> </div>","null","LF","learning/Slide81.JPG","This is a wug:","",""
"","html-keyboard-response","251","378782","0.0-8.0-0.1","LF","c7w24j9nfq","1920","1080","de","ck05ng18","null","","","","learningBlock2","","","","This is a bim:","null","","","","",""
"","image-keyboard-response","252","379131","0.0-8.0-1.1","LF","c7w24j9nfq","1920","1080","de","ck05ng18","null","","","","","","","","learning/Slide82.JPG","null","","","","",""
"","html-keyboard-response","253","380147","0.0-8.0-2.1","LF","c7w24j9nfq","1920","1080","de","ck05ng18","null","","","","learningBlock2","","","","<div style=""font-size:60px;""> </div>","null","LF","learning/Slide82.JPG","This is a bim:","",""
"","html-keyboard-response","254","381162","0.0-8.0-0.2","LF","c7w24j9nfq","1920","1080","de","ck05ng18","null","","","","learningBlock2","","","","This is a wug:","null","","","","",""
"","image-keyboard-response","255","381509","0.0-8.0-1.2","LF","c7w24j9nfq","1920","1080","de","ck05ng18","null","","","","","","","","learning/Slide83.JPG","null","","","","",""
"","html-keyboard-response","256","382525","0.0-8.0-2.2","LF","c7w24j9nfq","1920","1080","de","ck05ng18","null","","","","learningBlock2","","","","<div style=""font-size:60px;""> </div>","null","LF","learning/Slide83.JPG","This is a wug:","",""
"","html-keyboard-response","257","383540","0.0-8.0-0.3","LF","c7w24j9nfq","1920","1080","de","ck05ng18","null","","","","learningBlock2","","","","This is a dep:","null","","","","",""
"","image-keyboard-response","258","383867","0.0-8.0-1.3","LF","c7w24j9nfq","1920","1080","de","ck05ng18","null","","","","","","","","learning/Slide84.JPG","null","","","","",""
"","html-keyboard-response","259","384873","0.0-8.0-2.3","LF","c7w24j9nfq","1920","1080","de","ck05ng18","null","","","","learningBlock2","","","","<div style=""font-size:60px;""> </div>","null","LF","learning/Slide84.JPG","This is a dep:","",""
"","html-keyboard-response","260","385889","0.0-8.0-0.4","LF","c7w24j9nfq","1920","1080","de","ck05ng18","null","","","","learningBlock2","","","","This is a bim:","null","","","","",""
"","image-keyboard-response","261","386226","0.0-8.0-1.4","LF","c7w24j9nfq","1920","1080","de","ck05ng18","null","","","","","","","","learning/Slide85.JPG","null","","","","",""
"","html-keyboard-response","262","387240","0.0-8.0-2.4","LF","c7w24j9nfq","1920","1080","de","ck05ng18","null","","","","learningBlock2","","","","<div style=""font-size:60px;""> </div>","null","LF","learning/Slide85.JPG","This is a bim:","",""
"","html-keyboard-response","263","388243","0.0-8.0-0.5","LF","c7w24j9nfq","1920","1080","de","ck05ng18","null","","","","learningBlock2","","","","This is a tob:","null","","","","",""
"","image-keyboard-response","264","388592","0.0-8.0-1.5","LF","c7w24j9nfq","1920","1080","de","ck05ng18","null","","","","","","","","learning/Slide86.JPG","null","","","","",""
"","html-keyboard-response","265","389609","0.0-8.0-2.5","LF","c7w24j9nfq","1920","1080","de","ck05ng18","null","","","","learningBlock2","","","","<div style=""font-size:60px;""> </div>","null","LF","learning/Slide86.JPG","This is a tob:","",""
"","html-keyboard-response","266","390624","0.0-8.0-0.6","LF","c7w24j9nfq","1920","1080","de","ck05ng18","null","","","","learningBlock2","","","","This is a wug:","null","","","","",""
"","image-keyboard-response","267","390974","0.0-8.0-1.6","LF","c7w24j9nfq","1920","1080","de","ck05ng18","null","","","","","","","","learning/Slide87.JPG","null","","","","",""
"","html-keyboard-response","268","391981","0.0-8.0-2.6","LF","c7w24j9nfq","1920","1080","de","ck05ng18","null","","","","learningBlock2","","","","<div style=""font-size:60px;""> </div>","null","LF","learning/Slide87.JPG","This is a wug:","",""
"","html-keyboard-response","269","392993","0.0-8.0-0.7","LF","c7w24j9nfq","1920","1080","de","ck05ng18","null","","","","learningBlock2","","","","This is a tob:","null","","","","",""
"","image-keyboard-response","270","393328","0.0-8.0-1.7","LF","c7w24j9nfq","1920","1080","de","ck05ng18","null","","","","","","","","learning/Slide88.JPG","null","","","","",""
"","html-keyboard-response","271","394344","0.0-8.0-2.7","LF","c7w24j9nfq","1920","1080","de","ck05ng18","null","","","","learningBlock2","","","","<div style=""font-size:60px;""> </div>","null","LF","learning/Slide88.JPG","This is a tob:","",""
"","html-keyboard-response","272","395347","0.0-8.0-0.8","LF","c7w24j9nfq","1920","1080","de","ck05ng18","null","","","","learningBlock2","","","","This is a bim:","null","","","","",""
"","image-keyboard-response","273","395683","0.0-8.0-1.8","LF","c7w24j9nfq","1920","1080","de","ck05ng18","null","","","","","","","","learning/Slide89.JPG","null","","","","",""
"","html-keyboard-response","274","396684","0.0-8.0-2.8","LF","c7w24j9nfq","1920","1080","de","ck05ng18","null","","","","learningBlock2","","","","<div style=""font-size:60px;""> </div>","null","LF","learning/Slide89.JPG","This is a bim:","",""
"","html-keyboard-response","275","397690","0.0-8.0-0.9","LF","c7w24j9nfq","1920","1080","de","ck05ng18","null","","","","learningBlock2","","","","This is a dep:","null","","","","",""
"","image-keyboard-response","276","398024","0.0-8.0-1.9","LF","c7w24j9nfq","1920","1080","de","ck05ng18","null","","","","","","","","learning/Slide90.JPG","null","","","","",""
"","html-keyboard-response","277","399040","0.0-8.0-2.9","LF","c7w24j9nfq","1920","1080","de","ck05ng18","null","","","","learningBlock2","","","","<div style=""font-size:60px;""> </div>","null","LF","learning/Slide90.JPG","This is a dep:","",""
"","html-keyboard-response","278","400046","0.0-8.0-0.10","LF","c7w24j9nfq","1920","1080","de","ck05ng18","null","","","","learningBlock2","","","","This is a wug:","null","","","","",""
"","image-keyboard-response","279","400373","0.0-8.0-1.10","LF","c7w24j9nfq","1920","1080","de","ck05ng18","null","","","","","","","","learning/Slide91.JPG","null","","","","",""
"","html-keyboard-response","280","401377","0.0-8.0-2.10","LF","c7w24j9nfq","1920","1080","de","ck05ng18","null","","","","learningBlock2","","","","<div style=""font-size:60px;""> </div>","null","LF","learning/Slide91.JPG","This is a wug:","",""
"","html-keyboard-response","281","402378","0.0-8.0-0.11","LF","c7w24j9nfq","1920","1080","de","ck05ng18","null","","","","learningBlock2","","","","This is a tob:","null","","","","",""
"","image-keyboard-response","282","402705","0.0-8.0-1.11","LF","c7w24j9nfq","1920","1080","de","ck05ng18","null","","","","","","","","learning/Slide92.JPG","null","","","","",""
"","html-keyboard-response","283","403708","0.0-8.0-2.11","LF","c7w24j9nfq","1920","1080","de","ck05ng18","null","","","","learningBlock2","","","","<div style=""font-size:60px;""> </div>","null","LF","learning/Slide92.JPG","This is a tob:","",""
"","html-keyboard-response","284","404724","0.0-8.0-0.12","LF","c7w24j9nfq","1920","1080","de","ck05ng18","null","","","","learningBlock2","","","","This is a bim:","null","","","","",""
"","image-keyboard-response","285","405073","0.0-8.0-1.12","LF","c7w24j9nfq","1920","1080","de","ck05ng18","null","","","","","","","","learning/Slide93.JPG","null","","","","",""
"","html-keyboard-response","286","406074","0.0-8.0-2.12","LF","c7w24j9nfq","1920","1080","de","ck05ng18","null","","","","learningBlock2","","","","<div style=""font-size:60px;""> </div>","null","LF","learning/Slide93.JPG","This is a bim:","",""
"","html-keyboard-response","287","407080","0.0-8.0-0.13","LF","c7w24j9nfq","1920","1080","de","ck05ng18","null","","","","learningBlock2","","","","This is a tob:","null","","","","",""
"","image-keyboard-response","288","407409","0.0-8.0-1.13","LF","c7w24j9nfq","1920","1080","de","ck05ng18","null","","","","","","","","learning/Slide94.JPG","null","","","","",""
"","html-keyboard-response","289","408415","0.0-8.0-2.13","LF","c7w24j9nfq","1920","1080","de","ck05ng18","null","","","","learningBlock2","","","","<div style=""font-size:60px;""> </div>","null","LF","learning/Slide94.JPG","This is a tob:","",""
"","html-keyboard-response","290","409431","0.0-8.0-0.14","LF","c7w24j9nfq","1920","1080","de","ck05ng18","null","","","","learningBlock2","","","","This is a wug:","null","","","","",""
"","image-keyboard-response","291","409780","0.0-8.0-1.14","LF","c7w24j9nfq","1920","1080","de","ck05ng18","null","","","","","","","","learning/Slide95.JPG","null","","","","",""
"","html-keyboard-response","292","410786","0.0-8.0-2.14","LF","c7w24j9nfq","1920","1080","de","ck05ng18","null","","","","learningBlock2","","","","<div style=""font-size:60px;""> </div>","null","LF","learning/Slide95.JPG","This is a wug:","",""
"","html-keyboard-response","293","411787","0.0-8.0-0.15","LF","c7w24j9nfq","1920","1080","de","ck05ng18","null","","","","learningBlock2","","","","This is a tob:","null","","","","",""
"","image-keyboard-response","294","412122","0.0-8.0-1.15","LF","c7w24j9nfq","1920","1080","de","ck05ng18","null","","","","","","","","learning/Slide96.JPG","null","","","","",""
"","html-keyboard-response","295","413138","0.0-8.0-2.15","LF","c7w24j9nfq","1920","1080","de","ck05ng18","null","","","","learningBlock2","","","","<div style=""font-size:60px;""> </div>","null","LF","learning/Slide96.JPG","This is a tob:","",""
"","html-keyboard-response","296","414154","0.0-8.0-0.16","LF","c7w24j9nfq","1920","1080","de","ck05ng18","null","","","","learningBlock2","","","","This is a dep:","null","","","","",""
"","image-keyboard-response","297","414489","0.0-8.0-1.16","LF","c7w24j9nfq","1920","1080","de","ck05ng18","null","","","","","","","","learning/Slide97.JPG","null","","","","",""
"","html-keyboard-response","298","415503","0.0-8.0-2.16","LF","c7w24j9nfq","1920","1080","de","ck05ng18","null","","","","learningBlock2","","","","<div style=""font-size:60px;""> </div>","null","LF","learning/Slide97.JPG","This is a dep:","",""
"","html-keyboard-response","299","416505","0.0-8.0-0.17","LF","c7w24j9nfq","1920","1080","de","ck05ng18","null","","","","learningBlock2","","","","This is a bim:","null","","","","",""
"","image-keyboard-response","300","416841","0.0-8.0-1.17","LF","c7w24j9nfq","1920","1080","de","ck05ng18","null","","","","","","","","learning/Slide98.JPG","null","","","","",""
"","html-keyboard-response","301","417846","0.0-8.0-2.17","LF","c7w24j9nfq","1920","1080","de","ck05ng18","null","","","","learningBlock2","","","","<div style=""font-size:60px;""> </div>","null","LF","learning/Slide98.JPG","This is a bim:","",""
"","html-keyboard-response","302","418847","0.0-8.0-0.18","LF","c7w24j9nfq","1920","1080","de","ck05ng18","null","","","","learningBlock2","","","","This is a dep:","null","","","","",""
"","image-keyboard-response","303","419182","0.0-8.0-1.18","LF","c7w24j9nfq","1920","1080","de","ck05ng18","null","","","","","","","","learning/Slide99.JPG","null","","","","",""
"","html-keyboard-response","304","420197","0.0-8.0-2.18","LF","c7w24j9nfq","1920","1080","de","ck05ng18","null","","","","learningBlock2","","","","<div style=""font-size:60px;""> </div>","null","LF","learning/Slide99.JPG","This is a dep:","",""
"","html-keyboard-response","305","421199","0.0-8.0-0.19","LF","c7w24j9nfq","1920","1080","de","ck05ng18","null","","","","learningBlock2","","","","This is a bim:","null","","","","",""
"","image-keyboard-response","306","421527","0.0-8.0-1.19","LF","c7w24j9nfq","1920","1080","de","ck05ng18","null","","","","","","","","learning/Slide100.JPG","null","","","","",""
"","html-keyboard-response","307","422529","0.0-8.0-2.19","LF","c7w24j9nfq","1920","1080","de","ck05ng18","null","","","","learningBlock2","","","","<div style=""font-size:60px;""> </div>","null","LF","learning/Slide100.JPG","This is a bim:","",""
"","html-keyboard-response","308","423545","0.0-8.0-0.20","LF","c7w24j9nfq","1920","1080","de","ck05ng18","null","","","","learningBlock2","","","","This is a tob:","null","","","","",""
"","image-keyboard-response","309","423880","0.0-8.0-1.20","LF","c7w24j9nfq","1920","1080","de","ck05ng18","null","","","","","","","","learning/Slide101.JPG","null","","","","",""
"","html-keyboard-response","310","424895","0.0-8.0-2.20","LF","c7w24j9nfq","1920","1080","de","ck05ng18","null","","","","learningBlock2","","","","<div style=""font-size:60px;""> </div>","null","LF","learning/Slide101.JPG","This is a tob:","",""
"","html-keyboard-response","311","425898","0.0-8.0-0.21","LF","c7w24j9nfq","1920","1080","de","ck05ng18","null","","","","learningBlock2","","","","This is a bim:","null","","","","",""
"","image-keyboard-response","312","426233","0.0-8.0-1.21","LF","c7w24j9nfq","1920","1080","de","ck05ng18","null","","","","","","","","learning/Slide102.JPG","null","","","","",""
"","html-keyboard-response","313","427246","0.0-8.0-2.21","LF","c7w24j9nfq","1920","1080","de","ck05ng18","null","","","","learningBlock2","","","","<div style=""font-size:60px;""> </div>","null","LF","learning/Slide102.JPG","This is a bim:","",""
"","html-keyboard-response","314","428249","0.0-8.0-0.22","LF","c7w24j9nfq","1920","1080","de","ck05ng18","null","","","","learningBlock2","","","","This is a dep:","null","","","","",""
"","image-keyboard-response","315","428576","0.0-8.0-1.22","LF","c7w24j9nfq","1920","1080","de","ck05ng18","null","","","","","","","","learning/Slide103.JPG","null","","","","",""
"","html-keyboard-response","316","429589","0.0-8.0-2.22","LF","c7w24j9nfq","1920","1080","de","ck05ng18","null","","","","learningBlock2","","","","<div style=""font-size:60px;""> </div>","null","LF","learning/Slide103.JPG","This is a dep:","",""
"","html-keyboard-response","317","430597","0.0-8.0-0.23","LF","c7w24j9nfq","1920","1080","de","ck05ng18","null","","","","learningBlock2","","","","This is a tob:","null","","","","",""
"","image-keyboard-response","318","430933","0.0-8.0-1.23","LF","c7w24j9nfq","1920","1080","de","ck05ng18","null","","","","","","","","learning/Slide104.JPG","null","","","","",""
"","html-keyboard-response","319","431935","0.0-8.0-2.23","LF","c7w24j9nfq","1920","1080","de","ck05ng18","null","","","","learningBlock2","","","","<div style=""font-size:60px;""> </div>","null","LF","learning/Slide104.JPG","This is a tob:","",""
"","html-keyboard-response","320","432951","0.0-8.0-0.24","LF","c7w24j9nfq","1920","1080","de","ck05ng18","null","","","","learningBlock2","","","","This is a dep:","null","","","","",""
"","image-keyboard-response","321","433283","0.0-8.0-1.24","LF","c7w24j9nfq","1920","1080","de","ck05ng18","null","","","","","","","","learning/Slide105.JPG","null","","","","",""
"","html-keyboard-response","322","434286","0.0-8.0-2.24","LF","c7w24j9nfq","1920","1080","de","ck05ng18","null","","","","learningBlock2","","","","<div style=""font-size:60px;""> </div>","null","LF","learning/Slide105.JPG","This is a dep:","",""
"","html-keyboard-response","323","435298","0.0-8.0-0.25","LF","c7w24j9nfq","1920","1080","de","ck05ng18","null","","","","learningBlock2","","","","This is a wug:","null","","","","",""
"","image-keyboard-response","324","435646","0.0-8.0-1.25","LF","c7w24j9nfq","1920","1080","de","ck05ng18","null","","","","","","","","learning/Slide106.JPG","null","","","","",""
"","html-keyboard-response","325","436648","0.0-8.0-2.25","LF","c7w24j9nfq","1920","1080","de","ck05ng18","null","","","","learningBlock2","","","","<div style=""font-size:60px;""> </div>","null","LF","learning/Slide106.JPG","This is a wug:","",""
"","html-keyboard-response","326","437653","0.0-8.0-0.26","LF","c7w24j9nfq","1920","1080","de","ck05ng18","null","","","","learningBlock2","","","","This is a bim:","null","","","","",""
"","image-keyboard-response","327","437987","0.0-8.0-1.26","LF","c7w24j9nfq","1920","1080","de","ck05ng18","null","","","","","","","","learning/Slide107.JPG","null","","","","",""
"","html-keyboard-response","328","438991","0.0-8.0-2.26","LF","c7w24j9nfq","1920","1080","de","ck05ng18","null","","","","learningBlock2","","","","<div style=""font-size:60px;""> </div>","null","LF","learning/Slide107.JPG","This is a bim:","",""
"","html-keyboard-response","329","440005","0.0-8.0-0.27","LF","c7w24j9nfq","1920","1080","de","ck05ng18","null","","","","learningBlock2","","","","This is a dep:","null","","","","",""
"","image-keyboard-response","330","440333","0.0-8.0-1.27","LF","c7w24j9nfq","1920","1080","de","ck05ng18","null","","","","","","","","learning/Slide108.JPG","null","","","","",""
"","html-keyboard-response","331","441338","0.0-8.0-2.27","LF","c7w24j9nfq","1920","1080","de","ck05ng18","null","","","","learningBlock2","","","","<div style=""font-size:60px;""> </div>","null","LF","learning/Slide108.JPG","This is a dep:","",""
"","html-keyboard-response","332","442354","0.0-8.0-0.28","LF","c7w24j9nfq","1920","1080","de","ck05ng18","null","","","","learningBlock2","","","","This is a wug:","null","","","","",""
"","image-keyboard-response","333","442690","0.0-8.0-1.28","LF","c7w24j9nfq","1920","1080","de","ck05ng18","null","","","","","","","","learning/Slide109.JPG","null","","","","",""
"","html-keyboard-response","334","443700","0.0-8.0-2.28","LF","c7w24j9nfq","1920","1080","de","ck05ng18","null","","","","learningBlock2","","","","<div style=""font-size:60px;""> </div>","null","LF","learning/Slide109.JPG","This is a wug:","",""
"","html-keyboard-response","335","444716","0.0-8.0-0.29","LF","c7w24j9nfq","1920","1080","de","ck05ng18","null","","","","learningBlock2","","","","This is a bim:","null","","","","",""
"","image-keyboard-response","336","445050","0.0-8.0-1.29","LF","c7w24j9nfq","1920","1080","de","ck05ng18","null","","","","","","","","learning/Slide110.JPG","null","","","","",""
"","html-keyboard-response","337","446051","0.0-8.0-2.29","LF","c7w24j9nfq","1920","1080","de","ck05ng18","null","","","","learningBlock2","","","","<div style=""font-size:60px;""> </div>","null","LF","learning/Slide110.JPG","This is a bim:","",""
"","html-keyboard-response","338","447067","0.0-8.0-0.30","LF","c7w24j9nfq","1920","1080","de","ck05ng18","null","","","","learningBlock2","","","","This is a tob:","null","","","","",""
"","image-keyboard-response","339","447416","0.0-8.0-1.30","LF","c7w24j9nfq","1920","1080","de","ck05ng18","null","","","","","","","","learning/Slide111.JPG","null","","","","",""
"","html-keyboard-response","340","448431","0.0-8.0-2.30","LF","c7w24j9nfq","1920","1080","de","ck05ng18","null","","","","learningBlock2","","","","<div style=""font-size:60px;""> </div>","null","LF","learning/Slide111.JPG","This is a tob:","",""
"","html-keyboard-response","341","449447","0.0-8.0-0.31","LF","c7w24j9nfq","1920","1080","de","ck05ng18","null","","","","learningBlock2","","","","This is a wug:","null","","","","",""
"","image-keyboard-response","342","449774","0.0-8.0-1.31","LF","c7w24j9nfq","1920","1080","de","ck05ng18","null","","","","","","","","learning/Slide112.JPG","null","","","","",""
"","html-keyboard-response","343","450782","0.0-8.0-2.31","LF","c7w24j9nfq","1920","1080","de","ck05ng18","null","","","","learningBlock2","","","","<div style=""font-size:60px;""> </div>","null","LF","learning/Slide112.JPG","This is a wug:","",""
"","html-keyboard-response","344","451786","0.0-8.0-0.32","LF","c7w24j9nfq","1920","1080","de","ck05ng18","null","","","","learningBlock2","","","","This is a tob:","null","","","","",""
"","image-keyboard-response","345","452113","0.0-8.0-1.32","LF","c7w24j9nfq","1920","1080","de","ck05ng18","null","","","","","","","","learning/Slide113.JPG","null","","","","",""
"","html-keyboard-response","346","453119","0.0-8.0-2.32","LF","c7w24j9nfq","1920","1080","de","ck05ng18","null","","","","learningBlock2","","","","<div style=""font-size:60px;""> </div>","null","LF","learning/Slide113.JPG","This is a tob:","",""
"","html-keyboard-response","347","454121","0.0-8.0-0.33","LF","c7w24j9nfq","1920","1080","de","ck05ng18","null","","","","learningBlock2","","","","This is a wug:","null","","","","",""
"","image-keyboard-response","348","454458","0.0-8.0-1.33","LF","c7w24j9nfq","1920","1080","de","ck05ng18","null","","","","","","","","learning/Slide114.JPG","null","","","","",""
"","html-keyboard-response","349","455471","0.0-8.0-2.33","LF","c7w24j9nfq","1920","1080","de","ck05ng18","null","","","","learningBlock2","","","","<div style=""font-size:60px;""> </div>","null","LF","learning/Slide114.JPG","This is a wug:","",""
"","html-keyboard-response","350","456481","0.0-8.0-0.34","LF","c7w24j9nfq","1920","1080","de","ck05ng18","null","","","","learningBlock2","","","","This is a bim:","null","","","","",""
"","image-keyboard-response","351","456815","0.0-8.0-1.34","LF","c7w24j9nfq","1920","1080","de","ck05ng18","null","","","","","","","","learning/Slide115.JPG","null","","","","",""
"","html-keyboard-response","352","457818","0.0-8.0-2.34","LF","c7w24j9nfq","1920","1080","de","ck05ng18","null","","","","learningBlock2","","","","<div style=""font-size:60px;""> </div>","null","LF","learning/Slide115.JPG","This is a bim:","",""
"","html-keyboard-response","353","458823","0.0-8.0-0.35","LF","c7w24j9nfq","1920","1080","de","ck05ng18","null","","","","learningBlock2","","","","This is a dep:","null","","","","",""
"","image-keyboard-response","354","459159","0.0-8.0-1.35","LF","c7w24j9nfq","1920","1080","de","ck05ng18","null","","","","","","","","learning/Slide116.JPG","null","","","","",""
"","html-keyboard-response","355","460165","0.0-8.0-2.35","LF","c7w24j9nfq","1920","1080","de","ck05ng18","null","","","","learningBlock2","","","","<div style=""font-size:60px;""> </div>","null","LF","learning/Slide116.JPG","This is a dep:","",""
"","html-keyboard-response","356","461179","0.0-8.0-0.36","LF","c7w24j9nfq","1920","1080","de","ck05ng18","null","","","","learningBlock2","","","","This is a tob:","null","","","","",""
"","image-keyboard-response","357","461515","0.0-8.0-1.36","LF","c7w24j9nfq","1920","1080","de","ck05ng18","null","","","","","","","","learning/Slide117.JPG","null","","","","",""
"","html-keyboard-response","358","462518","0.0-8.0-2.36","LF","c7w24j9nfq","1920","1080","de","ck05ng18","null","","","","learningBlock2","","","","<div style=""font-size:60px;""> </div>","null","LF","learning/Slide117.JPG","This is a tob:","",""
"","html-keyboard-response","359","463519","0.0-8.0-0.37","LF","c7w24j9nfq","1920","1080","de","ck05ng18","null","","","","learningBlock2","","","","This is a dep:","null","","","","",""
"","image-keyboard-response","360","463856","0.0-8.0-1.37","LF","c7w24j9nfq","1920","1080","de","ck05ng18","null","","","","","","","","learning/Slide118.JPG","null","","","","",""
"","html-keyboard-response","361","464857","0.0-8.0-2.37","LF","c7w24j9nfq","1920","1080","de","ck05ng18","null","","","","learningBlock2","","","","<div style=""font-size:60px;""> </div>","null","LF","learning/Slide118.JPG","This is a dep:","",""
"","html-keyboard-response","362","465862","0.0-8.0-0.38","LF","c7w24j9nfq","1920","1080","de","ck05ng18","null","","","","learningBlock2","","","","This is a wug:","null","","","","",""
"","image-keyboard-response","363","466195","0.0-8.0-1.38","LF","c7w24j9nfq","1920","1080","de","ck05ng18","null","","","","","","","","learning/Slide119.JPG","null","","","","",""
"","html-keyboard-response","364","467197","0.0-8.0-2.38","LF","c7w24j9nfq","1920","1080","de","ck05ng18","null","","","","learningBlock2","","","","<div style=""font-size:60px;""> </div>","null","LF","learning/Slide119.JPG","This is a wug:","",""
"","html-keyboard-response","365","468209","0.0-8.0-0.39","LF","c7w24j9nfq","1920","1080","de","ck05ng18","null","","","","learningBlock2","","","","This is a dep:","null","","","","",""
"","image-keyboard-response","366","468536","0.0-8.0-1.39","LF","c7w24j9nfq","1920","1080","de","ck05ng18","null","","","","","","","","learning/Slide120.JPG","null","","","","",""
"","html-keyboard-response","367","469541","0.0-8.0-2.39","LF","c7w24j9nfq","1920","1080","de","ck05ng18","null","","","","learningBlock2","","","","<div style=""font-size:60px;""> </div>","null","LF","learning/Slide120.JPG","This is a dep:","",""
"","html-keyboard-response","368","470545","0.0-8.0-0.40","LF","c7w24j9nfq","1920","1080","de","ck05ng18","null","","","","learningBlock2","","","","This is a bim:","null","","","","",""
"","image-keyboard-response","369","470894","0.0-8.0-1.40","LF","c7w24j9nfq","1920","1080","de","ck05ng18","null","","","","","","","","learning/Slide121.JPG","null","","","","",""
"","html-keyboard-response","370","471895","0.0-8.0-2.40","LF","c7w24j9nfq","1920","1080","de","ck05ng18","null","","","","learningBlock2","","","","<div style=""font-size:60px;""> </div>","null","LF","learning/Slide121.JPG","This is a bim:","",""
"","html-keyboard-response","371","472899","0.0-8.0-0.41","LF","c7w24j9nfq","1920","1080","de","ck05ng18","null","","","","learningBlock2","","","","This is a wug:","null","","","","",""
"","image-keyboard-response","372","473247","0.0-8.0-1.41","LF","c7w24j9nfq","1920","1080","de","ck05ng18","null","","","","","","","","learning/Slide122.JPG","null","","","","",""
"","html-keyboard-response","373","474251","0.0-8.0-2.41","LF","c7w24j9nfq","1920","1080","de","ck05ng18","null","","","","learningBlock2","","","","<div style=""font-size:60px;""> </div>","null","LF","learning/Slide122.JPG","This is a wug:","",""
"","html-keyboard-response","374","475263","0.0-8.0-0.42","LF","c7w24j9nfq","1920","1080","de","ck05ng18","null","","","","learningBlock2","","","","This is a bim:","null","","","","",""
"","image-keyboard-response","375","475590","0.0-8.0-1.42","LF","c7w24j9nfq","1920","1080","de","ck05ng18","null","","","","","","","","learning/Slide123.JPG","null","","","","",""
"","html-keyboard-response","376","476600","0.0-8.0-2.42","LF","c7w24j9nfq","1920","1080","de","ck05ng18","null","","","","learningBlock2","","","","<div style=""font-size:60px;""> </div>","null","LF","learning/Slide123.JPG","This is a bim:","",""
"","html-keyboard-response","377","477602","0.0-8.0-0.43","LF","c7w24j9nfq","1920","1080","de","ck05ng18","null","","","","learningBlock2","","","","This is a tob:","null","","","","",""
"","image-keyboard-response","378","477938","0.0-8.0-1.43","LF","c7w24j9nfq","1920","1080","de","ck05ng18","null","","","","","","","","learning/Slide124.JPG","null","","","","",""
"","html-keyboard-response","379","478939","0.0-8.0-2.43","LF","c7w24j9nfq","1920","1080","de","ck05ng18","null","","","","learningBlock2","","","","<div style=""font-size:60px;""> </div>","null","LF","learning/Slide124.JPG","This is a tob:","",""
"","html-keyboard-response","380","479954","0.0-8.0-0.44","LF","c7w24j9nfq","1920","1080","de","ck05ng18","null","","","","learningBlock2","","","","This is a bim:","null","","","","",""
"","image-keyboard-response","381","480290","0.0-8.0-1.44","LF","c7w24j9nfq","1920","1080","de","ck05ng18","null","","","","","","","","learning/Slide125.JPG","null","","","","",""
"","html-keyboard-response","382","481306","0.0-8.0-2.44","LF","c7w24j9nfq","1920","1080","de","ck05ng18","null","","","","learningBlock2","","","","<div style=""font-size:60px;""> </div>","null","LF","learning/Slide125.JPG","This is a bim:","",""
"","html-keyboard-response","383","482312","0.0-8.0-0.45","LF","c7w24j9nfq","1920","1080","de","ck05ng18","null","","","","learningBlock2","","","","This is a tob:","null","","","","",""
"","image-keyboard-response","384","482648","0.0-8.0-1.45","LF","c7w24j9nfq","1920","1080","de","ck05ng18","null","","","","","","","","learning/Slide126.JPG","null","","","","",""
"","html-keyboard-response","385","483649","0.0-8.0-2.45","LF","c7w24j9nfq","1920","1080","de","ck05ng18","null","","","","learningBlock2","","","","<div style=""font-size:60px;""> </div>","null","LF","learning/Slide126.JPG","This is a tob:","",""
"","html-keyboard-response","386","484652","0.0-8.0-0.46","LF","c7w24j9nfq","1920","1080","de","ck05ng18","null","","","","learningBlock2","","","","This is a dep:","null","","","","",""
"","image-keyboard-response","387","484985","0.0-8.0-1.46","LF","c7w24j9nfq","1920","1080","de","ck05ng18","null","","","","","","","","learning/Slide127.JPG","null","","","","",""
"","html-keyboard-response","388","485988","0.0-8.0-2.46","LF","c7w24j9nfq","1920","1080","de","ck05ng18","null","","","","learningBlock2","","","","<div style=""font-size:60px;""> </div>","null","LF","learning/Slide127.JPG","This is a dep:","",""
"","html-keyboard-response","389","486990","0.0-8.0-0.47","LF","c7w24j9nfq","1920","1080","de","ck05ng18","null","","","","learningBlock2","","","","This is a wug:","null","","","","",""
"","image-keyboard-response","390","487326","0.0-8.0-1.47","LF","c7w24j9nfq","1920","1080","de","ck05ng18","null","","","","","","","","learning/Slide128.JPG","null","","","","",""
"","html-keyboard-response","391","488329","0.0-8.0-2.47","LF","c7w24j9nfq","1920","1080","de","ck05ng18","null","","","","learningBlock2","","","","<div style=""font-size:60px;""> </div>","null","LF","learning/Slide128.JPG","This is a wug:","",""
"","html-keyboard-response","392","489334","0.0-8.0-0.48","LF","c7w24j9nfq","1920","1080","de","ck05ng18","null","","","","learningBlock2","","","","This is a tob:","null","","","","",""
"","image-keyboard-response","393","489662","0.0-8.0-1.48","LF","c7w24j9nfq","1920","1080","de","ck05ng18","null","","","","","","","","learning/Slide129.JPG","null","","","","",""
"","html-keyboard-response","394","490670","0.0-8.0-2.48","LF","c7w24j9nfq","1920","1080","de","ck05ng18","null","","","","learningBlock2","","","","<div style=""font-size:60px;""> </div>","null","LF","learning/Slide129.JPG","This is a tob:","",""
"","html-keyboard-response","395","491672","0.0-8.0-0.49","LF","c7w24j9nfq","1920","1080","de","ck05ng18","null","","","","learningBlock2","","","","This is a wug:","null","","","","",""
"","image-keyboard-response","396","492023","0.0-8.0-1.49","LF","c7w24j9nfq","1920","1080","de","ck05ng18","null","","","","","","","","learning/Slide130.JPG","null","","","","",""
"","html-keyboard-response","397","493037","0.0-8.0-2.49","LF","c7w24j9nfq","1920","1080","de","ck05ng18","null","","","","learningBlock2","","","","<div style=""font-size:60px;""> </div>","null","LF","learning/Slide130.JPG","This is a wug:","",""
"","html-keyboard-response","398","494053","0.0-8.0-0.50","LF","c7w24j9nfq","1920","1080","de","ck05ng18","null","","","","learningBlock2","","","","This is a bim:","null","","","","",""
"","image-keyboard-response","399","494388","0.0-8.0-1.50","LF","c7w24j9nfq","1920","1080","de","ck05ng18","null","","","","","","","","learning/Slide131.JPG","null","","","","",""
"","html-keyboard-response","400","495405","0.0-8.0-2.50","LF","c7w24j9nfq","1920","1080","de","ck05ng18","null","","","","learningBlock2","","","","<div style=""font-size:60px;""> </div>","null","LF","learning/Slide131.JPG","This is a bim:","",""
"","html-keyboard-response","401","496408","0.0-8.0-0.51","LF","c7w24j9nfq","1920","1080","de","ck05ng18","null","","","","learningBlock2","","","","This is a dep:","null","","","","",""
"","image-keyboard-response","402","496757","0.0-8.0-1.51","LF","c7w24j9nfq","1920","1080","de","ck05ng18","null","","","","","","","","learning/Slide132.JPG","null","","","","",""
"","html-keyboard-response","403","497761","0.0-8.0-2.51","LF","c7w24j9nfq","1920","1080","de","ck05ng18","null","","","","learningBlock2","","","","<div style=""font-size:60px;""> </div>","null","LF","learning/Slide132.JPG","This is a dep:","",""
"","html-keyboard-response","404","498778","0.0-8.0-0.52","LF","c7w24j9nfq","1920","1080","de","ck05ng18","null","","","","learningBlock2","","","","This is a tob:","null","","","","",""
"","image-keyboard-response","405","499111","0.0-8.0-1.52","LF","c7w24j9nfq","1920","1080","de","ck05ng18","null","","","","","","","","learning/Slide133.JPG","null","","","","",""
"","html-keyboard-response","406","500114","0.0-8.0-2.52","LF","c7w24j9nfq","1920","1080","de","ck05ng18","null","","","","learningBlock2","","","","<div style=""font-size:60px;""> </div>","null","LF","learning/Slide133.JPG","This is a tob:","",""
"","html-keyboard-response","407","501115","0.0-8.0-0.53","LF","c7w24j9nfq","1920","1080","de","ck05ng18","null","","","","learningBlock2","","","","This is a dep:","null","","","","",""
"","image-keyboard-response","408","501463","0.0-8.0-1.53","LF","c7w24j9nfq","1920","1080","de","ck05ng18","null","","","","","","","","learning/Slide134.JPG","null","","","","",""
"","html-keyboard-response","409","502478","0.0-8.0-2.53","LF","c7w24j9nfq","1920","1080","de","ck05ng18","null","","","","learningBlock2","","","","<div style=""font-size:60px;""> </div>","null","LF","learning/Slide134.JPG","This is a dep:","",""
"","html-keyboard-response","410","503493","0.0-8.0-0.54","LF","c7w24j9nfq","1920","1080","de","ck05ng18","null","","","","learningBlock2","","","","This is a tob:","null","","","","",""
"","image-keyboard-response","411","503827","0.0-8.0-1.54","LF","c7w24j9nfq","1920","1080","de","ck05ng18","null","","","","","","","","learning/Slide135.JPG","null","","","","",""
"","html-keyboard-response","412","504831","0.0-8.0-2.54","LF","c7w24j9nfq","1920","1080","de","ck05ng18","null","","","","learningBlock2","","","","<div style=""font-size:60px;""> </div>","null","LF","learning/Slide135.JPG","This is a tob:","",""
"","html-keyboard-response","413","505842","0.0-8.0-0.55","LF","c7w24j9nfq","1920","1080","de","ck05ng18","null","","","","learningBlock2","","","","This is a wug:","null","","","","",""
"","image-keyboard-response","414","506178","0.0-8.0-1.55","LF","c7w24j9nfq","1920","1080","de","ck05ng18","null","","","","","","","","learning/Slide136.JPG","null","","","","",""
"","html-keyboard-response","415","507193","0.0-8.0-2.55","LF","c7w24j9nfq","1920","1080","de","ck05ng18","null","","","","learningBlock2","","","","<div style=""font-size:60px;""> </div>","null","LF","learning/Slide136.JPG","This is a wug:","",""
"","html-keyboard-response","416","508198","0.0-8.0-0.56","LF","c7w24j9nfq","1920","1080","de","ck05ng18","null","","","","learningBlock2","","","","This is a tob:","null","","","","",""
"","image-keyboard-response","417","508549","0.0-8.0-1.56","LF","c7w24j9nfq","1920","1080","de","ck05ng18","null","","","","","","","","learning/Slide137.JPG","null","","","","",""
"","html-keyboard-response","418","509552","0.0-8.0-2.56","LF","c7w24j9nfq","1920","1080","de","ck05ng18","null","","","","learningBlock2","","","","<div style=""font-size:60px;""> </div>","null","LF","learning/Slide137.JPG","This is a tob:","",""
"","html-keyboard-response","419","510555","0.0-8.0-0.57","LF","c7w24j9nfq","1920","1080","de","ck05ng18","null","","","","learningBlock2","","","","This is a bim:","null","","","","",""
"","image-keyboard-response","420","510889","0.0-8.0-1.57","LF","c7w24j9nfq","1920","1080","de","ck05ng18","null","","","","","","","","learning/Slide138.JPG","null","","","","",""
"","html-keyboard-response","421","511893","0.0-8.0-2.57","LF","c7w24j9nfq","1920","1080","de","ck05ng18","null","","","","learningBlock2","","","","<div style=""font-size:60px;""> </div>","null","LF","learning/Slide138.JPG","This is a bim:","",""
"","html-keyboard-response","422","512895","0.0-8.0-0.58","LF","c7w24j9nfq","1920","1080","de","ck05ng18","null","","","","learningBlock2","","","","This is a wug:","null","","","","",""
"","image-keyboard-response","423","513228","0.0-8.0-1.58","LF","c7w24j9nfq","1920","1080","de","ck05ng18","null","","","","","","","","learning/Slide139.JPG","null","","","","",""
"","html-keyboard-response","424","514241","0.0-8.0-2.58","LF","c7w24j9nfq","1920","1080","de","ck05ng18","null","","","","learningBlock2","","","","<div style=""font-size:60px;""> </div>","null","LF","learning/Slide139.JPG","This is a wug:","",""
"","html-keyboard-response","425","515243","0.0-8.0-0.59","LF","c7w24j9nfq","1920","1080","de","ck05ng18","null","","","","learningBlock2","","","","This is a dep:","null","","","","",""
"","image-keyboard-response","426","515571","0.0-8.0-1.59","LF","c7w24j9nfq","1920","1080","de","ck05ng18","null","","","","","","","","learning/Slide140.JPG","null","","","","",""
"","html-keyboard-response","427","516579","0.0-8.0-2.59","LF","c7w24j9nfq","1920","1080","de","ck05ng18","null","","","","learningBlock2","","","","<div style=""font-size:60px;""> </div>","null","LF","learning/Slide140.JPG","This is a dep:","",""
"","html-keyboard-response","428","517595","0.0-8.0-0.60","LF","c7w24j9nfq","1920","1080","de","ck05ng18","null","","","","learningBlock2","","","","This is a tob:","null","","","","",""
"","image-keyboard-response","429","517929","0.0-8.0-1.60","LF","c7w24j9nfq","1920","1080","de","ck05ng18","null","","","","","","","","learning/Slide141.JPG","null","","","","",""
"","html-keyboard-response","430","518945","0.0-8.0-2.60","LF","c7w24j9nfq","1920","1080","de","ck05ng18","null","","","","learningBlock2","","","","<div style=""font-size:60px;""> </div>","null","LF","learning/Slide141.JPG","This is a tob:","",""
"","html-keyboard-response","431","519961","0.0-8.0-0.61","LF","c7w24j9nfq","1920","1080","de","ck05ng18","null","","","","learningBlock2","","","","This is a wug:","null","","","","",""
"","image-keyboard-response","432","520288","0.0-8.0-1.61","LF","c7w24j9nfq","1920","1080","de","ck05ng18","null","","","","","","","","learning/Slide142.JPG","null","","","","",""
"","html-keyboard-response","433","521298","0.0-8.0-2.61","LF","c7w24j9nfq","1920","1080","de","ck05ng18","null","","","","learningBlock2","","","","<div style=""font-size:60px;""> </div>","null","LF","learning/Slide142.JPG","This is a wug:","",""
"","html-keyboard-response","434","522302","0.0-8.0-0.62","LF","c7w24j9nfq","1920","1080","de","ck05ng18","null","","","","learningBlock2","","","","This is a bim:","null","","","","",""
"","image-keyboard-response","435","522636","0.0-8.0-1.62","LF","c7w24j9nfq","1920","1080","de","ck05ng18","null","","","","","","","","learning/Slide143.JPG","null","","","","",""
"","html-keyboard-response","436","523652","0.0-8.0-2.62","LF","c7w24j9nfq","1920","1080","de","ck05ng18","null","","","","learningBlock2","","","","<div style=""font-size:60px;""> </div>","null","LF","learning/Slide143.JPG","This is a bim:","",""
"","html-keyboard-response","437","524667","0.0-8.0-0.63","LF","c7w24j9nfq","1920","1080","de","ck05ng18","null","","","","learningBlock2","","","","This is a dep:","null","","","","",""
"","image-keyboard-response","438","525002","0.0-8.0-1.63","LF","c7w24j9nfq","1920","1080","de","ck05ng18","null","","","","","","","","learning/Slide144.JPG","null","","","","",""
"","html-keyboard-response","439","526003","0.0-8.0-2.63","LF","c7w24j9nfq","1920","1080","de","ck05ng18","null","","","","learningBlock2","","","","<div style=""font-size:60px;""> </div>","null","LF","learning/Slide144.JPG","This is a dep:","",""
"","html-keyboard-response","440","527004","0.0-8.0-0.64","LF","c7w24j9nfq","1920","1080","de","ck05ng18","null","","","","learningBlock2","","","","This is a bim:","null","","","","",""
"","image-keyboard-response","441","527355","0.0-8.0-1.64","LF","c7w24j9nfq","1920","1080","de","ck05ng18","null","","","","","","","","learning/Slide145.JPG","null","","","","",""
"","html-keyboard-response","442","528358","0.0-8.0-2.64","LF","c7w24j9nfq","1920","1080","de","ck05ng18","null","","","","learningBlock2","","","","<div style=""font-size:60px;""> </div>","null","LF","learning/Slide145.JPG","This is a bim:","",""
"","html-keyboard-response","443","529372","0.0-8.0-0.65","LF","c7w24j9nfq","1920","1080","de","ck05ng18","null","","","","learningBlock2","","","","This is a tob:","null","","","","",""
"","image-keyboard-response","444","529708","0.0-8.0-1.65","LF","c7w24j9nfq","1920","1080","de","ck05ng18","null","","","","","","","","learning/Slide146.JPG","null","","","","",""
"","html-keyboard-response","445","530712","0.0-8.0-2.65","LF","c7w24j9nfq","1920","1080","de","ck05ng18","null","","","","learningBlock2","","","","<div style=""font-size:60px;""> </div>","null","LF","learning/Slide146.JPG","This is a tob:","",""
"","html-keyboard-response","446","531725","0.0-8.0-0.66","LF","c7w24j9nfq","1920","1080","de","ck05ng18","null","","","","learningBlock2","","","","This is a wug:","null","","","","",""
"","image-keyboard-response","447","532073","0.0-8.0-1.66","LF","c7w24j9nfq","1920","1080","de","ck05ng18","null","","","","","","","","learning/Slide147.JPG","null","","","","",""
"","html-keyboard-response","448","533074","0.0-8.0-2.66","LF","c7w24j9nfq","1920","1080","de","ck05ng18","null","","","","learningBlock2","","","","<div style=""font-size:60px;""> </div>","null","LF","learning/Slide147.JPG","This is a wug:","",""
"","html-keyboard-response","449","534088","0.0-8.0-0.67","LF","c7w24j9nfq","1920","1080","de","ck05ng18","null","","","","learningBlock2","","","","This is a bim:","null","","","","",""
"","image-keyboard-response","450","534421","0.0-8.0-1.67","LF","c7w24j9nfq","1920","1080","de","ck05ng18","null","","","","","","","","learning/Slide148.JPG","null","","","","",""
"","html-keyboard-response","451","535435","0.0-8.0-2.67","LF","c7w24j9nfq","1920","1080","de","ck05ng18","null","","","","learningBlock2","","","","<div style=""font-size:60px;""> </div>","null","LF","learning/Slide148.JPG","This is a bim:","",""
"","html-keyboard-response","452","536437","0.0-8.0-0.68","LF","c7w24j9nfq","1920","1080","de","ck05ng18","null","","","","learningBlock2","","","","This is a dep:","null","","","","",""
"","image-keyboard-response","453","536764","0.0-8.0-1.68","LF","c7w24j9nfq","1920","1080","de","ck05ng18","null","","","","","","","","learning/Slide149.JPG","null","","","","",""
"","html-keyboard-response","454","537771","0.0-8.0-2.68","LF","c7w24j9nfq","1920","1080","de","ck05ng18","null","","","","learningBlock2","","","","<div style=""font-size:60px;""> </div>","null","LF","learning/Slide149.JPG","This is a dep:","",""
"","html-keyboard-response","455","538775","0.0-8.0-0.69","LF","c7w24j9nfq","1920","1080","de","ck05ng18","null","","","","learningBlock2","","","","This is a wug:","null","","","","",""
"","image-keyboard-response","456","539110","0.0-8.0-1.69","LF","c7w24j9nfq","1920","1080","de","ck05ng18","null","","","","","","","","learning/Slide150.JPG","null","","","","",""
"","html-keyboard-response","457","540112","0.0-8.0-2.69","LF","c7w24j9nfq","1920","1080","de","ck05ng18","null","","","","learningBlock2","","","","<div style=""font-size:60px;""> </div>","null","LF","learning/Slide150.JPG","This is a wug:","",""
"","html-keyboard-response","458","541122","0.0-8.0-0.70","LF","c7w24j9nfq","1920","1080","de","ck05ng18","null","","","","learningBlock2","","","","This is a dep:","null","","","","",""
"","image-keyboard-response","459","541458","0.0-8.0-1.70","LF","c7w24j9nfq","1920","1080","de","ck05ng18","null","","","","","","","","learning/Slide151.JPG","null","","","","",""
"","html-keyboard-response","460","542474","0.0-8.0-2.70","LF","c7w24j9nfq","1920","1080","de","ck05ng18","null","","","","learningBlock2","","","","<div style=""font-size:60px;""> </div>","null","LF","learning/Slide151.JPG","This is a dep:","",""
"","html-keyboard-response","461","543475","0.0-8.0-0.71","LF","c7w24j9nfq","1920","1080","de","ck05ng18","null","","","","learningBlock2","","","","This is a wug:","null","","","","",""
"","image-keyboard-response","462","543810","0.0-8.0-1.71","LF","c7w24j9nfq","1920","1080","de","ck05ng18","null","","","","","","","","learning/Slide152.JPG","null","","","","",""
"","html-keyboard-response","463","544823","0.0-8.0-2.71","LF","c7w24j9nfq","1920","1080","de","ck05ng18","null","","","","learningBlock2","","","","<div style=""font-size:60px;""> </div>","null","LF","learning/Slide152.JPG","This is a wug:","",""
"","html-keyboard-response","464","545839","0.0-8.0-0.72","LF","c7w24j9nfq","1920","1080","de","ck05ng18","null","","","","learningBlock2","","","","This is a bim:","null","","","","",""
"","image-keyboard-response","465","546174","0.0-8.0-1.72","LF","c7w24j9nfq","1920","1080","de","ck05ng18","null","","","","","","","","learning/Slide153.JPG","null","","","","",""
"","html-keyboard-response","466","547178","0.0-8.0-2.72","LF","c7w24j9nfq","1920","1080","de","ck05ng18","null","","","","learningBlock2","","","","<div style=""font-size:60px;""> </div>","null","LF","learning/Slide153.JPG","This is a bim:","",""
"","html-keyboard-response","467","548180","0.0-8.0-0.73","LF","c7w24j9nfq","1920","1080","de","ck05ng18","null","","","","learningBlock2","","","","This is a tob:","null","","","","",""
"","image-keyboard-response","468","548507","0.0-8.0-1.73","LF","c7w24j9nfq","1920","1080","de","ck05ng18","null","","","","","","","","learning/Slide154.JPG","null","","","","",""
"","html-keyboard-response","469","549513","0.0-8.0-2.73","LF","c7w24j9nfq","1920","1080","de","ck05ng18","null","","","","learningBlock2","","","","<div style=""font-size:60px;""> </div>","null","LF","learning/Slide154.JPG","This is a tob:","",""
"","html-keyboard-response","470","550514","0.0-8.0-0.74","LF","c7w24j9nfq","1920","1080","de","ck05ng18","null","","","","learningBlock2","","","","This is a dep:","null","","","","",""
"","image-keyboard-response","471","550846","0.0-8.0-1.74","LF","c7w24j9nfq","1920","1080","de","ck05ng18","null","","","","","","","","learning/Slide155.JPG","null","","","","",""
"","html-keyboard-response","472","551861","0.0-8.0-2.74","LF","c7w24j9nfq","1920","1080","de","ck05ng18","null","","","","learningBlock2","","","","<div style=""font-size:60px;""> </div>","null","LF","learning/Slide155.JPG","This is a dep:","",""
"","html-keyboard-response","473","552863","0.0-8.0-0.75","LF","c7w24j9nfq","1920","1080","de","ck05ng18","null","","","","learningBlock2","","","","This is a bim:","null","","","","",""
"","image-keyboard-response","474","553198","0.0-8.0-1.75","LF","c7w24j9nfq","1920","1080","de","ck05ng18","null","","","","","","","","learning/Slide156.JPG","null","","","","",""
"","html-keyboard-response","475","554210","0.0-8.0-2.75","LF","c7w24j9nfq","1920","1080","de","ck05ng18","null","","","","learningBlock2","","","","<div style=""font-size:60px;""> </div>","null","LF","learning/Slide156.JPG","This is a bim:","",""
"","html-keyboard-response","476","555212","0.0-8.0-0.76","LF","c7w24j9nfq","1920","1080","de","ck05ng18","null","","","","learningBlock2","","","","This is a dep:","null","","","","",""
"","image-keyboard-response","477","555547","0.0-8.0-1.76","LF","c7w24j9nfq","1920","1080","de","ck05ng18","null","","","","","","","","learning/Slide157.JPG","null","","","","",""
"","html-keyboard-response","478","556562","0.0-8.0-2.76","LF","c7w24j9nfq","1920","1080","de","ck05ng18","null","","","","learningBlock2","","","","<div style=""font-size:60px;""> </div>","null","LF","learning/Slide157.JPG","This is a dep:","",""
"","html-keyboard-response","479","557578","0.0-8.0-0.77","LF","c7w24j9nfq","1920","1080","de","ck05ng18","null","","","","learningBlock2","","","","This is a tob:","null","","","","",""
"","image-keyboard-response","480","557912","0.0-8.0-1.77","LF","c7w24j9nfq","1920","1080","de","ck05ng18","null","","","","","","","","learning/Slide158.JPG","null","","","","",""
"","html-keyboard-response","481","558928","0.0-8.0-2.77","LF","c7w24j9nfq","1920","1080","de","ck05ng18","null","","","","learningBlock2","","","","<div style=""font-size:60px;""> </div>","null","LF","learning/Slide158.JPG","This is a tob:","",""
"","html-keyboard-response","482","559945","0.0-8.0-0.78","LF","c7w24j9nfq","1920","1080","de","ck05ng18","null","","","","learningBlock2","","","","This is a dep:","null","","","","",""
"","image-keyboard-response","483","560277","0.0-8.0-1.78","LF","c7w24j9nfq","1920","1080","de","ck05ng18","null","","","","","","","","learning/Slide159.JPG","null","","","","",""
"","html-keyboard-response","484","561290","0.0-8.0-2.78","LF","c7w24j9nfq","1920","1080","de","ck05ng18","null","","","","learningBlock2","","","","<div style=""font-size:60px;""> </div>","null","LF","learning/Slide159.JPG","This is a dep:","",""
"","html-keyboard-response","485","562305","0.0-8.0-0.79","LF","c7w24j9nfq","1920","1080","de","ck05ng18","null","","","","learningBlock2","","","","This is a wug:","null","","","","",""
"","image-keyboard-response","486","562639","0.0-8.0-1.79","LF","c7w24j9nfq","1920","1080","de","ck05ng18","null","","","","","","","","learning/Slide160.JPG","null","","","","",""
"","html-keyboard-response","487","563652","0.0-8.0-2.79","LF","c7w24j9nfq","1920","1080","de","ck05ng18","null","","","","learningBlock2","","","","<div style=""font-size:60px;""> </div>","null","LF","learning/Slide160.JPG","This is a wug:","",""
