"success","trial_type","trial_index","time_elapsed","internal_node_id","condition","subject","screen_width","screen_height","language","codeword","rt","responses","url","view_history","test_part","final_height_px","final_width_px","scale_factor","stimulus","key_press","learningType","presentedImage","presentedLabel","button_pressed","response"
"true","fullscreen","0","6054","0.0-0.0","FL","5baebfz1ea","1536","864","en","Ya05an03","","","","","","","","","","","","","","",""
"","survey-html-form","1","8495","0.0-1.0","FL","5baebfz1ea","1536","864","en","Ya05an03","2432","{""language"":""en""}","","","","","","","","","","","","",""
"","external-html","2","11723","0.0-3.0-0.0","FL","5baebfz1ea","1536","864","en","Ya05an03","3218","","text/information_english.html","","","","","","","","","","","",""
"","external-html","3","23806","0.0-3.0-1.0","FL","5baebfz1ea","1536","864","en","Ya05an03","11996","","text/consent_english.html","","","","","","","","","","","",""
"","survey-html-form","4","75805","0.0-3.0-2.0","FL","5baebfz1ea","1536","864","en","Ya05an03","51995","{""codeword_enter"":""Ya05an03""}","","","","","","","","","","","","",""
"","instructions","5","94423","0.0-4.0","FL","5baebfz1ea","1536","864","en","Ya05an03","NA","","","[{""page_index"":0,""viewing_time"":4302},{""page_index"":1,""viewing_time"":12800}]","instructions","","","","","","","","","",""
"","resize","6","207684","0.0-5.0","FL","5baebfz1ea","1536","864","en","Ya05an03","","","","","","","391","2.4825396825396826","","","","","","",""
"","image-keyboard-response","7","207868","0.0-6.0-0.0","FL","5baebfz1ea","1536","864","en","Ya05an03","null","","","","","","","","learning/Slide1.JPG","null","","","","",""
"","html-keyboard-response","8","209024","0.0-6.0-1.0","FL","5baebfz1ea","1536","864","en","Ya05an03","null","","","","learningBlock1","","","","That was a tob.","null","","","","",""
"","html-keyboard-response","9","210029","0.0-6.0-2.0","FL","5baebfz1ea","1536","864","en","Ya05an03","null","","","","learningBlock1","","","","<div style=""font-size:60px;""> </div>","null","FL","learning/Slide1.JPG","That was a tob.","",""
"","image-keyboard-response","10","210218","0.0-6.0-0.1","FL","5baebfz1ea","1536","864","en","Ya05an03","null","","","","","","","","learning/Slide2.JPG","null","","","","",""
"","html-keyboard-response","11","211377","0.0-6.0-1.1","FL","5baebfz1ea","1536","864","en","Ya05an03","null","","","","learningBlock1","","","","That was a wug.","null","","","","",""
"","html-keyboard-response","12","212380","0.0-6.0-2.1","FL","5baebfz1ea","1536","864","en","Ya05an03","null","","","","learningBlock1","","","","<div style=""font-size:60px;""> </div>","null","FL","learning/Slide2.JPG","That was a wug.","",""
"","image-keyboard-response","13","212568","0.0-6.0-0.2","FL","5baebfz1ea","1536","864","en","Ya05an03","null","","","","","","","","learning/Slide3.JPG","null","","","","",""
"","html-keyboard-response","14","213733","0.0-6.0-1.2","FL","5baebfz1ea","1536","864","en","Ya05an03","null","","","","learningBlock1","","","","That was a bim.","null","","","","",""
"","html-keyboard-response","15","214741","0.0-6.0-2.2","FL","5baebfz1ea","1536","864","en","Ya05an03","null","","","","learningBlock1","","","","<div style=""font-size:60px;""> </div>","null","FL","learning/Slide3.JPG","That was a bim.","",""
"","image-keyboard-response","16","214928","0.0-6.0-0.3","FL","5baebfz1ea","1536","864","en","Ya05an03","null","","","","","","","","learning/Slide4.JPG","null","","","","",""
"","html-keyboard-response","17","216086","0.0-6.0-1.3","FL","5baebfz1ea","1536","864","en","Ya05an03","null","","","","learningBlock1","","","","That was a dep.","null","","","","",""
"","html-keyboard-response","18","217087","0.0-6.0-2.3","FL","5baebfz1ea","1536","864","en","Ya05an03","null","","","","learningBlock1","","","","<div style=""font-size:60px;""> </div>","null","FL","learning/Slide4.JPG","That was a dep.","",""
"","image-keyboard-response","19","217275","0.0-6.0-0.4","FL","5baebfz1ea","1536","864","en","Ya05an03","null","","","","","","","","learning/Slide5.JPG","null","","","","",""
"","html-keyboard-response","20","218434","0.0-6.0-1.4","FL","5baebfz1ea","1536","864","en","Ya05an03","null","","","","learningBlock1","","","","That was a wug.","null","","","","",""
"","html-keyboard-response","21","219446","0.0-6.0-2.4","FL","5baebfz1ea","1536","864","en","Ya05an03","null","","","","learningBlock1","","","","<div style=""font-size:60px;""> </div>","null","FL","learning/Slide5.JPG","That was a wug.","",""
"","image-keyboard-response","22","219635","0.0-6.0-0.5","FL","5baebfz1ea","1536","864","en","Ya05an03","null","","","","","","","","learning/Slide6.JPG","null","","","","",""
"","html-keyboard-response","23","220795","0.0-6.0-1.5","FL","5baebfz1ea","1536","864","en","Ya05an03","null","","","","learningBlock1","","","","That was a dep.","null","","","","",""
"","html-keyboard-response","24","221810","0.0-6.0-2.5","FL","5baebfz1ea","1536","864","en","Ya05an03","null","","","","learningBlock1","","","","<div style=""font-size:60px;""> </div>","null","FL","learning/Slide6.JPG","That was a dep.","",""
"","image-keyboard-response","25","221998","0.0-6.0-0.6","FL","5baebfz1ea","1536","864","en","Ya05an03","null","","","","","","","","learning/Slide7.JPG","null","","","","",""
"","html-keyboard-response","26","223161","0.0-6.0-1.6","FL","5baebfz1ea","1536","864","en","Ya05an03","null","","","","learningBlock1","","","","That was a wug.","null","","","","",""
"","html-keyboard-response","27","224166","0.0-6.0-2.6","FL","5baebfz1ea","1536","864","en","Ya05an03","null","","","","learningBlock1","","","","<div style=""font-size:60px;""> </div>","null","FL","learning/Slide7.JPG","That was a wug.","",""
"","image-keyboard-response","28","224356","0.0-6.0-0.7","FL","5baebfz1ea","1536","864","en","Ya05an03","null","","","","","","","","learning/Slide8.JPG","null","","","","",""
"","html-keyboard-response","29","225521","0.0-6.0-1.7","FL","5baebfz1ea","1536","864","en","Ya05an03","null","","","","learningBlock1","","","","That was a bim.","null","","","","",""
"","html-keyboard-response","30","226537","0.0-6.0-2.7","FL","5baebfz1ea","1536","864","en","Ya05an03","null","","","","learningBlock1","","","","<div style=""font-size:60px;""> </div>","null","FL","learning/Slide8.JPG","That was a bim.","",""
"","image-keyboard-response","31","226723","0.0-6.0-0.8","FL","5baebfz1ea","1536","864","en","Ya05an03","null","","","","","","","","learning/Slide9.JPG","null","","","","",""
"","html-keyboard-response","32","227894","0.0-6.0-1.8","FL","5baebfz1ea","1536","864","en","Ya05an03","null","","","","learningBlock1","","","","That was a wug.","null","","","","",""
"","html-keyboard-response","33","228897","0.0-6.0-2.8","FL","5baebfz1ea","1536","864","en","Ya05an03","null","","","","learningBlock1","","","","<div style=""font-size:60px;""> </div>","null","FL","learning/Slide9.JPG","That was a wug.","",""
"","image-keyboard-response","34","229085","0.0-6.0-0.9","FL","5baebfz1ea","1536","864","en","Ya05an03","null","","","","","","","","learning/Slide10.JPG","null","","","","",""
"","html-keyboard-response","35","230246","0.0-6.0-1.9","FL","5baebfz1ea","1536","864","en","Ya05an03","null","","","","learningBlock1","","","","That was a dep.","null","","","","",""
"","html-keyboard-response","36","231248","0.0-6.0-2.9","FL","5baebfz1ea","1536","864","en","Ya05an03","null","","","","learningBlock1","","","","<div style=""font-size:60px;""> </div>","null","FL","learning/Slide10.JPG","That was a dep.","",""
"","image-keyboard-response","37","231436","0.0-6.0-0.10","FL","5baebfz1ea","1536","864","en","Ya05an03","null","","","","","","","","learning/Slide11.JPG","null","","","","",""
"","html-keyboard-response","38","232598","0.0-6.0-1.10","FL","5baebfz1ea","1536","864","en","Ya05an03","null","","","","learningBlock1","","","","That was a tob.","null","","","","",""
"","html-keyboard-response","39","233611","0.0-6.0-2.10","FL","5baebfz1ea","1536","864","en","Ya05an03","null","","","","learningBlock1","","","","<div style=""font-size:60px;""> </div>","null","FL","learning/Slide11.JPG","That was a tob.","",""
"","image-keyboard-response","40","233801","0.0-6.0-0.11","FL","5baebfz1ea","1536","864","en","Ya05an03","null","","","","","","","","learning/Slide12.JPG","null","","","","",""
"","html-keyboard-response","41","234972","0.0-6.0-1.11","FL","5baebfz1ea","1536","864","en","Ya05an03","null","","","","learningBlock1","","","","That was a dep.","null","","","","",""
"","html-keyboard-response","42","235973","0.0-6.0-2.11","FL","5baebfz1ea","1536","864","en","Ya05an03","null","","","","learningBlock1","","","","<div style=""font-size:60px;""> </div>","null","FL","learning/Slide12.JPG","That was a dep.","",""
"","image-keyboard-response","43","236160","0.0-6.0-0.12","FL","5baebfz1ea","1536","864","en","Ya05an03","null","","","","","","","","learning/Slide13.JPG","null","","","","",""
"","html-keyboard-response","44","237331","0.0-6.0-1.12","FL","5baebfz1ea","1536","864","en","Ya05an03","null","","","","learningBlock1","","","","That was a bim.","null","","","","",""
"","html-keyboard-response","45","238336","0.0-6.0-2.12","FL","5baebfz1ea","1536","864","en","Ya05an03","null","","","","learningBlock1","","","","<div style=""font-size:60px;""> </div>","null","FL","learning/Slide13.JPG","That was a bim.","",""
"","image-keyboard-response","46","238524","0.0-6.0-0.13","FL","5baebfz1ea","1536","864","en","Ya05an03","null","","","","","","","","learning/Slide14.JPG","null","","","","",""
"","html-keyboard-response","47","239683","0.0-6.0-1.13","FL","5baebfz1ea","1536","864","en","Ya05an03","null","","","","learningBlock1","","","","That was a wug.","null","","","","",""
"","html-keyboard-response","48","240697","0.0-6.0-2.13","FL","5baebfz1ea","1536","864","en","Ya05an03","null","","","","learningBlock1","","","","<div style=""font-size:60px;""> </div>","null","FL","learning/Slide14.JPG","That was a wug.","",""
"","image-keyboard-response","49","240881","0.0-6.0-0.14","FL","5baebfz1ea","1536","864","en","Ya05an03","null","","","","","","","","learning/Slide15.JPG","null","","","","",""
"","html-keyboard-response","50","242046","0.0-6.0-1.14","FL","5baebfz1ea","1536","864","en","Ya05an03","null","","","","learningBlock1","","","","That was a tob.","null","","","","",""
"","html-keyboard-response","51","243050","0.0-6.0-2.14","FL","5baebfz1ea","1536","864","en","Ya05an03","null","","","","learningBlock1","","","","<div style=""font-size:60px;""> </div>","null","FL","learning/Slide15.JPG","That was a tob.","",""
"","image-keyboard-response","52","243237","0.0-6.0-0.15","FL","5baebfz1ea","1536","864","en","Ya05an03","null","","","","","","","","learning/Slide16.JPG","null","","","","",""
"","html-keyboard-response","53","244395","0.0-6.0-1.15","FL","5baebfz1ea","1536","864","en","Ya05an03","null","","","","learningBlock1","","","","That was a dep.","null","","","","",""
"","html-keyboard-response","54","245400","0.0-6.0-2.15","FL","5baebfz1ea","1536","864","en","Ya05an03","null","","","","learningBlock1","","","","<div style=""font-size:60px;""> </div>","null","FL","learning/Slide16.JPG","That was a dep.","",""
"","image-keyboard-response","55","245586","0.0-6.0-0.16","FL","5baebfz1ea","1536","864","en","Ya05an03","null","","","","","","","","learning/Slide17.JPG","null","","","","",""
"","html-keyboard-response","56","246746","0.0-6.0-1.16","FL","5baebfz1ea","1536","864","en","Ya05an03","null","","","","learningBlock1","","","","That was a bim.","null","","","","",""
"","html-keyboard-response","57","247763","0.0-6.0-2.16","FL","5baebfz1ea","1536","864","en","Ya05an03","null","","","","learningBlock1","","","","<div style=""font-size:60px;""> </div>","null","FL","learning/Slide17.JPG","That was a bim.","",""
"","image-keyboard-response","58","247950","0.0-6.0-0.17","FL","5baebfz1ea","1536","864","en","Ya05an03","null","","","","","","","","learning/Slide18.JPG","null","","","","",""
"","html-keyboard-response","59","249123","0.0-6.0-1.17","FL","5baebfz1ea","1536","864","en","Ya05an03","null","","","","learningBlock1","","","","That was a tob.","null","","","","",""
"","html-keyboard-response","60","250126","0.0-6.0-2.17","FL","5baebfz1ea","1536","864","en","Ya05an03","null","","","","learningBlock1","","","","<div style=""font-size:60px;""> </div>","null","FL","learning/Slide18.JPG","That was a tob.","",""
"","image-keyboard-response","61","250316","0.0-6.0-0.18","FL","5baebfz1ea","1536","864","en","Ya05an03","null","","","","","","","","learning/Slide19.JPG","null","","","","",""
"","html-keyboard-response","62","251478","0.0-6.0-1.18","FL","5baebfz1ea","1536","864","en","Ya05an03","null","","","","learningBlock1","","","","That was a wug.","null","","","","",""
"","html-keyboard-response","63","252482","0.0-6.0-2.18","FL","5baebfz1ea","1536","864","en","Ya05an03","null","","","","learningBlock1","","","","<div style=""font-size:60px;""> </div>","null","FL","learning/Slide19.JPG","That was a wug.","",""
"","image-keyboard-response","64","252667","0.0-6.0-0.19","FL","5baebfz1ea","1536","864","en","Ya05an03","null","","","","","","","","learning/Slide20.JPG","null","","","","",""
"","html-keyboard-response","65","253827","0.0-6.0-1.19","FL","5baebfz1ea","1536","864","en","Ya05an03","null","","","","learningBlock1","","","","That was a bim.","null","","","","",""
"","html-keyboard-response","66","254831","0.0-6.0-2.19","FL","5baebfz1ea","1536","864","en","Ya05an03","null","","","","learningBlock1","","","","<div style=""font-size:60px;""> </div>","null","FL","learning/Slide20.JPG","That was a bim.","",""
"","image-keyboard-response","67","255018","0.0-6.0-0.20","FL","5baebfz1ea","1536","864","en","Ya05an03","null","","","","","","","","learning/Slide21.JPG","null","","","","",""
"","html-keyboard-response","68","256180","0.0-6.0-1.20","FL","5baebfz1ea","1536","864","en","Ya05an03","null","","","","learningBlock1","","","","That was a dep.","null","","","","",""
"","html-keyboard-response","69","257183","0.0-6.0-2.20","FL","5baebfz1ea","1536","864","en","Ya05an03","null","","","","learningBlock1","","","","<div style=""font-size:60px;""> </div>","null","FL","learning/Slide21.JPG","That was a dep.","",""
"","image-keyboard-response","70","257372","0.0-6.0-0.21","FL","5baebfz1ea","1536","864","en","Ya05an03","null","","","","","","","","learning/Slide22.JPG","null","","","","",""
"","html-keyboard-response","71","258530","0.0-6.0-1.21","FL","5baebfz1ea","1536","864","en","Ya05an03","null","","","","learningBlock1","","","","That was a bim.","null","","","","",""
"","html-keyboard-response","72","259541","0.0-6.0-2.21","FL","5baebfz1ea","1536","864","en","Ya05an03","null","","","","learningBlock1","","","","<div style=""font-size:60px;""> </div>","null","FL","learning/Slide22.JPG","That was a bim.","",""
"","image-keyboard-response","73","259728","0.0-6.0-0.22","FL","5baebfz1ea","1536","864","en","Ya05an03","null","","","","","","","","learning/Slide23.JPG","null","","","","",""
"","html-keyboard-response","74","260891","0.0-6.0-1.22","FL","5baebfz1ea","1536","864","en","Ya05an03","null","","","","learningBlock1","","","","That was a tob.","null","","","","",""
"","html-keyboard-response","75","261894","0.0-6.0-2.22","FL","5baebfz1ea","1536","864","en","Ya05an03","null","","","","learningBlock1","","","","<div style=""font-size:60px;""> </div>","null","FL","learning/Slide23.JPG","That was a tob.","",""
"","image-keyboard-response","76","262080","0.0-6.0-0.23","FL","5baebfz1ea","1536","864","en","Ya05an03","null","","","","","","","","learning/Slide24.JPG","null","","","","",""
"","html-keyboard-response","77","263239","0.0-6.0-1.23","FL","5baebfz1ea","1536","864","en","Ya05an03","null","","","","learningBlock1","","","","That was a wug.","null","","","","",""
"","html-keyboard-response","78","264241","0.0-6.0-2.23","FL","5baebfz1ea","1536","864","en","Ya05an03","null","","","","learningBlock1","","","","<div style=""font-size:60px;""> </div>","null","FL","learning/Slide24.JPG","That was a wug.","",""
"","image-keyboard-response","79","264426","0.0-6.0-0.24","FL","5baebfz1ea","1536","864","en","Ya05an03","null","","","","","","","","learning/Slide25.JPG","null","","","","",""
"","html-keyboard-response","80","265590","0.0-6.0-1.24","FL","5baebfz1ea","1536","864","en","Ya05an03","null","","","","learningBlock1","","","","That was a dep.","null","","","","",""
"","html-keyboard-response","81","266592","0.0-6.0-2.24","FL","5baebfz1ea","1536","864","en","Ya05an03","null","","","","learningBlock1","","","","<div style=""font-size:60px;""> </div>","null","FL","learning/Slide25.JPG","That was a dep.","",""
"","image-keyboard-response","82","266780","0.0-6.0-0.25","FL","5baebfz1ea","1536","864","en","Ya05an03","null","","","","","","","","learning/Slide26.JPG","null","","","","",""
"","html-keyboard-response","83","267937","0.0-6.0-1.25","FL","5baebfz1ea","1536","864","en","Ya05an03","null","","","","learningBlock1","","","","That was a wug.","null","","","","",""
"","html-keyboard-response","84","268942","0.0-6.0-2.25","FL","5baebfz1ea","1536","864","en","Ya05an03","null","","","","learningBlock1","","","","<div style=""font-size:60px;""> </div>","null","FL","learning/Slide26.JPG","That was a wug.","",""
"","image-keyboard-response","85","269129","0.0-6.0-0.26","FL","5baebfz1ea","1536","864","en","Ya05an03","null","","","","","","","","learning/Slide27.JPG","null","","","","",""
"","html-keyboard-response","86","270291","0.0-6.0-1.26","FL","5baebfz1ea","1536","864","en","Ya05an03","null","","","","learningBlock1","","","","That was a bim.","null","","","","",""
"","html-keyboard-response","87","271296","0.0-6.0-2.26","FL","5baebfz1ea","1536","864","en","Ya05an03","null","","","","learningBlock1","","","","<div style=""font-size:60px;""> </div>","null","FL","learning/Slide27.JPG","That was a bim.","",""
"","image-keyboard-response","88","271484","0.0-6.0-0.27","FL","5baebfz1ea","1536","864","en","Ya05an03","null","","","","","","","","learning/Slide28.JPG","null","","","","",""
"","html-keyboard-response","89","272645","0.0-6.0-1.27","FL","5baebfz1ea","1536","864","en","Ya05an03","null","","","","learningBlock1","","","","That was a dep.","null","","","","",""
"","html-keyboard-response","90","273648","0.0-6.0-2.27","FL","5baebfz1ea","1536","864","en","Ya05an03","null","","","","learningBlock1","","","","<div style=""font-size:60px;""> </div>","null","FL","learning/Slide28.JPG","That was a dep.","",""
"","image-keyboard-response","91","273838","0.0-6.0-0.28","FL","5baebfz1ea","1536","864","en","Ya05an03","null","","","","","","","","learning/Slide29.JPG","null","","","","",""
"","html-keyboard-response","92","274999","0.0-6.0-1.28","FL","5baebfz1ea","1536","864","en","Ya05an03","null","","","","learningBlock1","","","","That was a tob.","null","","","","",""
"","html-keyboard-response","93","276007","0.0-6.0-2.28","FL","5baebfz1ea","1536","864","en","Ya05an03","null","","","","learningBlock1","","","","<div style=""font-size:60px;""> </div>","null","FL","learning/Slide29.JPG","That was a tob.","",""
"","image-keyboard-response","94","276195","0.0-6.0-0.29","FL","5baebfz1ea","1536","864","en","Ya05an03","null","","","","","","","","learning/Slide30.JPG","null","","","","",""
"","html-keyboard-response","95","277354","0.0-6.0-1.29","FL","5baebfz1ea","1536","864","en","Ya05an03","null","","","","learningBlock1","","","","That was a dep.","null","","","","",""
"","html-keyboard-response","96","278359","0.0-6.0-2.29","FL","5baebfz1ea","1536","864","en","Ya05an03","null","","","","learningBlock1","","","","<div style=""font-size:60px;""> </div>","null","FL","learning/Slide30.JPG","That was a dep.","",""
"","image-keyboard-response","97","278546","0.0-6.0-0.30","FL","5baebfz1ea","1536","864","en","Ya05an03","null","","","","","","","","learning/Slide31.JPG","null","","","","",""
"","html-keyboard-response","98","279703","0.0-6.0-1.30","FL","5baebfz1ea","1536","864","en","Ya05an03","null","","","","learningBlock1","","","","That was a wug.","null","","","","",""
"","html-keyboard-response","99","280716","0.0-6.0-2.30","FL","5baebfz1ea","1536","864","en","Ya05an03","null","","","","learningBlock1","","","","<div style=""font-size:60px;""> </div>","null","FL","learning/Slide31.JPG","That was a wug.","",""
"","image-keyboard-response","100","280905","0.0-6.0-0.31","FL","5baebfz1ea","1536","864","en","Ya05an03","null","","","","","","","","learning/Slide32.JPG","null","","","","",""
"","html-keyboard-response","101","282069","0.0-6.0-1.31","FL","5baebfz1ea","1536","864","en","Ya05an03","null","","","","learningBlock1","","","","That was a tob.","null","","","","",""
"","html-keyboard-response","102","283072","0.0-6.0-2.31","FL","5baebfz1ea","1536","864","en","Ya05an03","null","","","","learningBlock1","","","","<div style=""font-size:60px;""> </div>","null","FL","learning/Slide32.JPG","That was a tob.","",""
"","image-keyboard-response","103","283258","0.0-6.0-0.32","FL","5baebfz1ea","1536","864","en","Ya05an03","null","","","","","","","","learning/Slide33.JPG","null","","","","",""
"","html-keyboard-response","104","284416","0.0-6.0-1.32","FL","5baebfz1ea","1536","864","en","Ya05an03","null","","","","learningBlock1","","","","That was a bim.","null","","","","",""
"","html-keyboard-response","105","285421","0.0-6.0-2.32","FL","5baebfz1ea","1536","864","en","Ya05an03","null","","","","learningBlock1","","","","<div style=""font-size:60px;""> </div>","null","FL","learning/Slide33.JPG","That was a bim.","",""
"","image-keyboard-response","106","285609","0.0-6.0-0.33","FL","5baebfz1ea","1536","864","en","Ya05an03","null","","","","","","","","learning/Slide34.JPG","null","","","","",""
"","html-keyboard-response","107","286780","0.0-6.0-1.33","FL","5baebfz1ea","1536","864","en","Ya05an03","null","","","","learningBlock1","","","","That was a tob.","null","","","","",""
"","html-keyboard-response","108","287794","0.0-6.0-2.33","FL","5baebfz1ea","1536","864","en","Ya05an03","null","","","","learningBlock1","","","","<div style=""font-size:60px;""> </div>","null","FL","learning/Slide34.JPG","That was a tob.","",""
"","image-keyboard-response","109","287983","0.0-6.0-0.34","FL","5baebfz1ea","1536","864","en","Ya05an03","null","","","","","","","","learning/Slide35.JPG","null","","","","",""
"","html-keyboard-response","110","289141","0.0-6.0-1.34","FL","5baebfz1ea","1536","864","en","Ya05an03","null","","","","learningBlock1","","","","That was a bim.","null","","","","",""
"","html-keyboard-response","111","290155","0.0-6.0-2.34","FL","5baebfz1ea","1536","864","en","Ya05an03","null","","","","learningBlock1","","","","<div style=""font-size:60px;""> </div>","null","FL","learning/Slide35.JPG","That was a bim.","",""
"","image-keyboard-response","112","290344","0.0-6.0-0.35","FL","5baebfz1ea","1536","864","en","Ya05an03","null","","","","","","","","learning/Slide36.JPG","null","","","","",""
"","html-keyboard-response","113","291506","0.0-6.0-1.35","FL","5baebfz1ea","1536","864","en","Ya05an03","null","","","","learningBlock1","","","","That was a dep.","null","","","","",""
"","html-keyboard-response","114","292507","0.0-6.0-2.35","FL","5baebfz1ea","1536","864","en","Ya05an03","null","","","","learningBlock1","","","","<div style=""font-size:60px;""> </div>","null","FL","learning/Slide36.JPG","That was a dep.","",""
"","image-keyboard-response","115","292696","0.0-6.0-0.36","FL","5baebfz1ea","1536","864","en","Ya05an03","null","","","","","","","","learning/Slide37.JPG","null","","","","",""
"","html-keyboard-response","116","293860","0.0-6.0-1.36","FL","5baebfz1ea","1536","864","en","Ya05an03","null","","","","learningBlock1","","","","That was a tob.","null","","","","",""
"","html-keyboard-response","117","294864","0.0-6.0-2.36","FL","5baebfz1ea","1536","864","en","Ya05an03","null","","","","learningBlock1","","","","<div style=""font-size:60px;""> </div>","null","FL","learning/Slide37.JPG","That was a tob.","",""
"","image-keyboard-response","118","295050","0.0-6.0-0.37","FL","5baebfz1ea","1536","864","en","Ya05an03","null","","","","","","","","learning/Slide38.JPG","null","","","","",""
"","html-keyboard-response","119","296221","0.0-6.0-1.37","FL","5baebfz1ea","1536","864","en","Ya05an03","null","","","","learningBlock1","","","","That was a wug.","null","","","","",""
"","html-keyboard-response","120","297222","0.0-6.0-2.37","FL","5baebfz1ea","1536","864","en","Ya05an03","null","","","","learningBlock1","","","","<div style=""font-size:60px;""> </div>","null","FL","learning/Slide38.JPG","That was a wug.","",""
"","image-keyboard-response","121","297413","0.0-6.0-0.38","FL","5baebfz1ea","1536","864","en","Ya05an03","null","","","","","","","","learning/Slide39.JPG","null","","","","",""
"","html-keyboard-response","122","298579","0.0-6.0-1.38","FL","5baebfz1ea","1536","864","en","Ya05an03","null","","","","learningBlock1","","","","That was a bim.","null","","","","",""
"","html-keyboard-response","123","299596","0.0-6.0-2.38","FL","5baebfz1ea","1536","864","en","Ya05an03","null","","","","learningBlock1","","","","<div style=""font-size:60px;""> </div>","null","FL","learning/Slide39.JPG","That was a bim.","",""
"","image-keyboard-response","124","299784","0.0-6.0-0.39","FL","5baebfz1ea","1536","864","en","Ya05an03","null","","","","","","","","learning/Slide40.JPG","null","","","","",""
"","html-keyboard-response","125","300945","0.0-6.0-1.39","FL","5baebfz1ea","1536","864","en","Ya05an03","null","","","","learningBlock1","","","","That was a tob.","null","","","","",""
"","html-keyboard-response","126","301950","0.0-6.0-2.39","FL","5baebfz1ea","1536","864","en","Ya05an03","null","","","","learningBlock1","","","","<div style=""font-size:60px;""> </div>","null","FL","learning/Slide40.JPG","That was a tob.","",""
"","image-keyboard-response","127","302137","0.0-6.0-0.40","FL","5baebfz1ea","1536","864","en","Ya05an03","null","","","","","","","","learning/Slide41.JPG","null","","","","",""
"","html-keyboard-response","128","303298","0.0-6.0-1.40","FL","5baebfz1ea","1536","864","en","Ya05an03","null","","","","learningBlock1","","","","That was a bim.","null","","","","",""
"","html-keyboard-response","129","304303","0.0-6.0-2.40","FL","5baebfz1ea","1536","864","en","Ya05an03","null","","","","learningBlock1","","","","<div style=""font-size:60px;""> </div>","null","FL","learning/Slide41.JPG","That was a bim.","",""
"","image-keyboard-response","130","304490","0.0-6.0-0.41","FL","5baebfz1ea","1536","864","en","Ya05an03","null","","","","","","","","learning/Slide42.JPG","null","","","","",""
"","html-keyboard-response","131","305652","0.0-6.0-1.41","FL","5baebfz1ea","1536","864","en","Ya05an03","null","","","","learningBlock1","","","","That was a dep.","null","","","","",""
"","html-keyboard-response","132","306669","0.0-6.0-2.41","FL","5baebfz1ea","1536","864","en","Ya05an03","null","","","","learningBlock1","","","","<div style=""font-size:60px;""> </div>","null","FL","learning/Slide42.JPG","That was a dep.","",""
"","image-keyboard-response","133","306856","0.0-6.0-0.42","FL","5baebfz1ea","1536","864","en","Ya05an03","null","","","","","","","","learning/Slide43.JPG","null","","","","",""
"","html-keyboard-response","134","308018","0.0-6.0-1.42","FL","5baebfz1ea","1536","864","en","Ya05an03","null","","","","learningBlock1","","","","That was a wug.","null","","","","",""
"","html-keyboard-response","135","309023","0.0-6.0-2.42","FL","5baebfz1ea","1536","864","en","Ya05an03","null","","","","learningBlock1","","","","<div style=""font-size:60px;""> </div>","null","FL","learning/Slide43.JPG","That was a wug.","",""
"","image-keyboard-response","136","309210","0.0-6.0-0.43","FL","5baebfz1ea","1536","864","en","Ya05an03","null","","","","","","","","learning/Slide44.JPG","null","","","","",""
"","html-keyboard-response","137","310380","0.0-6.0-1.43","FL","5baebfz1ea","1536","864","en","Ya05an03","null","","","","learningBlock1","","","","That was a bim.","null","","","","",""
"","html-keyboard-response","138","311382","0.0-6.0-2.43","FL","5baebfz1ea","1536","864","en","Ya05an03","null","","","","learningBlock1","","","","<div style=""font-size:60px;""> </div>","null","FL","learning/Slide44.JPG","That was a bim.","",""
"","image-keyboard-response","139","311571","0.0-6.0-0.44","FL","5baebfz1ea","1536","864","en","Ya05an03","null","","","","","","","","learning/Slide45.JPG","null","","","","",""
"","html-keyboard-response","140","312729","0.0-6.0-1.44","FL","5baebfz1ea","1536","864","en","Ya05an03","null","","","","learningBlock1","","","","That was a wug.","null","","","","",""
"","html-keyboard-response","141","313743","0.0-6.0-2.44","FL","5baebfz1ea","1536","864","en","Ya05an03","null","","","","learningBlock1","","","","<div style=""font-size:60px;""> </div>","null","FL","learning/Slide45.JPG","That was a wug.","",""
"","image-keyboard-response","142","313931","0.0-6.0-0.45","FL","5baebfz1ea","1536","864","en","Ya05an03","null","","","","","","","","learning/Slide46.JPG","null","","","","",""
"","html-keyboard-response","143","315089","0.0-6.0-1.45","FL","5baebfz1ea","1536","864","en","Ya05an03","null","","","","learningBlock1","","","","That was a dep.","null","","","","",""
"","html-keyboard-response","144","316105","0.0-6.0-2.45","FL","5baebfz1ea","1536","864","en","Ya05an03","null","","","","learningBlock1","","","","<div style=""font-size:60px;""> </div>","null","FL","learning/Slide46.JPG","That was a dep.","",""
"","image-keyboard-response","145","316293","0.0-6.0-0.46","FL","5baebfz1ea","1536","864","en","Ya05an03","null","","","","","","","","learning/Slide47.JPG","null","","","","",""
"","html-keyboard-response","146","317457","0.0-6.0-1.46","FL","5baebfz1ea","1536","864","en","Ya05an03","null","","","","learningBlock1","","","","That was a tob.","null","","","","",""
"","html-keyboard-response","147","318463","0.0-6.0-2.46","FL","5baebfz1ea","1536","864","en","Ya05an03","null","","","","learningBlock1","","","","<div style=""font-size:60px;""> </div>","null","FL","learning/Slide47.JPG","That was a tob.","",""
"","image-keyboard-response","148","318653","0.0-6.0-0.47","FL","5baebfz1ea","1536","864","en","Ya05an03","null","","","","","","","","learning/Slide48.JPG","null","","","","",""
"","html-keyboard-response","149","319821","0.0-6.0-1.47","FL","5baebfz1ea","1536","864","en","Ya05an03","null","","","","learningBlock1","","","","That was a bim.","null","","","","",""
"","html-keyboard-response","150","320823","0.0-6.0-2.47","FL","5baebfz1ea","1536","864","en","Ya05an03","null","","","","learningBlock1","","","","<div style=""font-size:60px;""> </div>","null","FL","learning/Slide48.JPG","That was a bim.","",""
"","image-keyboard-response","151","321011","0.0-6.0-0.48","FL","5baebfz1ea","1536","864","en","Ya05an03","null","","","","","","","","learning/Slide49.JPG","null","","","","",""
"","html-keyboard-response","152","322170","0.0-6.0-1.48","FL","5baebfz1ea","1536","864","en","Ya05an03","null","","","","learningBlock1","","","","That was a dep.","null","","","","",""
"","html-keyboard-response","153","323173","0.0-6.0-2.48","FL","5baebfz1ea","1536","864","en","Ya05an03","null","","","","learningBlock1","","","","<div style=""font-size:60px;""> </div>","null","FL","learning/Slide49.JPG","That was a dep.","",""
"","image-keyboard-response","154","323362","0.0-6.0-0.49","FL","5baebfz1ea","1536","864","en","Ya05an03","null","","","","","","","","learning/Slide50.JPG","null","","","","",""
"","html-keyboard-response","155","324520","0.0-6.0-1.49","FL","5baebfz1ea","1536","864","en","Ya05an03","null","","","","learningBlock1","","","","That was a tob.","null","","","","",""
"","html-keyboard-response","156","325524","0.0-6.0-2.49","FL","5baebfz1ea","1536","864","en","Ya05an03","null","","","","learningBlock1","","","","<div style=""font-size:60px;""> </div>","null","FL","learning/Slide50.JPG","That was a tob.","",""
"","image-keyboard-response","157","325711","0.0-6.0-0.50","FL","5baebfz1ea","1536","864","en","Ya05an03","null","","","","","","","","learning/Slide51.JPG","null","","","","",""
"","html-keyboard-response","158","326881","0.0-6.0-1.50","FL","5baebfz1ea","1536","864","en","Ya05an03","null","","","","learningBlock1","","","","That was a bim.","null","","","","",""
"","html-keyboard-response","159","327889","0.0-6.0-2.50","FL","5baebfz1ea","1536","864","en","Ya05an03","null","","","","learningBlock1","","","","<div style=""font-size:60px;""> </div>","null","FL","learning/Slide51.JPG","That was a bim.","",""
"","image-keyboard-response","160","328078","0.0-6.0-0.51","FL","5baebfz1ea","1536","864","en","Ya05an03","null","","","","","","","","learning/Slide52.JPG","null","","","","",""
"","html-keyboard-response","161","329239","0.0-6.0-1.51","FL","5baebfz1ea","1536","864","en","Ya05an03","null","","","","learningBlock1","","","","That was a wug.","null","","","","",""
"","html-keyboard-response","162","330244","0.0-6.0-2.51","FL","5baebfz1ea","1536","864","en","Ya05an03","null","","","","learningBlock1","","","","<div style=""font-size:60px;""> </div>","null","FL","learning/Slide52.JPG","That was a wug.","",""
"","image-keyboard-response","163","330432","0.0-6.0-0.52","FL","5baebfz1ea","1536","864","en","Ya05an03","null","","","","","","","","learning/Slide53.JPG","null","","","","",""
"","html-keyboard-response","164","331594","0.0-6.0-1.52","FL","5baebfz1ea","1536","864","en","Ya05an03","null","","","","learningBlock1","","","","That was a tob.","null","","","","",""
"","html-keyboard-response","165","332610","0.0-6.0-2.52","FL","5baebfz1ea","1536","864","en","Ya05an03","null","","","","learningBlock1","","","","<div style=""font-size:60px;""> </div>","null","FL","learning/Slide53.JPG","That was a tob.","",""
"","image-keyboard-response","166","332798","0.0-6.0-0.53","FL","5baebfz1ea","1536","864","en","Ya05an03","null","","","","","","","","learning/Slide54.JPG","null","","","","",""
"","html-keyboard-response","167","333967","0.0-6.0-1.53","FL","5baebfz1ea","1536","864","en","Ya05an03","null","","","","learningBlock1","","","","That was a dep.","null","","","","",""
"","html-keyboard-response","168","334974","0.0-6.0-2.53","FL","5baebfz1ea","1536","864","en","Ya05an03","null","","","","learningBlock1","","","","<div style=""font-size:60px;""> </div>","null","FL","learning/Slide54.JPG","That was a dep.","",""
"","image-keyboard-response","169","335165","0.0-6.0-0.54","FL","5baebfz1ea","1536","864","en","Ya05an03","null","","","","","","","","learning/Slide55.JPG","null","","","","",""
"","html-keyboard-response","170","336331","0.0-6.0-1.54","FL","5baebfz1ea","1536","864","en","Ya05an03","null","","","","learningBlock1","","","","That was a bim.","null","","","","",""
"","html-keyboard-response","171","337338","0.0-6.0-2.54","FL","5baebfz1ea","1536","864","en","Ya05an03","null","","","","learningBlock1","","","","<div style=""font-size:60px;""> </div>","null","FL","learning/Slide55.JPG","That was a bim.","",""
"","image-keyboard-response","172","337528","0.0-6.0-0.55","FL","5baebfz1ea","1536","864","en","Ya05an03","null","","","","","","","","learning/Slide56.JPG","null","","","","",""
"","html-keyboard-response","173","338691","0.0-6.0-1.55","FL","5baebfz1ea","1536","864","en","Ya05an03","null","","","","learningBlock1","","","","That was a tob.","null","","","","",""
"","html-keyboard-response","174","339707","0.0-6.0-2.55","FL","5baebfz1ea","1536","864","en","Ya05an03","null","","","","learningBlock1","","","","<div style=""font-size:60px;""> </div>","null","FL","learning/Slide56.JPG","That was a tob.","",""
"","image-keyboard-response","175","339893","0.0-6.0-0.56","FL","5baebfz1ea","1536","864","en","Ya05an03","null","","","","","","","","learning/Slide57.JPG","null","","","","",""
"","html-keyboard-response","176","341048","0.0-6.0-1.56","FL","5baebfz1ea","1536","864","en","Ya05an03","null","","","","learningBlock1","","","","That was a dep.","null","","","","",""
"","html-keyboard-response","177","342062","0.0-6.0-2.56","FL","5baebfz1ea","1536","864","en","Ya05an03","null","","","","learningBlock1","","","","<div style=""font-size:60px;""> </div>","null","FL","learning/Slide57.JPG","That was a dep.","",""
"","image-keyboard-response","178","342251","0.0-6.0-0.57","FL","5baebfz1ea","1536","864","en","Ya05an03","null","","","","","","","","learning/Slide58.JPG","null","","","","",""
"","html-keyboard-response","179","343406","0.0-6.0-1.57","FL","5baebfz1ea","1536","864","en","Ya05an03","null","","","","learningBlock1","","","","That was a wug.","null","","","","",""
"","html-keyboard-response","180","344414","0.0-6.0-2.57","FL","5baebfz1ea","1536","864","en","Ya05an03","null","","","","learningBlock1","","","","<div style=""font-size:60px;""> </div>","null","FL","learning/Slide58.JPG","That was a wug.","",""
"","image-keyboard-response","181","344604","0.0-6.0-0.58","FL","5baebfz1ea","1536","864","en","Ya05an03","null","","","","","","","","learning/Slide59.JPG","null","","","","",""
"","html-keyboard-response","182","345764","0.0-6.0-1.58","FL","5baebfz1ea","1536","864","en","Ya05an03","null","","","","learningBlock1","","","","That was a dep.","null","","","","",""
"","html-keyboard-response","183","346767","0.0-6.0-2.58","FL","5baebfz1ea","1536","864","en","Ya05an03","null","","","","learningBlock1","","","","<div style=""font-size:60px;""> </div>","null","FL","learning/Slide59.JPG","That was a dep.","",""
"","image-keyboard-response","184","346958","0.0-6.0-0.59","FL","5baebfz1ea","1536","864","en","Ya05an03","null","","","","","","","","learning/Slide60.JPG","null","","","","",""
"","html-keyboard-response","185","348122","0.0-6.0-1.59","FL","5baebfz1ea","1536","864","en","Ya05an03","null","","","","learningBlock1","","","","That was a wug.","null","","","","",""
"","html-keyboard-response","186","349127","0.0-6.0-2.59","FL","5baebfz1ea","1536","864","en","Ya05an03","null","","","","learningBlock1","","","","<div style=""font-size:60px;""> </div>","null","FL","learning/Slide60.JPG","That was a wug.","",""
"","image-keyboard-response","187","349317","0.0-6.0-0.60","FL","5baebfz1ea","1536","864","en","Ya05an03","null","","","","","","","","learning/Slide61.JPG","null","","","","",""
"","html-keyboard-response","188","350481","0.0-6.0-1.60","FL","5baebfz1ea","1536","864","en","Ya05an03","null","","","","learningBlock1","","","","That was a bim.","null","","","","",""
"","html-keyboard-response","189","351486","0.0-6.0-2.60","FL","5baebfz1ea","1536","864","en","Ya05an03","null","","","","learningBlock1","","","","<div style=""font-size:60px;""> </div>","null","FL","learning/Slide61.JPG","That was a bim.","",""
"","image-keyboard-response","190","351673","0.0-6.0-0.61","FL","5baebfz1ea","1536","864","en","Ya05an03","null","","","","","","","","learning/Slide62.JPG","null","","","","",""
"","html-keyboard-response","191","352843","0.0-6.0-1.61","FL","5baebfz1ea","1536","864","en","Ya05an03","null","","","","learningBlock1","","","","That was a dep.","null","","","","",""
"","html-keyboard-response","192","353844","0.0-6.0-2.61","FL","5baebfz1ea","1536","864","en","Ya05an03","null","","","","learningBlock1","","","","<div style=""font-size:60px;""> </div>","null","FL","learning/Slide62.JPG","That was a dep.","",""
"","image-keyboard-response","193","354019","0.0-6.0-0.62","FL","5baebfz1ea","1536","864","en","Ya05an03","null","","","","","","","","learning/Slide63.JPG","null","","","","",""
"","html-keyboard-response","194","355179","0.0-6.0-1.62","FL","5baebfz1ea","1536","864","en","Ya05an03","null","","","","learningBlock1","","","","That was a bim.","null","","","","",""
"","html-keyboard-response","195","356195","0.0-6.0-2.62","FL","5baebfz1ea","1536","864","en","Ya05an03","null","","","","learningBlock1","","","","<div style=""font-size:60px;""> </div>","null","FL","learning/Slide63.JPG","That was a bim.","",""
"","image-keyboard-response","196","356383","0.0-6.0-0.63","FL","5baebfz1ea","1536","864","en","Ya05an03","null","","","","","","","","learning/Slide64.JPG","null","","","","",""
"","html-keyboard-response","197","357541","0.0-6.0-1.63","FL","5baebfz1ea","1536","864","en","Ya05an03","null","","","","learningBlock1","","","","That was a tob.","null","","","","",""
"","html-keyboard-response","198","358543","0.0-6.0-2.63","FL","5baebfz1ea","1536","864","en","Ya05an03","null","","","","learningBlock1","","","","<div style=""font-size:60px;""> </div>","null","FL","learning/Slide64.JPG","That was a tob.","",""
"","image-keyboard-response","199","358733","0.0-6.0-0.64","FL","5baebfz1ea","1536","864","en","Ya05an03","null","","","","","","","","learning/Slide65.JPG","null","","","","",""
"","html-keyboard-response","200","359897","0.0-6.0-1.64","FL","5baebfz1ea","1536","864","en","Ya05an03","null","","","","learningBlock1","","","","That was a wug.","null","","","","",""
"","html-keyboard-response","201","360898","0.0-6.0-2.64","FL","5baebfz1ea","1536","864","en","Ya05an03","null","","","","learningBlock1","","","","<div style=""font-size:60px;""> </div>","null","FL","learning/Slide65.JPG","That was a wug.","",""
"","image-keyboard-response","202","361084","0.0-6.0-0.65","FL","5baebfz1ea","1536","864","en","Ya05an03","null","","","","","","","","learning/Slide66.JPG","null","","","","",""
"","html-keyboard-response","203","362242","0.0-6.0-1.65","FL","5baebfz1ea","1536","864","en","Ya05an03","null","","","","learningBlock1","","","","That was a dep.","null","","","","",""
"","html-keyboard-response","204","363256","0.0-6.0-2.65","FL","5baebfz1ea","1536","864","en","Ya05an03","null","","","","learningBlock1","","","","<div style=""font-size:60px;""> </div>","null","FL","learning/Slide66.JPG","That was a dep.","",""
"","image-keyboard-response","205","363444","0.0-6.0-0.66","FL","5baebfz1ea","1536","864","en","Ya05an03","null","","","","","","","","learning/Slide67.JPG","null","","","","",""
"","html-keyboard-response","206","364605","0.0-6.0-1.66","FL","5baebfz1ea","1536","864","en","Ya05an03","null","","","","learningBlock1","","","","That was a tob.","null","","","","",""
"","html-keyboard-response","207","365608","0.0-6.0-2.66","FL","5baebfz1ea","1536","864","en","Ya05an03","null","","","","learningBlock1","","","","<div style=""font-size:60px;""> </div>","null","FL","learning/Slide67.JPG","That was a tob.","",""
"","image-keyboard-response","208","365797","0.0-6.0-0.67","FL","5baebfz1ea","1536","864","en","Ya05an03","null","","","","","","","","learning/Slide68.JPG","null","","","","",""
"","html-keyboard-response","209","366959","0.0-6.0-1.67","FL","5baebfz1ea","1536","864","en","Ya05an03","null","","","","learningBlock1","","","","That was a wug.","null","","","","",""
"","html-keyboard-response","210","367962","0.0-6.0-2.67","FL","5baebfz1ea","1536","864","en","Ya05an03","null","","","","learningBlock1","","","","<div style=""font-size:60px;""> </div>","null","FL","learning/Slide68.JPG","That was a wug.","",""
"","image-keyboard-response","211","368151","0.0-6.0-0.68","FL","5baebfz1ea","1536","864","en","Ya05an03","null","","","","","","","","learning/Slide69.JPG","null","","","","",""
"","html-keyboard-response","212","369313","0.0-6.0-1.68","FL","5baebfz1ea","1536","864","en","Ya05an03","null","","","","learningBlock1","","","","That was a tob.","null","","","","",""
"","html-keyboard-response","213","370318","0.0-6.0-2.68","FL","5baebfz1ea","1536","864","en","Ya05an03","null","","","","learningBlock1","","","","<div style=""font-size:60px;""> </div>","null","FL","learning/Slide69.JPG","That was a tob.","",""
"","image-keyboard-response","214","370507","0.0-6.0-0.69","FL","5baebfz1ea","1536","864","en","Ya05an03","null","","","","","","","","learning/Slide70.JPG","null","","","","",""
"","html-keyboard-response","215","371666","0.0-6.0-1.69","FL","5baebfz1ea","1536","864","en","Ya05an03","null","","","","learningBlock1","","","","That was a dep.","null","","","","",""
"","html-keyboard-response","216","372669","0.0-6.0-2.69","FL","5baebfz1ea","1536","864","en","Ya05an03","null","","","","learningBlock1","","","","<div style=""font-size:60px;""> </div>","null","FL","learning/Slide70.JPG","That was a dep.","",""
"","image-keyboard-response","217","372856","0.0-6.0-0.70","FL","5baebfz1ea","1536","864","en","Ya05an03","null","","","","","","","","learning/Slide71.JPG","null","","","","",""
"","html-keyboard-response","218","374015","0.0-6.0-1.70","FL","5baebfz1ea","1536","864","en","Ya05an03","null","","","","learningBlock1","","","","That was a wug.","null","","","","",""
"","html-keyboard-response","219","375016","0.0-6.0-2.70","FL","5baebfz1ea","1536","864","en","Ya05an03","null","","","","learningBlock1","","","","<div style=""font-size:60px;""> </div>","null","FL","learning/Slide71.JPG","That was a wug.","",""
"","image-keyboard-response","220","375205","0.0-6.0-0.71","FL","5baebfz1ea","1536","864","en","Ya05an03","null","","","","","","","","learning/Slide72.JPG","null","","","","",""
"","html-keyboard-response","221","376364","0.0-6.0-1.71","FL","5baebfz1ea","1536","864","en","Ya05an03","null","","","","learningBlock1","","","","That was a bim.","null","","","","",""
"","html-keyboard-response","222","377367","0.0-6.0-2.71","FL","5baebfz1ea","1536","864","en","Ya05an03","null","","","","learningBlock1","","","","<div style=""font-size:60px;""> </div>","null","FL","learning/Slide72.JPG","That was a bim.","",""
"","image-keyboard-response","223","377555","0.0-6.0-0.72","FL","5baebfz1ea","1536","864","en","Ya05an03","null","","","","","","","","learning/Slide73.JPG","null","","","","",""
"","html-keyboard-response","224","378713","0.0-6.0-1.72","FL","5baebfz1ea","1536","864","en","Ya05an03","null","","","","learningBlock1","","","","That was a wug.","null","","","","",""
"","html-keyboard-response","225","379714","0.0-6.0-2.72","FL","5baebfz1ea","1536","864","en","Ya05an03","null","","","","learningBlock1","","","","<div style=""font-size:60px;""> </div>","null","FL","learning/Slide73.JPG","That was a wug.","",""
"","image-keyboard-response","226","379901","0.0-6.0-0.73","FL","5baebfz1ea","1536","864","en","Ya05an03","null","","","","","","","","learning/Slide74.JPG","null","","","","",""
"","html-keyboard-response","227","381063","0.0-6.0-1.73","FL","5baebfz1ea","1536","864","en","Ya05an03","null","","","","learningBlock1","","","","That was a dep.","null","","","","",""
"","html-keyboard-response","228","382065","0.0-6.0-2.73","FL","5baebfz1ea","1536","864","en","Ya05an03","null","","","","learningBlock1","","","","<div style=""font-size:60px;""> </div>","null","FL","learning/Slide74.JPG","That was a dep.","",""
"","image-keyboard-response","229","382253","0.0-6.0-0.74","FL","5baebfz1ea","1536","864","en","Ya05an03","null","","","","","","","","learning/Slide75.JPG","null","","","","",""
"","html-keyboard-response","230","383414","0.0-6.0-1.74","FL","5baebfz1ea","1536","864","en","Ya05an03","null","","","","learningBlock1","","","","That was a tob.","null","","","","",""
"","html-keyboard-response","231","384429","0.0-6.0-2.74","FL","5baebfz1ea","1536","864","en","Ya05an03","null","","","","learningBlock1","","","","<div style=""font-size:60px;""> </div>","null","FL","learning/Slide75.JPG","That was a tob.","",""
"","image-keyboard-response","232","384619","0.0-6.0-0.75","FL","5baebfz1ea","1536","864","en","Ya05an03","null","","","","","","","","learning/Slide76.JPG","null","","","","",""
"","html-keyboard-response","233","385777","0.0-6.0-1.75","FL","5baebfz1ea","1536","864","en","Ya05an03","null","","","","learningBlock1","","","","That was a bim.","null","","","","",""
"","html-keyboard-response","234","386780","0.0-6.0-2.75","FL","5baebfz1ea","1536","864","en","Ya05an03","null","","","","learningBlock1","","","","<div style=""font-size:60px;""> </div>","null","FL","learning/Slide76.JPG","That was a bim.","",""
"","image-keyboard-response","235","386968","0.0-6.0-0.76","FL","5baebfz1ea","1536","864","en","Ya05an03","null","","","","","","","","learning/Slide77.JPG","null","","","","",""
"","html-keyboard-response","236","388134","0.0-6.0-1.76","FL","5baebfz1ea","1536","864","en","Ya05an03","null","","","","learningBlock1","","","","That was a tob.","null","","","","",""
"","html-keyboard-response","237","389149","0.0-6.0-2.76","FL","5baebfz1ea","1536","864","en","Ya05an03","null","","","","learningBlock1","","","","<div style=""font-size:60px;""> </div>","null","FL","learning/Slide77.JPG","That was a tob.","",""
"","image-keyboard-response","238","389338","0.0-6.0-0.77","FL","5baebfz1ea","1536","864","en","Ya05an03","null","","","","","","","","learning/Slide78.JPG","null","","","","",""
"","html-keyboard-response","239","390500","0.0-6.0-1.77","FL","5baebfz1ea","1536","864","en","Ya05an03","null","","","","learningBlock1","","","","That was a wug.","null","","","","",""
"","html-keyboard-response","240","391503","0.0-6.0-2.77","FL","5baebfz1ea","1536","864","en","Ya05an03","null","","","","learningBlock1","","","","<div style=""font-size:60px;""> </div>","null","FL","learning/Slide78.JPG","That was a wug.","",""
"","image-keyboard-response","241","391692","0.0-6.0-0.78","FL","5baebfz1ea","1536","864","en","Ya05an03","null","","","","","","","","learning/Slide79.JPG","null","","","","",""
"","html-keyboard-response","242","392853","0.0-6.0-1.78","FL","5baebfz1ea","1536","864","en","Ya05an03","null","","","","learningBlock1","","","","That was a bim.","null","","","","",""
"","html-keyboard-response","243","393868","0.0-6.0-2.78","FL","5baebfz1ea","1536","864","en","Ya05an03","null","","","","learningBlock1","","","","<div style=""font-size:60px;""> </div>","null","FL","learning/Slide79.JPG","That was a bim.","",""
"","image-keyboard-response","244","394055","0.0-6.0-0.79","FL","5baebfz1ea","1536","864","en","Ya05an03","null","","","","","","","","learning/Slide80.JPG","null","","","","",""
"","html-keyboard-response","245","395217","0.0-6.0-1.79","FL","5baebfz1ea","1536","864","en","Ya05an03","null","","","","learningBlock1","","","","That was a tob.","null","","","","",""
"","html-keyboard-response","246","396226","0.0-6.0-2.79","FL","5baebfz1ea","1536","864","en","Ya05an03","null","","","","learningBlock1","","","","<div style=""font-size:60px;""> </div>","null","FL","learning/Slide80.JPG","That was a tob.","",""
"","instructions","247","398989","0.0-7.0","FL","5baebfz1ea","1536","864","en","Ya05an03","NA","","","[{""page_index"":0,""viewing_time"":2761}]","instructions","","","","","","","","","",""
"","image-keyboard-response","248","399168","0.0-8.0-0.0","FL","5baebfz1ea","1536","864","en","Ya05an03","null","","","","","","","","learning/Slide81.JPG","null","","","","",""
"","html-keyboard-response","249","400340","0.0-8.0-1.0","FL","5baebfz1ea","1536","864","en","Ya05an03","null","","","","learningBlock2","","","","That was a wug.","null","","","","",""
"","html-keyboard-response","250","401355","0.0-8.0-2.0","FL","5baebfz1ea","1536","864","en","Ya05an03","null","","","","learningBlock2","","","","<div style=""font-size:60px;""> </div>","null","FL","learning/Slide81.JPG","That was a wug.","",""
"","image-keyboard-response","251","401542","0.0-8.0-0.1","FL","5baebfz1ea","1536","864","en","Ya05an03","null","","","","","","","","learning/Slide82.JPG","null","","","","",""
"","html-keyboard-response","252","402702","0.0-8.0-1.1","FL","5baebfz1ea","1536","864","en","Ya05an03","null","","","","learningBlock2","","","","That was a bim.","null","","","","",""
"","html-keyboard-response","253","403712","0.0-8.0-2.1","FL","5baebfz1ea","1536","864","en","Ya05an03","null","","","","learningBlock2","","","","<div style=""font-size:60px;""> </div>","null","FL","learning/Slide82.JPG","That was a bim.","",""
"","image-keyboard-response","254","403899","0.0-8.0-0.2","FL","5baebfz1ea","1536","864","en","Ya05an03","null","","","","","","","","learning/Slide83.JPG","null","","","","",""
"","html-keyboard-response","255","405058","0.0-8.0-1.2","FL","5baebfz1ea","1536","864","en","Ya05an03","null","","","","learningBlock2","","","","That was a wug.","null","","","","",""
"","html-keyboard-response","256","406073","0.0-8.0-2.2","FL","5baebfz1ea","1536","864","en","Ya05an03","null","","","","learningBlock2","","","","<div style=""font-size:60px;""> </div>","null","FL","learning/Slide83.JPG","That was a wug.","",""
"","image-keyboard-response","257","406262","0.0-8.0-0.3","FL","5baebfz1ea","1536","864","en","Ya05an03","null","","","","","","","","learning/Slide84.JPG","null","","","","",""
"","html-keyboard-response","258","407431","0.0-8.0-1.3","FL","5baebfz1ea","1536","864","en","Ya05an03","null","","","","learningBlock2","","","","That was a dep.","null","","","","",""
"","html-keyboard-response","259","408446","0.0-8.0-2.3","FL","5baebfz1ea","1536","864","en","Ya05an03","null","","","","learningBlock2","","","","<div style=""font-size:60px;""> </div>","null","FL","learning/Slide84.JPG","That was a dep.","",""
"","image-keyboard-response","260","408634","0.0-8.0-0.4","FL","5baebfz1ea","1536","864","en","Ya05an03","null","","","","","","","","learning/Slide85.JPG","null","","","","",""
"","html-keyboard-response","261","409794","0.0-8.0-1.4","FL","5baebfz1ea","1536","864","en","Ya05an03","null","","","","learningBlock2","","","","That was a bim.","null","","","","",""
"","html-keyboard-response","262","410803","0.0-8.0-2.4","FL","5baebfz1ea","1536","864","en","Ya05an03","null","","","","learningBlock2","","","","<div style=""font-size:60px;""> </div>","null","FL","learning/Slide85.JPG","That was a bim.","",""
"","image-keyboard-response","263","410994","0.0-8.0-0.5","FL","5baebfz1ea","1536","864","en","Ya05an03","null","","","","","","","","learning/Slide86.JPG","null","","","","",""
"","html-keyboard-response","264","412155","0.0-8.0-1.5","FL","5baebfz1ea","1536","864","en","Ya05an03","null","","","","learningBlock2","","","","That was a tob.","null","","","","",""
"","html-keyboard-response","265","413158","0.0-8.0-2.5","FL","5baebfz1ea","1536","864","en","Ya05an03","null","","","","learningBlock2","","","","<div style=""font-size:60px;""> </div>","null","FL","learning/Slide86.JPG","That was a tob.","",""
"","image-keyboard-response","266","413344","0.0-8.0-0.6","FL","5baebfz1ea","1536","864","en","Ya05an03","null","","","","","","","","learning/Slide87.JPG","null","","","","",""
"","html-keyboard-response","267","414500","0.0-8.0-1.6","FL","5baebfz1ea","1536","864","en","Ya05an03","null","","","","learningBlock2","","","","That was a wug.","null","","","","",""
"","html-keyboard-response","268","415507","0.0-8.0-2.6","FL","5baebfz1ea","1536","864","en","Ya05an03","null","","","","learningBlock2","","","","<div style=""font-size:60px;""> </div>","null","FL","learning/Slide87.JPG","That was a wug.","",""
"","image-keyboard-response","269","415696","0.0-8.0-0.7","FL","5baebfz1ea","1536","864","en","Ya05an03","null","","","","","","","","learning/Slide88.JPG","null","","","","",""
"","html-keyboard-response","270","416854","0.0-8.0-1.7","FL","5baebfz1ea","1536","864","en","Ya05an03","null","","","","learningBlock2","","","","That was a tob.","null","","","","",""
"","html-keyboard-response","271","417857","0.0-8.0-2.7","FL","5baebfz1ea","1536","864","en","Ya05an03","null","","","","learningBlock2","","","","<div style=""font-size:60px;""> </div>","null","FL","learning/Slide88.JPG","That was a tob.","",""
"","image-keyboard-response","272","418046","0.0-8.0-0.8","FL","5baebfz1ea","1536","864","en","Ya05an03","null","","","","","","","","learning/Slide89.JPG","null","","","","",""
"","html-keyboard-response","273","419218","0.0-8.0-1.8","FL","5baebfz1ea","1536","864","en","Ya05an03","null","","","","learningBlock2","","","","That was a bim.","null","","","","",""
"","html-keyboard-response","274","420220","0.0-8.0-2.8","FL","5baebfz1ea","1536","864","en","Ya05an03","null","","","","learningBlock2","","","","<div style=""font-size:60px;""> </div>","null","FL","learning/Slide89.JPG","That was a bim.","",""
"","image-keyboard-response","275","420408","0.0-8.0-0.9","FL","5baebfz1ea","1536","864","en","Ya05an03","null","","","","","","","","learning/Slide90.JPG","null","","","","",""
"","html-keyboard-response","276","421568","0.0-8.0-1.9","FL","5baebfz1ea","1536","864","en","Ya05an03","null","","","","learningBlock2","","","","That was a dep.","null","","","","",""
"","html-keyboard-response","277","422574","0.0-8.0-2.9","FL","5baebfz1ea","1536","864","en","Ya05an03","null","","","","learningBlock2","","","","<div style=""font-size:60px;""> </div>","null","FL","learning/Slide90.JPG","That was a dep.","",""
"","image-keyboard-response","278","422762","0.0-8.0-0.10","FL","5baebfz1ea","1536","864","en","Ya05an03","null","","","","","","","","learning/Slide91.JPG","null","","","","",""
"","html-keyboard-response","279","423922","0.0-8.0-1.10","FL","5baebfz1ea","1536","864","en","Ya05an03","null","","","","learningBlock2","","","","That was a wug.","null","","","","",""
"","html-keyboard-response","280","424927","0.0-8.0-2.10","FL","5baebfz1ea","1536","864","en","Ya05an03","null","","","","learningBlock2","","","","<div style=""font-size:60px;""> </div>","null","FL","learning/Slide91.JPG","That was a wug.","",""
"","image-keyboard-response","281","425114","0.0-8.0-0.11","FL","5baebfz1ea","1536","864","en","Ya05an03","null","","","","","","","","learning/Slide92.JPG","null","","","","",""
"","html-keyboard-response","282","426275","0.0-8.0-1.11","FL","5baebfz1ea","1536","864","en","Ya05an03","null","","","","learningBlock2","","","","That was a tob.","null","","","","",""
"","html-keyboard-response","283","427279","0.0-8.0-2.11","FL","5baebfz1ea","1536","864","en","Ya05an03","null","","","","learningBlock2","","","","<div style=""font-size:60px;""> </div>","null","FL","learning/Slide92.JPG","That was a tob.","",""
"","image-keyboard-response","284","427465","0.0-8.0-0.12","FL","5baebfz1ea","1536","864","en","Ya05an03","null","","","","","","","","learning/Slide93.JPG","null","","","","",""
"","html-keyboard-response","285","428623","0.0-8.0-1.12","FL","5baebfz1ea","1536","864","en","Ya05an03","null","","","","learningBlock2","","","","That was a bim.","null","","","","",""
"","html-keyboard-response","286","429625","0.0-8.0-2.12","FL","5baebfz1ea","1536","864","en","Ya05an03","null","","","","learningBlock2","","","","<div style=""font-size:60px;""> </div>","null","FL","learning/Slide93.JPG","That was a bim.","",""
"","image-keyboard-response","287","429814","0.0-8.0-0.13","FL","5baebfz1ea","1536","864","en","Ya05an03","null","","","","","","","","learning/Slide94.JPG","null","","","","",""
"","html-keyboard-response","288","430972","0.0-8.0-1.13","FL","5baebfz1ea","1536","864","en","Ya05an03","null","","","","learningBlock2","","","","That was a tob.","null","","","","",""
"","html-keyboard-response","289","431976","0.0-8.0-2.13","FL","5baebfz1ea","1536","864","en","Ya05an03","null","","","","learningBlock2","","","","<div style=""font-size:60px;""> </div>","null","FL","learning/Slide94.JPG","That was a tob.","",""
"","image-keyboard-response","290","432165","0.0-8.0-0.14","FL","5baebfz1ea","1536","864","en","Ya05an03","null","","","","","","","","learning/Slide95.JPG","null","","","","",""
"","html-keyboard-response","291","433323","0.0-8.0-1.14","FL","5baebfz1ea","1536","864","en","Ya05an03","null","","","","learningBlock2","","","","That was a wug.","null","","","","",""
"","html-keyboard-response","292","434327","0.0-8.0-2.14","FL","5baebfz1ea","1536","864","en","Ya05an03","null","","","","learningBlock2","","","","<div style=""font-size:60px;""> </div>","null","FL","learning/Slide95.JPG","That was a wug.","",""
"","image-keyboard-response","293","434514","0.0-8.0-0.15","FL","5baebfz1ea","1536","864","en","Ya05an03","null","","","","","","","","learning/Slide96.JPG","null","","","","",""
"","html-keyboard-response","294","435689","0.0-8.0-1.15","FL","5baebfz1ea","1536","864","en","Ya05an03","null","","","","learningBlock2","","","","That was a tob.","null","","","","",""
"","html-keyboard-response","295","436692","0.0-8.0-2.15","FL","5baebfz1ea","1536","864","en","Ya05an03","null","","","","learningBlock2","","","","<div style=""font-size:60px;""> </div>","null","FL","learning/Slide96.JPG","That was a tob.","",""
"","image-keyboard-response","296","436881","0.0-8.0-0.16","FL","5baebfz1ea","1536","864","en","Ya05an03","null","","","","","","","","learning/Slide97.JPG","null","","","","",""
"","html-keyboard-response","297","438043","0.0-8.0-1.16","FL","5baebfz1ea","1536","864","en","Ya05an03","null","","","","learningBlock2","","","","That was a dep.","null","","","","",""
"","html-keyboard-response","298","439050","0.0-8.0-2.16","FL","5baebfz1ea","1536","864","en","Ya05an03","null","","","","learningBlock2","","","","<div style=""font-size:60px;""> </div>","null","FL","learning/Slide97.JPG","That was a dep.","",""
"","image-keyboard-response","299","439238","0.0-8.0-0.17","FL","5baebfz1ea","1536","864","en","Ya05an03","null","","","","","","","","learning/Slide98.JPG","null","","","","",""
"","html-keyboard-response","300","440411","0.0-8.0-1.17","FL","5baebfz1ea","1536","864","en","Ya05an03","null","","","","learningBlock2","","","","That was a bim.","null","","","","",""
"","html-keyboard-response","301","441421","0.0-8.0-2.17","FL","5baebfz1ea","1536","864","en","Ya05an03","null","","","","learningBlock2","","","","<div style=""font-size:60px;""> </div>","null","FL","learning/Slide98.JPG","That was a bim.","",""
"","image-keyboard-response","302","441609","0.0-8.0-0.18","FL","5baebfz1ea","1536","864","en","Ya05an03","null","","","","","","","","learning/Slide99.JPG","null","","","","",""
"","html-keyboard-response","303","442767","0.0-8.0-1.18","FL","5baebfz1ea","1536","864","en","Ya05an03","null","","","","learningBlock2","","","","That was a dep.","null","","","","",""
"","html-keyboard-response","304","443774","0.0-8.0-2.18","FL","5baebfz1ea","1536","864","en","Ya05an03","null","","","","learningBlock2","","","","<div style=""font-size:60px;""> </div>","null","FL","learning/Slide99.JPG","That was a dep.","",""
"","image-keyboard-response","305","443963","0.0-8.0-0.19","FL","5baebfz1ea","1536","864","en","Ya05an03","null","","","","","","","","learning/Slide100.JPG","null","","","","",""
"","html-keyboard-response","306","445121","0.0-8.0-1.19","FL","5baebfz1ea","1536","864","en","Ya05an03","null","","","","learningBlock2","","","","That was a bim.","null","","","","",""
"","html-keyboard-response","307","446128","0.0-8.0-2.19","FL","5baebfz1ea","1536","864","en","Ya05an03","null","","","","learningBlock2","","","","<div style=""font-size:60px;""> </div>","null","FL","learning/Slide100.JPG","That was a bim.","",""
"","image-keyboard-response","308","446315","0.0-8.0-0.20","FL","5baebfz1ea","1536","864","en","Ya05an03","null","","","","","","","","learning/Slide101.JPG","null","","","","",""
"","html-keyboard-response","309","447477","0.0-8.0-1.20","FL","5baebfz1ea","1536","864","en","Ya05an03","null","","","","learningBlock2","","","","That was a tob.","null","","","","",""
"","html-keyboard-response","310","448478","0.0-8.0-2.20","FL","5baebfz1ea","1536","864","en","Ya05an03","null","","","","learningBlock2","","","","<div style=""font-size:60px;""> </div>","null","FL","learning/Slide101.JPG","That was a tob.","",""
"","image-keyboard-response","311","448665","0.0-8.0-0.21","FL","5baebfz1ea","1536","864","en","Ya05an03","null","","","","","","","","learning/Slide102.JPG","null","","","","",""
"","html-keyboard-response","312","449833","0.0-8.0-1.21","FL","5baebfz1ea","1536","864","en","Ya05an03","null","","","","learningBlock2","","","","That was a bim.","null","","","","",""
"","html-keyboard-response","313","450834","0.0-8.0-2.21","FL","5baebfz1ea","1536","864","en","Ya05an03","null","","","","learningBlock2","","","","<div style=""font-size:60px;""> </div>","null","FL","learning/Slide102.JPG","That was a bim.","",""
"","image-keyboard-response","314","451019","0.0-8.0-0.22","FL","5baebfz1ea","1536","864","en","Ya05an03","null","","","","","","","","learning/Slide103.JPG","null","","","","",""
"","html-keyboard-response","315","452182","0.0-8.0-1.22","FL","5baebfz1ea","1536","864","en","Ya05an03","null","","","","learningBlock2","","","","That was a dep.","null","","","","",""
"","html-keyboard-response","316","453184","0.0-8.0-2.22","FL","5baebfz1ea","1536","864","en","Ya05an03","null","","","","learningBlock2","","","","<div style=""font-size:60px;""> </div>","null","FL","learning/Slide103.JPG","That was a dep.","",""
"","image-keyboard-response","317","453368","0.0-8.0-0.23","FL","5baebfz1ea","1536","864","en","Ya05an03","null","","","","","","","","learning/Slide104.JPG","null","","","","",""
"","html-keyboard-response","318","454533","0.0-8.0-1.23","FL","5baebfz1ea","1536","864","en","Ya05an03","null","","","","learningBlock2","","","","That was a tob.","null","","","","",""
"","html-keyboard-response","319","455540","0.0-8.0-2.23","FL","5baebfz1ea","1536","864","en","Ya05an03","null","","","","learningBlock2","","","","<div style=""font-size:60px;""> </div>","null","FL","learning/Slide104.JPG","That was a tob.","",""
"","image-keyboard-response","320","455730","0.0-8.0-0.24","FL","5baebfz1ea","1536","864","en","Ya05an03","null","","","","","","","","learning/Slide105.JPG","null","","","","",""
"","html-keyboard-response","321","456892","0.0-8.0-1.24","FL","5baebfz1ea","1536","864","en","Ya05an03","null","","","","learningBlock2","","","","That was a dep.","null","","","","",""
"","html-keyboard-response","322","457900","0.0-8.0-2.24","FL","5baebfz1ea","1536","864","en","Ya05an03","null","","","","learningBlock2","","","","<div style=""font-size:60px;""> </div>","null","FL","learning/Slide105.JPG","That was a dep.","",""
"","image-keyboard-response","323","458089","0.0-8.0-0.25","FL","5baebfz1ea","1536","864","en","Ya05an03","null","","","","","","","","learning/Slide106.JPG","null","","","","",""
"","html-keyboard-response","324","459258","0.0-8.0-1.25","FL","5baebfz1ea","1536","864","en","Ya05an03","null","","","","learningBlock2","","","","That was a wug.","null","","","","",""
"","html-keyboard-response","325","460264","0.0-8.0-2.25","FL","5baebfz1ea","1536","864","en","Ya05an03","null","","","","learningBlock2","","","","<div style=""font-size:60px;""> </div>","null","FL","learning/Slide106.JPG","That was a wug.","",""
"","image-keyboard-response","326","460450","0.0-8.0-0.26","FL","5baebfz1ea","1536","864","en","Ya05an03","null","","","","","","","","learning/Slide107.JPG","null","","","","",""
"","html-keyboard-response","327","461619","0.0-8.0-1.26","FL","5baebfz1ea","1536","864","en","Ya05an03","null","","","","learningBlock2","","","","That was a bim.","null","","","","",""
"","html-keyboard-response","328","462631","0.0-8.0-2.26","FL","5baebfz1ea","1536","864","en","Ya05an03","null","","","","learningBlock2","","","","<div style=""font-size:60px;""> </div>","null","FL","learning/Slide107.JPG","That was a bim.","",""
"","image-keyboard-response","329","462816","0.0-8.0-0.27","FL","5baebfz1ea","1536","864","en","Ya05an03","null","","","","","","","","learning/Slide108.JPG","null","","","","",""
"","html-keyboard-response","330","463976","0.0-8.0-1.27","FL","5baebfz1ea","1536","864","en","Ya05an03","null","","","","learningBlock2","","","","That was a dep.","null","","","","",""
"","html-keyboard-response","331","464992","0.0-8.0-2.27","FL","5baebfz1ea","1536","864","en","Ya05an03","null","","","","learningBlock2","","","","<div style=""font-size:60px;""> </div>","null","FL","learning/Slide108.JPG","That was a dep.","",""
"","image-keyboard-response","332","465178","0.0-8.0-0.28","FL","5baebfz1ea","1536","864","en","Ya05an03","null","","","","","","","","learning/Slide109.JPG","null","","","","",""
"","html-keyboard-response","333","466335","0.0-8.0-1.28","FL","5baebfz1ea","1536","864","en","Ya05an03","null","","","","learningBlock2","","","","That was a wug.","null","","","","",""
"","html-keyboard-response","334","467340","0.0-8.0-2.28","FL","5baebfz1ea","1536","864","en","Ya05an03","null","","","","learningBlock2","","","","<div style=""font-size:60px;""> </div>","null","FL","learning/Slide109.JPG","That was a wug.","",""
"","image-keyboard-response","335","467529","0.0-8.0-0.29","FL","5baebfz1ea","1536","864","en","Ya05an03","null","","","","","","","","learning/Slide110.JPG","null","","","","",""
"","html-keyboard-response","336","468690","0.0-8.0-1.29","FL","5baebfz1ea","1536","864","en","Ya05an03","null","","","","learningBlock2","","","","That was a bim.","null","","","","",""
"","html-keyboard-response","337","469698","0.0-8.0-2.29","FL","5baebfz1ea","1536","864","en","Ya05an03","null","","","","learningBlock2","","","","<div style=""font-size:60px;""> </div>","null","FL","learning/Slide110.JPG","That was a bim.","",""
"","image-keyboard-response","338","469885","0.0-8.0-0.30","FL","5baebfz1ea","1536","864","en","Ya05an03","null","","","","","","","","learning/Slide111.JPG","null","","","","",""
"","html-keyboard-response","339","471058","0.0-8.0-1.30","FL","5baebfz1ea","1536","864","en","Ya05an03","null","","","","learningBlock2","","","","That was a tob.","null","","","","",""
"","html-keyboard-response","340","472073","0.0-8.0-2.30","FL","5baebfz1ea","1536","864","en","Ya05an03","null","","","","learningBlock2","","","","<div style=""font-size:60px;""> </div>","null","FL","learning/Slide111.JPG","That was a tob.","",""
"","image-keyboard-response","341","472262","0.0-8.0-0.31","FL","5baebfz1ea","1536","864","en","Ya05an03","null","","","","","","","","learning/Slide112.JPG","null","","","","",""
"","html-keyboard-response","342","473431","0.0-8.0-1.31","FL","5baebfz1ea","1536","864","en","Ya05an03","null","","","","learningBlock2","","","","That was a wug.","null","","","","",""
"","html-keyboard-response","343","474434","0.0-8.0-2.31","FL","5baebfz1ea","1536","864","en","Ya05an03","null","","","","learningBlock2","","","","<div style=""font-size:60px;""> </div>","null","FL","learning/Slide112.JPG","That was a wug.","",""
"","image-keyboard-response","344","474623","0.0-8.0-0.32","FL","5baebfz1ea","1536","864","en","Ya05an03","null","","","","","","","","learning/Slide113.JPG","null","","","","",""
"","html-keyboard-response","345","475780","0.0-8.0-1.32","FL","5baebfz1ea","1536","864","en","Ya05an03","null","","","","learningBlock2","","","","That was a tob.","null","","","","",""
"","html-keyboard-response","346","476783","0.0-8.0-2.32","FL","5baebfz1ea","1536","864","en","Ya05an03","null","","","","learningBlock2","","","","<div style=""font-size:60px;""> </div>","null","FL","learning/Slide113.JPG","That was a tob.","",""
"","image-keyboard-response","347","476974","0.0-8.0-0.33","FL","5baebfz1ea","1536","864","en","Ya05an03","null","","","","","","","","learning/Slide114.JPG","null","","","","",""
"","html-keyboard-response","348","478139","0.0-8.0-1.33","FL","5baebfz1ea","1536","864","en","Ya05an03","null","","","","learningBlock2","","","","That was a wug.","null","","","","",""
"","html-keyboard-response","349","479146","0.0-8.0-2.33","FL","5baebfz1ea","1536","864","en","Ya05an03","null","","","","learningBlock2","","","","<div style=""font-size:60px;""> </div>","null","FL","learning/Slide114.JPG","That was a wug.","",""
"","image-keyboard-response","350","479335","0.0-8.0-0.34","FL","5baebfz1ea","1536","864","en","Ya05an03","null","","","","","","","","learning/Slide115.JPG","null","","","","",""
"","html-keyboard-response","351","480497","0.0-8.0-1.34","FL","5baebfz1ea","1536","864","en","Ya05an03","null","","","","learningBlock2","","","","That was a bim.","null","","","","",""
"","html-keyboard-response","352","481503","0.0-8.0-2.34","FL","5baebfz1ea","1536","864","en","Ya05an03","null","","","","learningBlock2","","","","<div style=""font-size:60px;""> </div>","null","FL","learning/Slide115.JPG","That was a bim.","",""
"","image-keyboard-response","353","481691","0.0-8.0-0.35","FL","5baebfz1ea","1536","864","en","Ya05an03","null","","","","","","","","learning/Slide116.JPG","null","","","","",""
"","html-keyboard-response","354","482852","0.0-8.0-1.35","FL","5baebfz1ea","1536","864","en","Ya05an03","null","","","","learningBlock2","","","","That was a dep.","null","","","","",""
"","html-keyboard-response","355","483857","0.0-8.0-2.35","FL","5baebfz1ea","1536","864","en","Ya05an03","null","","","","learningBlock2","","","","<div style=""font-size:60px;""> </div>","null","FL","learning/Slide116.JPG","That was a dep.","",""
"","image-keyboard-response","356","484047","0.0-8.0-0.36","FL","5baebfz1ea","1536","864","en","Ya05an03","null","","","","","","","","learning/Slide117.JPG","null","","","","",""
"","html-keyboard-response","357","485218","0.0-8.0-1.36","FL","5baebfz1ea","1536","864","en","Ya05an03","null","","","","learningBlock2","","","","That was a tob.","null","","","","",""
"","html-keyboard-response","358","486220","0.0-8.0-2.36","FL","5baebfz1ea","1536","864","en","Ya05an03","null","","","","learningBlock2","","","","<div style=""font-size:60px;""> </div>","null","FL","learning/Slide117.JPG","That was a tob.","",""
"","image-keyboard-response","359","486407","0.0-8.0-0.37","FL","5baebfz1ea","1536","864","en","Ya05an03","null","","","","","","","","learning/Slide118.JPG","null","","","","",""
"","html-keyboard-response","360","487568","0.0-8.0-1.37","FL","5baebfz1ea","1536","864","en","Ya05an03","null","","","","learningBlock2","","","","That was a dep.","null","","","","",""
"","html-keyboard-response","361","488577","0.0-8.0-2.37","FL","5baebfz1ea","1536","864","en","Ya05an03","null","","","","learningBlock2","","","","<div style=""font-size:60px;""> </div>","null","FL","learning/Slide118.JPG","That was a dep.","",""
"","image-keyboard-response","362","488764","0.0-8.0-0.38","FL","5baebfz1ea","1536","864","en","Ya05an03","null","","","","","","","","learning/Slide119.JPG","null","","","","",""
"","html-keyboard-response","363","489925","0.0-8.0-1.38","FL","5baebfz1ea","1536","864","en","Ya05an03","null","","","","learningBlock2","","","","That was a wug.","null","","","","",""
"","html-keyboard-response","364","490928","0.0-8.0-2.38","FL","5baebfz1ea","1536","864","en","Ya05an03","null","","","","learningBlock2","","","","<div style=""font-size:60px;""> </div>","null","FL","learning/Slide119.JPG","That was a wug.","",""
"","image-keyboard-response","365","491115","0.0-8.0-0.39","FL","5baebfz1ea","1536","864","en","Ya05an03","null","","","","","","","","learning/Slide120.JPG","null","","","","",""
"","html-keyboard-response","366","492273","0.0-8.0-1.39","FL","5baebfz1ea","1536","864","en","Ya05an03","null","","","","learningBlock2","","","","That was a dep.","null","","","","",""
"","html-keyboard-response","367","493277","0.0-8.0-2.39","FL","5baebfz1ea","1536","864","en","Ya05an03","null","","","","learningBlock2","","","","<div style=""font-size:60px;""> </div>","null","FL","learning/Slide120.JPG","That was a dep.","",""
"","image-keyboard-response","368","493464","0.0-8.0-0.40","FL","5baebfz1ea","1536","864","en","Ya05an03","null","","","","","","","","learning/Slide121.JPG","null","","","","",""
"","html-keyboard-response","369","494631","0.0-8.0-1.40","FL","5baebfz1ea","1536","864","en","Ya05an03","null","","","","learningBlock2","","","","That was a bim.","null","","","","",""
"","html-keyboard-response","370","495643","0.0-8.0-2.40","FL","5baebfz1ea","1536","864","en","Ya05an03","null","","","","learningBlock2","","","","<div style=""font-size:60px;""> </div>","null","FL","learning/Slide121.JPG","That was a bim.","",""
"","image-keyboard-response","371","495833","0.0-8.0-0.41","FL","5baebfz1ea","1536","864","en","Ya05an03","null","","","","","","","","learning/Slide122.JPG","null","","","","",""
"","html-keyboard-response","372","496996","0.0-8.0-1.41","FL","5baebfz1ea","1536","864","en","Ya05an03","null","","","","learningBlock2","","","","That was a wug.","null","","","","",""
"","html-keyboard-response","373","498000","0.0-8.0-2.41","FL","5baebfz1ea","1536","864","en","Ya05an03","null","","","","learningBlock2","","","","<div style=""font-size:60px;""> </div>","null","FL","learning/Slide122.JPG","That was a wug.","",""
"","image-keyboard-response","374","498183","0.0-8.0-0.42","FL","5baebfz1ea","1536","864","en","Ya05an03","null","","","","","","","","learning/Slide123.JPG","null","","","","",""
"","html-keyboard-response","375","499353","0.0-8.0-1.42","FL","5baebfz1ea","1536","864","en","Ya05an03","null","","","","learningBlock2","","","","That was a bim.","null","","","","",""
"","html-keyboard-response","376","500355","0.0-8.0-2.42","FL","5baebfz1ea","1536","864","en","Ya05an03","null","","","","learningBlock2","","","","<div style=""font-size:60px;""> </div>","null","FL","learning/Slide123.JPG","That was a bim.","",""
"","image-keyboard-response","377","500542","0.0-8.0-0.43","FL","5baebfz1ea","1536","864","en","Ya05an03","null","","","","","","","","learning/Slide124.JPG","null","","","","",""
"","html-keyboard-response","378","501704","0.0-8.0-1.43","FL","5baebfz1ea","1536","864","en","Ya05an03","null","","","","learningBlock2","","","","That was a tob.","null","","","","",""
"","html-keyboard-response","379","502711","0.0-8.0-2.43","FL","5baebfz1ea","1536","864","en","Ya05an03","null","","","","learningBlock2","","","","<div style=""font-size:60px;""> </div>","null","FL","learning/Slide124.JPG","That was a tob.","",""
"","image-keyboard-response","380","502897","0.0-8.0-0.44","FL","5baebfz1ea","1536","864","en","Ya05an03","null","","","","","","","","learning/Slide125.JPG","null","","","","",""
"","html-keyboard-response","381","504061","0.0-8.0-1.44","FL","5baebfz1ea","1536","864","en","Ya05an03","null","","","","learningBlock2","","","","That was a bim.","null","","","","",""
"","html-keyboard-response","382","505074","0.0-8.0-2.44","FL","5baebfz1ea","1536","864","en","Ya05an03","null","","","","learningBlock2","","","","<div style=""font-size:60px;""> </div>","null","FL","learning/Slide125.JPG","That was a bim.","",""
"","image-keyboard-response","383","505263","0.0-8.0-0.45","FL","5baebfz1ea","1536","864","en","Ya05an03","null","","","","","","","","learning/Slide126.JPG","null","","","","",""
"","html-keyboard-response","384","506427","0.0-8.0-1.45","FL","5baebfz1ea","1536","864","en","Ya05an03","null","","","","learningBlock2","","","","That was a tob.","null","","","","",""
"","html-keyboard-response","385","507431","0.0-8.0-2.45","FL","5baebfz1ea","1536","864","en","Ya05an03","null","","","","learningBlock2","","","","<div style=""font-size:60px;""> </div>","null","FL","learning/Slide126.JPG","That was a tob.","",""
"","image-keyboard-response","386","507620","0.0-8.0-0.46","FL","5baebfz1ea","1536","864","en","Ya05an03","null","","","","","","","","learning/Slide127.JPG","null","","","","",""
"","html-keyboard-response","387","508778","0.0-8.0-1.46","FL","5baebfz1ea","1536","864","en","Ya05an03","null","","","","learningBlock2","","","","That was a dep.","null","","","","",""
"","html-keyboard-response","388","509782","0.0-8.0-2.46","FL","5baebfz1ea","1536","864","en","Ya05an03","null","","","","learningBlock2","","","","<div style=""font-size:60px;""> </div>","null","FL","learning/Slide127.JPG","That was a dep.","",""
"","image-keyboard-response","389","509968","0.0-8.0-0.47","FL","5baebfz1ea","1536","864","en","Ya05an03","null","","","","","","","","learning/Slide128.JPG","null","","","","",""
"","html-keyboard-response","390","511125","0.0-8.0-1.47","FL","5baebfz1ea","1536","864","en","Ya05an03","null","","","","learningBlock2","","","","That was a wug.","null","","","","",""
"","html-keyboard-response","391","512127","0.0-8.0-2.47","FL","5baebfz1ea","1536","864","en","Ya05an03","null","","","","learningBlock2","","","","<div style=""font-size:60px;""> </div>","null","FL","learning/Slide128.JPG","That was a wug.","",""
"","image-keyboard-response","392","512311","0.0-8.0-0.48","FL","5baebfz1ea","1536","864","en","Ya05an03","null","","","","","","","","learning/Slide129.JPG","null","","","","",""
"","html-keyboard-response","393","513472","0.0-8.0-1.48","FL","5baebfz1ea","1536","864","en","Ya05an03","null","","","","learningBlock2","","","","That was a tob.","null","","","","",""
"","html-keyboard-response","394","514482","0.0-8.0-2.48","FL","5baebfz1ea","1536","864","en","Ya05an03","null","","","","learningBlock2","","","","<div style=""font-size:60px;""> </div>","null","FL","learning/Slide129.JPG","That was a tob.","",""
"","image-keyboard-response","395","514670","0.0-8.0-0.49","FL","5baebfz1ea","1536","864","en","Ya05an03","null","","","","","","","","learning/Slide130.JPG","null","","","","",""
"","html-keyboard-response","396","515840","0.0-8.0-1.49","FL","5baebfz1ea","1536","864","en","Ya05an03","null","","","","learningBlock2","","","","That was a wug.","null","","","","",""
"","html-keyboard-response","397","516852","0.0-8.0-2.49","FL","5baebfz1ea","1536","864","en","Ya05an03","null","","","","learningBlock2","","","","<div style=""font-size:60px;""> </div>","null","FL","learning/Slide130.JPG","That was a wug.","",""
"","image-keyboard-response","398","517041","0.0-8.0-0.50","FL","5baebfz1ea","1536","864","en","Ya05an03","null","","","","","","","","learning/Slide131.JPG","null","","","","",""
"","html-keyboard-response","399","518212","0.0-8.0-1.50","FL","5baebfz1ea","1536","864","en","Ya05an03","null","","","","learningBlock2","","","","That was a bim.","null","","","","",""
"","html-keyboard-response","400","519226","0.0-8.0-2.50","FL","5baebfz1ea","1536","864","en","Ya05an03","null","","","","learningBlock2","","","","<div style=""font-size:60px;""> </div>","null","FL","learning/Slide131.JPG","That was a bim.","",""
"","image-keyboard-response","401","519416","0.0-8.0-0.51","FL","5baebfz1ea","1536","864","en","Ya05an03","null","","","","","","","","learning/Slide132.JPG","null","","","","",""
"","html-keyboard-response","402","520584","0.0-8.0-1.51","FL","5baebfz1ea","1536","864","en","Ya05an03","null","","","","learningBlock2","","","","That was a dep.","null","","","","",""
"","html-keyboard-response","403","521598","0.0-8.0-2.51","FL","5baebfz1ea","1536","864","en","Ya05an03","null","","","","learningBlock2","","","","<div style=""font-size:60px;""> </div>","null","FL","learning/Slide132.JPG","That was a dep.","",""
"","image-keyboard-response","404","521785","0.0-8.0-0.52","FL","5baebfz1ea","1536","864","en","Ya05an03","null","","","","","","","","learning/Slide133.JPG","null","","","","",""
"","html-keyboard-response","405","522948","0.0-8.0-1.52","FL","5baebfz1ea","1536","864","en","Ya05an03","null","","","","learningBlock2","","","","That was a tob.","null","","","","",""
"","html-keyboard-response","406","523956","0.0-8.0-2.52","FL","5baebfz1ea","1536","864","en","Ya05an03","null","","","","learningBlock2","","","","<div style=""font-size:60px;""> </div>","null","FL","learning/Slide133.JPG","That was a tob.","",""
"","image-keyboard-response","407","524142","0.0-8.0-0.53","FL","5baebfz1ea","1536","864","en","Ya05an03","null","","","","","","","","learning/Slide134.JPG","null","","","","",""
"","html-keyboard-response","408","525309","0.0-8.0-1.53","FL","5baebfz1ea","1536","864","en","Ya05an03","null","","","","learningBlock2","","","","That was a dep.","null","","","","",""
"","html-keyboard-response","409","526325","0.0-8.0-2.53","FL","5baebfz1ea","1536","864","en","Ya05an03","null","","","","learningBlock2","","","","<div style=""font-size:60px;""> </div>","null","FL","learning/Slide134.JPG","That was a dep.","",""
"","image-keyboard-response","410","526513","0.0-8.0-0.54","FL","5baebfz1ea","1536","864","en","Ya05an03","null","","","","","","","","learning/Slide135.JPG","null","","","","",""
"","html-keyboard-response","411","527670","0.0-8.0-1.54","FL","5baebfz1ea","1536","864","en","Ya05an03","null","","","","learningBlock2","","","","That was a tob.","null","","","","",""
"","html-keyboard-response","412","528670","0.0-8.0-2.54","FL","5baebfz1ea","1536","864","en","Ya05an03","null","","","","learningBlock2","","","","<div style=""font-size:60px;""> </div>","null","FL","learning/Slide135.JPG","That was a tob.","",""
"","image-keyboard-response","413","528857","0.0-8.0-0.55","FL","5baebfz1ea","1536","864","en","Ya05an03","null","","","","","","","","learning/Slide136.JPG","null","","","","",""
"","html-keyboard-response","414","530019","0.0-8.0-1.55","FL","5baebfz1ea","1536","864","en","Ya05an03","null","","","","learningBlock2","","","","That was a wug.","null","","","","",""
"","html-keyboard-response","415","531022","0.0-8.0-2.55","FL","5baebfz1ea","1536","864","en","Ya05an03","null","","","","learningBlock2","","","","<div style=""font-size:60px;""> </div>","null","FL","learning/Slide136.JPG","That was a wug.","",""
"","image-keyboard-response","416","531210","0.0-8.0-0.56","FL","5baebfz1ea","1536","864","en","Ya05an03","null","","","","","","","","learning/Slide137.JPG","null","","","","",""
"","html-keyboard-response","417","532376","0.0-8.0-1.56","FL","5baebfz1ea","1536","864","en","Ya05an03","null","","","","learningBlock2","","","","That was a tob.","null","","","","",""
"","html-keyboard-response","418","533382","0.0-8.0-2.56","FL","5baebfz1ea","1536","864","en","Ya05an03","null","","","","learningBlock2","","","","<div style=""font-size:60px;""> </div>","null","FL","learning/Slide137.JPG","That was a tob.","",""
"","image-keyboard-response","419","533570","0.0-8.0-0.57","FL","5baebfz1ea","1536","864","en","Ya05an03","null","","","","","","","","learning/Slide138.JPG","null","","","","",""
"","html-keyboard-response","420","534733","0.0-8.0-1.57","FL","5baebfz1ea","1536","864","en","Ya05an03","null","","","","learningBlock2","","","","That was a bim.","null","","","","",""
"","html-keyboard-response","421","535740","0.0-8.0-2.57","FL","5baebfz1ea","1536","864","en","Ya05an03","null","","","","learningBlock2","","","","<div style=""font-size:60px;""> </div>","null","FL","learning/Slide138.JPG","That was a bim.","",""
"","image-keyboard-response","422","535927","0.0-8.0-0.58","FL","5baebfz1ea","1536","864","en","Ya05an03","null","","","","","","","","learning/Slide139.JPG","null","","","","",""
"","html-keyboard-response","423","537101","0.0-8.0-1.58","FL","5baebfz1ea","1536","864","en","Ya05an03","null","","","","learningBlock2","","","","That was a wug.","null","","","","",""
"","html-keyboard-response","424","538103","0.0-8.0-2.58","FL","5baebfz1ea","1536","864","en","Ya05an03","null","","","","learningBlock2","","","","<div style=""font-size:60px;""> </div>","null","FL","learning/Slide139.JPG","That was a wug.","",""
"","image-keyboard-response","425","538289","0.0-8.0-0.59","FL","5baebfz1ea","1536","864","en","Ya05an03","null","","","","","","","","learning/Slide140.JPG","null","","","","",""
"","html-keyboard-response","426","539456","0.0-8.0-1.59","FL","5baebfz1ea","1536","864","en","Ya05an03","null","","","","learningBlock2","","","","That was a dep.","null","","","","",""
"","html-keyboard-response","427","540460","0.0-8.0-2.59","FL","5baebfz1ea","1536","864","en","Ya05an03","null","","","","learningBlock2","","","","<div style=""font-size:60px;""> </div>","null","FL","learning/Slide140.JPG","That was a dep.","",""
"","image-keyboard-response","428","540645","0.0-8.0-0.60","FL","5baebfz1ea","1536","864","en","Ya05an03","null","","","","","","","","learning/Slide141.JPG","null","","","","",""
"","html-keyboard-response","429","541806","0.0-8.0-1.60","FL","5baebfz1ea","1536","864","en","Ya05an03","null","","","","learningBlock2","","","","That was a tob.","null","","","","",""
"","html-keyboard-response","430","542822","0.0-8.0-2.60","FL","5baebfz1ea","1536","864","en","Ya05an03","null","","","","learningBlock2","","","","<div style=""font-size:60px;""> </div>","null","FL","learning/Slide141.JPG","That was a tob.","",""
"","image-keyboard-response","431","543009","0.0-8.0-0.61","FL","5baebfz1ea","1536","864","en","Ya05an03","null","","","","","","","","learning/Slide142.JPG","null","","","","",""
"","html-keyboard-response","432","544172","0.0-8.0-1.61","FL","5baebfz1ea","1536","864","en","Ya05an03","null","","","","learningBlock2","","","","That was a wug.","null","","","","",""
"","html-keyboard-response","433","545177","0.0-8.0-2.61","FL","5baebfz1ea","1536","864","en","Ya05an03","null","","","","learningBlock2","","","","<div style=""font-size:60px;""> </div>","null","FL","learning/Slide142.JPG","That was a wug.","",""
"","image-keyboard-response","434","545366","0.0-8.0-0.62","FL","5baebfz1ea","1536","864","en","Ya05an03","null","","","","","","","","learning/Slide143.JPG","null","","","","",""
"","html-keyboard-response","435","546521","0.0-8.0-1.62","FL","5baebfz1ea","1536","864","en","Ya05an03","null","","","","learningBlock2","","","","That was a bim.","null","","","","",""
"","html-keyboard-response","436","547523","0.0-8.0-2.62","FL","5baebfz1ea","1536","864","en","Ya05an03","null","","","","learningBlock2","","","","<div style=""font-size:60px;""> </div>","null","FL","learning/Slide143.JPG","That was a bim.","",""
"","image-keyboard-response","437","547713","0.0-8.0-0.63","FL","5baebfz1ea","1536","864","en","Ya05an03","null","","","","","","","","learning/Slide144.JPG","null","","","","",""
"","html-keyboard-response","438","548882","0.0-8.0-1.63","FL","5baebfz1ea","1536","864","en","Ya05an03","null","","","","learningBlock2","","","","That was a dep.","null","","","","",""
"","html-keyboard-response","439","549890","0.0-8.0-2.63","FL","5baebfz1ea","1536","864","en","Ya05an03","null","","","","learningBlock2","","","","<div style=""font-size:60px;""> </div>","null","FL","learning/Slide144.JPG","That was a dep.","",""
"","image-keyboard-response","440","550078","0.0-8.0-0.64","FL","5baebfz1ea","1536","864","en","Ya05an03","null","","","","","","","","learning/Slide145.JPG","null","","","","",""
"","html-keyboard-response","441","551237","0.0-8.0-1.64","FL","5baebfz1ea","1536","864","en","Ya05an03","null","","","","learningBlock2","","","","That was a bim.","null","","","","",""
"","html-keyboard-response","442","552239","0.0-8.0-2.64","FL","5baebfz1ea","1536","864","en","Ya05an03","null","","","","learningBlock2","","","","<div style=""font-size:60px;""> </div>","null","FL","learning/Slide145.JPG","That was a bim.","",""
"","image-keyboard-response","443","552428","0.0-8.0-0.65","FL","5baebfz1ea","1536","864","en","Ya05an03","null","","","","","","","","learning/Slide146.JPG","null","","","","",""
"","html-keyboard-response","444","553588","0.0-8.0-1.65","FL","5baebfz1ea","1536","864","en","Ya05an03","null","","","","learningBlock2","","","","That was a tob.","null","","","","",""
"","html-keyboard-response","445","554604","0.0-8.0-2.65","FL","5baebfz1ea","1536","864","en","Ya05an03","null","","","","learningBlock2","","","","<div style=""font-size:60px;""> </div>","null","FL","learning/Slide146.JPG","That was a tob.","",""
"","image-keyboard-response","446","554790","0.0-8.0-0.66","FL","5baebfz1ea","1536","864","en","Ya05an03","null","","","","","","","","learning/Slide147.JPG","null","","","","",""
"","html-keyboard-response","447","555956","0.0-8.0-1.66","FL","5baebfz1ea","1536","864","en","Ya05an03","null","","","","learningBlock2","","","","That was a wug.","null","","","","",""
"","html-keyboard-response","448","556959","0.0-8.0-2.66","FL","5baebfz1ea","1536","864","en","Ya05an03","null","","","","learningBlock2","","","","<div style=""font-size:60px;""> </div>","null","FL","learning/Slide147.JPG","That was a wug.","",""
"","image-keyboard-response","449","557147","0.0-8.0-0.67","FL","5baebfz1ea","1536","864","en","Ya05an03","null","","","","","","","","learning/Slide148.JPG","null","","","","",""
"","html-keyboard-response","450","558320","0.0-8.0-1.67","FL","5baebfz1ea","1536","864","en","Ya05an03","null","","","","learningBlock2","","","","That was a bim.","null","","","","",""
"","html-keyboard-response","451","559335","0.0-8.0-2.67","FL","5baebfz1ea","1536","864","en","Ya05an03","null","","","","learningBlock2","","","","<div style=""font-size:60px;""> </div>","null","FL","learning/Slide148.JPG","That was a bim.","",""
"","image-keyboard-response","452","559524","0.0-8.0-0.68","FL","5baebfz1ea","1536","864","en","Ya05an03","null","","","","","","","","learning/Slide149.JPG","null","","","","",""
"","html-keyboard-response","453","560684","0.0-8.0-1.68","FL","5baebfz1ea","1536","864","en","Ya05an03","null","","","","learningBlock2","","","","That was a dep.","null","","","","",""
"","html-keyboard-response","454","561697","0.0-8.0-2.68","FL","5baebfz1ea","1536","864","en","Ya05an03","null","","","","learningBlock2","","","","<div style=""font-size:60px;""> </div>","null","FL","learning/Slide149.JPG","That was a dep.","",""
"","image-keyboard-response","455","561887","0.0-8.0-0.69","FL","5baebfz1ea","1536","864","en","Ya05an03","null","","","","","","","","learning/Slide150.JPG","null","","","","",""
"","html-keyboard-response","456","563058","0.0-8.0-1.69","FL","5baebfz1ea","1536","864","en","Ya05an03","null","","","","learningBlock2","","","","That was a wug.","null","","","","",""
"","html-keyboard-response","457","564058","0.0-8.0-2.69","FL","5baebfz1ea","1536","864","en","Ya05an03","null","","","","learningBlock2","","","","<div style=""font-size:60px;""> </div>","null","FL","learning/Slide150.JPG","That was a wug.","",""
"","image-keyboard-response","458","564245","0.0-8.0-0.70","FL","5baebfz1ea","1536","864","en","Ya05an03","null","","","","","","","","learning/Slide151.JPG","null","","","","",""
"","html-keyboard-response","459","565406","0.0-8.0-1.70","FL","5baebfz1ea","1536","864","en","Ya05an03","null","","","","learningBlock2","","","","That was a dep.","null","","","","",""
"","html-keyboard-response","460","566413","0.0-8.0-2.70","FL","5baebfz1ea","1536","864","en","Ya05an03","null","","","","learningBlock2","","","","<div style=""font-size:60px;""> </div>","null","FL","learning/Slide151.JPG","That was a dep.","",""
"","image-keyboard-response","461","566600","0.0-8.0-0.71","FL","5baebfz1ea","1536","864","en","Ya05an03","null","","","","","","","","learning/Slide152.JPG","null","","","","",""
"","html-keyboard-response","462","567766","0.0-8.0-1.71","FL","5baebfz1ea","1536","864","en","Ya05an03","null","","","","learningBlock2","","","","That was a wug.","null","","","","",""
"","html-keyboard-response","463","568774","0.0-8.0-2.71","FL","5baebfz1ea","1536","864","en","Ya05an03","null","","","","learningBlock2","","","","<div style=""font-size:60px;""> </div>","null","FL","learning/Slide152.JPG","That was a wug.","",""
"","image-keyboard-response","464","568964","0.0-8.0-0.72","FL","5baebfz1ea","1536","864","en","Ya05an03","null","","","","","","","","learning/Slide153.JPG","null","","","","",""
"","html-keyboard-response","465","570125","0.0-8.0-1.72","FL","5baebfz1ea","1536","864","en","Ya05an03","null","","","","learningBlock2","","","","That was a bim.","null","","","","",""
"","html-keyboard-response","466","571141","0.0-8.0-2.72","FL","5baebfz1ea","1536","864","en","Ya05an03","null","","","","learningBlock2","","","","<div style=""font-size:60px;""> </div>","null","FL","learning/Slide153.JPG","That was a bim.","",""
"","image-keyboard-response","467","571329","0.0-8.0-0.73","FL","5baebfz1ea","1536","864","en","Ya05an03","null","","","","","","","","learning/Slide154.JPG","null","","","","",""
"","html-keyboard-response","468","572490","0.0-8.0-1.73","FL","5baebfz1ea","1536","864","en","Ya05an03","null","","","","learningBlock2","","","","That was a tob.","null","","","","",""
"","html-keyboard-response","469","573492","0.0-8.0-2.73","FL","5baebfz1ea","1536","864","en","Ya05an03","null","","","","learningBlock2","","","","<div style=""font-size:60px;""> </div>","null","FL","learning/Slide154.JPG","That was a tob.","",""
"","image-keyboard-response","470","573680","0.0-8.0-0.74","FL","5baebfz1ea","1536","864","en","Ya05an03","null","","","","","","","","learning/Slide155.JPG","null","","","","",""
"","html-keyboard-response","471","574839","0.0-8.0-1.74","FL","5baebfz1ea","1536","864","en","Ya05an03","null","","","","learningBlock2","","","","That was a dep.","null","","","","",""
"","html-keyboard-response","472","575844","0.0-8.0-2.74","FL","5baebfz1ea","1536","864","en","Ya05an03","null","","","","learningBlock2","","","","<div style=""font-size:60px;""> </div>","null","FL","learning/Slide155.JPG","That was a dep.","",""
"","image-keyboard-response","473","576029","0.0-8.0-0.75","FL","5baebfz1ea","1536","864","en","Ya05an03","null","","","","","","","","learning/Slide156.JPG","null","","","","",""
"","html-keyboard-response","474","577188","0.0-8.0-1.75","FL","5baebfz1ea","1536","864","en","Ya05an03","null","","","","learningBlock2","","","","That was a bim.","null","","","","",""
"","html-keyboard-response","475","578193","0.0-8.0-2.75","FL","5baebfz1ea","1536","864","en","Ya05an03","null","","","","learningBlock2","","","","<div style=""font-size:60px;""> </div>","null","FL","learning/Slide156.JPG","That was a bim.","",""
"","image-keyboard-response","476","578381","0.0-8.0-0.76","FL","5baebfz1ea","1536","864","en","Ya05an03","null","","","","","","","","learning/Slide157.JPG","null","","","","",""
"","html-keyboard-response","477","579542","0.0-8.0-1.76","FL","5baebfz1ea","1536","864","en","Ya05an03","null","","","","learningBlock2","","","","That was a dep.","null","","","","",""
"","html-keyboard-response","478","580558","0.0-8.0-2.76","FL","5baebfz1ea","1536","864","en","Ya05an03","null","","","","learningBlock2","","","","<div style=""font-size:60px;""> </div>","null","FL","learning/Slide157.JPG","That was a dep.","",""
"","image-keyboard-response","479","580745","0.0-8.0-0.77","FL","5baebfz1ea","1536","864","en","Ya05an03","null","","","","","","","","learning/Slide158.JPG","null","","","","",""
"","html-keyboard-response","480","581906","0.0-8.0-1.77","FL","5baebfz1ea","1536","864","en","Ya05an03","null","","","","learningBlock2","","","","That was a tob.","null","","","","",""
"","html-keyboard-response","481","582909","0.0-8.0-2.77","FL","5baebfz1ea","1536","864","en","Ya05an03","null","","","","learningBlock2","","","","<div style=""font-size:60px;""> </div>","null","FL","learning/Slide158.JPG","That was a tob.","",""
"","image-keyboard-response","482","583096","0.0-8.0-0.78","FL","5baebfz1ea","1536","864","en","Ya05an03","null","","","","","","","","learning/Slide159.JPG","null","","","","",""
"","html-keyboard-response","483","584261","0.0-8.0-1.78","FL","5baebfz1ea","1536","864","en","Ya05an03","null","","","","learningBlock2","","","","That was a dep.","null","","","","",""
"","html-keyboard-response","484","585276","0.0-8.0-2.78","FL","5baebfz1ea","1536","864","en","Ya05an03","null","","","","learningBlock2","","","","<div style=""font-size:60px;""> </div>","null","FL","learning/Slide159.JPG","That was a dep.","",""
"","image-keyboard-response","485","585462","0.0-8.0-0.79","FL","5baebfz1ea","1536","864","en","Ya05an03","null","","","","","","","","learning/Slide160.JPG","null","","","","",""
"","html-keyboard-response","486","586622","0.0-8.0-1.79","FL","5baebfz1ea","1536","864","en","Ya05an03","null","","","","learningBlock2","","","","That was a wug.","null","","","","",""
"","html-keyboard-response","487","587636","0.0-8.0-2.79","FL","5baebfz1ea","1536","864","en","Ya05an03","null","","","","learningBlock2","","","","<div style=""font-size:60px;""> </div>","null","FL","learning/Slide160.JPG","That was a wug.","",""
"","resize2","488","590669","0.0-9.0","FL","5baebfz1ea","1536","864","en","Ya05an03","","","","","","","103","1.03","","","","","","",""
