"success","trial_type","trial_index","time_elapsed","internal_node_id","condition","subject","screen_width","screen_height","language","codeword","rt","responses","url","view_history","test_part","final_height_px","final_width_px","scale_factor","stimulus","key_press","learningType","presentedImage","presentedLabel","button_pressed","response"
"true","fullscreen","0","5234","0.0-0.0","LF","7acm8wjh3r","1280","720","en","na09ay17","","","","","","","","","","","","","","",""
"","survey-html-form","1","12769","0.0-1.0","LF","7acm8wjh3r","1280","720","en","na09ay17","7529.360000044107","{""language"":""en""}","","","","","","","","","","","","",""
"","external-html","2","120437","0.0-3.0-0.0","LF","7acm8wjh3r","1280","720","en","na09ay17","107608.66000002716","","text/information_english.html","","","","","","","","","","","",""
"","external-html","3","165474","0.0-3.0-1.0","LF","7acm8wjh3r","1280","720","en","na09ay17","44977.55499999039","","text/consent_english.html","","","","","","","","","","","",""
"","survey-html-form","4","350214","0.0-3.0-2.0","LF","7acm8wjh3r","1280","720","en","na09ay17","184729.49499997776","{""codeword_enter"":""na09ay17""}","","","","","","","","","","","","",""
"","instructions","5","377691","0.0-4.0","LF","7acm8wjh3r","1280","720","en","na09ay17","NA","","","[{""page_index"":0,""viewing_time"":6843.20999996271},{""page_index"":1,""viewing_time"":19128.670000005513}]","instructions","","","","","","","","","",""
"","resize","6","462387","0.0-5.0","LF","7acm8wjh3r","1280","720","en","na09ay17","","","","","","","361","2.292063492063492","","","","","","",""
"","html-keyboard-response","7","463392","0.0-6.0-0.0","LF","7acm8wjh3r","1280","720","en","na09ay17","null","","","","learningBlock1","","","","This is a tob:","null","","","","",""
"","image-keyboard-response","8","463722","0.0-6.0-1.0","LF","7acm8wjh3r","1280","720","en","na09ay17","null","","","","","","","","learning/Slide1.JPG","null","","","","",""
"","html-keyboard-response","9","464724","0.0-6.0-2.0","LF","7acm8wjh3r","1280","720","en","na09ay17","null","","","","learningBlock1","","","","<div style=""font-size:60px;""> </div>","null","LF","learning/Slide1.JPG","This is a tob:","",""
"","html-keyboard-response","10","465728","0.0-6.0-0.1","LF","7acm8wjh3r","1280","720","en","na09ay17","null","","","","learningBlock1","","","","This is a wug:","null","","","","",""
"","image-keyboard-response","11","466056","0.0-6.0-1.1","LF","7acm8wjh3r","1280","720","en","na09ay17","null","","","","","","","","learning/Slide2.JPG","null","","","","",""
"","html-keyboard-response","12","467060","0.0-6.0-2.1","LF","7acm8wjh3r","1280","720","en","na09ay17","null","","","","learningBlock1","","","","<div style=""font-size:60px;""> </div>","null","LF","learning/Slide2.JPG","This is a wug:","",""
"","html-keyboard-response","13","468063","0.0-6.0-0.2","LF","7acm8wjh3r","1280","720","en","na09ay17","null","","","","learningBlock1","","","","This is a bim:","null","","","","",""
"","image-keyboard-response","14","468391","0.0-6.0-1.2","LF","7acm8wjh3r","1280","720","en","na09ay17","null","","","","","","","","learning/Slide3.JPG","null","","","","",""
"","html-keyboard-response","15","469394","0.0-6.0-2.2","LF","7acm8wjh3r","1280","720","en","na09ay17","null","","","","learningBlock1","","","","<div style=""font-size:60px;""> </div>","null","LF","learning/Slide3.JPG","This is a bim:","",""
"","html-keyboard-response","16","470398","0.0-6.0-0.3","LF","7acm8wjh3r","1280","720","en","na09ay17","null","","","","learningBlock1","","","","This is a dep:","null","","","","",""
"","image-keyboard-response","17","470725","0.0-6.0-1.3","LF","7acm8wjh3r","1280","720","en","na09ay17","null","","","","","","","","learning/Slide4.JPG","null","","","","",""
"","html-keyboard-response","18","471727","0.0-6.0-2.3","LF","7acm8wjh3r","1280","720","en","na09ay17","null","","","","learningBlock1","","","","<div style=""font-size:60px;""> </div>","null","LF","learning/Slide4.JPG","This is a dep:","",""
"","html-keyboard-response","19","472730","0.0-6.0-0.4","LF","7acm8wjh3r","1280","720","en","na09ay17","null","","","","learningBlock1","","","","This is a wug:","null","","","","",""
"","image-keyboard-response","20","473058","0.0-6.0-1.4","LF","7acm8wjh3r","1280","720","en","na09ay17","null","","","","","","","","learning/Slide5.JPG","null","","","","",""
"","html-keyboard-response","21","474060","0.0-6.0-2.4","LF","7acm8wjh3r","1280","720","en","na09ay17","null","","","","learningBlock1","","","","<div style=""font-size:60px;""> </div>","null","LF","learning/Slide5.JPG","This is a wug:","",""
"","html-keyboard-response","22","475065","0.0-6.0-0.5","LF","7acm8wjh3r","1280","720","en","na09ay17","null","","","","learningBlock1","","","","This is a dep:","null","","","","",""
"","image-keyboard-response","23","475394","0.0-6.0-1.5","LF","7acm8wjh3r","1280","720","en","na09ay17","null","","","","","","","","learning/Slide6.JPG","null","","","","",""
"","html-keyboard-response","24","476397","0.0-6.0-2.5","LF","7acm8wjh3r","1280","720","en","na09ay17","null","","","","learningBlock1","","","","<div style=""font-size:60px;""> </div>","null","LF","learning/Slide6.JPG","This is a dep:","",""
"","html-keyboard-response","25","477399","0.0-6.0-0.6","LF","7acm8wjh3r","1280","720","en","na09ay17","null","","","","learningBlock1","","","","This is a wug:","null","","","","",""
"","image-keyboard-response","26","477726","0.0-6.0-1.6","LF","7acm8wjh3r","1280","720","en","na09ay17","null","","","","","","","","learning/Slide7.JPG","null","","","","",""
"","html-keyboard-response","27","478729","0.0-6.0-2.6","LF","7acm8wjh3r","1280","720","en","na09ay17","null","","","","learningBlock1","","","","<div style=""font-size:60px;""> </div>","null","LF","learning/Slide7.JPG","This is a wug:","",""
"","html-keyboard-response","28","479732","0.0-6.0-0.7","LF","7acm8wjh3r","1280","720","en","na09ay17","null","","","","learningBlock1","","","","This is a bim:","null","","","","",""
"","image-keyboard-response","29","480059","0.0-6.0-1.7","LF","7acm8wjh3r","1280","720","en","na09ay17","null","","","","","","","","learning/Slide8.JPG","null","","","","",""
"","html-keyboard-response","30","481062","0.0-6.0-2.7","LF","7acm8wjh3r","1280","720","en","na09ay17","null","","","","learningBlock1","","","","<div style=""font-size:60px;""> </div>","null","LF","learning/Slide8.JPG","This is a bim:","",""
"","html-keyboard-response","31","482065","0.0-6.0-0.8","LF","7acm8wjh3r","1280","720","en","na09ay17","null","","","","learningBlock1","","","","This is a wug:","null","","","","",""
"","image-keyboard-response","32","482394","0.0-6.0-1.8","LF","7acm8wjh3r","1280","720","en","na09ay17","null","","","","","","","","learning/Slide9.JPG","null","","","","",""
"","html-keyboard-response","33","483396","0.0-6.0-2.8","LF","7acm8wjh3r","1280","720","en","na09ay17","null","","","","learningBlock1","","","","<div style=""font-size:60px;""> </div>","null","LF","learning/Slide9.JPG","This is a wug:","",""
"","html-keyboard-response","34","484400","0.0-6.0-0.9","LF","7acm8wjh3r","1280","720","en","na09ay17","null","","","","learningBlock1","","","","This is a dep:","null","","","","",""
"","image-keyboard-response","35","484728","0.0-6.0-1.9","LF","7acm8wjh3r","1280","720","en","na09ay17","null","","","","","","","","learning/Slide10.JPG","null","","","","",""
"","html-keyboard-response","36","485730","0.0-6.0-2.9","LF","7acm8wjh3r","1280","720","en","na09ay17","null","","","","learningBlock1","","","","<div style=""font-size:60px;""> </div>","null","LF","learning/Slide10.JPG","This is a dep:","",""
"","html-keyboard-response","37","486734","0.0-6.0-0.10","LF","7acm8wjh3r","1280","720","en","na09ay17","null","","","","learningBlock1","","","","This is a tob:","null","","","","",""
"","image-keyboard-response","38","487070","0.0-6.0-1.10","LF","7acm8wjh3r","1280","720","en","na09ay17","null","","","","","","","","learning/Slide11.JPG","null","","","","",""
"","html-keyboard-response","39","488072","0.0-6.0-2.10","LF","7acm8wjh3r","1280","720","en","na09ay17","null","","","","learningBlock1","","","","<div style=""font-size:60px;""> </div>","null","LF","learning/Slide11.JPG","This is a tob:","",""
"","html-keyboard-response","40","489077","0.0-6.0-0.11","LF","7acm8wjh3r","1280","720","en","na09ay17","null","","","","learningBlock1","","","","This is a dep:","null","","","","",""
"","image-keyboard-response","41","489405","0.0-6.0-1.11","LF","7acm8wjh3r","1280","720","en","na09ay17","null","","","","","","","","learning/Slide12.JPG","null","","","","",""
"","html-keyboard-response","42","490407","0.0-6.0-2.11","LF","7acm8wjh3r","1280","720","en","na09ay17","null","","","","learningBlock1","","","","<div style=""font-size:60px;""> </div>","null","LF","learning/Slide12.JPG","This is a dep:","",""
"","html-keyboard-response","43","491409","0.0-6.0-0.12","LF","7acm8wjh3r","1280","720","en","na09ay17","null","","","","learningBlock1","","","","This is a bim:","null","","","","",""
"","image-keyboard-response","44","491737","0.0-6.0-1.12","LF","7acm8wjh3r","1280","720","en","na09ay17","null","","","","","","","","learning/Slide13.JPG","null","","","","",""
"","html-keyboard-response","45","492739","0.0-6.0-2.12","LF","7acm8wjh3r","1280","720","en","na09ay17","null","","","","learningBlock1","","","","<div style=""font-size:60px;""> </div>","null","LF","learning/Slide13.JPG","This is a bim:","",""
"","html-keyboard-response","46","493743","0.0-6.0-0.13","LF","7acm8wjh3r","1280","720","en","na09ay17","null","","","","learningBlock1","","","","This is a wug:","null","","","","",""
"","image-keyboard-response","47","494072","0.0-6.0-1.13","LF","7acm8wjh3r","1280","720","en","na09ay17","null","","","","","","","","learning/Slide14.JPG","null","","","","",""
"","html-keyboard-response","48","495074","0.0-6.0-2.13","LF","7acm8wjh3r","1280","720","en","na09ay17","null","","","","learningBlock1","","","","<div style=""font-size:60px;""> </div>","null","LF","learning/Slide14.JPG","This is a wug:","",""
"","html-keyboard-response","49","496076","0.0-6.0-0.14","LF","7acm8wjh3r","1280","720","en","na09ay17","null","","","","learningBlock1","","","","This is a tob:","null","","","","",""
"","image-keyboard-response","50","496405","0.0-6.0-1.14","LF","7acm8wjh3r","1280","720","en","na09ay17","null","","","","","","","","learning/Slide15.JPG","null","","","","",""
"","html-keyboard-response","51","497407","0.0-6.0-2.14","LF","7acm8wjh3r","1280","720","en","na09ay17","null","","","","learningBlock1","","","","<div style=""font-size:60px;""> </div>","null","LF","learning/Slide15.JPG","This is a tob:","",""
"","html-keyboard-response","52","498409","0.0-6.0-0.15","LF","7acm8wjh3r","1280","720","en","na09ay17","null","","","","learningBlock1","","","","This is a dep:","null","","","","",""
"","image-keyboard-response","53","498739","0.0-6.0-1.15","LF","7acm8wjh3r","1280","720","en","na09ay17","null","","","","","","","","learning/Slide16.JPG","null","","","","",""
"","html-keyboard-response","54","499742","0.0-6.0-2.15","LF","7acm8wjh3r","1280","720","en","na09ay17","null","","","","learningBlock1","","","","<div style=""font-size:60px;""> </div>","null","LF","learning/Slide16.JPG","This is a dep:","",""
"","html-keyboard-response","55","500745","0.0-6.0-0.16","LF","7acm8wjh3r","1280","720","en","na09ay17","null","","","","learningBlock1","","","","This is a bim:","null","","","","",""
"","image-keyboard-response","56","501075","0.0-6.0-1.16","LF","7acm8wjh3r","1280","720","en","na09ay17","null","","","","","","","","learning/Slide17.JPG","null","","","","",""
"","html-keyboard-response","57","502077","0.0-6.0-2.16","LF","7acm8wjh3r","1280","720","en","na09ay17","null","","","","learningBlock1","","","","<div style=""font-size:60px;""> </div>","null","LF","learning/Slide17.JPG","This is a bim:","",""
"","html-keyboard-response","58","503081","0.0-6.0-0.17","LF","7acm8wjh3r","1280","720","en","na09ay17","null","","","","learningBlock1","","","","This is a tob:","null","","","","",""
"","image-keyboard-response","59","503410","0.0-6.0-1.17","LF","7acm8wjh3r","1280","720","en","na09ay17","null","","","","","","","","learning/Slide18.JPG","null","","","","",""
"","html-keyboard-response","60","504412","0.0-6.0-2.17","LF","7acm8wjh3r","1280","720","en","na09ay17","null","","","","learningBlock1","","","","<div style=""font-size:60px;""> </div>","null","LF","learning/Slide18.JPG","This is a tob:","",""
"","html-keyboard-response","61","505415","0.0-6.0-0.18","LF","7acm8wjh3r","1280","720","en","na09ay17","null","","","","learningBlock1","","","","This is a wug:","null","","","","",""
"","image-keyboard-response","62","505743","0.0-6.0-1.18","LF","7acm8wjh3r","1280","720","en","na09ay17","null","","","","","","","","learning/Slide19.JPG","null","","","","",""
"","html-keyboard-response","63","506746","0.0-6.0-2.18","LF","7acm8wjh3r","1280","720","en","na09ay17","null","","","","learningBlock1","","","","<div style=""font-size:60px;""> </div>","null","LF","learning/Slide19.JPG","This is a wug:","",""
"","html-keyboard-response","64","507749","0.0-6.0-0.19","LF","7acm8wjh3r","1280","720","en","na09ay17","null","","","","learningBlock1","","","","This is a bim:","null","","","","",""
"","image-keyboard-response","65","508076","0.0-6.0-1.19","LF","7acm8wjh3r","1280","720","en","na09ay17","null","","","","","","","","learning/Slide20.JPG","null","","","","",""
"","html-keyboard-response","66","509079","0.0-6.0-2.19","LF","7acm8wjh3r","1280","720","en","na09ay17","null","","","","learningBlock1","","","","<div style=""font-size:60px;""> </div>","null","LF","learning/Slide20.JPG","This is a bim:","",""
"","html-keyboard-response","67","510081","0.0-6.0-0.20","LF","7acm8wjh3r","1280","720","en","na09ay17","null","","","","learningBlock1","","","","This is a dep:","null","","","","",""
"","image-keyboard-response","68","510408","0.0-6.0-1.20","LF","7acm8wjh3r","1280","720","en","na09ay17","null","","","","","","","","learning/Slide21.JPG","null","","","","",""
"","html-keyboard-response","69","511412","0.0-6.0-2.20","LF","7acm8wjh3r","1280","720","en","na09ay17","null","","","","learningBlock1","","","","<div style=""font-size:60px;""> </div>","null","LF","learning/Slide21.JPG","This is a dep:","",""
"","html-keyboard-response","70","512416","0.0-6.0-0.21","LF","7acm8wjh3r","1280","720","en","na09ay17","null","","","","learningBlock1","","","","This is a bim:","null","","","","",""
"","image-keyboard-response","71","512744","0.0-6.0-1.21","LF","7acm8wjh3r","1280","720","en","na09ay17","null","","","","","","","","learning/Slide22.JPG","null","","","","",""
"","html-keyboard-response","72","513747","0.0-6.0-2.21","LF","7acm8wjh3r","1280","720","en","na09ay17","null","","","","learningBlock1","","","","<div style=""font-size:60px;""> </div>","null","LF","learning/Slide22.JPG","This is a bim:","",""
"","html-keyboard-response","73","514750","0.0-6.0-0.22","LF","7acm8wjh3r","1280","720","en","na09ay17","null","","","","learningBlock1","","","","This is a tob:","null","","","","",""
"","image-keyboard-response","74","515079","0.0-6.0-1.22","LF","7acm8wjh3r","1280","720","en","na09ay17","null","","","","","","","","learning/Slide23.JPG","null","","","","",""
"","html-keyboard-response","75","516082","0.0-6.0-2.22","LF","7acm8wjh3r","1280","720","en","na09ay17","null","","","","learningBlock1","","","","<div style=""font-size:60px;""> </div>","null","LF","learning/Slide23.JPG","This is a tob:","",""
"","html-keyboard-response","76","517085","0.0-6.0-0.23","LF","7acm8wjh3r","1280","720","en","na09ay17","null","","","","learningBlock1","","","","This is a wug:","null","","","","",""
"","image-keyboard-response","77","517413","0.0-6.0-1.23","LF","7acm8wjh3r","1280","720","en","na09ay17","null","","","","","","","","learning/Slide24.JPG","null","","","","",""
"","html-keyboard-response","78","518415","0.0-6.0-2.23","LF","7acm8wjh3r","1280","720","en","na09ay17","null","","","","learningBlock1","","","","<div style=""font-size:60px;""> </div>","null","LF","learning/Slide24.JPG","This is a wug:","",""
"","html-keyboard-response","79","519417","0.0-6.0-0.24","LF","7acm8wjh3r","1280","720","en","na09ay17","null","","","","learningBlock1","","","","This is a dep:","null","","","","",""
"","image-keyboard-response","80","519745","0.0-6.0-1.24","LF","7acm8wjh3r","1280","720","en","na09ay17","null","","","","","","","","learning/Slide25.JPG","null","","","","",""
"","html-keyboard-response","81","520748","0.0-6.0-2.24","LF","7acm8wjh3r","1280","720","en","na09ay17","null","","","","learningBlock1","","","","<div style=""font-size:60px;""> </div>","null","LF","learning/Slide25.JPG","This is a dep:","",""
"","html-keyboard-response","82","521750","0.0-6.0-0.25","LF","7acm8wjh3r","1280","720","en","na09ay17","null","","","","learningBlock1","","","","This is a wug:","null","","","","",""
"","image-keyboard-response","83","522078","0.0-6.0-1.25","LF","7acm8wjh3r","1280","720","en","na09ay17","null","","","","","","","","learning/Slide26.JPG","null","","","","",""
"","html-keyboard-response","84","523080","0.0-6.0-2.25","LF","7acm8wjh3r","1280","720","en","na09ay17","null","","","","learningBlock1","","","","<div style=""font-size:60px;""> </div>","null","LF","learning/Slide26.JPG","This is a wug:","",""
"","html-keyboard-response","85","524084","0.0-6.0-0.26","LF","7acm8wjh3r","1280","720","en","na09ay17","null","","","","learningBlock1","","","","This is a bim:","null","","","","",""
"","image-keyboard-response","86","524417","0.0-6.0-1.26","LF","7acm8wjh3r","1280","720","en","na09ay17","null","","","","","","","","learning/Slide27.JPG","null","","","","",""
"","html-keyboard-response","87","525422","0.0-6.0-2.26","LF","7acm8wjh3r","1280","720","en","na09ay17","null","","","","learningBlock1","","","","<div style=""font-size:60px;""> </div>","null","LF","learning/Slide27.JPG","This is a bim:","",""
"","html-keyboard-response","88","526424","0.0-6.0-0.27","LF","7acm8wjh3r","1280","720","en","na09ay17","null","","","","learningBlock1","","","","This is a dep:","null","","","","",""
"","image-keyboard-response","89","526757","0.0-6.0-1.27","LF","7acm8wjh3r","1280","720","en","na09ay17","null","","","","","","","","learning/Slide28.JPG","null","","","","",""
"","html-keyboard-response","90","527760","0.0-6.0-2.27","LF","7acm8wjh3r","1280","720","en","na09ay17","null","","","","learningBlock1","","","","<div style=""font-size:60px;""> </div>","null","LF","learning/Slide28.JPG","This is a dep:","",""
"","html-keyboard-response","91","528763","0.0-6.0-0.28","LF","7acm8wjh3r","1280","720","en","na09ay17","null","","","","learningBlock1","","","","This is a tob:","null","","","","",""
"","image-keyboard-response","92","529092","0.0-6.0-1.28","LF","7acm8wjh3r","1280","720","en","na09ay17","null","","","","","","","","learning/Slide29.JPG","null","","","","",""
"","html-keyboard-response","93","530094","0.0-6.0-2.28","LF","7acm8wjh3r","1280","720","en","na09ay17","null","","","","learningBlock1","","","","<div style=""font-size:60px;""> </div>","null","LF","learning/Slide29.JPG","This is a tob:","",""
"","html-keyboard-response","94","531098","0.0-6.0-0.29","LF","7acm8wjh3r","1280","720","en","na09ay17","null","","","","learningBlock1","","","","This is a dep:","null","","","","",""
"","image-keyboard-response","95","531427","0.0-6.0-1.29","LF","7acm8wjh3r","1280","720","en","na09ay17","null","","","","","","","","learning/Slide30.JPG","null","","","","",""
"","html-keyboard-response","96","532430","0.0-6.0-2.29","LF","7acm8wjh3r","1280","720","en","na09ay17","null","","","","learningBlock1","","","","<div style=""font-size:60px;""> </div>","null","LF","learning/Slide30.JPG","This is a dep:","",""
"","html-keyboard-response","97","533434","0.0-6.0-0.30","LF","7acm8wjh3r","1280","720","en","na09ay17","null","","","","learningBlock1","","","","This is a wug:","null","","","","",""
"","image-keyboard-response","98","533762","0.0-6.0-1.30","LF","7acm8wjh3r","1280","720","en","na09ay17","null","","","","","","","","learning/Slide31.JPG","null","","","","",""
"","html-keyboard-response","99","534764","0.0-6.0-2.30","LF","7acm8wjh3r","1280","720","en","na09ay17","null","","","","learningBlock1","","","","<div style=""font-size:60px;""> </div>","null","LF","learning/Slide31.JPG","This is a wug:","",""
"","html-keyboard-response","100","535766","0.0-6.0-0.31","LF","7acm8wjh3r","1280","720","en","na09ay17","null","","","","learningBlock1","","","","This is a tob:","null","","","","",""
"","image-keyboard-response","101","536095","0.0-6.0-1.31","LF","7acm8wjh3r","1280","720","en","na09ay17","null","","","","","","","","learning/Slide32.JPG","null","","","","",""
"","html-keyboard-response","102","537097","0.0-6.0-2.31","LF","7acm8wjh3r","1280","720","en","na09ay17","null","","","","learningBlock1","","","","<div style=""font-size:60px;""> </div>","null","LF","learning/Slide32.JPG","This is a tob:","",""
"","html-keyboard-response","103","538100","0.0-6.0-0.32","LF","7acm8wjh3r","1280","720","en","na09ay17","null","","","","learningBlock1","","","","This is a bim:","null","","","","",""
"","image-keyboard-response","104","538427","0.0-6.0-1.32","LF","7acm8wjh3r","1280","720","en","na09ay17","null","","","","","","","","learning/Slide33.JPG","null","","","","",""
"","html-keyboard-response","105","539430","0.0-6.0-2.32","LF","7acm8wjh3r","1280","720","en","na09ay17","null","","","","learningBlock1","","","","<div style=""font-size:60px;""> </div>","null","LF","learning/Slide33.JPG","This is a bim:","",""
"","html-keyboard-response","106","540431","0.0-6.0-0.33","LF","7acm8wjh3r","1280","720","en","na09ay17","null","","","","learningBlock1","","","","This is a tob:","null","","","","",""
"","image-keyboard-response","107","540759","0.0-6.0-1.33","LF","7acm8wjh3r","1280","720","en","na09ay17","null","","","","","","","","learning/Slide34.JPG","null","","","","",""
"","html-keyboard-response","108","541762","0.0-6.0-2.33","LF","7acm8wjh3r","1280","720","en","na09ay17","null","","","","learningBlock1","","","","<div style=""font-size:60px;""> </div>","null","LF","learning/Slide34.JPG","This is a tob:","",""
"","html-keyboard-response","109","542766","0.0-6.0-0.34","LF","7acm8wjh3r","1280","720","en","na09ay17","null","","","","learningBlock1","","","","This is a bim:","null","","","","",""
"","image-keyboard-response","110","543094","0.0-6.0-1.34","LF","7acm8wjh3r","1280","720","en","na09ay17","null","","","","","","","","learning/Slide35.JPG","null","","","","",""
"","html-keyboard-response","111","544097","0.0-6.0-2.34","LF","7acm8wjh3r","1280","720","en","na09ay17","null","","","","learningBlock1","","","","<div style=""font-size:60px;""> </div>","null","LF","learning/Slide35.JPG","This is a bim:","",""
"","html-keyboard-response","112","545101","0.0-6.0-0.35","LF","7acm8wjh3r","1280","720","en","na09ay17","null","","","","learningBlock1","","","","This is a dep:","null","","","","",""
"","image-keyboard-response","113","545430","0.0-6.0-1.35","LF","7acm8wjh3r","1280","720","en","na09ay17","null","","","","","","","","learning/Slide36.JPG","null","","","","",""
"","html-keyboard-response","114","546436","0.0-6.0-2.35","LF","7acm8wjh3r","1280","720","en","na09ay17","null","","","","learningBlock1","","","","<div style=""font-size:60px;""> </div>","null","LF","learning/Slide36.JPG","This is a dep:","",""
"","html-keyboard-response","115","547438","0.0-6.0-0.36","LF","7acm8wjh3r","1280","720","en","na09ay17","null","","","","learningBlock1","","","","This is a tob:","null","","","","",""
"","image-keyboard-response","116","547767","0.0-6.0-1.36","LF","7acm8wjh3r","1280","720","en","na09ay17","null","","","","","","","","learning/Slide37.JPG","null","","","","",""
"","html-keyboard-response","117","548769","0.0-6.0-2.36","LF","7acm8wjh3r","1280","720","en","na09ay17","null","","","","learningBlock1","","","","<div style=""font-size:60px;""> </div>","null","LF","learning/Slide37.JPG","This is a tob:","",""
"","html-keyboard-response","118","549772","0.0-6.0-0.37","LF","7acm8wjh3r","1280","720","en","na09ay17","null","","","","learningBlock1","","","","This is a wug:","null","","","","",""
"","image-keyboard-response","119","550101","0.0-6.0-1.37","LF","7acm8wjh3r","1280","720","en","na09ay17","null","","","","","","","","learning/Slide38.JPG","null","","","","",""
"","html-keyboard-response","120","551103","0.0-6.0-2.37","LF","7acm8wjh3r","1280","720","en","na09ay17","null","","","","learningBlock1","","","","<div style=""font-size:60px;""> </div>","null","LF","learning/Slide38.JPG","This is a wug:","",""
"","html-keyboard-response","121","552105","0.0-6.0-0.38","LF","7acm8wjh3r","1280","720","en","na09ay17","null","","","","learningBlock1","","","","This is a bim:","null","","","","",""
"","image-keyboard-response","122","552434","0.0-6.0-1.38","LF","7acm8wjh3r","1280","720","en","na09ay17","null","","","","","","","","learning/Slide39.JPG","null","","","","",""
"","html-keyboard-response","123","553437","0.0-6.0-2.38","LF","7acm8wjh3r","1280","720","en","na09ay17","null","","","","learningBlock1","","","","<div style=""font-size:60px;""> </div>","null","LF","learning/Slide39.JPG","This is a bim:","",""
"","html-keyboard-response","124","554440","0.0-6.0-0.39","LF","7acm8wjh3r","1280","720","en","na09ay17","null","","","","learningBlock1","","","","This is a tob:","null","","","","",""
"","image-keyboard-response","125","554769","0.0-6.0-1.39","LF","7acm8wjh3r","1280","720","en","na09ay17","null","","","","","","","","learning/Slide40.JPG","null","","","","",""
"","html-keyboard-response","126","555771","0.0-6.0-2.39","LF","7acm8wjh3r","1280","720","en","na09ay17","null","","","","learningBlock1","","","","<div style=""font-size:60px;""> </div>","null","LF","learning/Slide40.JPG","This is a tob:","",""
"","html-keyboard-response","127","556774","0.0-6.0-0.40","LF","7acm8wjh3r","1280","720","en","na09ay17","null","","","","learningBlock1","","","","This is a bim:","null","","","","",""
"","image-keyboard-response","128","557108","0.0-6.0-1.40","LF","7acm8wjh3r","1280","720","en","na09ay17","null","","","","","","","","learning/Slide41.JPG","null","","","","",""
"","html-keyboard-response","129","558110","0.0-6.0-2.40","LF","7acm8wjh3r","1280","720","en","na09ay17","null","","","","learningBlock1","","","","<div style=""font-size:60px;""> </div>","null","LF","learning/Slide41.JPG","This is a bim:","",""
"","html-keyboard-response","130","559113","0.0-6.0-0.41","LF","7acm8wjh3r","1280","720","en","na09ay17","null","","","","learningBlock1","","","","This is a dep:","null","","","","",""
"","image-keyboard-response","131","559441","0.0-6.0-1.41","LF","7acm8wjh3r","1280","720","en","na09ay17","null","","","","","","","","learning/Slide42.JPG","null","","","","",""
"","html-keyboard-response","132","560443","0.0-6.0-2.41","LF","7acm8wjh3r","1280","720","en","na09ay17","null","","","","learningBlock1","","","","<div style=""font-size:60px;""> </div>","null","LF","learning/Slide42.JPG","This is a dep:","",""
"","html-keyboard-response","133","561447","0.0-6.0-0.42","LF","7acm8wjh3r","1280","720","en","na09ay17","null","","","","learningBlock1","","","","This is a wug:","null","","","","",""
"","image-keyboard-response","134","561776","0.0-6.0-1.42","LF","7acm8wjh3r","1280","720","en","na09ay17","null","","","","","","","","learning/Slide43.JPG","null","","","","",""
"","html-keyboard-response","135","562778","0.0-6.0-2.42","LF","7acm8wjh3r","1280","720","en","na09ay17","null","","","","learningBlock1","","","","<div style=""font-size:60px;""> </div>","null","LF","learning/Slide43.JPG","This is a wug:","",""
"","html-keyboard-response","136","563781","0.0-6.0-0.43","LF","7acm8wjh3r","1280","720","en","na09ay17","null","","","","learningBlock1","","","","This is a bim:","null","","","","",""
"","image-keyboard-response","137","564109","0.0-6.0-1.43","LF","7acm8wjh3r","1280","720","en","na09ay17","null","","","","","","","","learning/Slide44.JPG","null","","","","",""
"","html-keyboard-response","138","565112","0.0-6.0-2.43","LF","7acm8wjh3r","1280","720","en","na09ay17","null","","","","learningBlock1","","","","<div style=""font-size:60px;""> </div>","null","LF","learning/Slide44.JPG","This is a bim:","",""
"","html-keyboard-response","139","566114","0.0-6.0-0.44","LF","7acm8wjh3r","1280","720","en","na09ay17","null","","","","learningBlock1","","","","This is a wug:","null","","","","",""
"","image-keyboard-response","140","566442","0.0-6.0-1.44","LF","7acm8wjh3r","1280","720","en","na09ay17","null","","","","","","","","learning/Slide45.JPG","null","","","","",""
"","html-keyboard-response","141","567444","0.0-6.0-2.44","LF","7acm8wjh3r","1280","720","en","na09ay17","null","","","","learningBlock1","","","","<div style=""font-size:60px;""> </div>","null","LF","learning/Slide45.JPG","This is a wug:","",""
"","html-keyboard-response","142","568445","0.0-6.0-0.45","LF","7acm8wjh3r","1280","720","en","na09ay17","null","","","","learningBlock1","","","","This is a dep:","null","","","","",""
"","image-keyboard-response","143","568772","0.0-6.0-1.45","LF","7acm8wjh3r","1280","720","en","na09ay17","null","","","","","","","","learning/Slide46.JPG","null","","","","",""
"","html-keyboard-response","144","569774","0.0-6.0-2.45","LF","7acm8wjh3r","1280","720","en","na09ay17","null","","","","learningBlock1","","","","<div style=""font-size:60px;""> </div>","null","LF","learning/Slide46.JPG","This is a dep:","",""
"","html-keyboard-response","145","570777","0.0-6.0-0.46","LF","7acm8wjh3r","1280","720","en","na09ay17","null","","","","learningBlock1","","","","This is a tob:","null","","","","",""
"","image-keyboard-response","146","571106","0.0-6.0-1.46","LF","7acm8wjh3r","1280","720","en","na09ay17","null","","","","","","","","learning/Slide47.JPG","null","","","","",""
"","html-keyboard-response","147","572122","0.0-6.0-2.46","LF","7acm8wjh3r","1280","720","en","na09ay17","null","","","","learningBlock1","","","","<div style=""font-size:60px;""> </div>","null","LF","learning/Slide47.JPG","This is a tob:","",""
"","html-keyboard-response","148","573129","0.0-6.0-0.47","LF","7acm8wjh3r","1280","720","en","na09ay17","null","","","","learningBlock1","","","","This is a bim:","null","","","","",""
"","image-keyboard-response","149","573457","0.0-6.0-1.47","LF","7acm8wjh3r","1280","720","en","na09ay17","null","","","","","","","","learning/Slide48.JPG","null","","","","",""
"","html-keyboard-response","150","574459","0.0-6.0-2.47","LF","7acm8wjh3r","1280","720","en","na09ay17","null","","","","learningBlock1","","","","<div style=""font-size:60px;""> </div>","null","LF","learning/Slide48.JPG","This is a bim:","",""
"","html-keyboard-response","151","575461","0.0-6.0-0.48","LF","7acm8wjh3r","1280","720","en","na09ay17","null","","","","learningBlock1","","","","This is a dep:","null","","","","",""
"","image-keyboard-response","152","575790","0.0-6.0-1.48","LF","7acm8wjh3r","1280","720","en","na09ay17","null","","","","","","","","learning/Slide49.JPG","null","","","","",""
"","html-keyboard-response","153","576792","0.0-6.0-2.48","LF","7acm8wjh3r","1280","720","en","na09ay17","null","","","","learningBlock1","","","","<div style=""font-size:60px;""> </div>","null","LF","learning/Slide49.JPG","This is a dep:","",""
"","html-keyboard-response","154","577794","0.0-6.0-0.49","LF","7acm8wjh3r","1280","720","en","na09ay17","null","","","","learningBlock1","","","","This is a tob:","null","","","","",""
"","image-keyboard-response","155","578122","0.0-6.0-1.49","LF","7acm8wjh3r","1280","720","en","na09ay17","null","","","","","","","","learning/Slide50.JPG","null","","","","",""
"","html-keyboard-response","156","579125","0.0-6.0-2.49","LF","7acm8wjh3r","1280","720","en","na09ay17","null","","","","learningBlock1","","","","<div style=""font-size:60px;""> </div>","null","LF","learning/Slide50.JPG","This is a tob:","",""
"","html-keyboard-response","157","580127","0.0-6.0-0.50","LF","7acm8wjh3r","1280","720","en","na09ay17","null","","","","learningBlock1","","","","This is a bim:","null","","","","",""
"","image-keyboard-response","158","580456","0.0-6.0-1.50","LF","7acm8wjh3r","1280","720","en","na09ay17","null","","","","","","","","learning/Slide51.JPG","null","","","","",""
"","html-keyboard-response","159","581458","0.0-6.0-2.50","LF","7acm8wjh3r","1280","720","en","na09ay17","null","","","","learningBlock1","","","","<div style=""font-size:60px;""> </div>","null","LF","learning/Slide51.JPG","This is a bim:","",""
"","html-keyboard-response","160","582460","0.0-6.0-0.51","LF","7acm8wjh3r","1280","720","en","na09ay17","null","","","","learningBlock1","","","","This is a wug:","null","","","","",""
"","image-keyboard-response","161","582788","0.0-6.0-1.51","LF","7acm8wjh3r","1280","720","en","na09ay17","null","","","","","","","","learning/Slide52.JPG","null","","","","",""
"","html-keyboard-response","162","583790","0.0-6.0-2.51","LF","7acm8wjh3r","1280","720","en","na09ay17","null","","","","learningBlock1","","","","<div style=""font-size:60px;""> </div>","null","LF","learning/Slide52.JPG","This is a wug:","",""
"","html-keyboard-response","163","584793","0.0-6.0-0.52","LF","7acm8wjh3r","1280","720","en","na09ay17","null","","","","learningBlock1","","","","This is a tob:","null","","","","",""
"","image-keyboard-response","164","585121","0.0-6.0-1.52","LF","7acm8wjh3r","1280","720","en","na09ay17","null","","","","","","","","learning/Slide53.JPG","null","","","","",""
"","html-keyboard-response","165","586124","0.0-6.0-2.52","LF","7acm8wjh3r","1280","720","en","na09ay17","null","","","","learningBlock1","","","","<div style=""font-size:60px;""> </div>","null","LF","learning/Slide53.JPG","This is a tob:","",""
"","html-keyboard-response","166","587127","0.0-6.0-0.53","LF","7acm8wjh3r","1280","720","en","na09ay17","null","","","","learningBlock1","","","","This is a dep:","null","","","","",""
"","image-keyboard-response","167","587456","0.0-6.0-1.53","LF","7acm8wjh3r","1280","720","en","na09ay17","null","","","","","","","","learning/Slide54.JPG","null","","","","",""
"","html-keyboard-response","168","588458","0.0-6.0-2.53","LF","7acm8wjh3r","1280","720","en","na09ay17","null","","","","learningBlock1","","","","<div style=""font-size:60px;""> </div>","null","LF","learning/Slide54.JPG","This is a dep:","",""
"","html-keyboard-response","169","589461","0.0-6.0-0.54","LF","7acm8wjh3r","1280","720","en","na09ay17","null","","","","learningBlock1","","","","This is a bim:","null","","","","",""
"","image-keyboard-response","170","589789","0.0-6.0-1.54","LF","7acm8wjh3r","1280","720","en","na09ay17","null","","","","","","","","learning/Slide55.JPG","null","","","","",""
"","html-keyboard-response","171","590792","0.0-6.0-2.54","LF","7acm8wjh3r","1280","720","en","na09ay17","null","","","","learningBlock1","","","","<div style=""font-size:60px;""> </div>","null","LF","learning/Slide55.JPG","This is a bim:","",""
"","html-keyboard-response","172","591795","0.0-6.0-0.55","LF","7acm8wjh3r","1280","720","en","na09ay17","null","","","","learningBlock1","","","","This is a tob:","null","","","","",""
"","image-keyboard-response","173","592125","0.0-6.0-1.55","LF","7acm8wjh3r","1280","720","en","na09ay17","null","","","","","","","","learning/Slide56.JPG","null","","","","",""
"","html-keyboard-response","174","593127","0.0-6.0-2.55","LF","7acm8wjh3r","1280","720","en","na09ay17","null","","","","learningBlock1","","","","<div style=""font-size:60px;""> </div>","null","LF","learning/Slide56.JPG","This is a tob:","",""
"","html-keyboard-response","175","594131","0.0-6.0-0.56","LF","7acm8wjh3r","1280","720","en","na09ay17","null","","","","learningBlock1","","","","This is a dep:","null","","","","",""
"","image-keyboard-response","176","594458","0.0-6.0-1.56","LF","7acm8wjh3r","1280","720","en","na09ay17","null","","","","","","","","learning/Slide57.JPG","null","","","","",""
"","html-keyboard-response","177","595461","0.0-6.0-2.56","LF","7acm8wjh3r","1280","720","en","na09ay17","null","","","","learningBlock1","","","","<div style=""font-size:60px;""> </div>","null","LF","learning/Slide57.JPG","This is a dep:","",""
"","html-keyboard-response","178","596465","0.0-6.0-0.57","LF","7acm8wjh3r","1280","720","en","na09ay17","null","","","","learningBlock1","","","","This is a wug:","null","","","","",""
"","image-keyboard-response","179","596794","0.0-6.0-1.57","LF","7acm8wjh3r","1280","720","en","na09ay17","null","","","","","","","","learning/Slide58.JPG","null","","","","",""
"","html-keyboard-response","180","597796","0.0-6.0-2.57","LF","7acm8wjh3r","1280","720","en","na09ay17","null","","","","learningBlock1","","","","<div style=""font-size:60px;""> </div>","null","LF","learning/Slide58.JPG","This is a wug:","",""
"","html-keyboard-response","181","598799","0.0-6.0-0.58","LF","7acm8wjh3r","1280","720","en","na09ay17","null","","","","learningBlock1","","","","This is a dep:","null","","","","",""
"","image-keyboard-response","182","599127","0.0-6.0-1.58","LF","7acm8wjh3r","1280","720","en","na09ay17","null","","","","","","","","learning/Slide59.JPG","null","","","","",""
"","html-keyboard-response","183","600130","0.0-6.0-2.58","LF","7acm8wjh3r","1280","720","en","na09ay17","null","","","","learningBlock1","","","","<div style=""font-size:60px;""> </div>","null","LF","learning/Slide59.JPG","This is a dep:","",""
"","html-keyboard-response","184","601134","0.0-6.0-0.59","LF","7acm8wjh3r","1280","720","en","na09ay17","null","","","","learningBlock1","","","","This is a wug:","null","","","","",""
"","image-keyboard-response","185","601462","0.0-6.0-1.59","LF","7acm8wjh3r","1280","720","en","na09ay17","null","","","","","","","","learning/Slide60.JPG","null","","","","",""
"","html-keyboard-response","186","602465","0.0-6.0-2.59","LF","7acm8wjh3r","1280","720","en","na09ay17","null","","","","learningBlock1","","","","<div style=""font-size:60px;""> </div>","null","LF","learning/Slide60.JPG","This is a wug:","",""
"","html-keyboard-response","187","603467","0.0-6.0-0.60","LF","7acm8wjh3r","1280","720","en","na09ay17","null","","","","learningBlock1","","","","This is a bim:","null","","","","",""
"","image-keyboard-response","188","603795","0.0-6.0-1.60","LF","7acm8wjh3r","1280","720","en","na09ay17","null","","","","","","","","learning/Slide61.JPG","null","","","","",""
"","html-keyboard-response","189","604798","0.0-6.0-2.60","LF","7acm8wjh3r","1280","720","en","na09ay17","null","","","","learningBlock1","","","","<div style=""font-size:60px;""> </div>","null","LF","learning/Slide61.JPG","This is a bim:","",""
"","html-keyboard-response","190","605801","0.0-6.0-0.61","LF","7acm8wjh3r","1280","720","en","na09ay17","null","","","","learningBlock1","","","","This is a dep:","null","","","","",""
"","image-keyboard-response","191","606130","0.0-6.0-1.61","LF","7acm8wjh3r","1280","720","en","na09ay17","null","","","","","","","","learning/Slide62.JPG","null","","","","",""
"","html-keyboard-response","192","607133","0.0-6.0-2.61","LF","7acm8wjh3r","1280","720","en","na09ay17","null","","","","learningBlock1","","","","<div style=""font-size:60px;""> </div>","null","LF","learning/Slide62.JPG","This is a dep:","",""
"","html-keyboard-response","193","608137","0.0-6.0-0.62","LF","7acm8wjh3r","1280","720","en","na09ay17","null","","","","learningBlock1","","","","This is a bim:","null","","","","",""
"","image-keyboard-response","194","608465","0.0-6.0-1.62","LF","7acm8wjh3r","1280","720","en","na09ay17","null","","","","","","","","learning/Slide63.JPG","null","","","","",""
"","html-keyboard-response","195","609467","0.0-6.0-2.62","LF","7acm8wjh3r","1280","720","en","na09ay17","null","","","","learningBlock1","","","","<div style=""font-size:60px;""> </div>","null","LF","learning/Slide63.JPG","This is a bim:","",""
"","html-keyboard-response","196","610471","0.0-6.0-0.63","LF","7acm8wjh3r","1280","720","en","na09ay17","null","","","","learningBlock1","","","","This is a tob:","null","","","","",""
"","image-keyboard-response","197","610799","0.0-6.0-1.63","LF","7acm8wjh3r","1280","720","en","na09ay17","null","","","","","","","","learning/Slide64.JPG","null","","","","",""
"","html-keyboard-response","198","611800","0.0-6.0-2.63","LF","7acm8wjh3r","1280","720","en","na09ay17","null","","","","learningBlock1","","","","<div style=""font-size:60px;""> </div>","null","LF","learning/Slide64.JPG","This is a tob:","",""
"","html-keyboard-response","199","612802","0.0-6.0-0.64","LF","7acm8wjh3r","1280","720","en","na09ay17","null","","","","learningBlock1","","","","This is a wug:","null","","","","",""
"","image-keyboard-response","200","613135","0.0-6.0-1.64","LF","7acm8wjh3r","1280","720","en","na09ay17","null","","","","","","","","learning/Slide65.JPG","null","","","","",""
"","html-keyboard-response","201","614139","0.0-6.0-2.64","LF","7acm8wjh3r","1280","720","en","na09ay17","null","","","","learningBlock1","","","","<div style=""font-size:60px;""> </div>","null","LF","learning/Slide65.JPG","This is a wug:","",""
"","html-keyboard-response","202","615148","0.0-6.0-0.65","LF","7acm8wjh3r","1280","720","en","na09ay17","null","","","","learningBlock1","","","","This is a dep:","null","","","","",""
"","image-keyboard-response","203","615477","0.0-6.0-1.65","LF","7acm8wjh3r","1280","720","en","na09ay17","null","","","","","","","","learning/Slide66.JPG","null","","","","",""
"","html-keyboard-response","204","616480","0.0-6.0-2.65","LF","7acm8wjh3r","1280","720","en","na09ay17","null","","","","learningBlock1","","","","<div style=""font-size:60px;""> </div>","null","LF","learning/Slide66.JPG","This is a dep:","",""
"","html-keyboard-response","205","617484","0.0-6.0-0.66","LF","7acm8wjh3r","1280","720","en","na09ay17","null","","","","learningBlock1","","","","This is a tob:","null","","","","",""
"","image-keyboard-response","206","617813","0.0-6.0-1.66","LF","7acm8wjh3r","1280","720","en","na09ay17","null","","","","","","","","learning/Slide67.JPG","null","","","","",""
"","html-keyboard-response","207","618815","0.0-6.0-2.66","LF","7acm8wjh3r","1280","720","en","na09ay17","null","","","","learningBlock1","","","","<div style=""font-size:60px;""> </div>","null","LF","learning/Slide67.JPG","This is a tob:","",""
"","html-keyboard-response","208","619817","0.0-6.0-0.67","LF","7acm8wjh3r","1280","720","en","na09ay17","null","","","","learningBlock1","","","","This is a wug:","null","","","","",""
"","image-keyboard-response","209","620146","0.0-6.0-1.67","LF","7acm8wjh3r","1280","720","en","na09ay17","null","","","","","","","","learning/Slide68.JPG","null","","","","",""
"","html-keyboard-response","210","621149","0.0-6.0-2.67","LF","7acm8wjh3r","1280","720","en","na09ay17","null","","","","learningBlock1","","","","<div style=""font-size:60px;""> </div>","null","LF","learning/Slide68.JPG","This is a wug:","",""
"","html-keyboard-response","211","622150","0.0-6.0-0.68","LF","7acm8wjh3r","1280","720","en","na09ay17","null","","","","learningBlock1","","","","This is a tob:","null","","","","",""
"","image-keyboard-response","212","622478","0.0-6.0-1.68","LF","7acm8wjh3r","1280","720","en","na09ay17","null","","","","","","","","learning/Slide69.JPG","null","","","","",""
"","html-keyboard-response","213","623481","0.0-6.0-2.68","LF","7acm8wjh3r","1280","720","en","na09ay17","null","","","","learningBlock1","","","","<div style=""font-size:60px;""> </div>","null","LF","learning/Slide69.JPG","This is a tob:","",""
"","html-keyboard-response","214","624483","0.0-6.0-0.69","LF","7acm8wjh3r","1280","720","en","na09ay17","null","","","","learningBlock1","","","","This is a dep:","null","","","","",""
"","image-keyboard-response","215","624810","0.0-6.0-1.69","LF","7acm8wjh3r","1280","720","en","na09ay17","null","","","","","","","","learning/Slide70.JPG","null","","","","",""
"","html-keyboard-response","216","625812","0.0-6.0-2.69","LF","7acm8wjh3r","1280","720","en","na09ay17","null","","","","learningBlock1","","","","<div style=""font-size:60px;""> </div>","null","LF","learning/Slide70.JPG","This is a dep:","",""
"","html-keyboard-response","217","626815","0.0-6.0-0.70","LF","7acm8wjh3r","1280","720","en","na09ay17","null","","","","learningBlock1","","","","This is a wug:","null","","","","",""
"","image-keyboard-response","218","627143","0.0-6.0-1.70","LF","7acm8wjh3r","1280","720","en","na09ay17","null","","","","","","","","learning/Slide71.JPG","null","","","","",""
"","html-keyboard-response","219","628145","0.0-6.0-2.70","LF","7acm8wjh3r","1280","720","en","na09ay17","null","","","","learningBlock1","","","","<div style=""font-size:60px;""> </div>","null","LF","learning/Slide71.JPG","This is a wug:","",""
"","html-keyboard-response","220","629147","0.0-6.0-0.71","LF","7acm8wjh3r","1280","720","en","na09ay17","null","","","","learningBlock1","","","","This is a bim:","null","","","","",""
"","image-keyboard-response","221","629475","0.0-6.0-1.71","LF","7acm8wjh3r","1280","720","en","na09ay17","null","","","","","","","","learning/Slide72.JPG","null","","","","",""
"","html-keyboard-response","222","630476","0.0-6.0-2.71","LF","7acm8wjh3r","1280","720","en","na09ay17","null","","","","learningBlock1","","","","<div style=""font-size:60px;""> </div>","null","LF","learning/Slide72.JPG","This is a bim:","",""
"","html-keyboard-response","223","631480","0.0-6.0-0.72","LF","7acm8wjh3r","1280","720","en","na09ay17","null","","","","learningBlock1","","","","This is a wug:","null","","","","",""
"","image-keyboard-response","224","631808","0.0-6.0-1.72","LF","7acm8wjh3r","1280","720","en","na09ay17","null","","","","","","","","learning/Slide73.JPG","null","","","","",""
"","html-keyboard-response","225","632810","0.0-6.0-2.72","LF","7acm8wjh3r","1280","720","en","na09ay17","null","","","","learningBlock1","","","","<div style=""font-size:60px;""> </div>","null","LF","learning/Slide73.JPG","This is a wug:","",""
"","html-keyboard-response","226","633815","0.0-6.0-0.73","LF","7acm8wjh3r","1280","720","en","na09ay17","null","","","","learningBlock1","","","","This is a dep:","null","","","","",""
"","image-keyboard-response","227","634143","0.0-6.0-1.73","LF","7acm8wjh3r","1280","720","en","na09ay17","null","","","","","","","","learning/Slide74.JPG","null","","","","",""
"","html-keyboard-response","228","635146","0.0-6.0-2.73","LF","7acm8wjh3r","1280","720","en","na09ay17","null","","","","learningBlock1","","","","<div style=""font-size:60px;""> </div>","null","LF","learning/Slide74.JPG","This is a dep:","",""
"","html-keyboard-response","229","636149","0.0-6.0-0.74","LF","7acm8wjh3r","1280","720","en","na09ay17","null","","","","learningBlock1","","","","This is a tob:","null","","","","",""
"","image-keyboard-response","230","636478","0.0-6.0-1.74","LF","7acm8wjh3r","1280","720","en","na09ay17","null","","","","","","","","learning/Slide75.JPG","null","","","","",""
"","html-keyboard-response","231","637480","0.0-6.0-2.74","LF","7acm8wjh3r","1280","720","en","na09ay17","null","","","","learningBlock1","","","","<div style=""font-size:60px;""> </div>","null","LF","learning/Slide75.JPG","This is a tob:","",""
"","html-keyboard-response","232","638482","0.0-6.0-0.75","LF","7acm8wjh3r","1280","720","en","na09ay17","null","","","","learningBlock1","","","","This is a bim:","null","","","","",""
"","image-keyboard-response","233","638810","0.0-6.0-1.75","LF","7acm8wjh3r","1280","720","en","na09ay17","null","","","","","","","","learning/Slide76.JPG","null","","","","",""
"","html-keyboard-response","234","639813","0.0-6.0-2.75","LF","7acm8wjh3r","1280","720","en","na09ay17","null","","","","learningBlock1","","","","<div style=""font-size:60px;""> </div>","null","LF","learning/Slide76.JPG","This is a bim:","",""
"","html-keyboard-response","235","640816","0.0-6.0-0.76","LF","7acm8wjh3r","1280","720","en","na09ay17","null","","","","learningBlock1","","","","This is a tob:","null","","","","",""
"","image-keyboard-response","236","641143","0.0-6.0-1.76","LF","7acm8wjh3r","1280","720","en","na09ay17","null","","","","","","","","learning/Slide77.JPG","null","","","","",""
"","html-keyboard-response","237","642146","0.0-6.0-2.76","LF","7acm8wjh3r","1280","720","en","na09ay17","null","","","","learningBlock1","","","","<div style=""font-size:60px;""> </div>","null","LF","learning/Slide77.JPG","This is a tob:","",""
"","html-keyboard-response","238","643151","0.0-6.0-0.77","LF","7acm8wjh3r","1280","720","en","na09ay17","null","","","","learningBlock1","","","","This is a wug:","null","","","","",""
"","image-keyboard-response","239","643479","0.0-6.0-1.77","LF","7acm8wjh3r","1280","720","en","na09ay17","null","","","","","","","","learning/Slide78.JPG","null","","","","",""
"","html-keyboard-response","240","644481","0.0-6.0-2.77","LF","7acm8wjh3r","1280","720","en","na09ay17","null","","","","learningBlock1","","","","<div style=""font-size:60px;""> </div>","null","LF","learning/Slide78.JPG","This is a wug:","",""
"","html-keyboard-response","241","645485","0.0-6.0-0.78","LF","7acm8wjh3r","1280","720","en","na09ay17","null","","","","learningBlock1","","","","This is a bim:","null","","","","",""
"","image-keyboard-response","242","645812","0.0-6.0-1.78","LF","7acm8wjh3r","1280","720","en","na09ay17","null","","","","","","","","learning/Slide79.JPG","null","","","","",""
"","html-keyboard-response","243","646815","0.0-6.0-2.78","LF","7acm8wjh3r","1280","720","en","na09ay17","null","","","","learningBlock1","","","","<div style=""font-size:60px;""> </div>","null","LF","learning/Slide79.JPG","This is a bim:","",""
"","html-keyboard-response","244","647817","0.0-6.0-0.79","LF","7acm8wjh3r","1280","720","en","na09ay17","null","","","","learningBlock1","","","","This is a tob:","null","","","","",""
"","image-keyboard-response","245","648145","0.0-6.0-1.79","LF","7acm8wjh3r","1280","720","en","na09ay17","null","","","","","","","","learning/Slide80.JPG","null","","","","",""
"","html-keyboard-response","246","649148","0.0-6.0-2.79","LF","7acm8wjh3r","1280","720","en","na09ay17","null","","","","learningBlock1","","","","<div style=""font-size:60px;""> </div>","null","LF","learning/Slide80.JPG","This is a tob:","",""
"","instructions","247","659048","0.0-7.0","LF","7acm8wjh3r","1280","720","en","na09ay17","NA","","","[{""page_index"":0,""viewing_time"":9898.500000010245}]","instructions","","","","","","","","","",""
"","html-keyboard-response","248","660052","0.0-8.0-0.0","LF","7acm8wjh3r","1280","720","en","na09ay17","null","","","","learningBlock2","","","","This is a wug:","null","","","","",""
"","image-keyboard-response","249","660379","0.0-8.0-1.0","LF","7acm8wjh3r","1280","720","en","na09ay17","null","","","","","","","","learning/Slide81.JPG","null","","","","",""
"","html-keyboard-response","250","661383","0.0-8.0-2.0","LF","7acm8wjh3r","1280","720","en","na09ay17","null","","","","learningBlock2","","","","<div style=""font-size:60px;""> </div>","null","LF","learning/Slide81.JPG","This is a wug:","",""
"","html-keyboard-response","251","662385","0.0-8.0-0.1","LF","7acm8wjh3r","1280","720","en","na09ay17","null","","","","learningBlock2","","","","This is a bim:","null","","","","",""
"","image-keyboard-response","252","662711","0.0-8.0-1.1","LF","7acm8wjh3r","1280","720","en","na09ay17","null","","","","","","","","learning/Slide82.JPG","null","","","","",""
"","html-keyboard-response","253","663714","0.0-8.0-2.1","LF","7acm8wjh3r","1280","720","en","na09ay17","null","","","","learningBlock2","","","","<div style=""font-size:60px;""> </div>","null","LF","learning/Slide82.JPG","This is a bim:","",""
"","html-keyboard-response","254","664716","0.0-8.0-0.2","LF","7acm8wjh3r","1280","720","en","na09ay17","null","","","","learningBlock2","","","","This is a wug:","null","","","","",""
"","image-keyboard-response","255","665044","0.0-8.0-1.2","LF","7acm8wjh3r","1280","720","en","na09ay17","null","","","","","","","","learning/Slide83.JPG","null","","","","",""
"","html-keyboard-response","256","666046","0.0-8.0-2.2","LF","7acm8wjh3r","1280","720","en","na09ay17","null","","","","learningBlock2","","","","<div style=""font-size:60px;""> </div>","null","LF","learning/Slide83.JPG","This is a wug:","",""
"","html-keyboard-response","257","667048","0.0-8.0-0.3","LF","7acm8wjh3r","1280","720","en","na09ay17","null","","","","learningBlock2","","","","This is a dep:","null","","","","",""
"","image-keyboard-response","258","667376","0.0-8.0-1.3","LF","7acm8wjh3r","1280","720","en","na09ay17","null","","","","","","","","learning/Slide84.JPG","null","","","","",""
"","html-keyboard-response","259","668378","0.0-8.0-2.3","LF","7acm8wjh3r","1280","720","en","na09ay17","null","","","","learningBlock2","","","","<div style=""font-size:60px;""> </div>","null","LF","learning/Slide84.JPG","This is a dep:","",""
"","html-keyboard-response","260","669381","0.0-8.0-0.4","LF","7acm8wjh3r","1280","720","en","na09ay17","null","","","","learningBlock2","","","","This is a bim:","null","","","","",""
"","image-keyboard-response","261","669708","0.0-8.0-1.4","LF","7acm8wjh3r","1280","720","en","na09ay17","null","","","","","","","","learning/Slide85.JPG","null","","","","",""
"","html-keyboard-response","262","670710","0.0-8.0-2.4","LF","7acm8wjh3r","1280","720","en","na09ay17","null","","","","learningBlock2","","","","<div style=""font-size:60px;""> </div>","null","LF","learning/Slide85.JPG","This is a bim:","",""
"","html-keyboard-response","263","671712","0.0-8.0-0.5","LF","7acm8wjh3r","1280","720","en","na09ay17","null","","","","learningBlock2","","","","This is a tob:","null","","","","",""
"","image-keyboard-response","264","672040","0.0-8.0-1.5","LF","7acm8wjh3r","1280","720","en","na09ay17","null","","","","","","","","learning/Slide86.JPG","null","","","","",""
"","html-keyboard-response","265","673043","0.0-8.0-2.5","LF","7acm8wjh3r","1280","720","en","na09ay17","null","","","","learningBlock2","","","","<div style=""font-size:60px;""> </div>","null","LF","learning/Slide86.JPG","This is a tob:","",""
"","html-keyboard-response","266","674047","0.0-8.0-0.6","LF","7acm8wjh3r","1280","720","en","na09ay17","null","","","","learningBlock2","","","","This is a wug:","null","","","","",""
"","image-keyboard-response","267","674376","0.0-8.0-1.6","LF","7acm8wjh3r","1280","720","en","na09ay17","null","","","","","","","","learning/Slide87.JPG","null","","","","",""
"","html-keyboard-response","268","675378","0.0-8.0-2.6","LF","7acm8wjh3r","1280","720","en","na09ay17","null","","","","learningBlock2","","","","<div style=""font-size:60px;""> </div>","null","LF","learning/Slide87.JPG","This is a wug:","",""
"","html-keyboard-response","269","676381","0.0-8.0-0.7","LF","7acm8wjh3r","1280","720","en","na09ay17","null","","","","learningBlock2","","","","This is a tob:","null","","","","",""
"","image-keyboard-response","270","676710","0.0-8.0-1.7","LF","7acm8wjh3r","1280","720","en","na09ay17","null","","","","","","","","learning/Slide88.JPG","null","","","","",""
"","html-keyboard-response","271","677713","0.0-8.0-2.7","LF","7acm8wjh3r","1280","720","en","na09ay17","null","","","","learningBlock2","","","","<div style=""font-size:60px;""> </div>","null","LF","learning/Slide88.JPG","This is a tob:","",""
"","html-keyboard-response","272","678715","0.0-8.0-0.8","LF","7acm8wjh3r","1280","720","en","na09ay17","null","","","","learningBlock2","","","","This is a bim:","null","","","","",""
"","image-keyboard-response","273","679043","0.0-8.0-1.8","LF","7acm8wjh3r","1280","720","en","na09ay17","null","","","","","","","","learning/Slide89.JPG","null","","","","",""
"","html-keyboard-response","274","680045","0.0-8.0-2.8","LF","7acm8wjh3r","1280","720","en","na09ay17","null","","","","learningBlock2","","","","<div style=""font-size:60px;""> </div>","null","LF","learning/Slide89.JPG","This is a bim:","",""
"","html-keyboard-response","275","681047","0.0-8.0-0.9","LF","7acm8wjh3r","1280","720","en","na09ay17","null","","","","learningBlock2","","","","This is a dep:","null","","","","",""
"","image-keyboard-response","276","681375","0.0-8.0-1.9","LF","7acm8wjh3r","1280","720","en","na09ay17","null","","","","","","","","learning/Slide90.JPG","null","","","","",""
"","html-keyboard-response","277","682379","0.0-8.0-2.9","LF","7acm8wjh3r","1280","720","en","na09ay17","null","","","","learningBlock2","","","","<div style=""font-size:60px;""> </div>","null","LF","learning/Slide90.JPG","This is a dep:","",""
"","html-keyboard-response","278","683383","0.0-8.0-0.10","LF","7acm8wjh3r","1280","720","en","na09ay17","null","","","","learningBlock2","","","","This is a wug:","null","","","","",""
"","image-keyboard-response","279","683711","0.0-8.0-1.10","LF","7acm8wjh3r","1280","720","en","na09ay17","null","","","","","","","","learning/Slide91.JPG","null","","","","",""
"","html-keyboard-response","280","684714","0.0-8.0-2.10","LF","7acm8wjh3r","1280","720","en","na09ay17","null","","","","learningBlock2","","","","<div style=""font-size:60px;""> </div>","null","LF","learning/Slide91.JPG","This is a wug:","",""
"","html-keyboard-response","281","685715","0.0-8.0-0.11","LF","7acm8wjh3r","1280","720","en","na09ay17","null","","","","learningBlock2","","","","This is a tob:","null","","","","",""
"","image-keyboard-response","282","686044","0.0-8.0-1.11","LF","7acm8wjh3r","1280","720","en","na09ay17","null","","","","","","","","learning/Slide92.JPG","null","","","","",""
"","html-keyboard-response","283","687045","0.0-8.0-2.11","LF","7acm8wjh3r","1280","720","en","na09ay17","null","","","","learningBlock2","","","","<div style=""font-size:60px;""> </div>","null","LF","learning/Slide92.JPG","This is a tob:","",""
"","html-keyboard-response","284","688050","0.0-8.0-0.12","LF","7acm8wjh3r","1280","720","en","na09ay17","null","","","","learningBlock2","","","","This is a bim:","null","","","","",""
"","image-keyboard-response","285","688380","0.0-8.0-1.12","LF","7acm8wjh3r","1280","720","en","na09ay17","null","","","","","","","","learning/Slide93.JPG","null","","","","",""
"","html-keyboard-response","286","689383","0.0-8.0-2.12","LF","7acm8wjh3r","1280","720","en","na09ay17","null","","","","learningBlock2","","","","<div style=""font-size:60px;""> </div>","null","LF","learning/Slide93.JPG","This is a bim:","",""
"","html-keyboard-response","287","690384","0.0-8.0-0.13","LF","7acm8wjh3r","1280","720","en","na09ay17","null","","","","learningBlock2","","","","This is a tob:","null","","","","",""
"","image-keyboard-response","288","690713","0.0-8.0-1.13","LF","7acm8wjh3r","1280","720","en","na09ay17","null","","","","","","","","learning/Slide94.JPG","null","","","","",""
"","html-keyboard-response","289","691715","0.0-8.0-2.13","LF","7acm8wjh3r","1280","720","en","na09ay17","null","","","","learningBlock2","","","","<div style=""font-size:60px;""> </div>","null","LF","learning/Slide94.JPG","This is a tob:","",""
"","html-keyboard-response","290","692718","0.0-8.0-0.14","LF","7acm8wjh3r","1280","720","en","na09ay17","null","","","","learningBlock2","","","","This is a wug:","null","","","","",""
"","image-keyboard-response","291","693047","0.0-8.0-1.14","LF","7acm8wjh3r","1280","720","en","na09ay17","null","","","","","","","","learning/Slide95.JPG","null","","","","",""
"","html-keyboard-response","292","694050","0.0-8.0-2.14","LF","7acm8wjh3r","1280","720","en","na09ay17","null","","","","learningBlock2","","","","<div style=""font-size:60px;""> </div>","null","LF","learning/Slide95.JPG","This is a wug:","",""
"","html-keyboard-response","293","695053","0.0-8.0-0.15","LF","7acm8wjh3r","1280","720","en","na09ay17","null","","","","learningBlock2","","","","This is a tob:","null","","","","",""
"","image-keyboard-response","294","695382","0.0-8.0-1.15","LF","7acm8wjh3r","1280","720","en","na09ay17","null","","","","","","","","learning/Slide96.JPG","null","","","","",""
"","html-keyboard-response","295","696384","0.0-8.0-2.15","LF","7acm8wjh3r","1280","720","en","na09ay17","null","","","","learningBlock2","","","","<div style=""font-size:60px;""> </div>","null","LF","learning/Slide96.JPG","This is a tob:","",""
"","html-keyboard-response","296","697387","0.0-8.0-0.16","LF","7acm8wjh3r","1280","720","en","na09ay17","null","","","","learningBlock2","","","","This is a dep:","null","","","","",""
"","image-keyboard-response","297","697715","0.0-8.0-1.16","LF","7acm8wjh3r","1280","720","en","na09ay17","null","","","","","","","","learning/Slide97.JPG","null","","","","",""
"","html-keyboard-response","298","698717","0.0-8.0-2.16","LF","7acm8wjh3r","1280","720","en","na09ay17","null","","","","learningBlock2","","","","<div style=""font-size:60px;""> </div>","null","LF","learning/Slide97.JPG","This is a dep:","",""
"","html-keyboard-response","299","699719","0.0-8.0-0.17","LF","7acm8wjh3r","1280","720","en","na09ay17","null","","","","learningBlock2","","","","This is a bim:","null","","","","",""
"","image-keyboard-response","300","700047","0.0-8.0-1.17","LF","7acm8wjh3r","1280","720","en","na09ay17","null","","","","","","","","learning/Slide98.JPG","null","","","","",""
"","html-keyboard-response","301","701051","0.0-8.0-2.17","LF","7acm8wjh3r","1280","720","en","na09ay17","null","","","","learningBlock2","","","","<div style=""font-size:60px;""> </div>","null","LF","learning/Slide98.JPG","This is a bim:","",""
"","html-keyboard-response","302","702054","0.0-8.0-0.18","LF","7acm8wjh3r","1280","720","en","na09ay17","null","","","","learningBlock2","","","","This is a dep:","null","","","","",""
"","image-keyboard-response","303","702386","0.0-8.0-1.18","LF","7acm8wjh3r","1280","720","en","na09ay17","null","","","","","","","","learning/Slide99.JPG","null","","","","",""
"","html-keyboard-response","304","703388","0.0-8.0-2.18","LF","7acm8wjh3r","1280","720","en","na09ay17","null","","","","learningBlock2","","","","<div style=""font-size:60px;""> </div>","null","LF","learning/Slide99.JPG","This is a dep:","",""
"","html-keyboard-response","305","704392","0.0-8.0-0.19","LF","7acm8wjh3r","1280","720","en","na09ay17","null","","","","learningBlock2","","","","This is a bim:","null","","","","",""
"","image-keyboard-response","306","704720","0.0-8.0-1.19","LF","7acm8wjh3r","1280","720","en","na09ay17","null","","","","","","","","learning/Slide100.JPG","null","","","","",""
"","html-keyboard-response","307","705721","0.0-8.0-2.19","LF","7acm8wjh3r","1280","720","en","na09ay17","null","","","","learningBlock2","","","","<div style=""font-size:60px;""> </div>","null","LF","learning/Slide100.JPG","This is a bim:","",""
"","html-keyboard-response","308","706725","0.0-8.0-0.20","LF","7acm8wjh3r","1280","720","en","na09ay17","null","","","","learningBlock2","","","","This is a tob:","null","","","","",""
"","image-keyboard-response","309","707053","0.0-8.0-1.20","LF","7acm8wjh3r","1280","720","en","na09ay17","null","","","","","","","","learning/Slide101.JPG","null","","","","",""
"","html-keyboard-response","310","708055","0.0-8.0-2.20","LF","7acm8wjh3r","1280","720","en","na09ay17","null","","","","learningBlock2","","","","<div style=""font-size:60px;""> </div>","null","LF","learning/Slide101.JPG","This is a tob:","",""
"","html-keyboard-response","311","709058","0.0-8.0-0.21","LF","7acm8wjh3r","1280","720","en","na09ay17","null","","","","learningBlock2","","","","This is a bim:","null","","","","",""
"","image-keyboard-response","312","709386","0.0-8.0-1.21","LF","7acm8wjh3r","1280","720","en","na09ay17","null","","","","","","","","learning/Slide102.JPG","null","","","","",""
"","html-keyboard-response","313","710389","0.0-8.0-2.21","LF","7acm8wjh3r","1280","720","en","na09ay17","null","","","","learningBlock2","","","","<div style=""font-size:60px;""> </div>","null","LF","learning/Slide102.JPG","This is a bim:","",""
"","html-keyboard-response","314","711392","0.0-8.0-0.22","LF","7acm8wjh3r","1280","720","en","na09ay17","null","","","","learningBlock2","","","","This is a dep:","null","","","","",""
"","image-keyboard-response","315","711719","0.0-8.0-1.22","LF","7acm8wjh3r","1280","720","en","na09ay17","null","","","","","","","","learning/Slide103.JPG","null","","","","",""
"","html-keyboard-response","316","712721","0.0-8.0-2.22","LF","7acm8wjh3r","1280","720","en","na09ay17","null","","","","learningBlock2","","","","<div style=""font-size:60px;""> </div>","null","LF","learning/Slide103.JPG","This is a dep:","",""
"","html-keyboard-response","317","713725","0.0-8.0-0.23","LF","7acm8wjh3r","1280","720","en","na09ay17","null","","","","learningBlock2","","","","This is a tob:","null","","","","",""
"","image-keyboard-response","318","714053","0.0-8.0-1.23","LF","7acm8wjh3r","1280","720","en","na09ay17","null","","","","","","","","learning/Slide104.JPG","null","","","","",""
"","html-keyboard-response","319","715056","0.0-8.0-2.23","LF","7acm8wjh3r","1280","720","en","na09ay17","null","","","","learningBlock2","","","","<div style=""font-size:60px;""> </div>","null","LF","learning/Slide104.JPG","This is a tob:","",""
"","html-keyboard-response","320","716060","0.0-8.0-0.24","LF","7acm8wjh3r","1280","720","en","na09ay17","null","","","","learningBlock2","","","","This is a dep:","null","","","","",""
"","image-keyboard-response","321","716388","0.0-8.0-1.24","LF","7acm8wjh3r","1280","720","en","na09ay17","null","","","","","","","","learning/Slide105.JPG","null","","","","",""
"","html-keyboard-response","322","717391","0.0-8.0-2.24","LF","7acm8wjh3r","1280","720","en","na09ay17","null","","","","learningBlock2","","","","<div style=""font-size:60px;""> </div>","null","LF","learning/Slide105.JPG","This is a dep:","",""
"","html-keyboard-response","323","718393","0.0-8.0-0.25","LF","7acm8wjh3r","1280","720","en","na09ay17","null","","","","learningBlock2","","","","This is a wug:","null","","","","",""
"","image-keyboard-response","324","718722","0.0-8.0-1.25","LF","7acm8wjh3r","1280","720","en","na09ay17","null","","","","","","","","learning/Slide106.JPG","null","","","","",""
"","html-keyboard-response","325","719724","0.0-8.0-2.25","LF","7acm8wjh3r","1280","720","en","na09ay17","null","","","","learningBlock2","","","","<div style=""font-size:60px;""> </div>","null","LF","learning/Slide106.JPG","This is a wug:","",""
"","html-keyboard-response","326","720727","0.0-8.0-0.26","LF","7acm8wjh3r","1280","720","en","na09ay17","null","","","","learningBlock2","","","","This is a bim:","null","","","","",""
"","image-keyboard-response","327","721056","0.0-8.0-1.26","LF","7acm8wjh3r","1280","720","en","na09ay17","null","","","","","","","","learning/Slide107.JPG","null","","","","",""
"","html-keyboard-response","328","722058","0.0-8.0-2.26","LF","7acm8wjh3r","1280","720","en","na09ay17","null","","","","learningBlock2","","","","<div style=""font-size:60px;""> </div>","null","LF","learning/Slide107.JPG","This is a bim:","",""
"","html-keyboard-response","329","723062","0.0-8.0-0.27","LF","7acm8wjh3r","1280","720","en","na09ay17","null","","","","learningBlock2","","","","This is a dep:","null","","","","",""
"","image-keyboard-response","330","723391","0.0-8.0-1.27","LF","7acm8wjh3r","1280","720","en","na09ay17","null","","","","","","","","learning/Slide108.JPG","null","","","","",""
"","html-keyboard-response","331","724392","0.0-8.0-2.27","LF","7acm8wjh3r","1280","720","en","na09ay17","null","","","","learningBlock2","","","","<div style=""font-size:60px;""> </div>","null","LF","learning/Slide108.JPG","This is a dep:","",""
"","html-keyboard-response","332","725396","0.0-8.0-0.28","LF","7acm8wjh3r","1280","720","en","na09ay17","null","","","","learningBlock2","","","","This is a wug:","null","","","","",""
"","image-keyboard-response","333","725725","0.0-8.0-1.28","LF","7acm8wjh3r","1280","720","en","na09ay17","null","","","","","","","","learning/Slide109.JPG","null","","","","",""
"","html-keyboard-response","334","726727","0.0-8.0-2.28","LF","7acm8wjh3r","1280","720","en","na09ay17","null","","","","learningBlock2","","","","<div style=""font-size:60px;""> </div>","null","LF","learning/Slide109.JPG","This is a wug:","",""
"","html-keyboard-response","335","727730","0.0-8.0-0.29","LF","7acm8wjh3r","1280","720","en","na09ay17","null","","","","learningBlock2","","","","This is a bim:","null","","","","",""
"","image-keyboard-response","336","728059","0.0-8.0-1.29","LF","7acm8wjh3r","1280","720","en","na09ay17","null","","","","","","","","learning/Slide110.JPG","null","","","","",""
"","html-keyboard-response","337","729062","0.0-8.0-2.29","LF","7acm8wjh3r","1280","720","en","na09ay17","null","","","","learningBlock2","","","","<div style=""font-size:60px;""> </div>","null","LF","learning/Slide110.JPG","This is a bim:","",""
"","html-keyboard-response","338","730067","0.0-8.0-0.30","LF","7acm8wjh3r","1280","720","en","na09ay17","null","","","","learningBlock2","","","","This is a tob:","null","","","","",""
"","image-keyboard-response","339","730395","0.0-8.0-1.30","LF","7acm8wjh3r","1280","720","en","na09ay17","null","","","","","","","","learning/Slide111.JPG","null","","","","",""
"","html-keyboard-response","340","731397","0.0-8.0-2.30","LF","7acm8wjh3r","1280","720","en","na09ay17","null","","","","learningBlock2","","","","<div style=""font-size:60px;""> </div>","null","LF","learning/Slide111.JPG","This is a tob:","",""
"","html-keyboard-response","341","732400","0.0-8.0-0.31","LF","7acm8wjh3r","1280","720","en","na09ay17","null","","","","learningBlock2","","","","This is a wug:","null","","","","",""
"","image-keyboard-response","342","732727","0.0-8.0-1.31","LF","7acm8wjh3r","1280","720","en","na09ay17","null","","","","","","","","learning/Slide112.JPG","null","","","","",""
"","html-keyboard-response","343","733730","0.0-8.0-2.31","LF","7acm8wjh3r","1280","720","en","na09ay17","null","","","","learningBlock2","","","","<div style=""font-size:60px;""> </div>","null","LF","learning/Slide112.JPG","This is a wug:","",""
"","html-keyboard-response","344","734733","0.0-8.0-0.32","LF","7acm8wjh3r","1280","720","en","na09ay17","null","","","","learningBlock2","","","","This is a tob:","null","","","","",""
"","image-keyboard-response","345","735061","0.0-8.0-1.32","LF","7acm8wjh3r","1280","720","en","na09ay17","null","","","","","","","","learning/Slide113.JPG","null","","","","",""
"","html-keyboard-response","346","736064","0.0-8.0-2.32","LF","7acm8wjh3r","1280","720","en","na09ay17","null","","","","learningBlock2","","","","<div style=""font-size:60px;""> </div>","null","LF","learning/Slide113.JPG","This is a tob:","",""
"","html-keyboard-response","347","737066","0.0-8.0-0.33","LF","7acm8wjh3r","1280","720","en","na09ay17","null","","","","learningBlock2","","","","This is a wug:","null","","","","",""
"","image-keyboard-response","348","737394","0.0-8.0-1.33","LF","7acm8wjh3r","1280","720","en","na09ay17","null","","","","","","","","learning/Slide114.JPG","null","","","","",""
"","html-keyboard-response","349","738397","0.0-8.0-2.33","LF","7acm8wjh3r","1280","720","en","na09ay17","null","","","","learningBlock2","","","","<div style=""font-size:60px;""> </div>","null","LF","learning/Slide114.JPG","This is a wug:","",""
"","html-keyboard-response","350","739401","0.0-8.0-0.34","LF","7acm8wjh3r","1280","720","en","na09ay17","null","","","","learningBlock2","","","","This is a bim:","null","","","","",""
"","image-keyboard-response","351","739730","0.0-8.0-1.34","LF","7acm8wjh3r","1280","720","en","na09ay17","null","","","","","","","","learning/Slide115.JPG","null","","","","",""
"","html-keyboard-response","352","740732","0.0-8.0-2.34","LF","7acm8wjh3r","1280","720","en","na09ay17","null","","","","learningBlock2","","","","<div style=""font-size:60px;""> </div>","null","LF","learning/Slide115.JPG","This is a bim:","",""
"","html-keyboard-response","353","741735","0.0-8.0-0.35","LF","7acm8wjh3r","1280","720","en","na09ay17","null","","","","learningBlock2","","","","This is a dep:","null","","","","",""
"","image-keyboard-response","354","742063","0.0-8.0-1.35","LF","7acm8wjh3r","1280","720","en","na09ay17","null","","","","","","","","learning/Slide116.JPG","null","","","","",""
"","html-keyboard-response","355","743066","0.0-8.0-2.35","LF","7acm8wjh3r","1280","720","en","na09ay17","null","","","","learningBlock2","","","","<div style=""font-size:60px;""> </div>","null","LF","learning/Slide116.JPG","This is a dep:","",""
"","html-keyboard-response","356","744070","0.0-8.0-0.36","LF","7acm8wjh3r","1280","720","en","na09ay17","null","","","","learningBlock2","","","","This is a tob:","null","","","","",""
"","image-keyboard-response","357","744398","0.0-8.0-1.36","LF","7acm8wjh3r","1280","720","en","na09ay17","null","","","","","","","","learning/Slide117.JPG","null","","","","",""
"","html-keyboard-response","358","745400","0.0-8.0-2.36","LF","7acm8wjh3r","1280","720","en","na09ay17","null","","","","learningBlock2","","","","<div style=""font-size:60px;""> </div>","null","LF","learning/Slide117.JPG","This is a tob:","",""
"","html-keyboard-response","359","746404","0.0-8.0-0.37","LF","7acm8wjh3r","1280","720","en","na09ay17","null","","","","learningBlock2","","","","This is a dep:","null","","","","",""
"","image-keyboard-response","360","746731","0.0-8.0-1.37","LF","7acm8wjh3r","1280","720","en","na09ay17","null","","","","","","","","learning/Slide118.JPG","null","","","","",""
"","html-keyboard-response","361","747734","0.0-8.0-2.37","LF","7acm8wjh3r","1280","720","en","na09ay17","null","","","","learningBlock2","","","","<div style=""font-size:60px;""> </div>","null","LF","learning/Slide118.JPG","This is a dep:","",""
"","html-keyboard-response","362","748738","0.0-8.0-0.38","LF","7acm8wjh3r","1280","720","en","na09ay17","null","","","","learningBlock2","","","","This is a wug:","null","","","","",""
"","image-keyboard-response","363","749066","0.0-8.0-1.38","LF","7acm8wjh3r","1280","720","en","na09ay17","null","","","","","","","","learning/Slide119.JPG","null","","","","",""
"","html-keyboard-response","364","750068","0.0-8.0-2.38","LF","7acm8wjh3r","1280","720","en","na09ay17","null","","","","learningBlock2","","","","<div style=""font-size:60px;""> </div>","null","LF","learning/Slide119.JPG","This is a wug:","",""
"","html-keyboard-response","365","751071","0.0-8.0-0.39","LF","7acm8wjh3r","1280","720","en","na09ay17","null","","","","learningBlock2","","","","This is a dep:","null","","","","",""
"","image-keyboard-response","366","751400","0.0-8.0-1.39","LF","7acm8wjh3r","1280","720","en","na09ay17","null","","","","","","","","learning/Slide120.JPG","null","","","","",""
"","html-keyboard-response","367","752402","0.0-8.0-2.39","LF","7acm8wjh3r","1280","720","en","na09ay17","null","","","","learningBlock2","","","","<div style=""font-size:60px;""> </div>","null","LF","learning/Slide120.JPG","This is a dep:","",""
"","html-keyboard-response","368","753404","0.0-8.0-0.40","LF","7acm8wjh3r","1280","720","en","na09ay17","null","","","","learningBlock2","","","","This is a bim:","null","","","","",""
"","image-keyboard-response","369","753732","0.0-8.0-1.40","LF","7acm8wjh3r","1280","720","en","na09ay17","null","","","","","","","","learning/Slide121.JPG","null","","","","",""
"","html-keyboard-response","370","754734","0.0-8.0-2.40","LF","7acm8wjh3r","1280","720","en","na09ay17","null","","","","learningBlock2","","","","<div style=""font-size:60px;""> </div>","null","LF","learning/Slide121.JPG","This is a bim:","",""
"","html-keyboard-response","371","755736","0.0-8.0-0.41","LF","7acm8wjh3r","1280","720","en","na09ay17","null","","","","learningBlock2","","","","This is a wug:","null","","","","",""
"","image-keyboard-response","372","756063","0.0-8.0-1.41","LF","7acm8wjh3r","1280","720","en","na09ay17","null","","","","","","","","learning/Slide122.JPG","null","","","","",""
"","html-keyboard-response","373","757065","0.0-8.0-2.41","LF","7acm8wjh3r","1280","720","en","na09ay17","null","","","","learningBlock2","","","","<div style=""font-size:60px;""> </div>","null","LF","learning/Slide122.JPG","This is a wug:","",""
"","html-keyboard-response","374","758068","0.0-8.0-0.42","LF","7acm8wjh3r","1280","720","en","na09ay17","null","","","","learningBlock2","","","","This is a bim:","null","","","","",""
"","image-keyboard-response","375","758398","0.0-8.0-1.42","LF","7acm8wjh3r","1280","720","en","na09ay17","null","","","","","","","","learning/Slide123.JPG","null","","","","",""
"","html-keyboard-response","376","759400","0.0-8.0-2.42","LF","7acm8wjh3r","1280","720","en","na09ay17","null","","","","learningBlock2","","","","<div style=""font-size:60px;""> </div>","null","LF","learning/Slide123.JPG","This is a bim:","",""
"","html-keyboard-response","377","760402","0.0-8.0-0.43","LF","7acm8wjh3r","1280","720","en","na09ay17","null","","","","learningBlock2","","","","This is a tob:","null","","","","",""
"","image-keyboard-response","378","760734","0.0-8.0-1.43","LF","7acm8wjh3r","1280","720","en","na09ay17","null","","","","","","","","learning/Slide124.JPG","null","","","","",""
"","html-keyboard-response","379","761739","0.0-8.0-2.43","LF","7acm8wjh3r","1280","720","en","na09ay17","null","","","","learningBlock2","","","","<div style=""font-size:60px;""> </div>","null","LF","learning/Slide124.JPG","This is a tob:","",""
"","html-keyboard-response","380","762741","0.0-8.0-0.44","LF","7acm8wjh3r","1280","720","en","na09ay17","null","","","","learningBlock2","","","","This is a bim:","null","","","","",""
"","image-keyboard-response","381","763071","0.0-8.0-1.44","LF","7acm8wjh3r","1280","720","en","na09ay17","null","","","","","","","","learning/Slide125.JPG","null","","","","",""
"","html-keyboard-response","382","764072","0.0-8.0-2.44","LF","7acm8wjh3r","1280","720","en","na09ay17","null","","","","learningBlock2","","","","<div style=""font-size:60px;""> </div>","null","LF","learning/Slide125.JPG","This is a bim:","",""
"","html-keyboard-response","383","765075","0.0-8.0-0.45","LF","7acm8wjh3r","1280","720","en","na09ay17","null","","","","learningBlock2","","","","This is a tob:","null","","","","",""
"","image-keyboard-response","384","765402","0.0-8.0-1.45","LF","7acm8wjh3r","1280","720","en","na09ay17","null","","","","","","","","learning/Slide126.JPG","null","","","","",""
"","html-keyboard-response","385","766404","0.0-8.0-2.45","LF","7acm8wjh3r","1280","720","en","na09ay17","null","","","","learningBlock2","","","","<div style=""font-size:60px;""> </div>","null","LF","learning/Slide126.JPG","This is a tob:","",""
"","html-keyboard-response","386","767407","0.0-8.0-0.46","LF","7acm8wjh3r","1280","720","en","na09ay17","null","","","","learningBlock2","","","","This is a dep:","null","","","","",""
"","image-keyboard-response","387","767736","0.0-8.0-1.46","LF","7acm8wjh3r","1280","720","en","na09ay17","null","","","","","","","","learning/Slide127.JPG","null","","","","",""
"","html-keyboard-response","388","768738","0.0-8.0-2.46","LF","7acm8wjh3r","1280","720","en","na09ay17","null","","","","learningBlock2","","","","<div style=""font-size:60px;""> </div>","null","LF","learning/Slide127.JPG","This is a dep:","",""
"","html-keyboard-response","389","769741","0.0-8.0-0.47","LF","7acm8wjh3r","1280","720","en","na09ay17","null","","","","learningBlock2","","","","This is a wug:","null","","","","",""
"","image-keyboard-response","390","770069","0.0-8.0-1.47","LF","7acm8wjh3r","1280","720","en","na09ay17","null","","","","","","","","learning/Slide128.JPG","null","","","","",""
"","html-keyboard-response","391","771072","0.0-8.0-2.47","LF","7acm8wjh3r","1280","720","en","na09ay17","null","","","","learningBlock2","","","","<div style=""font-size:60px;""> </div>","null","LF","learning/Slide128.JPG","This is a wug:","",""
"","html-keyboard-response","392","772075","0.0-8.0-0.48","LF","7acm8wjh3r","1280","720","en","na09ay17","null","","","","learningBlock2","","","","This is a tob:","null","","","","",""
"","image-keyboard-response","393","772404","0.0-8.0-1.48","LF","7acm8wjh3r","1280","720","en","na09ay17","null","","","","","","","","learning/Slide129.JPG","null","","","","",""
"","html-keyboard-response","394","773406","0.0-8.0-2.48","LF","7acm8wjh3r","1280","720","en","na09ay17","null","","","","learningBlock2","","","","<div style=""font-size:60px;""> </div>","null","LF","learning/Slide129.JPG","This is a tob:","",""
"","html-keyboard-response","395","774408","0.0-8.0-0.49","LF","7acm8wjh3r","1280","720","en","na09ay17","null","","","","learningBlock2","","","","This is a wug:","null","","","","",""
"","image-keyboard-response","396","774736","0.0-8.0-1.49","LF","7acm8wjh3r","1280","720","en","na09ay17","null","","","","","","","","learning/Slide130.JPG","null","","","","",""
"","html-keyboard-response","397","775738","0.0-8.0-2.49","LF","7acm8wjh3r","1280","720","en","na09ay17","null","","","","learningBlock2","","","","<div style=""font-size:60px;""> </div>","null","LF","learning/Slide130.JPG","This is a wug:","",""
"","html-keyboard-response","398","776740","0.0-8.0-0.50","LF","7acm8wjh3r","1280","720","en","na09ay17","null","","","","learningBlock2","","","","This is a bim:","null","","","","",""
"","image-keyboard-response","399","777068","0.0-8.0-1.50","LF","7acm8wjh3r","1280","720","en","na09ay17","null","","","","","","","","learning/Slide131.JPG","null","","","","",""
"","html-keyboard-response","400","778070","0.0-8.0-2.50","LF","7acm8wjh3r","1280","720","en","na09ay17","null","","","","learningBlock2","","","","<div style=""font-size:60px;""> </div>","null","LF","learning/Slide131.JPG","This is a bim:","",""
"","html-keyboard-response","401","779073","0.0-8.0-0.51","LF","7acm8wjh3r","1280","720","en","na09ay17","null","","","","learningBlock2","","","","This is a dep:","null","","","","",""
"","image-keyboard-response","402","779402","0.0-8.0-1.51","LF","7acm8wjh3r","1280","720","en","na09ay17","null","","","","","","","","learning/Slide132.JPG","null","","","","",""
"","html-keyboard-response","403","780404","0.0-8.0-2.51","LF","7acm8wjh3r","1280","720","en","na09ay17","null","","","","learningBlock2","","","","<div style=""font-size:60px;""> </div>","null","LF","learning/Slide132.JPG","This is a dep:","",""
"","html-keyboard-response","404","781413","0.0-8.0-0.52","LF","7acm8wjh3r","1280","720","en","na09ay17","null","","","","learningBlock2","","","","This is a tob:","null","","","","",""
"","image-keyboard-response","405","781742","0.0-8.0-1.52","LF","7acm8wjh3r","1280","720","en","na09ay17","null","","","","","","","","learning/Slide133.JPG","null","","","","",""
"","html-keyboard-response","406","782745","0.0-8.0-2.52","LF","7acm8wjh3r","1280","720","en","na09ay17","null","","","","learningBlock2","","","","<div style=""font-size:60px;""> </div>","null","LF","learning/Slide133.JPG","This is a tob:","",""
"","html-keyboard-response","407","783747","0.0-8.0-0.53","LF","7acm8wjh3r","1280","720","en","na09ay17","null","","","","learningBlock2","","","","This is a dep:","null","","","","",""
"","image-keyboard-response","408","784076","0.0-8.0-1.53","LF","7acm8wjh3r","1280","720","en","na09ay17","null","","","","","","","","learning/Slide134.JPG","null","","","","",""
"","html-keyboard-response","409","785078","0.0-8.0-2.53","LF","7acm8wjh3r","1280","720","en","na09ay17","null","","","","learningBlock2","","","","<div style=""font-size:60px;""> </div>","null","LF","learning/Slide134.JPG","This is a dep:","",""
"","html-keyboard-response","410","786081","0.0-8.0-0.54","LF","7acm8wjh3r","1280","720","en","na09ay17","null","","","","learningBlock2","","","","This is a tob:","null","","","","",""
"","image-keyboard-response","411","786408","0.0-8.0-1.54","LF","7acm8wjh3r","1280","720","en","na09ay17","null","","","","","","","","learning/Slide135.JPG","null","","","","",""
"","html-keyboard-response","412","787411","0.0-8.0-2.54","LF","7acm8wjh3r","1280","720","en","na09ay17","null","","","","learningBlock2","","","","<div style=""font-size:60px;""> </div>","null","LF","learning/Slide135.JPG","This is a tob:","",""
"","html-keyboard-response","413","788412","0.0-8.0-0.55","LF","7acm8wjh3r","1280","720","en","na09ay17","null","","","","learningBlock2","","","","This is a wug:","null","","","","",""
"","image-keyboard-response","414","788741","0.0-8.0-1.55","LF","7acm8wjh3r","1280","720","en","na09ay17","null","","","","","","","","learning/Slide136.JPG","null","","","","",""
"","html-keyboard-response","415","789743","0.0-8.0-2.55","LF","7acm8wjh3r","1280","720","en","na09ay17","null","","","","learningBlock2","","","","<div style=""font-size:60px;""> </div>","null","LF","learning/Slide136.JPG","This is a wug:","",""
"","html-keyboard-response","416","790748","0.0-8.0-0.56","LF","7acm8wjh3r","1280","720","en","na09ay17","null","","","","learningBlock2","","","","This is a tob:","null","","","","",""
"","image-keyboard-response","417","791075","0.0-8.0-1.56","LF","7acm8wjh3r","1280","720","en","na09ay17","null","","","","","","","","learning/Slide137.JPG","null","","","","",""
"","html-keyboard-response","418","792078","0.0-8.0-2.56","LF","7acm8wjh3r","1280","720","en","na09ay17","null","","","","learningBlock2","","","","<div style=""font-size:60px;""> </div>","null","LF","learning/Slide137.JPG","This is a tob:","",""
"","html-keyboard-response","419","793080","0.0-8.0-0.57","LF","7acm8wjh3r","1280","720","en","na09ay17","null","","","","learningBlock2","","","","This is a bim:","null","","","","",""
"","image-keyboard-response","420","793409","0.0-8.0-1.57","LF","7acm8wjh3r","1280","720","en","na09ay17","null","","","","","","","","learning/Slide138.JPG","null","","","","",""
"","html-keyboard-response","421","794411","0.0-8.0-2.57","LF","7acm8wjh3r","1280","720","en","na09ay17","null","","","","learningBlock2","","","","<div style=""font-size:60px;""> </div>","null","LF","learning/Slide138.JPG","This is a bim:","",""
"","html-keyboard-response","422","795414","0.0-8.0-0.58","LF","7acm8wjh3r","1280","720","en","na09ay17","null","","","","learningBlock2","","","","This is a wug:","null","","","","",""
"","image-keyboard-response","423","795745","0.0-8.0-1.58","LF","7acm8wjh3r","1280","720","en","na09ay17","null","","","","","","","","learning/Slide139.JPG","null","","","","",""
"","html-keyboard-response","424","796748","0.0-8.0-2.58","LF","7acm8wjh3r","1280","720","en","na09ay17","null","","","","learningBlock2","","","","<div style=""font-size:60px;""> </div>","null","LF","learning/Slide139.JPG","This is a wug:","",""
"","html-keyboard-response","425","797751","0.0-8.0-0.59","LF","7acm8wjh3r","1280","720","en","na09ay17","null","","","","learningBlock2","","","","This is a dep:","null","","","","",""
"","image-keyboard-response","426","798079","0.0-8.0-1.59","LF","7acm8wjh3r","1280","720","en","na09ay17","null","","","","","","","","learning/Slide140.JPG","null","","","","",""
"","html-keyboard-response","427","799082","0.0-8.0-2.59","LF","7acm8wjh3r","1280","720","en","na09ay17","null","","","","learningBlock2","","","","<div style=""font-size:60px;""> </div>","null","LF","learning/Slide140.JPG","This is a dep:","",""
"","html-keyboard-response","428","800085","0.0-8.0-0.60","LF","7acm8wjh3r","1280","720","en","na09ay17","null","","","","learningBlock2","","","","This is a tob:","null","","","","",""
"","image-keyboard-response","429","800413","0.0-8.0-1.60","LF","7acm8wjh3r","1280","720","en","na09ay17","null","","","","","","","","learning/Slide141.JPG","null","","","","",""
"","html-keyboard-response","430","801415","0.0-8.0-2.60","LF","7acm8wjh3r","1280","720","en","na09ay17","null","","","","learningBlock2","","","","<div style=""font-size:60px;""> </div>","null","LF","learning/Slide141.JPG","This is a tob:","",""
"","html-keyboard-response","431","802419","0.0-8.0-0.61","LF","7acm8wjh3r","1280","720","en","na09ay17","null","","","","learningBlock2","","","","This is a wug:","null","","","","",""
"","image-keyboard-response","432","802747","0.0-8.0-1.61","LF","7acm8wjh3r","1280","720","en","na09ay17","null","","","","","","","","learning/Slide142.JPG","null","","","","",""
"","html-keyboard-response","433","803750","0.0-8.0-2.61","LF","7acm8wjh3r","1280","720","en","na09ay17","null","","","","learningBlock2","","","","<div style=""font-size:60px;""> </div>","null","LF","learning/Slide142.JPG","This is a wug:","",""
"","html-keyboard-response","434","804753","0.0-8.0-0.62","LF","7acm8wjh3r","1280","720","en","na09ay17","null","","","","learningBlock2","","","","This is a bim:","null","","","","",""
"","image-keyboard-response","435","805080","0.0-8.0-1.62","LF","7acm8wjh3r","1280","720","en","na09ay17","null","","","","","","","","learning/Slide143.JPG","null","","","","",""
"","html-keyboard-response","436","806083","0.0-8.0-2.62","LF","7acm8wjh3r","1280","720","en","na09ay17","null","","","","learningBlock2","","","","<div style=""font-size:60px;""> </div>","null","LF","learning/Slide143.JPG","This is a bim:","",""
"","html-keyboard-response","437","807086","0.0-8.0-0.63","LF","7acm8wjh3r","1280","720","en","na09ay17","null","","","","learningBlock2","","","","This is a dep:","null","","","","",""
"","image-keyboard-response","438","807414","0.0-8.0-1.63","LF","7acm8wjh3r","1280","720","en","na09ay17","null","","","","","","","","learning/Slide144.JPG","null","","","","",""
"","html-keyboard-response","439","808416","0.0-8.0-2.63","LF","7acm8wjh3r","1280","720","en","na09ay17","null","","","","learningBlock2","","","","<div style=""font-size:60px;""> </div>","null","LF","learning/Slide144.JPG","This is a dep:","",""
"","html-keyboard-response","440","809419","0.0-8.0-0.64","LF","7acm8wjh3r","1280","720","en","na09ay17","null","","","","learningBlock2","","","","This is a bim:","null","","","","",""
"","image-keyboard-response","441","809747","0.0-8.0-1.64","LF","7acm8wjh3r","1280","720","en","na09ay17","null","","","","","","","","learning/Slide145.JPG","null","","","","",""
"","html-keyboard-response","442","810750","0.0-8.0-2.64","LF","7acm8wjh3r","1280","720","en","na09ay17","null","","","","learningBlock2","","","","<div style=""font-size:60px;""> </div>","null","LF","learning/Slide145.JPG","This is a bim:","",""
"","html-keyboard-response","443","811752","0.0-8.0-0.65","LF","7acm8wjh3r","1280","720","en","na09ay17","null","","","","learningBlock2","","","","This is a tob:","null","","","","",""
"","image-keyboard-response","444","812081","0.0-8.0-1.65","LF","7acm8wjh3r","1280","720","en","na09ay17","null","","","","","","","","learning/Slide146.JPG","null","","","","",""
"","html-keyboard-response","445","813084","0.0-8.0-2.65","LF","7acm8wjh3r","1280","720","en","na09ay17","null","","","","learningBlock2","","","","<div style=""font-size:60px;""> </div>","null","LF","learning/Slide146.JPG","This is a tob:","",""
"","html-keyboard-response","446","814088","0.0-8.0-0.66","LF","7acm8wjh3r","1280","720","en","na09ay17","null","","","","learningBlock2","","","","This is a wug:","null","","","","",""
"","image-keyboard-response","447","814419","0.0-8.0-1.66","LF","7acm8wjh3r","1280","720","en","na09ay17","null","","","","","","","","learning/Slide147.JPG","null","","","","",""
"","html-keyboard-response","448","815422","0.0-8.0-2.66","LF","7acm8wjh3r","1280","720","en","na09ay17","null","","","","learningBlock2","","","","<div style=""font-size:60px;""> </div>","null","LF","learning/Slide147.JPG","This is a wug:","",""
"","html-keyboard-response","449","816426","0.0-8.0-0.67","LF","7acm8wjh3r","1280","720","en","na09ay17","null","","","","learningBlock2","","","","This is a bim:","null","","","","",""
"","image-keyboard-response","450","816755","0.0-8.0-1.67","LF","7acm8wjh3r","1280","720","en","na09ay17","null","","","","","","","","learning/Slide148.JPG","null","","","","",""
"","html-keyboard-response","451","817758","0.0-8.0-2.67","LF","7acm8wjh3r","1280","720","en","na09ay17","null","","","","learningBlock2","","","","<div style=""font-size:60px;""> </div>","null","LF","learning/Slide148.JPG","This is a bim:","",""
"","html-keyboard-response","452","818761","0.0-8.0-0.68","LF","7acm8wjh3r","1280","720","en","na09ay17","null","","","","learningBlock2","","","","This is a dep:","null","","","","",""
"","image-keyboard-response","453","819090","0.0-8.0-1.68","LF","7acm8wjh3r","1280","720","en","na09ay17","null","","","","","","","","learning/Slide149.JPG","null","","","","",""
"","html-keyboard-response","454","820092","0.0-8.0-2.68","LF","7acm8wjh3r","1280","720","en","na09ay17","null","","","","learningBlock2","","","","<div style=""font-size:60px;""> </div>","null","LF","learning/Slide149.JPG","This is a dep:","",""
"","html-keyboard-response","455","821095","0.0-8.0-0.69","LF","7acm8wjh3r","1280","720","en","na09ay17","null","","","","learningBlock2","","","","This is a wug:","null","","","","",""
"","image-keyboard-response","456","821423","0.0-8.0-1.69","LF","7acm8wjh3r","1280","720","en","na09ay17","null","","","","","","","","learning/Slide150.JPG","null","","","","",""
"","html-keyboard-response","457","822426","0.0-8.0-2.69","LF","7acm8wjh3r","1280","720","en","na09ay17","null","","","","learningBlock2","","","","<div style=""font-size:60px;""> </div>","null","LF","learning/Slide150.JPG","This is a wug:","",""
"","html-keyboard-response","458","823429","0.0-8.0-0.70","LF","7acm8wjh3r","1280","720","en","na09ay17","null","","","","learningBlock2","","","","This is a dep:","null","","","","",""
"","image-keyboard-response","459","823758","0.0-8.0-1.70","LF","7acm8wjh3r","1280","720","en","na09ay17","null","","","","","","","","learning/Slide151.JPG","null","","","","",""
"","html-keyboard-response","460","824760","0.0-8.0-2.70","LF","7acm8wjh3r","1280","720","en","na09ay17","null","","","","learningBlock2","","","","<div style=""font-size:60px;""> </div>","null","LF","learning/Slide151.JPG","This is a dep:","",""
"","html-keyboard-response","461","825764","0.0-8.0-0.71","LF","7acm8wjh3r","1280","720","en","na09ay17","null","","","","learningBlock2","","","","This is a wug:","null","","","","",""
"","image-keyboard-response","462","826092","0.0-8.0-1.71","LF","7acm8wjh3r","1280","720","en","na09ay17","null","","","","","","","","learning/Slide152.JPG","null","","","","",""
"","html-keyboard-response","463","827094","0.0-8.0-2.71","LF","7acm8wjh3r","1280","720","en","na09ay17","null","","","","learningBlock2","","","","<div style=""font-size:60px;""> </div>","null","LF","learning/Slide152.JPG","This is a wug:","",""
"","html-keyboard-response","464","828099","0.0-8.0-0.72","LF","7acm8wjh3r","1280","720","en","na09ay17","null","","","","learningBlock2","","","","This is a bim:","null","","","","",""
"","image-keyboard-response","465","828427","0.0-8.0-1.72","LF","7acm8wjh3r","1280","720","en","na09ay17","null","","","","","","","","learning/Slide153.JPG","null","","","","",""
"","html-keyboard-response","466","829429","0.0-8.0-2.72","LF","7acm8wjh3r","1280","720","en","na09ay17","null","","","","learningBlock2","","","","<div style=""font-size:60px;""> </div>","null","LF","learning/Slide153.JPG","This is a bim:","",""
"","html-keyboard-response","467","830432","0.0-8.0-0.73","LF","7acm8wjh3r","1280","720","en","na09ay17","null","","","","learningBlock2","","","","This is a tob:","null","","","","",""
"","image-keyboard-response","468","830761","0.0-8.0-1.73","LF","7acm8wjh3r","1280","720","en","na09ay17","null","","","","","","","","learning/Slide154.JPG","null","","","","",""
"","html-keyboard-response","469","831764","0.0-8.0-2.73","LF","7acm8wjh3r","1280","720","en","na09ay17","null","","","","learningBlock2","","","","<div style=""font-size:60px;""> </div>","null","LF","learning/Slide154.JPG","This is a tob:","",""
"","html-keyboard-response","470","832766","0.0-8.0-0.74","LF","7acm8wjh3r","1280","720","en","na09ay17","null","","","","learningBlock2","","","","This is a dep:","null","","","","",""
"","image-keyboard-response","471","833094","0.0-8.0-1.74","LF","7acm8wjh3r","1280","720","en","na09ay17","null","","","","","","","","learning/Slide155.JPG","null","","","","",""
"","html-keyboard-response","472","834098","0.0-8.0-2.74","LF","7acm8wjh3r","1280","720","en","na09ay17","null","","","","learningBlock2","","","","<div style=""font-size:60px;""> </div>","null","LF","learning/Slide155.JPG","This is a dep:","",""
"","html-keyboard-response","473","835102","0.0-8.0-0.75","LF","7acm8wjh3r","1280","720","en","na09ay17","null","","","","learningBlock2","","","","This is a bim:","null","","","","",""
"","image-keyboard-response","474","835430","0.0-8.0-1.75","LF","7acm8wjh3r","1280","720","en","na09ay17","null","","","","","","","","learning/Slide156.JPG","null","","","","",""
"","html-keyboard-response","475","836432","0.0-8.0-2.75","LF","7acm8wjh3r","1280","720","en","na09ay17","null","","","","learningBlock2","","","","<div style=""font-size:60px;""> </div>","null","LF","learning/Slide156.JPG","This is a bim:","",""
"","html-keyboard-response","476","837435","0.0-8.0-0.76","LF","7acm8wjh3r","1280","720","en","na09ay17","null","","","","learningBlock2","","","","This is a dep:","null","","","","",""
"","image-keyboard-response","477","837763","0.0-8.0-1.76","LF","7acm8wjh3r","1280","720","en","na09ay17","null","","","","","","","","learning/Slide157.JPG","null","","","","",""
"","html-keyboard-response","478","838766","0.0-8.0-2.76","LF","7acm8wjh3r","1280","720","en","na09ay17","null","","","","learningBlock2","","","","<div style=""font-size:60px;""> </div>","null","LF","learning/Slide157.JPG","This is a dep:","",""
"","html-keyboard-response","479","839768","0.0-8.0-0.77","LF","7acm8wjh3r","1280","720","en","na09ay17","null","","","","learningBlock2","","","","This is a tob:","null","","","","",""
"","image-keyboard-response","480","840098","0.0-8.0-1.77","LF","7acm8wjh3r","1280","720","en","na09ay17","null","","","","","","","","learning/Slide158.JPG","null","","","","",""
"","html-keyboard-response","481","841101","0.0-8.0-2.77","LF","7acm8wjh3r","1280","720","en","na09ay17","null","","","","learningBlock2","","","","<div style=""font-size:60px;""> </div>","null","LF","learning/Slide158.JPG","This is a tob:","",""
"","html-keyboard-response","482","842105","0.0-8.0-0.78","LF","7acm8wjh3r","1280","720","en","na09ay17","null","","","","learningBlock2","","","","This is a dep:","null","","","","",""
"","image-keyboard-response","483","842432","0.0-8.0-1.78","LF","7acm8wjh3r","1280","720","en","na09ay17","null","","","","","","","","learning/Slide159.JPG","null","","","","",""
"","html-keyboard-response","484","843435","0.0-8.0-2.78","LF","7acm8wjh3r","1280","720","en","na09ay17","null","","","","learningBlock2","","","","<div style=""font-size:60px;""> </div>","null","LF","learning/Slide159.JPG","This is a dep:","",""
"","html-keyboard-response","485","844437","0.0-8.0-0.79","LF","7acm8wjh3r","1280","720","en","na09ay17","null","","","","learningBlock2","","","","This is a wug:","null","","","","",""
"","image-keyboard-response","486","844764","0.0-8.0-1.79","LF","7acm8wjh3r","1280","720","en","na09ay17","null","","","","","","","","learning/Slide160.JPG","null","","","","",""
"","html-keyboard-response","487","845766","0.0-8.0-2.79","LF","7acm8wjh3r","1280","720","en","na09ay17","null","","","","learningBlock2","","","","<div style=""font-size:60px;""> </div>","null","LF","learning/Slide160.JPG","This is a wug:","",""
"","resize2","488","849920","0.0-9.0","LF","7acm8wjh3r","1280","720","en","na09ay17","","","","","","","104","1.04","","","","","","",""
"","instructions","489","860343","0.0-10.0","LF","7acm8wjh3r","1280","720","en","na09ay17","NA","","","[{""page_index"":0,""viewing_time"":10419.779999996535}]","instructions","","","","","","","","","",""
