"success","trial_type","trial_index","time_elapsed","internal_node_id","condition","subject","screen_width","screen_height","language","codeword","rt","responses","url","view_history","test_part","final_height_px","final_width_px","scale_factor","stimulus","key_press","learningType","presentedImage","presentedLabel","button_pressed","response"
"true","fullscreen","0","4922","0.0-0.0","LF","nav0ha06h4","1366","768","en","TZ07ER11","","","","","","","","","","","","","","",""
"","survey-html-form","1","13567","0.0-1.0","LF","nav0ha06h4","1366","768","en","TZ07ER11","8641","{""language"":""en""}","","","","","","","","","","","","",""
"","external-html","2","362783","0.0-3.0-0.0","LF","nav0ha06h4","1366","768","en","TZ07ER11","349137","","text/information_english.html","","","","","","","","","","","",""
"","external-html","3","404936","0.0-3.0-1.0","LF","nav0ha06h4","1366","768","en","TZ07ER11","42027","","text/consent_english.html","","","","","","","","","","","",""
"","survey-html-form","4","421230","0.0-3.0-2.0","LF","nav0ha06h4","1366","768","en","TZ07ER11","16292","{""codeword_enter"":""TZ07ER11""}","","","","","","","","","","","","",""
"","instructions","5","436133","0.0-4.0","LF","nav0ha06h4","1366","768","en","TZ07ER11","NA","","","[{""page_index"":0,""viewing_time"":1620},{""page_index"":1,""viewing_time"":11779}]","instructions","","","","","","","","","",""
"","resize","6","505011","0.0-5.0","LF","nav0ha06h4","1366","768","en","TZ07ER11","","","","","","","609","3.8666666666666667","","","","","","",""
"","html-keyboard-response","7","506014","0.0-6.0-0.0","LF","nav0ha06h4","1366","768","en","TZ07ER11","null","","","","learningBlock1","","","","This is a tob:","null","","","","",""
"","image-keyboard-response","8","506343","0.0-6.0-1.0","LF","nav0ha06h4","1366","768","en","TZ07ER11","null","","","","","","","","learning/Slide1.JPG","null","","","","",""
"","html-keyboard-response","9","507346","0.0-6.0-2.0","LF","nav0ha06h4","1366","768","en","TZ07ER11","null","","","","learningBlock1","","","","<div style=""font-size:60px;""> </div>","null","LF","learning/Slide1.JPG","This is a tob:","",""
"","html-keyboard-response","10","508350","0.0-6.0-0.1","LF","nav0ha06h4","1366","768","en","TZ07ER11","null","","","","learningBlock1","","","","This is a wug:","null","","","","",""
"","image-keyboard-response","11","508679","0.0-6.0-1.1","LF","nav0ha06h4","1366","768","en","TZ07ER11","null","","","","","","","","learning/Slide2.JPG","null","","","","",""
"","html-keyboard-response","12","509681","0.0-6.0-2.1","LF","nav0ha06h4","1366","768","en","TZ07ER11","null","","","","learningBlock1","","","","<div style=""font-size:60px;""> </div>","null","LF","learning/Slide2.JPG","This is a wug:","",""
"","html-keyboard-response","13","510684","0.0-6.0-0.2","LF","nav0ha06h4","1366","768","en","TZ07ER11","null","","","","learningBlock1","","","","This is a bim:","null","","","","",""
"","image-keyboard-response","14","511013","0.0-6.0-1.2","LF","nav0ha06h4","1366","768","en","TZ07ER11","null","","","","","","","","learning/Slide3.JPG","null","","","","",""
"","html-keyboard-response","15","512016","0.0-6.0-2.2","LF","nav0ha06h4","1366","768","en","TZ07ER11","null","","","","learningBlock1","","","","<div style=""font-size:60px;""> </div>","null","LF","learning/Slide3.JPG","This is a bim:","",""
"","html-keyboard-response","16","513019","0.0-6.0-0.3","LF","nav0ha06h4","1366","768","en","TZ07ER11","null","","","","learningBlock1","","","","This is a dep:","null","","","","",""
"","image-keyboard-response","17","513348","0.0-6.0-1.3","LF","nav0ha06h4","1366","768","en","TZ07ER11","null","","","","","","","","learning/Slide4.JPG","null","","","","",""
"","html-keyboard-response","18","514350","0.0-6.0-2.3","LF","nav0ha06h4","1366","768","en","TZ07ER11","null","","","","learningBlock1","","","","<div style=""font-size:60px;""> </div>","null","LF","learning/Slide4.JPG","This is a dep:","",""
"","html-keyboard-response","19","515352","0.0-6.0-0.4","LF","nav0ha06h4","1366","768","en","TZ07ER11","null","","","","learningBlock1","","","","This is a wug:","null","","","","",""
"","image-keyboard-response","20","515681","0.0-6.0-1.4","LF","nav0ha06h4","1366","768","en","TZ07ER11","null","","","","","","","","learning/Slide5.JPG","null","","","","",""
"","html-keyboard-response","21","516683","0.0-6.0-2.4","LF","nav0ha06h4","1366","768","en","TZ07ER11","null","","","","learningBlock1","","","","<div style=""font-size:60px;""> </div>","null","LF","learning/Slide5.JPG","This is a wug:","",""
"","html-keyboard-response","22","517687","0.0-6.0-0.5","LF","nav0ha06h4","1366","768","en","TZ07ER11","null","","","","learningBlock1","","","","This is a dep:","null","","","","",""
"","image-keyboard-response","23","518016","0.0-6.0-1.5","LF","nav0ha06h4","1366","768","en","TZ07ER11","null","","","","","","","","learning/Slide6.JPG","null","","","","",""
"","html-keyboard-response","24","519019","0.0-6.0-2.5","LF","nav0ha06h4","1366","768","en","TZ07ER11","null","","","","learningBlock1","","","","<div style=""font-size:60px;""> </div>","null","LF","learning/Slide6.JPG","This is a dep:","",""
"","html-keyboard-response","25","520021","0.0-6.0-0.6","LF","nav0ha06h4","1366","768","en","TZ07ER11","null","","","","learningBlock1","","","","This is a wug:","null","","","","",""
"","image-keyboard-response","26","520350","0.0-6.0-1.6","LF","nav0ha06h4","1366","768","en","TZ07ER11","null","","","","","","","","learning/Slide7.JPG","null","","","","",""
"","html-keyboard-response","27","521352","0.0-6.0-2.6","LF","nav0ha06h4","1366","768","en","TZ07ER11","null","","","","learningBlock1","","","","<div style=""font-size:60px;""> </div>","null","LF","learning/Slide7.JPG","This is a wug:","",""
"","html-keyboard-response","28","522355","0.0-6.0-0.7","LF","nav0ha06h4","1366","768","en","TZ07ER11","null","","","","learningBlock1","","","","This is a bim:","null","","","","",""
"","image-keyboard-response","29","522684","0.0-6.0-1.7","LF","nav0ha06h4","1366","768","en","TZ07ER11","null","","","","","","","","learning/Slide8.JPG","null","","","","",""
"","html-keyboard-response","30","523687","0.0-6.0-2.7","LF","nav0ha06h4","1366","768","en","TZ07ER11","null","","","","learningBlock1","","","","<div style=""font-size:60px;""> </div>","null","LF","learning/Slide8.JPG","This is a bim:","",""
"","html-keyboard-response","31","524690","0.0-6.0-0.8","LF","nav0ha06h4","1366","768","en","TZ07ER11","null","","","","learningBlock1","","","","This is a wug:","null","","","","",""
"","image-keyboard-response","32","525019","0.0-6.0-1.8","LF","nav0ha06h4","1366","768","en","TZ07ER11","null","","","","","","","","learning/Slide9.JPG","null","","","","",""
"","html-keyboard-response","33","526022","0.0-6.0-2.8","LF","nav0ha06h4","1366","768","en","TZ07ER11","null","","","","learningBlock1","","","","<div style=""font-size:60px;""> </div>","null","LF","learning/Slide9.JPG","This is a wug:","",""
"","html-keyboard-response","34","527025","0.0-6.0-0.9","LF","nav0ha06h4","1366","768","en","TZ07ER11","null","","","","learningBlock1","","","","This is a dep:","null","","","","",""
"","image-keyboard-response","35","527354","0.0-6.0-1.9","LF","nav0ha06h4","1366","768","en","TZ07ER11","null","","","","","","","","learning/Slide10.JPG","null","","","","",""
"","html-keyboard-response","36","528358","0.0-6.0-2.9","LF","nav0ha06h4","1366","768","en","TZ07ER11","null","","","","learningBlock1","","","","<div style=""font-size:60px;""> </div>","null","LF","learning/Slide10.JPG","This is a dep:","",""
"","html-keyboard-response","37","529360","0.0-6.0-0.10","LF","nav0ha06h4","1366","768","en","TZ07ER11","null","","","","learningBlock1","","","","This is a tob:","null","","","","",""
"","image-keyboard-response","38","529689","0.0-6.0-1.10","LF","nav0ha06h4","1366","768","en","TZ07ER11","null","","","","","","","","learning/Slide11.JPG","null","","","","",""
"","html-keyboard-response","39","530692","0.0-6.0-2.10","LF","nav0ha06h4","1366","768","en","TZ07ER11","null","","","","learningBlock1","","","","<div style=""font-size:60px;""> </div>","null","LF","learning/Slide11.JPG","This is a tob:","",""
"","html-keyboard-response","40","531695","0.0-6.0-0.11","LF","nav0ha06h4","1366","768","en","TZ07ER11","null","","","","learningBlock1","","","","This is a dep:","null","","","","",""
"","image-keyboard-response","41","532024","0.0-6.0-1.11","LF","nav0ha06h4","1366","768","en","TZ07ER11","null","","","","","","","","learning/Slide12.JPG","null","","","","",""
"","html-keyboard-response","42","533027","0.0-6.0-2.11","LF","nav0ha06h4","1366","768","en","TZ07ER11","null","","","","learningBlock1","","","","<div style=""font-size:60px;""> </div>","null","LF","learning/Slide12.JPG","This is a dep:","",""
"","html-keyboard-response","43","534029","0.0-6.0-0.12","LF","nav0ha06h4","1366","768","en","TZ07ER11","null","","","","learningBlock1","","","","This is a bim:","null","","","","",""
"","image-keyboard-response","44","534359","0.0-6.0-1.12","LF","nav0ha06h4","1366","768","en","TZ07ER11","null","","","","","","","","learning/Slide13.JPG","null","","","","",""
"","html-keyboard-response","45","535361","0.0-6.0-2.12","LF","nav0ha06h4","1366","768","en","TZ07ER11","null","","","","learningBlock1","","","","<div style=""font-size:60px;""> </div>","null","LF","learning/Slide13.JPG","This is a bim:","",""
"","html-keyboard-response","46","536364","0.0-6.0-0.13","LF","nav0ha06h4","1366","768","en","TZ07ER11","null","","","","learningBlock1","","","","This is a wug:","null","","","","",""
"","image-keyboard-response","47","536693","0.0-6.0-1.13","LF","nav0ha06h4","1366","768","en","TZ07ER11","null","","","","","","","","learning/Slide14.JPG","null","","","","",""
"","html-keyboard-response","48","537696","0.0-6.0-2.13","LF","nav0ha06h4","1366","768","en","TZ07ER11","null","","","","learningBlock1","","","","<div style=""font-size:60px;""> </div>","null","LF","learning/Slide14.JPG","This is a wug:","",""
"","html-keyboard-response","49","538699","0.0-6.0-0.14","LF","nav0ha06h4","1366","768","en","TZ07ER11","null","","","","learningBlock1","","","","This is a tob:","null","","","","",""
"","image-keyboard-response","50","539027","0.0-6.0-1.14","LF","nav0ha06h4","1366","768","en","TZ07ER11","null","","","","","","","","learning/Slide15.JPG","null","","","","",""
"","html-keyboard-response","51","540030","0.0-6.0-2.14","LF","nav0ha06h4","1366","768","en","TZ07ER11","null","","","","learningBlock1","","","","<div style=""font-size:60px;""> </div>","null","LF","learning/Slide15.JPG","This is a tob:","",""
"","html-keyboard-response","52","541034","0.0-6.0-0.15","LF","nav0ha06h4","1366","768","en","TZ07ER11","null","","","","learningBlock1","","","","This is a dep:","null","","","","",""
"","image-keyboard-response","53","541363","0.0-6.0-1.15","LF","nav0ha06h4","1366","768","en","TZ07ER11","null","","","","","","","","learning/Slide16.JPG","null","","","","",""
"","html-keyboard-response","54","542366","0.0-6.0-2.15","LF","nav0ha06h4","1366","768","en","TZ07ER11","null","","","","learningBlock1","","","","<div style=""font-size:60px;""> </div>","null","LF","learning/Slide16.JPG","This is a dep:","",""
"","html-keyboard-response","55","543368","0.0-6.0-0.16","LF","nav0ha06h4","1366","768","en","TZ07ER11","null","","","","learningBlock1","","","","This is a bim:","null","","","","",""
"","image-keyboard-response","56","543697","0.0-6.0-1.16","LF","nav0ha06h4","1366","768","en","TZ07ER11","null","","","","","","","","learning/Slide17.JPG","null","","","","",""
"","html-keyboard-response","57","544700","0.0-6.0-2.16","LF","nav0ha06h4","1366","768","en","TZ07ER11","null","","","","learningBlock1","","","","<div style=""font-size:60px;""> </div>","null","LF","learning/Slide17.JPG","This is a bim:","",""
"","html-keyboard-response","58","545703","0.0-6.0-0.17","LF","nav0ha06h4","1366","768","en","TZ07ER11","null","","","","learningBlock1","","","","This is a tob:","null","","","","",""
"","image-keyboard-response","59","546032","0.0-6.0-1.17","LF","nav0ha06h4","1366","768","en","TZ07ER11","null","","","","","","","","learning/Slide18.JPG","null","","","","",""
"","html-keyboard-response","60","547035","0.0-6.0-2.17","LF","nav0ha06h4","1366","768","en","TZ07ER11","null","","","","learningBlock1","","","","<div style=""font-size:60px;""> </div>","null","LF","learning/Slide18.JPG","This is a tob:","",""
"","html-keyboard-response","61","548039","0.0-6.0-0.18","LF","nav0ha06h4","1366","768","en","TZ07ER11","null","","","","learningBlock1","","","","This is a wug:","null","","","","",""
"","image-keyboard-response","62","548368","0.0-6.0-1.18","LF","nav0ha06h4","1366","768","en","TZ07ER11","null","","","","","","","","learning/Slide19.JPG","null","","","","",""
"","html-keyboard-response","63","549370","0.0-6.0-2.18","LF","nav0ha06h4","1366","768","en","TZ07ER11","null","","","","learningBlock1","","","","<div style=""font-size:60px;""> </div>","null","LF","learning/Slide19.JPG","This is a wug:","",""
"","html-keyboard-response","64","550373","0.0-6.0-0.19","LF","nav0ha06h4","1366","768","en","TZ07ER11","null","","","","learningBlock1","","","","This is a bim:","null","","","","",""
"","image-keyboard-response","65","550702","0.0-6.0-1.19","LF","nav0ha06h4","1366","768","en","TZ07ER11","null","","","","","","","","learning/Slide20.JPG","null","","","","",""
"","html-keyboard-response","66","551704","0.0-6.0-2.19","LF","nav0ha06h4","1366","768","en","TZ07ER11","null","","","","learningBlock1","","","","<div style=""font-size:60px;""> </div>","null","LF","learning/Slide20.JPG","This is a bim:","",""
"","html-keyboard-response","67","552707","0.0-6.0-0.20","LF","nav0ha06h4","1366","768","en","TZ07ER11","null","","","","learningBlock1","","","","This is a dep:","null","","","","",""
"","image-keyboard-response","68","553036","0.0-6.0-1.20","LF","nav0ha06h4","1366","768","en","TZ07ER11","null","","","","","","","","learning/Slide21.JPG","null","","","","",""
"","html-keyboard-response","69","554039","0.0-6.0-2.20","LF","nav0ha06h4","1366","768","en","TZ07ER11","null","","","","learningBlock1","","","","<div style=""font-size:60px;""> </div>","null","LF","learning/Slide21.JPG","This is a dep:","",""
"","html-keyboard-response","70","555042","0.0-6.0-0.21","LF","nav0ha06h4","1366","768","en","TZ07ER11","null","","","","learningBlock1","","","","This is a bim:","null","","","","",""
"","image-keyboard-response","71","555371","0.0-6.0-1.21","LF","nav0ha06h4","1366","768","en","TZ07ER11","null","","","","","","","","learning/Slide22.JPG","null","","","","",""
"","html-keyboard-response","72","556373","0.0-6.0-2.21","LF","nav0ha06h4","1366","768","en","TZ07ER11","null","","","","learningBlock1","","","","<div style=""font-size:60px;""> </div>","null","LF","learning/Slide22.JPG","This is a bim:","",""
"","html-keyboard-response","73","557376","0.0-6.0-0.22","LF","nav0ha06h4","1366","768","en","TZ07ER11","null","","","","learningBlock1","","","","This is a tob:","null","","","","",""
"","image-keyboard-response","74","557704","0.0-6.0-1.22","LF","nav0ha06h4","1366","768","en","TZ07ER11","null","","","","","","","","learning/Slide23.JPG","null","","","","",""
"","html-keyboard-response","75","558707","0.0-6.0-2.22","LF","nav0ha06h4","1366","768","en","TZ07ER11","null","","","","learningBlock1","","","","<div style=""font-size:60px;""> </div>","null","LF","learning/Slide23.JPG","This is a tob:","",""
"","html-keyboard-response","76","559710","0.0-6.0-0.23","LF","nav0ha06h4","1366","768","en","TZ07ER11","null","","","","learningBlock1","","","","This is a wug:","null","","","","",""
"","image-keyboard-response","77","560039","0.0-6.0-1.23","LF","nav0ha06h4","1366","768","en","TZ07ER11","null","","","","","","","","learning/Slide24.JPG","null","","","","",""
"","html-keyboard-response","78","561042","0.0-6.0-2.23","LF","nav0ha06h4","1366","768","en","TZ07ER11","null","","","","learningBlock1","","","","<div style=""font-size:60px;""> </div>","null","LF","learning/Slide24.JPG","This is a wug:","",""
"","html-keyboard-response","79","562045","0.0-6.0-0.24","LF","nav0ha06h4","1366","768","en","TZ07ER11","null","","","","learningBlock1","","","","This is a dep:","null","","","","",""
"","image-keyboard-response","80","562374","0.0-6.0-1.24","LF","nav0ha06h4","1366","768","en","TZ07ER11","null","","","","","","","","learning/Slide25.JPG","null","","","","",""
"","html-keyboard-response","81","563377","0.0-6.0-2.24","LF","nav0ha06h4","1366","768","en","TZ07ER11","null","","","","learningBlock1","","","","<div style=""font-size:60px;""> </div>","null","LF","learning/Slide25.JPG","This is a dep:","",""
"","html-keyboard-response","82","564380","0.0-6.0-0.25","LF","nav0ha06h4","1366","768","en","TZ07ER11","null","","","","learningBlock1","","","","This is a wug:","null","","","","",""
"","image-keyboard-response","83","564709","0.0-6.0-1.25","LF","nav0ha06h4","1366","768","en","TZ07ER11","null","","","","","","","","learning/Slide26.JPG","null","","","","",""
"","html-keyboard-response","84","565712","0.0-6.0-2.25","LF","nav0ha06h4","1366","768","en","TZ07ER11","null","","","","learningBlock1","","","","<div style=""font-size:60px;""> </div>","null","LF","learning/Slide26.JPG","This is a wug:","",""
"","html-keyboard-response","85","566714","0.0-6.0-0.26","LF","nav0ha06h4","1366","768","en","TZ07ER11","null","","","","learningBlock1","","","","This is a bim:","null","","","","",""
"","image-keyboard-response","86","567043","0.0-6.0-1.26","LF","nav0ha06h4","1366","768","en","TZ07ER11","null","","","","","","","","learning/Slide27.JPG","null","","","","",""
"","html-keyboard-response","87","568046","0.0-6.0-2.26","LF","nav0ha06h4","1366","768","en","TZ07ER11","null","","","","learningBlock1","","","","<div style=""font-size:60px;""> </div>","null","LF","learning/Slide27.JPG","This is a bim:","",""
"","html-keyboard-response","88","569049","0.0-6.0-0.27","LF","nav0ha06h4","1366","768","en","TZ07ER11","null","","","","learningBlock1","","","","This is a dep:","null","","","","",""
"","image-keyboard-response","89","569378","0.0-6.0-1.27","LF","nav0ha06h4","1366","768","en","TZ07ER11","null","","","","","","","","learning/Slide28.JPG","null","","","","",""
"","html-keyboard-response","90","570381","0.0-6.0-2.27","LF","nav0ha06h4","1366","768","en","TZ07ER11","null","","","","learningBlock1","","","","<div style=""font-size:60px;""> </div>","null","LF","learning/Slide28.JPG","This is a dep:","",""
"","html-keyboard-response","91","571384","0.0-6.0-0.28","LF","nav0ha06h4","1366","768","en","TZ07ER11","null","","","","learningBlock1","","","","This is a tob:","null","","","","",""
"","image-keyboard-response","92","571713","0.0-6.0-1.28","LF","nav0ha06h4","1366","768","en","TZ07ER11","null","","","","","","","","learning/Slide29.JPG","null","","","","",""
"","html-keyboard-response","93","572716","0.0-6.0-2.28","LF","nav0ha06h4","1366","768","en","TZ07ER11","null","","","","learningBlock1","","","","<div style=""font-size:60px;""> </div>","null","LF","learning/Slide29.JPG","This is a tob:","",""
"","html-keyboard-response","94","573719","0.0-6.0-0.29","LF","nav0ha06h4","1366","768","en","TZ07ER11","null","","","","learningBlock1","","","","This is a dep:","null","","","","",""
"","image-keyboard-response","95","574048","0.0-6.0-1.29","LF","nav0ha06h4","1366","768","en","TZ07ER11","null","","","","","","","","learning/Slide30.JPG","null","","","","",""
"","html-keyboard-response","96","575051","0.0-6.0-2.29","LF","nav0ha06h4","1366","768","en","TZ07ER11","null","","","","learningBlock1","","","","<div style=""font-size:60px;""> </div>","null","LF","learning/Slide30.JPG","This is a dep:","",""
"","html-keyboard-response","97","576053","0.0-6.0-0.30","LF","nav0ha06h4","1366","768","en","TZ07ER11","null","","","","learningBlock1","","","","This is a wug:","null","","","","",""
"","image-keyboard-response","98","576382","0.0-6.0-1.30","LF","nav0ha06h4","1366","768","en","TZ07ER11","null","","","","","","","","learning/Slide31.JPG","null","","","","",""
"","html-keyboard-response","99","577384","0.0-6.0-2.30","LF","nav0ha06h4","1366","768","en","TZ07ER11","null","","","","learningBlock1","","","","<div style=""font-size:60px;""> </div>","null","LF","learning/Slide31.JPG","This is a wug:","",""
"","html-keyboard-response","100","578387","0.0-6.0-0.31","LF","nav0ha06h4","1366","768","en","TZ07ER11","null","","","","learningBlock1","","","","This is a tob:","null","","","","",""
"","image-keyboard-response","101","578716","0.0-6.0-1.31","LF","nav0ha06h4","1366","768","en","TZ07ER11","null","","","","","","","","learning/Slide32.JPG","null","","","","",""
"","html-keyboard-response","102","579719","0.0-6.0-2.31","LF","nav0ha06h4","1366","768","en","TZ07ER11","null","","","","learningBlock1","","","","<div style=""font-size:60px;""> </div>","null","LF","learning/Slide32.JPG","This is a tob:","",""
"","html-keyboard-response","103","580722","0.0-6.0-0.32","LF","nav0ha06h4","1366","768","en","TZ07ER11","null","","","","learningBlock1","","","","This is a bim:","null","","","","",""
"","image-keyboard-response","104","581050","0.0-6.0-1.32","LF","nav0ha06h4","1366","768","en","TZ07ER11","null","","","","","","","","learning/Slide33.JPG","null","","","","",""
"","html-keyboard-response","105","582053","0.0-6.0-2.32","LF","nav0ha06h4","1366","768","en","TZ07ER11","null","","","","learningBlock1","","","","<div style=""font-size:60px;""> </div>","null","LF","learning/Slide33.JPG","This is a bim:","",""
"","html-keyboard-response","106","583055","0.0-6.0-0.33","LF","nav0ha06h4","1366","768","en","TZ07ER11","null","","","","learningBlock1","","","","This is a tob:","null","","","","",""
"","image-keyboard-response","107","583384","0.0-6.0-1.33","LF","nav0ha06h4","1366","768","en","TZ07ER11","null","","","","","","","","learning/Slide34.JPG","null","","","","",""
"","html-keyboard-response","108","584387","0.0-6.0-2.33","LF","nav0ha06h4","1366","768","en","TZ07ER11","null","","","","learningBlock1","","","","<div style=""font-size:60px;""> </div>","null","LF","learning/Slide34.JPG","This is a tob:","",""
"","html-keyboard-response","109","585390","0.0-6.0-0.34","LF","nav0ha06h4","1366","768","en","TZ07ER11","null","","","","learningBlock1","","","","This is a bim:","null","","","","",""
"","image-keyboard-response","110","585719","0.0-6.0-1.34","LF","nav0ha06h4","1366","768","en","TZ07ER11","null","","","","","","","","learning/Slide35.JPG","null","","","","",""
"","html-keyboard-response","111","586721","0.0-6.0-2.34","LF","nav0ha06h4","1366","768","en","TZ07ER11","null","","","","learningBlock1","","","","<div style=""font-size:60px;""> </div>","null","LF","learning/Slide35.JPG","This is a bim:","",""
"","html-keyboard-response","112","587724","0.0-6.0-0.35","LF","nav0ha06h4","1366","768","en","TZ07ER11","null","","","","learningBlock1","","","","This is a dep:","null","","","","",""
"","image-keyboard-response","113","588053","0.0-6.0-1.35","LF","nav0ha06h4","1366","768","en","TZ07ER11","null","","","","","","","","learning/Slide36.JPG","null","","","","",""
"","html-keyboard-response","114","589056","0.0-6.0-2.35","LF","nav0ha06h4","1366","768","en","TZ07ER11","null","","","","learningBlock1","","","","<div style=""font-size:60px;""> </div>","null","LF","learning/Slide36.JPG","This is a dep:","",""
"","html-keyboard-response","115","590058","0.0-6.0-0.36","LF","nav0ha06h4","1366","768","en","TZ07ER11","null","","","","learningBlock1","","","","This is a tob:","null","","","","",""
"","image-keyboard-response","116","590387","0.0-6.0-1.36","LF","nav0ha06h4","1366","768","en","TZ07ER11","null","","","","","","","","learning/Slide37.JPG","null","","","","",""
"","html-keyboard-response","117","591390","0.0-6.0-2.36","LF","nav0ha06h4","1366","768","en","TZ07ER11","null","","","","learningBlock1","","","","<div style=""font-size:60px;""> </div>","null","LF","learning/Slide37.JPG","This is a tob:","",""
"","html-keyboard-response","118","592392","0.0-6.0-0.37","LF","nav0ha06h4","1366","768","en","TZ07ER11","null","","","","learningBlock1","","","","This is a wug:","null","","","","",""
"","image-keyboard-response","119","592721","0.0-6.0-1.37","LF","nav0ha06h4","1366","768","en","TZ07ER11","null","","","","","","","","learning/Slide38.JPG","null","","","","",""
"","html-keyboard-response","120","593724","0.0-6.0-2.37","LF","nav0ha06h4","1366","768","en","TZ07ER11","null","","","","learningBlock1","","","","<div style=""font-size:60px;""> </div>","null","LF","learning/Slide38.JPG","This is a wug:","",""
"","html-keyboard-response","121","594727","0.0-6.0-0.38","LF","nav0ha06h4","1366","768","en","TZ07ER11","null","","","","learningBlock1","","","","This is a bim:","null","","","","",""
"","image-keyboard-response","122","595055","0.0-6.0-1.38","LF","nav0ha06h4","1366","768","en","TZ07ER11","null","","","","","","","","learning/Slide39.JPG","null","","","","",""
"","html-keyboard-response","123","596058","0.0-6.0-2.38","LF","nav0ha06h4","1366","768","en","TZ07ER11","null","","","","learningBlock1","","","","<div style=""font-size:60px;""> </div>","null","LF","learning/Slide39.JPG","This is a bim:","",""
"","html-keyboard-response","124","597061","0.0-6.0-0.39","LF","nav0ha06h4","1366","768","en","TZ07ER11","null","","","","learningBlock1","","","","This is a tob:","null","","","","",""
"","image-keyboard-response","125","597389","0.0-6.0-1.39","LF","nav0ha06h4","1366","768","en","TZ07ER11","null","","","","","","","","learning/Slide40.JPG","null","","","","",""
"","html-keyboard-response","126","598392","0.0-6.0-2.39","LF","nav0ha06h4","1366","768","en","TZ07ER11","null","","","","learningBlock1","","","","<div style=""font-size:60px;""> </div>","null","LF","learning/Slide40.JPG","This is a tob:","",""
"","html-keyboard-response","127","599395","0.0-6.0-0.40","LF","nav0ha06h4","1366","768","en","TZ07ER11","null","","","","learningBlock1","","","","This is a bim:","null","","","","",""
"","image-keyboard-response","128","599724","0.0-6.0-1.40","LF","nav0ha06h4","1366","768","en","TZ07ER11","null","","","","","","","","learning/Slide41.JPG","null","","","","",""
"","html-keyboard-response","129","600727","0.0-6.0-2.40","LF","nav0ha06h4","1366","768","en","TZ07ER11","null","","","","learningBlock1","","","","<div style=""font-size:60px;""> </div>","null","LF","learning/Slide41.JPG","This is a bim:","",""
"","html-keyboard-response","130","601730","0.0-6.0-0.41","LF","nav0ha06h4","1366","768","en","TZ07ER11","null","","","","learningBlock1","","","","This is a dep:","null","","","","",""
"","image-keyboard-response","131","602058","0.0-6.0-1.41","LF","nav0ha06h4","1366","768","en","TZ07ER11","null","","","","","","","","learning/Slide42.JPG","null","","","","",""
"","html-keyboard-response","132","603061","0.0-6.0-2.41","LF","nav0ha06h4","1366","768","en","TZ07ER11","null","","","","learningBlock1","","","","<div style=""font-size:60px;""> </div>","null","LF","learning/Slide42.JPG","This is a dep:","",""
"","html-keyboard-response","133","604064","0.0-6.0-0.42","LF","nav0ha06h4","1366","768","en","TZ07ER11","null","","","","learningBlock1","","","","This is a wug:","null","","","","",""
"","image-keyboard-response","134","604393","0.0-6.0-1.42","LF","nav0ha06h4","1366","768","en","TZ07ER11","null","","","","","","","","learning/Slide43.JPG","null","","","","",""
"","html-keyboard-response","135","605395","0.0-6.0-2.42","LF","nav0ha06h4","1366","768","en","TZ07ER11","null","","","","learningBlock1","","","","<div style=""font-size:60px;""> </div>","null","LF","learning/Slide43.JPG","This is a wug:","",""
"","html-keyboard-response","136","606398","0.0-6.0-0.43","LF","nav0ha06h4","1366","768","en","TZ07ER11","null","","","","learningBlock1","","","","This is a bim:","null","","","","",""
"","image-keyboard-response","137","606727","0.0-6.0-1.43","LF","nav0ha06h4","1366","768","en","TZ07ER11","null","","","","","","","","learning/Slide44.JPG","null","","","","",""
"","html-keyboard-response","138","607729","0.0-6.0-2.43","LF","nav0ha06h4","1366","768","en","TZ07ER11","null","","","","learningBlock1","","","","<div style=""font-size:60px;""> </div>","null","LF","learning/Slide44.JPG","This is a bim:","",""
"","html-keyboard-response","139","608732","0.0-6.0-0.44","LF","nav0ha06h4","1366","768","en","TZ07ER11","null","","","","learningBlock1","","","","This is a wug:","null","","","","",""
"","image-keyboard-response","140","609061","0.0-6.0-1.44","LF","nav0ha06h4","1366","768","en","TZ07ER11","null","","","","","","","","learning/Slide45.JPG","null","","","","",""
"","html-keyboard-response","141","610064","0.0-6.0-2.44","LF","nav0ha06h4","1366","768","en","TZ07ER11","null","","","","learningBlock1","","","","<div style=""font-size:60px;""> </div>","null","LF","learning/Slide45.JPG","This is a wug:","",""
"","html-keyboard-response","142","611067","0.0-6.0-0.45","LF","nav0ha06h4","1366","768","en","TZ07ER11","null","","","","learningBlock1","","","","This is a dep:","null","","","","",""
"","image-keyboard-response","143","611396","0.0-6.0-1.45","LF","nav0ha06h4","1366","768","en","TZ07ER11","null","","","","","","","","learning/Slide46.JPG","null","","","","",""
"","html-keyboard-response","144","612399","0.0-6.0-2.45","LF","nav0ha06h4","1366","768","en","TZ07ER11","null","","","","learningBlock1","","","","<div style=""font-size:60px;""> </div>","null","LF","learning/Slide46.JPG","This is a dep:","",""
"","html-keyboard-response","145","613401","0.0-6.0-0.46","LF","nav0ha06h4","1366","768","en","TZ07ER11","null","","","","learningBlock1","","","","This is a tob:","null","","","","",""
"","image-keyboard-response","146","613730","0.0-6.0-1.46","LF","nav0ha06h4","1366","768","en","TZ07ER11","null","","","","","","","","learning/Slide47.JPG","null","","","","",""
"","html-keyboard-response","147","614733","0.0-6.0-2.46","LF","nav0ha06h4","1366","768","en","TZ07ER11","null","","","","learningBlock1","","","","<div style=""font-size:60px;""> </div>","null","LF","learning/Slide47.JPG","This is a tob:","",""
"","html-keyboard-response","148","615734","0.0-6.0-0.47","LF","nav0ha06h4","1366","768","en","TZ07ER11","null","","","","learningBlock1","","","","This is a bim:","null","","","","",""
"","image-keyboard-response","149","616063","0.0-6.0-1.47","LF","nav0ha06h4","1366","768","en","TZ07ER11","null","","","","","","","","learning/Slide48.JPG","null","","","","",""
"","html-keyboard-response","150","617065","0.0-6.0-2.47","LF","nav0ha06h4","1366","768","en","TZ07ER11","null","","","","learningBlock1","","","","<div style=""font-size:60px;""> </div>","null","LF","learning/Slide48.JPG","This is a bim:","",""
"","html-keyboard-response","151","618067","0.0-6.0-0.48","LF","nav0ha06h4","1366","768","en","TZ07ER11","null","","","","learningBlock1","","","","This is a dep:","null","","","","",""
"","image-keyboard-response","152","618395","0.0-6.0-1.48","LF","nav0ha06h4","1366","768","en","TZ07ER11","null","","","","","","","","learning/Slide49.JPG","null","","","","",""
"","html-keyboard-response","153","619397","0.0-6.0-2.48","LF","nav0ha06h4","1366","768","en","TZ07ER11","null","","","","learningBlock1","","","","<div style=""font-size:60px;""> </div>","null","LF","learning/Slide49.JPG","This is a dep:","",""
"","html-keyboard-response","154","620399","0.0-6.0-0.49","LF","nav0ha06h4","1366","768","en","TZ07ER11","null","","","","learningBlock1","","","","This is a tob:","null","","","","",""
"","image-keyboard-response","155","620727","0.0-6.0-1.49","LF","nav0ha06h4","1366","768","en","TZ07ER11","null","","","","","","","","learning/Slide50.JPG","null","","","","",""
"","html-keyboard-response","156","621728","0.0-6.0-2.49","LF","nav0ha06h4","1366","768","en","TZ07ER11","null","","","","learningBlock1","","","","<div style=""font-size:60px;""> </div>","null","LF","learning/Slide50.JPG","This is a tob:","",""
"","html-keyboard-response","157","622730","0.0-6.0-0.50","LF","nav0ha06h4","1366","768","en","TZ07ER11","null","","","","learningBlock1","","","","This is a bim:","null","","","","",""
"","image-keyboard-response","158","623058","0.0-6.0-1.50","LF","nav0ha06h4","1366","768","en","TZ07ER11","null","","","","","","","","learning/Slide51.JPG","null","","","","",""
"","html-keyboard-response","159","624060","0.0-6.0-2.50","LF","nav0ha06h4","1366","768","en","TZ07ER11","null","","","","learningBlock1","","","","<div style=""font-size:60px;""> </div>","null","LF","learning/Slide51.JPG","This is a bim:","",""
"","html-keyboard-response","160","625063","0.0-6.0-0.51","LF","nav0ha06h4","1366","768","en","TZ07ER11","null","","","","learningBlock1","","","","This is a wug:","null","","","","",""
"","image-keyboard-response","161","625391","0.0-6.0-1.51","LF","nav0ha06h4","1366","768","en","TZ07ER11","null","","","","","","","","learning/Slide52.JPG","null","","","","",""
"","html-keyboard-response","162","626393","0.0-6.0-2.51","LF","nav0ha06h4","1366","768","en","TZ07ER11","null","","","","learningBlock1","","","","<div style=""font-size:60px;""> </div>","null","LF","learning/Slide52.JPG","This is a wug:","",""
"","html-keyboard-response","163","627395","0.0-6.0-0.52","LF","nav0ha06h4","1366","768","en","TZ07ER11","null","","","","learningBlock1","","","","This is a tob:","null","","","","",""
"","image-keyboard-response","164","627724","0.0-6.0-1.52","LF","nav0ha06h4","1366","768","en","TZ07ER11","null","","","","","","","","learning/Slide53.JPG","null","","","","",""
"","html-keyboard-response","165","628726","0.0-6.0-2.52","LF","nav0ha06h4","1366","768","en","TZ07ER11","null","","","","learningBlock1","","","","<div style=""font-size:60px;""> </div>","null","LF","learning/Slide53.JPG","This is a tob:","",""
"","html-keyboard-response","166","629728","0.0-6.0-0.53","LF","nav0ha06h4","1366","768","en","TZ07ER11","null","","","","learningBlock1","","","","This is a dep:","null","","","","",""
"","image-keyboard-response","167","630057","0.0-6.0-1.53","LF","nav0ha06h4","1366","768","en","TZ07ER11","null","","","","","","","","learning/Slide54.JPG","null","","","","",""
"","html-keyboard-response","168","631059","0.0-6.0-2.53","LF","nav0ha06h4","1366","768","en","TZ07ER11","null","","","","learningBlock1","","","","<div style=""font-size:60px;""> </div>","null","LF","learning/Slide54.JPG","This is a dep:","",""
"","html-keyboard-response","169","632061","0.0-6.0-0.54","LF","nav0ha06h4","1366","768","en","TZ07ER11","null","","","","learningBlock1","","","","This is a bim:","null","","","","",""
"","image-keyboard-response","170","632390","0.0-6.0-1.54","LF","nav0ha06h4","1366","768","en","TZ07ER11","null","","","","","","","","learning/Slide55.JPG","null","","","","",""
"","html-keyboard-response","171","633391","0.0-6.0-2.54","LF","nav0ha06h4","1366","768","en","TZ07ER11","null","","","","learningBlock1","","","","<div style=""font-size:60px;""> </div>","null","LF","learning/Slide55.JPG","This is a bim:","",""
"","html-keyboard-response","172","634394","0.0-6.0-0.55","LF","nav0ha06h4","1366","768","en","TZ07ER11","null","","","","learningBlock1","","","","This is a tob:","null","","","","",""
"","image-keyboard-response","173","634722","0.0-6.0-1.55","LF","nav0ha06h4","1366","768","en","TZ07ER11","null","","","","","","","","learning/Slide56.JPG","null","","","","",""
"","html-keyboard-response","174","635725","0.0-6.0-2.55","LF","nav0ha06h4","1366","768","en","TZ07ER11","null","","","","learningBlock1","","","","<div style=""font-size:60px;""> </div>","null","LF","learning/Slide56.JPG","This is a tob:","",""
"","html-keyboard-response","175","636727","0.0-6.0-0.56","LF","nav0ha06h4","1366","768","en","TZ07ER11","null","","","","learningBlock1","","","","This is a dep:","null","","","","",""
"","image-keyboard-response","176","637056","0.0-6.0-1.56","LF","nav0ha06h4","1366","768","en","TZ07ER11","null","","","","","","","","learning/Slide57.JPG","null","","","","",""
"","html-keyboard-response","177","638058","0.0-6.0-2.56","LF","nav0ha06h4","1366","768","en","TZ07ER11","null","","","","learningBlock1","","","","<div style=""font-size:60px;""> </div>","null","LF","learning/Slide57.JPG","This is a dep:","",""
"","html-keyboard-response","178","639061","0.0-6.0-0.57","LF","nav0ha06h4","1366","768","en","TZ07ER11","null","","","","learningBlock1","","","","This is a wug:","null","","","","",""
"","image-keyboard-response","179","639389","0.0-6.0-1.57","LF","nav0ha06h4","1366","768","en","TZ07ER11","null","","","","","","","","learning/Slide58.JPG","null","","","","",""
"","html-keyboard-response","180","640392","0.0-6.0-2.57","LF","nav0ha06h4","1366","768","en","TZ07ER11","null","","","","learningBlock1","","","","<div style=""font-size:60px;""> </div>","null","LF","learning/Slide58.JPG","This is a wug:","",""
"","html-keyboard-response","181","641394","0.0-6.0-0.58","LF","nav0ha06h4","1366","768","en","TZ07ER11","null","","","","learningBlock1","","","","This is a dep:","null","","","","",""
"","image-keyboard-response","182","641723","0.0-6.0-1.58","LF","nav0ha06h4","1366","768","en","TZ07ER11","null","","","","","","","","learning/Slide59.JPG","null","","","","",""
"","html-keyboard-response","183","642725","0.0-6.0-2.58","LF","nav0ha06h4","1366","768","en","TZ07ER11","null","","","","learningBlock1","","","","<div style=""font-size:60px;""> </div>","null","LF","learning/Slide59.JPG","This is a dep:","",""
"","html-keyboard-response","184","643728","0.0-6.0-0.59","LF","nav0ha06h4","1366","768","en","TZ07ER11","null","","","","learningBlock1","","","","This is a wug:","null","","","","",""
"","image-keyboard-response","185","644057","0.0-6.0-1.59","LF","nav0ha06h4","1366","768","en","TZ07ER11","null","","","","","","","","learning/Slide60.JPG","null","","","","",""
"","html-keyboard-response","186","645059","0.0-6.0-2.59","LF","nav0ha06h4","1366","768","en","TZ07ER11","null","","","","learningBlock1","","","","<div style=""font-size:60px;""> </div>","null","LF","learning/Slide60.JPG","This is a wug:","",""
"","html-keyboard-response","187","646062","0.0-6.0-0.60","LF","nav0ha06h4","1366","768","en","TZ07ER11","null","","","","learningBlock1","","","","This is a bim:","null","","","","",""
"","image-keyboard-response","188","646390","0.0-6.0-1.60","LF","nav0ha06h4","1366","768","en","TZ07ER11","null","","","","","","","","learning/Slide61.JPG","null","","","","",""
"","html-keyboard-response","189","647393","0.0-6.0-2.60","LF","nav0ha06h4","1366","768","en","TZ07ER11","null","","","","learningBlock1","","","","<div style=""font-size:60px;""> </div>","null","LF","learning/Slide61.JPG","This is a bim:","",""
"","html-keyboard-response","190","648396","0.0-6.0-0.61","LF","nav0ha06h4","1366","768","en","TZ07ER11","null","","","","learningBlock1","","","","This is a dep:","null","","","","",""
"","image-keyboard-response","191","648724","0.0-6.0-1.61","LF","nav0ha06h4","1366","768","en","TZ07ER11","null","","","","","","","","learning/Slide62.JPG","null","","","","",""
"","html-keyboard-response","192","649726","0.0-6.0-2.61","LF","nav0ha06h4","1366","768","en","TZ07ER11","null","","","","learningBlock1","","","","<div style=""font-size:60px;""> </div>","null","LF","learning/Slide62.JPG","This is a dep:","",""
"","html-keyboard-response","193","650729","0.0-6.0-0.62","LF","nav0ha06h4","1366","768","en","TZ07ER11","null","","","","learningBlock1","","","","This is a bim:","null","","","","",""
"","image-keyboard-response","194","651057","0.0-6.0-1.62","LF","nav0ha06h4","1366","768","en","TZ07ER11","null","","","","","","","","learning/Slide63.JPG","null","","","","",""
"","html-keyboard-response","195","652060","0.0-6.0-2.62","LF","nav0ha06h4","1366","768","en","TZ07ER11","null","","","","learningBlock1","","","","<div style=""font-size:60px;""> </div>","null","LF","learning/Slide63.JPG","This is a bim:","",""
"","html-keyboard-response","196","653062","0.0-6.0-0.63","LF","nav0ha06h4","1366","768","en","TZ07ER11","null","","","","learningBlock1","","","","This is a tob:","null","","","","",""
"","image-keyboard-response","197","653391","0.0-6.0-1.63","LF","nav0ha06h4","1366","768","en","TZ07ER11","null","","","","","","","","learning/Slide64.JPG","null","","","","",""
"","html-keyboard-response","198","654393","0.0-6.0-2.63","LF","nav0ha06h4","1366","768","en","TZ07ER11","null","","","","learningBlock1","","","","<div style=""font-size:60px;""> </div>","null","LF","learning/Slide64.JPG","This is a tob:","",""
"","html-keyboard-response","199","655396","0.0-6.0-0.64","LF","nav0ha06h4","1366","768","en","TZ07ER11","null","","","","learningBlock1","","","","This is a wug:","null","","","","",""
"","image-keyboard-response","200","655725","0.0-6.0-1.64","LF","nav0ha06h4","1366","768","en","TZ07ER11","null","","","","","","","","learning/Slide65.JPG","null","","","","",""
"","html-keyboard-response","201","656727","0.0-6.0-2.64","LF","nav0ha06h4","1366","768","en","TZ07ER11","null","","","","learningBlock1","","","","<div style=""font-size:60px;""> </div>","null","LF","learning/Slide65.JPG","This is a wug:","",""
"","html-keyboard-response","202","657730","0.0-6.0-0.65","LF","nav0ha06h4","1366","768","en","TZ07ER11","null","","","","learningBlock1","","","","This is a dep:","null","","","","",""
"","image-keyboard-response","203","658059","0.0-6.0-1.65","LF","nav0ha06h4","1366","768","en","TZ07ER11","null","","","","","","","","learning/Slide66.JPG","null","","","","",""
"","html-keyboard-response","204","659062","0.0-6.0-2.65","LF","nav0ha06h4","1366","768","en","TZ07ER11","null","","","","learningBlock1","","","","<div style=""font-size:60px;""> </div>","null","LF","learning/Slide66.JPG","This is a dep:","",""
"","html-keyboard-response","205","660064","0.0-6.0-0.66","LF","nav0ha06h4","1366","768","en","TZ07ER11","null","","","","learningBlock1","","","","This is a tob:","null","","","","",""
"","image-keyboard-response","206","660393","0.0-6.0-1.66","LF","nav0ha06h4","1366","768","en","TZ07ER11","null","","","","","","","","learning/Slide67.JPG","null","","","","",""
"","html-keyboard-response","207","661396","0.0-6.0-2.66","LF","nav0ha06h4","1366","768","en","TZ07ER11","null","","","","learningBlock1","","","","<div style=""font-size:60px;""> </div>","null","LF","learning/Slide67.JPG","This is a tob:","",""
"","html-keyboard-response","208","662398","0.0-6.0-0.67","LF","nav0ha06h4","1366","768","en","TZ07ER11","null","","","","learningBlock1","","","","This is a wug:","null","","","","",""
"","image-keyboard-response","209","662727","0.0-6.0-1.67","LF","nav0ha06h4","1366","768","en","TZ07ER11","null","","","","","","","","learning/Slide68.JPG","null","","","","",""
"","html-keyboard-response","210","663730","0.0-6.0-2.67","LF","nav0ha06h4","1366","768","en","TZ07ER11","null","","","","learningBlock1","","","","<div style=""font-size:60px;""> </div>","null","LF","learning/Slide68.JPG","This is a wug:","",""
"","html-keyboard-response","211","664733","0.0-6.0-0.68","LF","nav0ha06h4","1366","768","en","TZ07ER11","null","","","","learningBlock1","","","","This is a tob:","null","","","","",""
"","image-keyboard-response","212","665061","0.0-6.0-1.68","LF","nav0ha06h4","1366","768","en","TZ07ER11","null","","","","","","","","learning/Slide69.JPG","null","","","","",""
"","html-keyboard-response","213","666063","0.0-6.0-2.68","LF","nav0ha06h4","1366","768","en","TZ07ER11","null","","","","learningBlock1","","","","<div style=""font-size:60px;""> </div>","null","LF","learning/Slide69.JPG","This is a tob:","",""
"","html-keyboard-response","214","667066","0.0-6.0-0.69","LF","nav0ha06h4","1366","768","en","TZ07ER11","null","","","","learningBlock1","","","","This is a dep:","null","","","","",""
"","image-keyboard-response","215","667395","0.0-6.0-1.69","LF","nav0ha06h4","1366","768","en","TZ07ER11","null","","","","","","","","learning/Slide70.JPG","null","","","","",""
"","html-keyboard-response","216","668397","0.0-6.0-2.69","LF","nav0ha06h4","1366","768","en","TZ07ER11","null","","","","learningBlock1","","","","<div style=""font-size:60px;""> </div>","null","LF","learning/Slide70.JPG","This is a dep:","",""
"","html-keyboard-response","217","669400","0.0-6.0-0.70","LF","nav0ha06h4","1366","768","en","TZ07ER11","null","","","","learningBlock1","","","","This is a wug:","null","","","","",""
"","image-keyboard-response","218","669729","0.0-6.0-1.70","LF","nav0ha06h4","1366","768","en","TZ07ER11","null","","","","","","","","learning/Slide71.JPG","null","","","","",""
"","html-keyboard-response","219","670731","0.0-6.0-2.70","LF","nav0ha06h4","1366","768","en","TZ07ER11","null","","","","learningBlock1","","","","<div style=""font-size:60px;""> </div>","null","LF","learning/Slide71.JPG","This is a wug:","",""
"","html-keyboard-response","220","671733","0.0-6.0-0.71","LF","nav0ha06h4","1366","768","en","TZ07ER11","null","","","","learningBlock1","","","","This is a bim:","null","","","","",""
"","image-keyboard-response","221","672061","0.0-6.0-1.71","LF","nav0ha06h4","1366","768","en","TZ07ER11","null","","","","","","","","learning/Slide72.JPG","null","","","","",""
"","html-keyboard-response","222","673064","0.0-6.0-2.71","LF","nav0ha06h4","1366","768","en","TZ07ER11","null","","","","learningBlock1","","","","<div style=""font-size:60px;""> </div>","null","LF","learning/Slide72.JPG","This is a bim:","",""
"","html-keyboard-response","223","674067","0.0-6.0-0.72","LF","nav0ha06h4","1366","768","en","TZ07ER11","null","","","","learningBlock1","","","","This is a wug:","null","","","","",""
"","image-keyboard-response","224","674395","0.0-6.0-1.72","LF","nav0ha06h4","1366","768","en","TZ07ER11","null","","","","","","","","learning/Slide73.JPG","null","","","","",""
"","html-keyboard-response","225","675398","0.0-6.0-2.72","LF","nav0ha06h4","1366","768","en","TZ07ER11","null","","","","learningBlock1","","","","<div style=""font-size:60px;""> </div>","null","LF","learning/Slide73.JPG","This is a wug:","",""
"","html-keyboard-response","226","676401","0.0-6.0-0.73","LF","nav0ha06h4","1366","768","en","TZ07ER11","null","","","","learningBlock1","","","","This is a dep:","null","","","","",""
"","image-keyboard-response","227","676729","0.0-6.0-1.73","LF","nav0ha06h4","1366","768","en","TZ07ER11","null","","","","","","","","learning/Slide74.JPG","null","","","","",""
"","html-keyboard-response","228","677731","0.0-6.0-2.73","LF","nav0ha06h4","1366","768","en","TZ07ER11","null","","","","learningBlock1","","","","<div style=""font-size:60px;""> </div>","null","LF","learning/Slide74.JPG","This is a dep:","",""
"","html-keyboard-response","229","678733","0.0-6.0-0.74","LF","nav0ha06h4","1366","768","en","TZ07ER11","null","","","","learningBlock1","","","","This is a tob:","null","","","","",""
"","image-keyboard-response","230","679062","0.0-6.0-1.74","LF","nav0ha06h4","1366","768","en","TZ07ER11","null","","","","","","","","learning/Slide75.JPG","null","","","","",""
"","html-keyboard-response","231","680065","0.0-6.0-2.74","LF","nav0ha06h4","1366","768","en","TZ07ER11","null","","","","learningBlock1","","","","<div style=""font-size:60px;""> </div>","null","LF","learning/Slide75.JPG","This is a tob:","",""
"","html-keyboard-response","232","681067","0.0-6.0-0.75","LF","nav0ha06h4","1366","768","en","TZ07ER11","null","","","","learningBlock1","","","","This is a bim:","null","","","","",""
"","image-keyboard-response","233","681396","0.0-6.0-1.75","LF","nav0ha06h4","1366","768","en","TZ07ER11","null","","","","","","","","learning/Slide76.JPG","null","","","","",""
"","html-keyboard-response","234","682398","0.0-6.0-2.75","LF","nav0ha06h4","1366","768","en","TZ07ER11","null","","","","learningBlock1","","","","<div style=""font-size:60px;""> </div>","null","LF","learning/Slide76.JPG","This is a bim:","",""
"","html-keyboard-response","235","683401","0.0-6.0-0.76","LF","nav0ha06h4","1366","768","en","TZ07ER11","null","","","","learningBlock1","","","","This is a tob:","null","","","","",""
"","image-keyboard-response","236","683730","0.0-6.0-1.76","LF","nav0ha06h4","1366","768","en","TZ07ER11","null","","","","","","","","learning/Slide77.JPG","null","","","","",""
"","html-keyboard-response","237","684733","0.0-6.0-2.76","LF","nav0ha06h4","1366","768","en","TZ07ER11","null","","","","learningBlock1","","","","<div style=""font-size:60px;""> </div>","null","LF","learning/Slide77.JPG","This is a tob:","",""
"","html-keyboard-response","238","685735","0.0-6.0-0.77","LF","nav0ha06h4","1366","768","en","TZ07ER11","null","","","","learningBlock1","","","","This is a wug:","null","","","","",""
"","image-keyboard-response","239","686063","0.0-6.0-1.77","LF","nav0ha06h4","1366","768","en","TZ07ER11","null","","","","","","","","learning/Slide78.JPG","null","","","","",""
"","html-keyboard-response","240","687066","0.0-6.0-2.77","LF","nav0ha06h4","1366","768","en","TZ07ER11","null","","","","learningBlock1","","","","<div style=""font-size:60px;""> </div>","null","LF","learning/Slide78.JPG","This is a wug:","",""
"","html-keyboard-response","241","688068","0.0-6.0-0.78","LF","nav0ha06h4","1366","768","en","TZ07ER11","null","","","","learningBlock1","","","","This is a bim:","null","","","","",""
"","image-keyboard-response","242","688397","0.0-6.0-1.78","LF","nav0ha06h4","1366","768","en","TZ07ER11","null","","","","","","","","learning/Slide79.JPG","null","","","","",""
"","html-keyboard-response","243","689400","0.0-6.0-2.78","LF","nav0ha06h4","1366","768","en","TZ07ER11","null","","","","learningBlock1","","","","<div style=""font-size:60px;""> </div>","null","LF","learning/Slide79.JPG","This is a bim:","",""
"","html-keyboard-response","244","690402","0.0-6.0-0.79","LF","nav0ha06h4","1366","768","en","TZ07ER11","null","","","","learningBlock1","","","","This is a tob:","null","","","","",""
"","image-keyboard-response","245","690730","0.0-6.0-1.79","LF","nav0ha06h4","1366","768","en","TZ07ER11","null","","","","","","","","learning/Slide80.JPG","null","","","","",""
"","html-keyboard-response","246","691733","0.0-6.0-2.79","LF","nav0ha06h4","1366","768","en","TZ07ER11","null","","","","learningBlock1","","","","<div style=""font-size:60px;""> </div>","null","LF","learning/Slide80.JPG","This is a tob:","",""
"","instructions","247","696682","0.0-7.0","LF","nav0ha06h4","1366","768","en","TZ07ER11","NA","","","[{""page_index"":0,""viewing_time"":4948.000000000116}]","instructions","","","","","","","","","",""
"","html-keyboard-response","248","697685","0.0-8.0-0.0","LF","nav0ha06h4","1366","768","en","TZ07ER11","null","","","","learningBlock2","","","","This is a wug:","null","","","","",""
"","image-keyboard-response","249","698014","0.0-8.0-1.0","LF","nav0ha06h4","1366","768","en","TZ07ER11","null","","","","","","","","learning/Slide81.JPG","null","","","","",""
"","html-keyboard-response","250","699017","0.0-8.0-2.0","LF","nav0ha06h4","1366","768","en","TZ07ER11","null","","","","learningBlock2","","","","<div style=""font-size:60px;""> </div>","null","LF","learning/Slide81.JPG","This is a wug:","",""
"","html-keyboard-response","251","700020","0.0-8.0-0.1","LF","nav0ha06h4","1366","768","en","TZ07ER11","null","","","","learningBlock2","","","","This is a bim:","null","","","","",""
"","image-keyboard-response","252","700348","0.0-8.0-1.1","LF","nav0ha06h4","1366","768","en","TZ07ER11","null","","","","","","","","learning/Slide82.JPG","null","","","","",""
"","html-keyboard-response","253","701351","0.0-8.0-2.1","LF","nav0ha06h4","1366","768","en","TZ07ER11","null","","","","learningBlock2","","","","<div style=""font-size:60px;""> </div>","null","LF","learning/Slide82.JPG","This is a bim:","",""
"","html-keyboard-response","254","702353","0.0-8.0-0.2","LF","nav0ha06h4","1366","768","en","TZ07ER11","null","","","","learningBlock2","","","","This is a wug:","null","","","","",""
"","image-keyboard-response","255","702681","0.0-8.0-1.2","LF","nav0ha06h4","1366","768","en","TZ07ER11","null","","","","","","","","learning/Slide83.JPG","null","","","","",""
"","html-keyboard-response","256","703684","0.0-8.0-2.2","LF","nav0ha06h4","1366","768","en","TZ07ER11","null","","","","learningBlock2","","","","<div style=""font-size:60px;""> </div>","null","LF","learning/Slide83.JPG","This is a wug:","",""
"","html-keyboard-response","257","704685","0.0-8.0-0.3","LF","nav0ha06h4","1366","768","en","TZ07ER11","null","","","","learningBlock2","","","","This is a dep:","null","","","","",""
"","image-keyboard-response","258","705014","0.0-8.0-1.3","LF","nav0ha06h4","1366","768","en","TZ07ER11","null","","","","","","","","learning/Slide84.JPG","null","","","","",""
"","html-keyboard-response","259","706016","0.0-8.0-2.3","LF","nav0ha06h4","1366","768","en","TZ07ER11","null","","","","learningBlock2","","","","<div style=""font-size:60px;""> </div>","null","LF","learning/Slide84.JPG","This is a dep:","",""
"","html-keyboard-response","260","707019","0.0-8.0-0.4","LF","nav0ha06h4","1366","768","en","TZ07ER11","null","","","","learningBlock2","","","","This is a bim:","null","","","","",""
"","image-keyboard-response","261","707348","0.0-8.0-1.4","LF","nav0ha06h4","1366","768","en","TZ07ER11","null","","","","","","","","learning/Slide85.JPG","null","","","","",""
"","html-keyboard-response","262","708351","0.0-8.0-2.4","LF","nav0ha06h4","1366","768","en","TZ07ER11","null","","","","learningBlock2","","","","<div style=""font-size:60px;""> </div>","null","LF","learning/Slide85.JPG","This is a bim:","",""
"","html-keyboard-response","263","709354","0.0-8.0-0.5","LF","nav0ha06h4","1366","768","en","TZ07ER11","null","","","","learningBlock2","","","","This is a tob:","null","","","","",""
"","image-keyboard-response","264","709682","0.0-8.0-1.5","LF","nav0ha06h4","1366","768","en","TZ07ER11","null","","","","","","","","learning/Slide86.JPG","null","","","","",""
"","html-keyboard-response","265","710685","0.0-8.0-2.5","LF","nav0ha06h4","1366","768","en","TZ07ER11","null","","","","learningBlock2","","","","<div style=""font-size:60px;""> </div>","null","LF","learning/Slide86.JPG","This is a tob:","",""
"","html-keyboard-response","266","711687","0.0-8.0-0.6","LF","nav0ha06h4","1366","768","en","TZ07ER11","null","","","","learningBlock2","","","","This is a wug:","null","","","","",""
"","image-keyboard-response","267","712016","0.0-8.0-1.6","LF","nav0ha06h4","1366","768","en","TZ07ER11","null","","","","","","","","learning/Slide87.JPG","null","","","","",""
"","html-keyboard-response","268","713019","0.0-8.0-2.6","LF","nav0ha06h4","1366","768","en","TZ07ER11","null","","","","learningBlock2","","","","<div style=""font-size:60px;""> </div>","null","LF","learning/Slide87.JPG","This is a wug:","",""
"","html-keyboard-response","269","714022","0.0-8.0-0.7","LF","nav0ha06h4","1366","768","en","TZ07ER11","null","","","","learningBlock2","","","","This is a tob:","null","","","","",""
"","image-keyboard-response","270","714351","0.0-8.0-1.7","LF","nav0ha06h4","1366","768","en","TZ07ER11","null","","","","","","","","learning/Slide88.JPG","null","","","","",""
"","html-keyboard-response","271","715353","0.0-8.0-2.7","LF","nav0ha06h4","1366","768","en","TZ07ER11","null","","","","learningBlock2","","","","<div style=""font-size:60px;""> </div>","null","LF","learning/Slide88.JPG","This is a tob:","",""
"","html-keyboard-response","272","716355","0.0-8.0-0.8","LF","nav0ha06h4","1366","768","en","TZ07ER11","null","","","","learningBlock2","","","","This is a bim:","null","","","","",""
"","image-keyboard-response","273","716684","0.0-8.0-1.8","LF","nav0ha06h4","1366","768","en","TZ07ER11","null","","","","","","","","learning/Slide89.JPG","null","","","","",""
"","html-keyboard-response","274","717687","0.0-8.0-2.8","LF","nav0ha06h4","1366","768","en","TZ07ER11","null","","","","learningBlock2","","","","<div style=""font-size:60px;""> </div>","null","LF","learning/Slide89.JPG","This is a bim:","",""
"","html-keyboard-response","275","718690","0.0-8.0-0.9","LF","nav0ha06h4","1366","768","en","TZ07ER11","null","","","","learningBlock2","","","","This is a dep:","null","","","","",""
"","image-keyboard-response","276","719019","0.0-8.0-1.9","LF","nav0ha06h4","1366","768","en","TZ07ER11","null","","","","","","","","learning/Slide90.JPG","null","","","","",""
"","html-keyboard-response","277","720021","0.0-8.0-2.9","LF","nav0ha06h4","1366","768","en","TZ07ER11","null","","","","learningBlock2","","","","<div style=""font-size:60px;""> </div>","null","LF","learning/Slide90.JPG","This is a dep:","",""
"","html-keyboard-response","278","721024","0.0-8.0-0.10","LF","nav0ha06h4","1366","768","en","TZ07ER11","null","","","","learningBlock2","","","","This is a wug:","null","","","","",""
"","image-keyboard-response","279","721353","0.0-8.0-1.10","LF","nav0ha06h4","1366","768","en","TZ07ER11","null","","","","","","","","learning/Slide91.JPG","null","","","","",""
"","html-keyboard-response","280","722355","0.0-8.0-2.10","LF","nav0ha06h4","1366","768","en","TZ07ER11","null","","","","learningBlock2","","","","<div style=""font-size:60px;""> </div>","null","LF","learning/Slide91.JPG","This is a wug:","",""
"","html-keyboard-response","281","723358","0.0-8.0-0.11","LF","nav0ha06h4","1366","768","en","TZ07ER11","null","","","","learningBlock2","","","","This is a tob:","null","","","","",""
"","image-keyboard-response","282","723687","0.0-8.0-1.11","LF","nav0ha06h4","1366","768","en","TZ07ER11","null","","","","","","","","learning/Slide92.JPG","null","","","","",""
"","html-keyboard-response","283","724689","0.0-8.0-2.11","LF","nav0ha06h4","1366","768","en","TZ07ER11","null","","","","learningBlock2","","","","<div style=""font-size:60px;""> </div>","null","LF","learning/Slide92.JPG","This is a tob:","",""
"","html-keyboard-response","284","725692","0.0-8.0-0.12","LF","nav0ha06h4","1366","768","en","TZ07ER11","null","","","","learningBlock2","","","","This is a bim:","null","","","","",""
"","image-keyboard-response","285","726019","0.0-8.0-1.12","LF","nav0ha06h4","1366","768","en","TZ07ER11","null","","","","","","","","learning/Slide93.JPG","null","","","","",""
"","html-keyboard-response","286","727022","0.0-8.0-2.12","LF","nav0ha06h4","1366","768","en","TZ07ER11","null","","","","learningBlock2","","","","<div style=""font-size:60px;""> </div>","null","LF","learning/Slide93.JPG","This is a bim:","",""
"","html-keyboard-response","287","728024","0.0-8.0-0.13","LF","nav0ha06h4","1366","768","en","TZ07ER11","null","","","","learningBlock2","","","","This is a tob:","null","","","","",""
"","image-keyboard-response","288","728353","0.0-8.0-1.13","LF","nav0ha06h4","1366","768","en","TZ07ER11","null","","","","","","","","learning/Slide94.JPG","null","","","","",""
"","html-keyboard-response","289","729356","0.0-8.0-2.13","LF","nav0ha06h4","1366","768","en","TZ07ER11","null","","","","learningBlock2","","","","<div style=""font-size:60px;""> </div>","null","LF","learning/Slide94.JPG","This is a tob:","",""
"","html-keyboard-response","290","730358","0.0-8.0-0.14","LF","nav0ha06h4","1366","768","en","TZ07ER11","null","","","","learningBlock2","","","","This is a wug:","null","","","","",""
"","image-keyboard-response","291","730687","0.0-8.0-1.14","LF","nav0ha06h4","1366","768","en","TZ07ER11","null","","","","","","","","learning/Slide95.JPG","null","","","","",""
"","html-keyboard-response","292","731689","0.0-8.0-2.14","LF","nav0ha06h4","1366","768","en","TZ07ER11","null","","","","learningBlock2","","","","<div style=""font-size:60px;""> </div>","null","LF","learning/Slide95.JPG","This is a wug:","",""
"","html-keyboard-response","293","732692","0.0-8.0-0.15","LF","nav0ha06h4","1366","768","en","TZ07ER11","null","","","","learningBlock2","","","","This is a tob:","null","","","","",""
"","image-keyboard-response","294","733019","0.0-8.0-1.15","LF","nav0ha06h4","1366","768","en","TZ07ER11","null","","","","","","","","learning/Slide96.JPG","null","","","","",""
"","html-keyboard-response","295","734021","0.0-8.0-2.15","LF","nav0ha06h4","1366","768","en","TZ07ER11","null","","","","learningBlock2","","","","<div style=""font-size:60px;""> </div>","null","LF","learning/Slide96.JPG","This is a tob:","",""
"","html-keyboard-response","296","735024","0.0-8.0-0.16","LF","nav0ha06h4","1366","768","en","TZ07ER11","null","","","","learningBlock2","","","","This is a dep:","null","","","","",""
"","image-keyboard-response","297","735353","0.0-8.0-1.16","LF","nav0ha06h4","1366","768","en","TZ07ER11","null","","","","","","","","learning/Slide97.JPG","null","","","","",""
"","html-keyboard-response","298","736355","0.0-8.0-2.16","LF","nav0ha06h4","1366","768","en","TZ07ER11","null","","","","learningBlock2","","","","<div style=""font-size:60px;""> </div>","null","LF","learning/Slide97.JPG","This is a dep:","",""
"","html-keyboard-response","299","737358","0.0-8.0-0.17","LF","nav0ha06h4","1366","768","en","TZ07ER11","null","","","","learningBlock2","","","","This is a bim:","null","","","","",""
"","image-keyboard-response","300","737687","0.0-8.0-1.17","LF","nav0ha06h4","1366","768","en","TZ07ER11","null","","","","","","","","learning/Slide98.JPG","null","","","","",""
"","html-keyboard-response","301","738690","0.0-8.0-2.17","LF","nav0ha06h4","1366","768","en","TZ07ER11","null","","","","learningBlock2","","","","<div style=""font-size:60px;""> </div>","null","LF","learning/Slide98.JPG","This is a bim:","",""
"","html-keyboard-response","302","739692","0.0-8.0-0.18","LF","nav0ha06h4","1366","768","en","TZ07ER11","null","","","","learningBlock2","","","","This is a dep:","null","","","","",""
"","image-keyboard-response","303","740021","0.0-8.0-1.18","LF","nav0ha06h4","1366","768","en","TZ07ER11","null","","","","","","","","learning/Slide99.JPG","null","","","","",""
"","html-keyboard-response","304","741024","0.0-8.0-2.18","LF","nav0ha06h4","1366","768","en","TZ07ER11","null","","","","learningBlock2","","","","<div style=""font-size:60px;""> </div>","null","LF","learning/Slide99.JPG","This is a dep:","",""
"","html-keyboard-response","305","742026","0.0-8.0-0.19","LF","nav0ha06h4","1366","768","en","TZ07ER11","null","","","","learningBlock2","","","","This is a bim:","null","","","","",""
"","image-keyboard-response","306","742355","0.0-8.0-1.19","LF","nav0ha06h4","1366","768","en","TZ07ER11","null","","","","","","","","learning/Slide100.JPG","null","","","","",""
"","html-keyboard-response","307","743358","0.0-8.0-2.19","LF","nav0ha06h4","1366","768","en","TZ07ER11","null","","","","learningBlock2","","","","<div style=""font-size:60px;""> </div>","null","LF","learning/Slide100.JPG","This is a bim:","",""
"","html-keyboard-response","308","744360","0.0-8.0-0.20","LF","nav0ha06h4","1366","768","en","TZ07ER11","null","","","","learningBlock2","","","","This is a tob:","null","","","","",""
"","image-keyboard-response","309","744689","0.0-8.0-1.20","LF","nav0ha06h4","1366","768","en","TZ07ER11","null","","","","","","","","learning/Slide101.JPG","null","","","","",""
"","html-keyboard-response","310","745692","0.0-8.0-2.20","LF","nav0ha06h4","1366","768","en","TZ07ER11","null","","","","learningBlock2","","","","<div style=""font-size:60px;""> </div>","null","LF","learning/Slide101.JPG","This is a tob:","",""
"","html-keyboard-response","311","746694","0.0-8.0-0.21","LF","nav0ha06h4","1366","768","en","TZ07ER11","null","","","","learningBlock2","","","","This is a bim:","null","","","","",""
"","image-keyboard-response","312","747023","0.0-8.0-1.21","LF","nav0ha06h4","1366","768","en","TZ07ER11","null","","","","","","","","learning/Slide102.JPG","null","","","","",""
"","html-keyboard-response","313","748026","0.0-8.0-2.21","LF","nav0ha06h4","1366","768","en","TZ07ER11","null","","","","learningBlock2","","","","<div style=""font-size:60px;""> </div>","null","LF","learning/Slide102.JPG","This is a bim:","",""
"","html-keyboard-response","314","749028","0.0-8.0-0.22","LF","nav0ha06h4","1366","768","en","TZ07ER11","null","","","","learningBlock2","","","","This is a dep:","null","","","","",""
"","image-keyboard-response","315","749357","0.0-8.0-1.22","LF","nav0ha06h4","1366","768","en","TZ07ER11","null","","","","","","","","learning/Slide103.JPG","null","","","","",""
"","html-keyboard-response","316","750359","0.0-8.0-2.22","LF","nav0ha06h4","1366","768","en","TZ07ER11","null","","","","learningBlock2","","","","<div style=""font-size:60px;""> </div>","null","LF","learning/Slide103.JPG","This is a dep:","",""
"","html-keyboard-response","317","751362","0.0-8.0-0.23","LF","nav0ha06h4","1366","768","en","TZ07ER11","null","","","","learningBlock2","","","","This is a tob:","null","","","","",""
"","image-keyboard-response","318","751691","0.0-8.0-1.23","LF","nav0ha06h4","1366","768","en","TZ07ER11","null","","","","","","","","learning/Slide104.JPG","null","","","","",""
"","html-keyboard-response","319","752693","0.0-8.0-2.23","LF","nav0ha06h4","1366","768","en","TZ07ER11","null","","","","learningBlock2","","","","<div style=""font-size:60px;""> </div>","null","LF","learning/Slide104.JPG","This is a tob:","",""
"","html-keyboard-response","320","753696","0.0-8.0-0.24","LF","nav0ha06h4","1366","768","en","TZ07ER11","null","","","","learningBlock2","","","","This is a dep:","null","","","","",""
"","image-keyboard-response","321","754025","0.0-8.0-1.24","LF","nav0ha06h4","1366","768","en","TZ07ER11","null","","","","","","","","learning/Slide105.JPG","null","","","","",""
"","html-keyboard-response","322","755027","0.0-8.0-2.24","LF","nav0ha06h4","1366","768","en","TZ07ER11","null","","","","learningBlock2","","","","<div style=""font-size:60px;""> </div>","null","LF","learning/Slide105.JPG","This is a dep:","",""
"","html-keyboard-response","323","756030","0.0-8.0-0.25","LF","nav0ha06h4","1366","768","en","TZ07ER11","null","","","","learningBlock2","","","","This is a wug:","null","","","","",""
"","image-keyboard-response","324","756359","0.0-8.0-1.25","LF","nav0ha06h4","1366","768","en","TZ07ER11","null","","","","","","","","learning/Slide106.JPG","null","","","","",""
"","html-keyboard-response","325","757361","0.0-8.0-2.25","LF","nav0ha06h4","1366","768","en","TZ07ER11","null","","","","learningBlock2","","","","<div style=""font-size:60px;""> </div>","null","LF","learning/Slide106.JPG","This is a wug:","",""
"","html-keyboard-response","326","758364","0.0-8.0-0.26","LF","nav0ha06h4","1366","768","en","TZ07ER11","null","","","","learningBlock2","","","","This is a bim:","null","","","","",""
"","image-keyboard-response","327","758693","0.0-8.0-1.26","LF","nav0ha06h4","1366","768","en","TZ07ER11","null","","","","","","","","learning/Slide107.JPG","null","","","","",""
"","html-keyboard-response","328","759695","0.0-8.0-2.26","LF","nav0ha06h4","1366","768","en","TZ07ER11","null","","","","learningBlock2","","","","<div style=""font-size:60px;""> </div>","null","LF","learning/Slide107.JPG","This is a bim:","",""
"","html-keyboard-response","329","760698","0.0-8.0-0.27","LF","nav0ha06h4","1366","768","en","TZ07ER11","null","","","","learningBlock2","","","","This is a dep:","null","","","","",""
"","image-keyboard-response","330","761027","0.0-8.0-1.27","LF","nav0ha06h4","1366","768","en","TZ07ER11","null","","","","","","","","learning/Slide108.JPG","null","","","","",""
"","html-keyboard-response","331","762029","0.0-8.0-2.27","LF","nav0ha06h4","1366","768","en","TZ07ER11","null","","","","learningBlock2","","","","<div style=""font-size:60px;""> </div>","null","LF","learning/Slide108.JPG","This is a dep:","",""
"","html-keyboard-response","332","763032","0.0-8.0-0.28","LF","nav0ha06h4","1366","768","en","TZ07ER11","null","","","","learningBlock2","","","","This is a wug:","null","","","","",""
"","image-keyboard-response","333","763361","0.0-8.0-1.28","LF","nav0ha06h4","1366","768","en","TZ07ER11","null","","","","","","","","learning/Slide109.JPG","null","","","","",""
"","html-keyboard-response","334","764363","0.0-8.0-2.28","LF","nav0ha06h4","1366","768","en","TZ07ER11","null","","","","learningBlock2","","","","<div style=""font-size:60px;""> </div>","null","LF","learning/Slide109.JPG","This is a wug:","",""
"","html-keyboard-response","335","765366","0.0-8.0-0.29","LF","nav0ha06h4","1366","768","en","TZ07ER11","null","","","","learningBlock2","","","","This is a bim:","null","","","","",""
"","image-keyboard-response","336","765695","0.0-8.0-1.29","LF","nav0ha06h4","1366","768","en","TZ07ER11","null","","","","","","","","learning/Slide110.JPG","null","","","","",""
"","html-keyboard-response","337","766698","0.0-8.0-2.29","LF","nav0ha06h4","1366","768","en","TZ07ER11","null","","","","learningBlock2","","","","<div style=""font-size:60px;""> </div>","null","LF","learning/Slide110.JPG","This is a bim:","",""
"","html-keyboard-response","338","767700","0.0-8.0-0.30","LF","nav0ha06h4","1366","768","en","TZ07ER11","null","","","","learningBlock2","","","","This is a tob:","null","","","","",""
"","image-keyboard-response","339","768029","0.0-8.0-1.30","LF","nav0ha06h4","1366","768","en","TZ07ER11","null","","","","","","","","learning/Slide111.JPG","null","","","","",""
"","html-keyboard-response","340","769032","0.0-8.0-2.30","LF","nav0ha06h4","1366","768","en","TZ07ER11","null","","","","learningBlock2","","","","<div style=""font-size:60px;""> </div>","null","LF","learning/Slide111.JPG","This is a tob:","",""
"","html-keyboard-response","341","770034","0.0-8.0-0.31","LF","nav0ha06h4","1366","768","en","TZ07ER11","null","","","","learningBlock2","","","","This is a wug:","null","","","","",""
"","image-keyboard-response","342","770363","0.0-8.0-1.31","LF","nav0ha06h4","1366","768","en","TZ07ER11","null","","","","","","","","learning/Slide112.JPG","null","","","","",""
"","html-keyboard-response","343","771366","0.0-8.0-2.31","LF","nav0ha06h4","1366","768","en","TZ07ER11","null","","","","learningBlock2","","","","<div style=""font-size:60px;""> </div>","null","LF","learning/Slide112.JPG","This is a wug:","",""
"","html-keyboard-response","344","772368","0.0-8.0-0.32","LF","nav0ha06h4","1366","768","en","TZ07ER11","null","","","","learningBlock2","","","","This is a tob:","null","","","","",""
"","image-keyboard-response","345","772697","0.0-8.0-1.32","LF","nav0ha06h4","1366","768","en","TZ07ER11","null","","","","","","","","learning/Slide113.JPG","null","","","","",""
"","html-keyboard-response","346","773700","0.0-8.0-2.32","LF","nav0ha06h4","1366","768","en","TZ07ER11","null","","","","learningBlock2","","","","<div style=""font-size:60px;""> </div>","null","LF","learning/Slide113.JPG","This is a tob:","",""
"","html-keyboard-response","347","774703","0.0-8.0-0.33","LF","nav0ha06h4","1366","768","en","TZ07ER11","null","","","","learningBlock2","","","","This is a wug:","null","","","","",""
"","image-keyboard-response","348","775031","0.0-8.0-1.33","LF","nav0ha06h4","1366","768","en","TZ07ER11","null","","","","","","","","learning/Slide114.JPG","null","","","","",""
"","html-keyboard-response","349","776034","0.0-8.0-2.33","LF","nav0ha06h4","1366","768","en","TZ07ER11","null","","","","learningBlock2","","","","<div style=""font-size:60px;""> </div>","null","LF","learning/Slide114.JPG","This is a wug:","",""
"","html-keyboard-response","350","777037","0.0-8.0-0.34","LF","nav0ha06h4","1366","768","en","TZ07ER11","null","","","","learningBlock2","","","","This is a bim:","null","","","","",""
"","image-keyboard-response","351","777366","0.0-8.0-1.34","LF","nav0ha06h4","1366","768","en","TZ07ER11","null","","","","","","","","learning/Slide115.JPG","null","","","","",""
"","html-keyboard-response","352","778368","0.0-8.0-2.34","LF","nav0ha06h4","1366","768","en","TZ07ER11","null","","","","learningBlock2","","","","<div style=""font-size:60px;""> </div>","null","LF","learning/Slide115.JPG","This is a bim:","",""
"","html-keyboard-response","353","779371","0.0-8.0-0.35","LF","nav0ha06h4","1366","768","en","TZ07ER11","null","","","","learningBlock2","","","","This is a dep:","null","","","","",""
"","image-keyboard-response","354","779700","0.0-8.0-1.35","LF","nav0ha06h4","1366","768","en","TZ07ER11","null","","","","","","","","learning/Slide116.JPG","null","","","","",""
"","html-keyboard-response","355","780702","0.0-8.0-2.35","LF","nav0ha06h4","1366","768","en","TZ07ER11","null","","","","learningBlock2","","","","<div style=""font-size:60px;""> </div>","null","LF","learning/Slide116.JPG","This is a dep:","",""
"","html-keyboard-response","356","781705","0.0-8.0-0.36","LF","nav0ha06h4","1366","768","en","TZ07ER11","null","","","","learningBlock2","","","","This is a tob:","null","","","","",""
"","image-keyboard-response","357","782034","0.0-8.0-1.36","LF","nav0ha06h4","1366","768","en","TZ07ER11","null","","","","","","","","learning/Slide117.JPG","null","","","","",""
"","html-keyboard-response","358","783036","0.0-8.0-2.36","LF","nav0ha06h4","1366","768","en","TZ07ER11","null","","","","learningBlock2","","","","<div style=""font-size:60px;""> </div>","null","LF","learning/Slide117.JPG","This is a tob:","",""
"","html-keyboard-response","359","784039","0.0-8.0-0.37","LF","nav0ha06h4","1366","768","en","TZ07ER11","null","","","","learningBlock2","","","","This is a dep:","null","","","","",""
"","image-keyboard-response","360","784367","0.0-8.0-1.37","LF","nav0ha06h4","1366","768","en","TZ07ER11","null","","","","","","","","learning/Slide118.JPG","null","","","","",""
"","html-keyboard-response","361","785370","0.0-8.0-2.37","LF","nav0ha06h4","1366","768","en","TZ07ER11","null","","","","learningBlock2","","","","<div style=""font-size:60px;""> </div>","null","LF","learning/Slide118.JPG","This is a dep:","",""
"","html-keyboard-response","362","786372","0.0-8.0-0.38","LF","nav0ha06h4","1366","768","en","TZ07ER11","null","","","","learningBlock2","","","","This is a wug:","null","","","","",""
"","image-keyboard-response","363","786701","0.0-8.0-1.38","LF","nav0ha06h4","1366","768","en","TZ07ER11","null","","","","","","","","learning/Slide119.JPG","null","","","","",""
"","html-keyboard-response","364","787704","0.0-8.0-2.38","LF","nav0ha06h4","1366","768","en","TZ07ER11","null","","","","learningBlock2","","","","<div style=""font-size:60px;""> </div>","null","LF","learning/Slide119.JPG","This is a wug:","",""
"","html-keyboard-response","365","788707","0.0-8.0-0.39","LF","nav0ha06h4","1366","768","en","TZ07ER11","null","","","","learningBlock2","","","","This is a dep:","null","","","","",""
"","image-keyboard-response","366","789035","0.0-8.0-1.39","LF","nav0ha06h4","1366","768","en","TZ07ER11","null","","","","","","","","learning/Slide120.JPG","null","","","","",""
"","html-keyboard-response","367","790038","0.0-8.0-2.39","LF","nav0ha06h4","1366","768","en","TZ07ER11","null","","","","learningBlock2","","","","<div style=""font-size:60px;""> </div>","null","LF","learning/Slide120.JPG","This is a dep:","",""
"","html-keyboard-response","368","791040","0.0-8.0-0.40","LF","nav0ha06h4","1366","768","en","TZ07ER11","null","","","","learningBlock2","","","","This is a bim:","null","","","","",""
"","image-keyboard-response","369","791369","0.0-8.0-1.40","LF","nav0ha06h4","1366","768","en","TZ07ER11","null","","","","","","","","learning/Slide121.JPG","null","","","","",""
"","html-keyboard-response","370","792371","0.0-8.0-2.40","LF","nav0ha06h4","1366","768","en","TZ07ER11","null","","","","learningBlock2","","","","<div style=""font-size:60px;""> </div>","null","LF","learning/Slide121.JPG","This is a bim:","",""
"","html-keyboard-response","371","793374","0.0-8.0-0.41","LF","nav0ha06h4","1366","768","en","TZ07ER11","null","","","","learningBlock2","","","","This is a wug:","null","","","","",""
"","image-keyboard-response","372","793703","0.0-8.0-1.41","LF","nav0ha06h4","1366","768","en","TZ07ER11","null","","","","","","","","learning/Slide122.JPG","null","","","","",""
"","html-keyboard-response","373","794705","0.0-8.0-2.41","LF","nav0ha06h4","1366","768","en","TZ07ER11","null","","","","learningBlock2","","","","<div style=""font-size:60px;""> </div>","null","LF","learning/Slide122.JPG","This is a wug:","",""
"","html-keyboard-response","374","795708","0.0-8.0-0.42","LF","nav0ha06h4","1366","768","en","TZ07ER11","null","","","","learningBlock2","","","","This is a bim:","null","","","","",""
"","image-keyboard-response","375","796037","0.0-8.0-1.42","LF","nav0ha06h4","1366","768","en","TZ07ER11","null","","","","","","","","learning/Slide123.JPG","null","","","","",""
"","html-keyboard-response","376","797039","0.0-8.0-2.42","LF","nav0ha06h4","1366","768","en","TZ07ER11","null","","","","learningBlock2","","","","<div style=""font-size:60px;""> </div>","null","LF","learning/Slide123.JPG","This is a bim:","",""
"","html-keyboard-response","377","798042","0.0-8.0-0.43","LF","nav0ha06h4","1366","768","en","TZ07ER11","null","","","","learningBlock2","","","","This is a tob:","null","","","","",""
"","image-keyboard-response","378","798371","0.0-8.0-1.43","LF","nav0ha06h4","1366","768","en","TZ07ER11","null","","","","","","","","learning/Slide124.JPG","null","","","","",""
"","html-keyboard-response","379","799374","0.0-8.0-2.43","LF","nav0ha06h4","1366","768","en","TZ07ER11","null","","","","learningBlock2","","","","<div style=""font-size:60px;""> </div>","null","LF","learning/Slide124.JPG","This is a tob:","",""
"","html-keyboard-response","380","800376","0.0-8.0-0.44","LF","nav0ha06h4","1366","768","en","TZ07ER11","null","","","","learningBlock2","","","","This is a bim:","null","","","","",""
"","image-keyboard-response","381","800705","0.0-8.0-1.44","LF","nav0ha06h4","1366","768","en","TZ07ER11","null","","","","","","","","learning/Slide125.JPG","null","","","","",""
"","html-keyboard-response","382","801708","0.0-8.0-2.44","LF","nav0ha06h4","1366","768","en","TZ07ER11","null","","","","learningBlock2","","","","<div style=""font-size:60px;""> </div>","null","LF","learning/Slide125.JPG","This is a bim:","",""
"","html-keyboard-response","383","802710","0.0-8.0-0.45","LF","nav0ha06h4","1366","768","en","TZ07ER11","null","","","","learningBlock2","","","","This is a tob:","null","","","","",""
"","image-keyboard-response","384","803039","0.0-8.0-1.45","LF","nav0ha06h4","1366","768","en","TZ07ER11","null","","","","","","","","learning/Slide126.JPG","null","","","","",""
"","html-keyboard-response","385","804042","0.0-8.0-2.45","LF","nav0ha06h4","1366","768","en","TZ07ER11","null","","","","learningBlock2","","","","<div style=""font-size:60px;""> </div>","null","LF","learning/Slide126.JPG","This is a tob:","",""
"","html-keyboard-response","386","805044","0.0-8.0-0.46","LF","nav0ha06h4","1366","768","en","TZ07ER11","null","","","","learningBlock2","","","","This is a dep:","null","","","","",""
"","image-keyboard-response","387","805373","0.0-8.0-1.46","LF","nav0ha06h4","1366","768","en","TZ07ER11","null","","","","","","","","learning/Slide127.JPG","null","","","","",""
"","html-keyboard-response","388","806376","0.0-8.0-2.46","LF","nav0ha06h4","1366","768","en","TZ07ER11","null","","","","learningBlock2","","","","<div style=""font-size:60px;""> </div>","null","LF","learning/Slide127.JPG","This is a dep:","",""
"","html-keyboard-response","389","807378","0.0-8.0-0.47","LF","nav0ha06h4","1366","768","en","TZ07ER11","null","","","","learningBlock2","","","","This is a wug:","null","","","","",""
"","image-keyboard-response","390","807707","0.0-8.0-1.47","LF","nav0ha06h4","1366","768","en","TZ07ER11","null","","","","","","","","learning/Slide128.JPG","null","","","","",""
"","html-keyboard-response","391","808710","0.0-8.0-2.47","LF","nav0ha06h4","1366","768","en","TZ07ER11","null","","","","learningBlock2","","","","<div style=""font-size:60px;""> </div>","null","LF","learning/Slide128.JPG","This is a wug:","",""
"","html-keyboard-response","392","809712","0.0-8.0-0.48","LF","nav0ha06h4","1366","768","en","TZ07ER11","null","","","","learningBlock2","","","","This is a tob:","null","","","","",""
"","image-keyboard-response","393","810040","0.0-8.0-1.48","LF","nav0ha06h4","1366","768","en","TZ07ER11","null","","","","","","","","learning/Slide129.JPG","null","","","","",""
"","html-keyboard-response","394","811042","0.0-8.0-2.48","LF","nav0ha06h4","1366","768","en","TZ07ER11","null","","","","learningBlock2","","","","<div style=""font-size:60px;""> </div>","null","LF","learning/Slide129.JPG","This is a tob:","",""
"","html-keyboard-response","395","812044","0.0-8.0-0.49","LF","nav0ha06h4","1366","768","en","TZ07ER11","null","","","","learningBlock2","","","","This is a wug:","null","","","","",""
"","image-keyboard-response","396","812373","0.0-8.0-1.49","LF","nav0ha06h4","1366","768","en","TZ07ER11","null","","","","","","","","learning/Slide130.JPG","null","","","","",""
"","html-keyboard-response","397","813375","0.0-8.0-2.49","LF","nav0ha06h4","1366","768","en","TZ07ER11","null","","","","learningBlock2","","","","<div style=""font-size:60px;""> </div>","null","LF","learning/Slide130.JPG","This is a wug:","",""
"","html-keyboard-response","398","814378","0.0-8.0-0.50","LF","nav0ha06h4","1366","768","en","TZ07ER11","null","","","","learningBlock2","","","","This is a bim:","null","","","","",""
"","image-keyboard-response","399","814707","0.0-8.0-1.50","LF","nav0ha06h4","1366","768","en","TZ07ER11","null","","","","","","","","learning/Slide131.JPG","null","","","","",""
"","html-keyboard-response","400","815709","0.0-8.0-2.50","LF","nav0ha06h4","1366","768","en","TZ07ER11","null","","","","learningBlock2","","","","<div style=""font-size:60px;""> </div>","null","LF","learning/Slide131.JPG","This is a bim:","",""
"","html-keyboard-response","401","816712","0.0-8.0-0.51","LF","nav0ha06h4","1366","768","en","TZ07ER11","null","","","","learningBlock2","","","","This is a dep:","null","","","","",""
"","image-keyboard-response","402","817041","0.0-8.0-1.51","LF","nav0ha06h4","1366","768","en","TZ07ER11","null","","","","","","","","learning/Slide132.JPG","null","","","","",""
"","html-keyboard-response","403","818043","0.0-8.0-2.51","LF","nav0ha06h4","1366","768","en","TZ07ER11","null","","","","learningBlock2","","","","<div style=""font-size:60px;""> </div>","null","LF","learning/Slide132.JPG","This is a dep:","",""
"","html-keyboard-response","404","819046","0.0-8.0-0.52","LF","nav0ha06h4","1366","768","en","TZ07ER11","null","","","","learningBlock2","","","","This is a tob:","null","","","","",""
"","image-keyboard-response","405","819375","0.0-8.0-1.52","LF","nav0ha06h4","1366","768","en","TZ07ER11","null","","","","","","","","learning/Slide133.JPG","null","","","","",""
"","html-keyboard-response","406","820378","0.0-8.0-2.52","LF","nav0ha06h4","1366","768","en","TZ07ER11","null","","","","learningBlock2","","","","<div style=""font-size:60px;""> </div>","null","LF","learning/Slide133.JPG","This is a tob:","",""
"","html-keyboard-response","407","821380","0.0-8.0-0.53","LF","nav0ha06h4","1366","768","en","TZ07ER11","null","","","","learningBlock2","","","","This is a dep:","null","","","","",""
"","image-keyboard-response","408","821709","0.0-8.0-1.53","LF","nav0ha06h4","1366","768","en","TZ07ER11","null","","","","","","","","learning/Slide134.JPG","null","","","","",""
"","html-keyboard-response","409","822712","0.0-8.0-2.53","LF","nav0ha06h4","1366","768","en","TZ07ER11","null","","","","learningBlock2","","","","<div style=""font-size:60px;""> </div>","null","LF","learning/Slide134.JPG","This is a dep:","",""
"","html-keyboard-response","410","823714","0.0-8.0-0.54","LF","nav0ha06h4","1366","768","en","TZ07ER11","null","","","","learningBlock2","","","","This is a tob:","null","","","","",""
"","image-keyboard-response","411","824043","0.0-8.0-1.54","LF","nav0ha06h4","1366","768","en","TZ07ER11","null","","","","","","","","learning/Slide135.JPG","null","","","","",""
"","html-keyboard-response","412","825045","0.0-8.0-2.54","LF","nav0ha06h4","1366","768","en","TZ07ER11","null","","","","learningBlock2","","","","<div style=""font-size:60px;""> </div>","null","LF","learning/Slide135.JPG","This is a tob:","",""
"","html-keyboard-response","413","826048","0.0-8.0-0.55","LF","nav0ha06h4","1366","768","en","TZ07ER11","null","","","","learningBlock2","","","","This is a wug:","null","","","","",""
"","image-keyboard-response","414","826377","0.0-8.0-1.55","LF","nav0ha06h4","1366","768","en","TZ07ER11","null","","","","","","","","learning/Slide136.JPG","null","","","","",""
"","html-keyboard-response","415","827379","0.0-8.0-2.55","LF","nav0ha06h4","1366","768","en","TZ07ER11","null","","","","learningBlock2","","","","<div style=""font-size:60px;""> </div>","null","LF","learning/Slide136.JPG","This is a wug:","",""
"","html-keyboard-response","416","828382","0.0-8.0-0.56","LF","nav0ha06h4","1366","768","en","TZ07ER11","null","","","","learningBlock2","","","","This is a tob:","null","","","","",""
"","image-keyboard-response","417","828711","0.0-8.0-1.56","LF","nav0ha06h4","1366","768","en","TZ07ER11","null","","","","","","","","learning/Slide137.JPG","null","","","","",""
"","html-keyboard-response","418","829713","0.0-8.0-2.56","LF","nav0ha06h4","1366","768","en","TZ07ER11","null","","","","learningBlock2","","","","<div style=""font-size:60px;""> </div>","null","LF","learning/Slide137.JPG","This is a tob:","",""
"","html-keyboard-response","419","830716","0.0-8.0-0.57","LF","nav0ha06h4","1366","768","en","TZ07ER11","null","","","","learningBlock2","","","","This is a bim:","null","","","","",""
"","image-keyboard-response","420","831044","0.0-8.0-1.57","LF","nav0ha06h4","1366","768","en","TZ07ER11","null","","","","","","","","learning/Slide138.JPG","null","","","","",""
"","html-keyboard-response","421","832047","0.0-8.0-2.57","LF","nav0ha06h4","1366","768","en","TZ07ER11","null","","","","learningBlock2","","","","<div style=""font-size:60px;""> </div>","null","LF","learning/Slide138.JPG","This is a bim:","",""
"","html-keyboard-response","422","833050","0.0-8.0-0.58","LF","nav0ha06h4","1366","768","en","TZ07ER11","null","","","","learningBlock2","","","","This is a wug:","null","","","","",""
"","image-keyboard-response","423","833378","0.0-8.0-1.58","LF","nav0ha06h4","1366","768","en","TZ07ER11","null","","","","","","","","learning/Slide139.JPG","null","","","","",""
"","html-keyboard-response","424","834380","0.0-8.0-2.58","LF","nav0ha06h4","1366","768","en","TZ07ER11","null","","","","learningBlock2","","","","<div style=""font-size:60px;""> </div>","null","LF","learning/Slide139.JPG","This is a wug:","",""
"","html-keyboard-response","425","835382","0.0-8.0-0.59","LF","nav0ha06h4","1366","768","en","TZ07ER11","null","","","","learningBlock2","","","","This is a dep:","null","","","","",""
"","image-keyboard-response","426","835711","0.0-8.0-1.59","LF","nav0ha06h4","1366","768","en","TZ07ER11","null","","","","","","","","learning/Slide140.JPG","null","","","","",""
"","html-keyboard-response","427","836713","0.0-8.0-2.59","LF","nav0ha06h4","1366","768","en","TZ07ER11","null","","","","learningBlock2","","","","<div style=""font-size:60px;""> </div>","null","LF","learning/Slide140.JPG","This is a dep:","",""
"","html-keyboard-response","428","837716","0.0-8.0-0.60","LF","nav0ha06h4","1366","768","en","TZ07ER11","null","","","","learningBlock2","","","","This is a tob:","null","","","","",""
"","image-keyboard-response","429","838045","0.0-8.0-1.60","LF","nav0ha06h4","1366","768","en","TZ07ER11","null","","","","","","","","learning/Slide141.JPG","null","","","","",""
"","html-keyboard-response","430","839047","0.0-8.0-2.60","LF","nav0ha06h4","1366","768","en","TZ07ER11","null","","","","learningBlock2","","","","<div style=""font-size:60px;""> </div>","null","LF","learning/Slide141.JPG","This is a tob:","",""
"","html-keyboard-response","431","840050","0.0-8.0-0.61","LF","nav0ha06h4","1366","768","en","TZ07ER11","null","","","","learningBlock2","","","","This is a wug:","null","","","","",""
"","image-keyboard-response","432","840378","0.0-8.0-1.61","LF","nav0ha06h4","1366","768","en","TZ07ER11","null","","","","","","","","learning/Slide142.JPG","null","","","","",""
"","html-keyboard-response","433","841380","0.0-8.0-2.61","LF","nav0ha06h4","1366","768","en","TZ07ER11","null","","","","learningBlock2","","","","<div style=""font-size:60px;""> </div>","null","LF","learning/Slide142.JPG","This is a wug:","",""
"","html-keyboard-response","434","842382","0.0-8.0-0.62","LF","nav0ha06h4","1366","768","en","TZ07ER11","null","","","","learningBlock2","","","","This is a bim:","null","","","","",""
"","image-keyboard-response","435","842711","0.0-8.0-1.62","LF","nav0ha06h4","1366","768","en","TZ07ER11","null","","","","","","","","learning/Slide143.JPG","null","","","","",""
"","html-keyboard-response","436","843713","0.0-8.0-2.62","LF","nav0ha06h4","1366","768","en","TZ07ER11","null","","","","learningBlock2","","","","<div style=""font-size:60px;""> </div>","null","LF","learning/Slide143.JPG","This is a bim:","",""
"","html-keyboard-response","437","844716","0.0-8.0-0.63","LF","nav0ha06h4","1366","768","en","TZ07ER11","null","","","","learningBlock2","","","","This is a dep:","null","","","","",""
"","image-keyboard-response","438","845045","0.0-8.0-1.63","LF","nav0ha06h4","1366","768","en","TZ07ER11","null","","","","","","","","learning/Slide144.JPG","null","","","","",""
"","html-keyboard-response","439","846047","0.0-8.0-2.63","LF","nav0ha06h4","1366","768","en","TZ07ER11","null","","","","learningBlock2","","","","<div style=""font-size:60px;""> </div>","null","LF","learning/Slide144.JPG","This is a dep:","",""
"","html-keyboard-response","440","847050","0.0-8.0-0.64","LF","nav0ha06h4","1366","768","en","TZ07ER11","null","","","","learningBlock2","","","","This is a bim:","null","","","","",""
"","image-keyboard-response","441","847378","0.0-8.0-1.64","LF","nav0ha06h4","1366","768","en","TZ07ER11","null","","","","","","","","learning/Slide145.JPG","null","","","","",""
"","html-keyboard-response","442","848381","0.0-8.0-2.64","LF","nav0ha06h4","1366","768","en","TZ07ER11","null","","","","learningBlock2","","","","<div style=""font-size:60px;""> </div>","null","LF","learning/Slide145.JPG","This is a bim:","",""
"","html-keyboard-response","443","849384","0.0-8.0-0.65","LF","nav0ha06h4","1366","768","en","TZ07ER11","null","","","","learningBlock2","","","","This is a tob:","null","","","","",""
"","image-keyboard-response","444","849712","0.0-8.0-1.65","LF","nav0ha06h4","1366","768","en","TZ07ER11","null","","","","","","","","learning/Slide146.JPG","null","","","","",""
"","html-keyboard-response","445","850715","0.0-8.0-2.65","LF","nav0ha06h4","1366","768","en","TZ07ER11","null","","","","learningBlock2","","","","<div style=""font-size:60px;""> </div>","null","LF","learning/Slide146.JPG","This is a tob:","",""
"","html-keyboard-response","446","851718","0.0-8.0-0.66","LF","nav0ha06h4","1366","768","en","TZ07ER11","null","","","","learningBlock2","","","","This is a wug:","null","","","","",""
"","image-keyboard-response","447","852047","0.0-8.0-1.66","LF","nav0ha06h4","1366","768","en","TZ07ER11","null","","","","","","","","learning/Slide147.JPG","null","","","","",""
"","html-keyboard-response","448","853049","0.0-8.0-2.66","LF","nav0ha06h4","1366","768","en","TZ07ER11","null","","","","learningBlock2","","","","<div style=""font-size:60px;""> </div>","null","LF","learning/Slide147.JPG","This is a wug:","",""
"","html-keyboard-response","449","854052","0.0-8.0-0.67","LF","nav0ha06h4","1366","768","en","TZ07ER11","null","","","","learningBlock2","","","","This is a bim:","null","","","","",""
"","image-keyboard-response","450","854380","0.0-8.0-1.67","LF","nav0ha06h4","1366","768","en","TZ07ER11","null","","","","","","","","learning/Slide148.JPG","null","","","","",""
"","html-keyboard-response","451","855383","0.0-8.0-2.67","LF","nav0ha06h4","1366","768","en","TZ07ER11","null","","","","learningBlock2","","","","<div style=""font-size:60px;""> </div>","null","LF","learning/Slide148.JPG","This is a bim:","",""
"","html-keyboard-response","452","856386","0.0-8.0-0.68","LF","nav0ha06h4","1366","768","en","TZ07ER11","null","","","","learningBlock2","","","","This is a dep:","null","","","","",""
"","image-keyboard-response","453","856715","0.0-8.0-1.68","LF","nav0ha06h4","1366","768","en","TZ07ER11","null","","","","","","","","learning/Slide149.JPG","null","","","","",""
"","html-keyboard-response","454","857717","0.0-8.0-2.68","LF","nav0ha06h4","1366","768","en","TZ07ER11","null","","","","learningBlock2","","","","<div style=""font-size:60px;""> </div>","null","LF","learning/Slide149.JPG","This is a dep:","",""
"","html-keyboard-response","455","858720","0.0-8.0-0.69","LF","nav0ha06h4","1366","768","en","TZ07ER11","null","","","","learningBlock2","","","","This is a wug:","null","","","","",""
"","image-keyboard-response","456","859049","0.0-8.0-1.69","LF","nav0ha06h4","1366","768","en","TZ07ER11","null","","","","","","","","learning/Slide150.JPG","null","","","","",""
"","html-keyboard-response","457","860051","0.0-8.0-2.69","LF","nav0ha06h4","1366","768","en","TZ07ER11","null","","","","learningBlock2","","","","<div style=""font-size:60px;""> </div>","null","LF","learning/Slide150.JPG","This is a wug:","",""
"","html-keyboard-response","458","861054","0.0-8.0-0.70","LF","nav0ha06h4","1366","768","en","TZ07ER11","null","","","","learningBlock2","","","","This is a dep:","null","","","","",""
"","image-keyboard-response","459","861382","0.0-8.0-1.70","LF","nav0ha06h4","1366","768","en","TZ07ER11","null","","","","","","","","learning/Slide151.JPG","null","","","","",""
"","html-keyboard-response","460","862384","0.0-8.0-2.70","LF","nav0ha06h4","1366","768","en","TZ07ER11","null","","","","learningBlock2","","","","<div style=""font-size:60px;""> </div>","null","LF","learning/Slide151.JPG","This is a dep:","",""
"","html-keyboard-response","461","863387","0.0-8.0-0.71","LF","nav0ha06h4","1366","768","en","TZ07ER11","null","","","","learningBlock2","","","","This is a wug:","null","","","","",""
"","image-keyboard-response","462","863715","0.0-8.0-1.71","LF","nav0ha06h4","1366","768","en","TZ07ER11","null","","","","","","","","learning/Slide152.JPG","null","","","","",""
"","html-keyboard-response","463","864717","0.0-8.0-2.71","LF","nav0ha06h4","1366","768","en","TZ07ER11","null","","","","learningBlock2","","","","<div style=""font-size:60px;""> </div>","null","LF","learning/Slide152.JPG","This is a wug:","",""
"","html-keyboard-response","464","865720","0.0-8.0-0.72","LF","nav0ha06h4","1366","768","en","TZ07ER11","null","","","","learningBlock2","","","","This is a bim:","null","","","","",""
"","image-keyboard-response","465","866049","0.0-8.0-1.72","LF","nav0ha06h4","1366","768","en","TZ07ER11","null","","","","","","","","learning/Slide153.JPG","null","","","","",""
"","html-keyboard-response","466","867051","0.0-8.0-2.72","LF","nav0ha06h4","1366","768","en","TZ07ER11","null","","","","learningBlock2","","","","<div style=""font-size:60px;""> </div>","null","LF","learning/Slide153.JPG","This is a bim:","",""
"","html-keyboard-response","467","868054","0.0-8.0-0.73","LF","nav0ha06h4","1366","768","en","TZ07ER11","null","","","","learningBlock2","","","","This is a tob:","null","","","","",""
"","image-keyboard-response","468","868382","0.0-8.0-1.73","LF","nav0ha06h4","1366","768","en","TZ07ER11","null","","","","","","","","learning/Slide154.JPG","null","","","","",""
"","html-keyboard-response","469","869384","0.0-8.0-2.73","LF","nav0ha06h4","1366","768","en","TZ07ER11","null","","","","learningBlock2","","","","<div style=""font-size:60px;""> </div>","null","LF","learning/Slide154.JPG","This is a tob:","",""
"","html-keyboard-response","470","870387","0.0-8.0-0.74","LF","nav0ha06h4","1366","768","en","TZ07ER11","null","","","","learningBlock2","","","","This is a dep:","null","","","","",""
"","image-keyboard-response","471","870715","0.0-8.0-1.74","LF","nav0ha06h4","1366","768","en","TZ07ER11","null","","","","","","","","learning/Slide155.JPG","null","","","","",""
"","html-keyboard-response","472","871717","0.0-8.0-2.74","LF","nav0ha06h4","1366","768","en","TZ07ER11","null","","","","learningBlock2","","","","<div style=""font-size:60px;""> </div>","null","LF","learning/Slide155.JPG","This is a dep:","",""
"","html-keyboard-response","473","872720","0.0-8.0-0.75","LF","nav0ha06h4","1366","768","en","TZ07ER11","null","","","","learningBlock2","","","","This is a bim:","null","","","","",""
"","image-keyboard-response","474","873048","0.0-8.0-1.75","LF","nav0ha06h4","1366","768","en","TZ07ER11","null","","","","","","","","learning/Slide156.JPG","null","","","","",""
"","html-keyboard-response","475","874050","0.0-8.0-2.75","LF","nav0ha06h4","1366","768","en","TZ07ER11","null","","","","learningBlock2","","","","<div style=""font-size:60px;""> </div>","null","LF","learning/Slide156.JPG","This is a bim:","",""
"","html-keyboard-response","476","875053","0.0-8.0-0.76","LF","nav0ha06h4","1366","768","en","TZ07ER11","null","","","","learningBlock2","","","","This is a dep:","null","","","","",""
"","image-keyboard-response","477","875381","0.0-8.0-1.76","LF","nav0ha06h4","1366","768","en","TZ07ER11","null","","","","","","","","learning/Slide157.JPG","null","","","","",""
"","html-keyboard-response","478","876384","0.0-8.0-2.76","LF","nav0ha06h4","1366","768","en","TZ07ER11","null","","","","learningBlock2","","","","<div style=""font-size:60px;""> </div>","null","LF","learning/Slide157.JPG","This is a dep:","",""
"","html-keyboard-response","479","877387","0.0-8.0-0.77","LF","nav0ha06h4","1366","768","en","TZ07ER11","null","","","","learningBlock2","","","","This is a tob:","null","","","","",""
"","image-keyboard-response","480","877715","0.0-8.0-1.77","LF","nav0ha06h4","1366","768","en","TZ07ER11","null","","","","","","","","learning/Slide158.JPG","null","","","","",""
"","html-keyboard-response","481","878717","0.0-8.0-2.77","LF","nav0ha06h4","1366","768","en","TZ07ER11","null","","","","learningBlock2","","","","<div style=""font-size:60px;""> </div>","null","LF","learning/Slide158.JPG","This is a tob:","",""
"","html-keyboard-response","482","879719","0.0-8.0-0.78","LF","nav0ha06h4","1366","768","en","TZ07ER11","null","","","","learningBlock2","","","","This is a dep:","null","","","","",""
"","image-keyboard-response","483","880048","0.0-8.0-1.78","LF","nav0ha06h4","1366","768","en","TZ07ER11","null","","","","","","","","learning/Slide159.JPG","null","","","","",""
"","html-keyboard-response","484","881051","0.0-8.0-2.78","LF","nav0ha06h4","1366","768","en","TZ07ER11","null","","","","learningBlock2","","","","<div style=""font-size:60px;""> </div>","null","LF","learning/Slide159.JPG","This is a dep:","",""
"","html-keyboard-response","485","882053","0.0-8.0-0.79","LF","nav0ha06h4","1366","768","en","TZ07ER11","null","","","","learningBlock2","","","","This is a wug:","null","","","","",""
"","image-keyboard-response","486","882381","0.0-8.0-1.79","LF","nav0ha06h4","1366","768","en","TZ07ER11","null","","","","","","","","learning/Slide160.JPG","null","","","","",""
"","html-keyboard-response","487","883384","0.0-8.0-2.79","LF","nav0ha06h4","1366","768","en","TZ07ER11","null","","","","learningBlock2","","","","<div style=""font-size:60px;""> </div>","null","LF","learning/Slide160.JPG","This is a wug:","",""
"","resize2","488","902504","0.0-9.0","LF","nav0ha06h4","1366","768","en","TZ07ER11","","","","","","","104","1.04","","","","","","",""
"","instructions","489","912967","0.0-10.0","LF","nav0ha06h4","1366","768","en","TZ07ER11","NA","","","[{""page_index"":0,""viewing_time"":10460.999999999884}]","instructions","","","","","","","","","",""
"","html-keyboard-response","490","913969","0.0-11.0-0.0","LF","nav0ha06h4","1366","768","en","TZ07ER11","null","","","","","","","","<div style=""font-size:60px;"">+</div>","null","","","","",""
