"success","trial_type","trial_index","time_elapsed","internal_node_id","condition","subject","screen_width","screen_height","language","codeword","rt","responses","url","view_history","test_part","final_height_px","final_width_px","scale_factor","stimulus","key_press","learningType","presentedImage","presentedLabel","button_pressed","response"
"true","fullscreen","0","26236","0.0-0.0","LF","3zzac4tx1p","1280","720","en","on03as29","","","","","","","","","","","","","","",""
"","survey-html-form","1","37885","0.0-1.0","LF","3zzac4tx1p","1280","720","en","on03as29","11642.289999988861","{""language"":""en""}","","","","","","","","","","","","",""
"","external-html","2","230871","0.0-3.0-0.0","LF","3zzac4tx1p","1280","720","en","on03as29","192888.09999998193","","text/information_english.html","","","","","","","","","","","",""
"","external-html","3","267425","0.0-3.0-1.0","LF","3zzac4tx1p","1280","720","en","on03as29","36430.15000002924","","text/consent_english.html","","","","","","","","","","","",""
"","survey-html-form","4","353952","0.0-3.0-2.0","LF","3zzac4tx1p","1280","720","en","on03as29","86520.82500001416","{""codeword_enter"":""on03as29""}","","","","","","","","","","","","",""
"","instructions","5","378386","0.0-4.0","LF","3zzac4tx1p","1280","720","en","on03as29","NA","","","[{""page_index"":0,""viewing_time"":4510.505000012927},{""page_index"":1,""viewing_time"":18418.110000086017}]","instructions","","","","","","","","","",""
"","resize","6","566037","0.0-5.0","LF","3zzac4tx1p","1280","720","en","on03as29","","","","","","","365","2.3174603174603177","","","","","","",""
"","html-keyboard-response","7","567042","0.0-6.0-0.0","LF","3zzac4tx1p","1280","720","en","on03as29","null","","","","learningBlock1","","","","This is a tob:","null","","","","",""
"","image-keyboard-response","8","567371","0.0-6.0-1.0","LF","3zzac4tx1p","1280","720","en","on03as29","null","","","","","","","","learning/Slide1.JPG","null","","","","",""
"","html-keyboard-response","9","568374","0.0-6.0-2.0","LF","3zzac4tx1p","1280","720","en","on03as29","null","","","","learningBlock1","","","","<div style=""font-size:60px;""> </div>","null","LF","learning/Slide1.JPG","This is a tob:","",""
"","html-keyboard-response","10","569377","0.0-6.0-0.1","LF","3zzac4tx1p","1280","720","en","on03as29","null","","","","learningBlock1","","","","This is a wug:","null","","","","",""
"","image-keyboard-response","11","569706","0.0-6.0-1.1","LF","3zzac4tx1p","1280","720","en","on03as29","null","","","","","","","","learning/Slide2.JPG","null","","","","",""
"","html-keyboard-response","12","570709","0.0-6.0-2.1","LF","3zzac4tx1p","1280","720","en","on03as29","null","","","","learningBlock1","","","","<div style=""font-size:60px;""> </div>","null","LF","learning/Slide2.JPG","This is a wug:","",""
"","html-keyboard-response","13","571711","0.0-6.0-0.2","LF","3zzac4tx1p","1280","720","en","on03as29","null","","","","learningBlock1","","","","This is a bim:","null","","","","",""
"","image-keyboard-response","14","572040","0.0-6.0-1.2","LF","3zzac4tx1p","1280","720","en","on03as29","null","","","","","","","","learning/Slide3.JPG","null","","","","",""
"","html-keyboard-response","15","573043","0.0-6.0-2.2","LF","3zzac4tx1p","1280","720","en","on03as29","null","","","","learningBlock1","","","","<div style=""font-size:60px;""> </div>","null","LF","learning/Slide3.JPG","This is a bim:","",""
"","html-keyboard-response","16","574047","0.0-6.0-0.3","LF","3zzac4tx1p","1280","720","en","on03as29","null","","","","learningBlock1","","","","This is a dep:","null","","","","",""
"","image-keyboard-response","17","574375","0.0-6.0-1.3","LF","3zzac4tx1p","1280","720","en","on03as29","null","","","","","","","","learning/Slide4.JPG","null","","","","",""
"","html-keyboard-response","18","575377","0.0-6.0-2.3","LF","3zzac4tx1p","1280","720","en","on03as29","null","","","","learningBlock1","","","","<div style=""font-size:60px;""> </div>","null","LF","learning/Slide4.JPG","This is a dep:","",""
"","html-keyboard-response","19","576380","0.0-6.0-0.4","LF","3zzac4tx1p","1280","720","en","on03as29","null","","","","learningBlock1","","","","This is a wug:","null","","","","",""
"","image-keyboard-response","20","576708","0.0-6.0-1.4","LF","3zzac4tx1p","1280","720","en","on03as29","null","","","","","","","","learning/Slide5.JPG","null","","","","",""
"","html-keyboard-response","21","577710","0.0-6.0-2.4","LF","3zzac4tx1p","1280","720","en","on03as29","null","","","","learningBlock1","","","","<div style=""font-size:60px;""> </div>","null","LF","learning/Slide5.JPG","This is a wug:","",""
"","html-keyboard-response","22","578713","0.0-6.0-0.5","LF","3zzac4tx1p","1280","720","en","on03as29","null","","","","learningBlock1","","","","This is a dep:","null","","","","",""
"","image-keyboard-response","23","579041","0.0-6.0-1.5","LF","3zzac4tx1p","1280","720","en","on03as29","null","","","","","","","","learning/Slide6.JPG","null","","","","",""
"","html-keyboard-response","24","580045","0.0-6.0-2.5","LF","3zzac4tx1p","1280","720","en","on03as29","null","","","","learningBlock1","","","","<div style=""font-size:60px;""> </div>","null","LF","learning/Slide6.JPG","This is a dep:","",""
"","html-keyboard-response","25","581047","0.0-6.0-0.6","LF","3zzac4tx1p","1280","720","en","on03as29","null","","","","learningBlock1","","","","This is a wug:","null","","","","",""
"","image-keyboard-response","26","581376","0.0-6.0-1.6","LF","3zzac4tx1p","1280","720","en","on03as29","null","","","","","","","","learning/Slide7.JPG","null","","","","",""
"","html-keyboard-response","27","582378","0.0-6.0-2.6","LF","3zzac4tx1p","1280","720","en","on03as29","null","","","","learningBlock1","","","","<div style=""font-size:60px;""> </div>","null","LF","learning/Slide7.JPG","This is a wug:","",""
"","html-keyboard-response","28","583381","0.0-6.0-0.7","LF","3zzac4tx1p","1280","720","en","on03as29","null","","","","learningBlock1","","","","This is a bim:","null","","","","",""
"","image-keyboard-response","29","583709","0.0-6.0-1.7","LF","3zzac4tx1p","1280","720","en","on03as29","null","","","","","","","","learning/Slide8.JPG","null","","","","",""
"","html-keyboard-response","30","584712","0.0-6.0-2.7","LF","3zzac4tx1p","1280","720","en","on03as29","null","","","","learningBlock1","","","","<div style=""font-size:60px;""> </div>","null","LF","learning/Slide8.JPG","This is a bim:","",""
"","html-keyboard-response","31","585714","0.0-6.0-0.8","LF","3zzac4tx1p","1280","720","en","on03as29","null","","","","learningBlock1","","","","This is a wug:","null","","","","",""
"","image-keyboard-response","32","586041","0.0-6.0-1.8","LF","3zzac4tx1p","1280","720","en","on03as29","null","","","","","","","","learning/Slide9.JPG","null","","","","",""
"","html-keyboard-response","33","587047","0.0-6.0-2.8","LF","3zzac4tx1p","1280","720","en","on03as29","null","","","","learningBlock1","","","","<div style=""font-size:60px;""> </div>","null","LF","learning/Slide9.JPG","This is a wug:","",""
"","html-keyboard-response","34","588049","0.0-6.0-0.9","LF","3zzac4tx1p","1280","720","en","on03as29","null","","","","learningBlock1","","","","This is a dep:","null","","","","",""
"","image-keyboard-response","35","588376","0.0-6.0-1.9","LF","3zzac4tx1p","1280","720","en","on03as29","null","","","","","","","","learning/Slide10.JPG","null","","","","",""
"","html-keyboard-response","36","589379","0.0-6.0-2.9","LF","3zzac4tx1p","1280","720","en","on03as29","null","","","","learningBlock1","","","","<div style=""font-size:60px;""> </div>","null","LF","learning/Slide10.JPG","This is a dep:","",""
"","html-keyboard-response","37","590381","0.0-6.0-0.10","LF","3zzac4tx1p","1280","720","en","on03as29","null","","","","learningBlock1","","","","This is a tob:","null","","","","",""
"","image-keyboard-response","38","590709","0.0-6.0-1.10","LF","3zzac4tx1p","1280","720","en","on03as29","null","","","","","","","","learning/Slide11.JPG","null","","","","",""
"","html-keyboard-response","39","591711","0.0-6.0-2.10","LF","3zzac4tx1p","1280","720","en","on03as29","null","","","","learningBlock1","","","","<div style=""font-size:60px;""> </div>","null","LF","learning/Slide11.JPG","This is a tob:","",""
"","html-keyboard-response","40","592714","0.0-6.0-0.11","LF","3zzac4tx1p","1280","720","en","on03as29","null","","","","learningBlock1","","","","This is a dep:","null","","","","",""
"","image-keyboard-response","41","593042","0.0-6.0-1.11","LF","3zzac4tx1p","1280","720","en","on03as29","null","","","","","","","","learning/Slide12.JPG","null","","","","",""
"","html-keyboard-response","42","594044","0.0-6.0-2.11","LF","3zzac4tx1p","1280","720","en","on03as29","null","","","","learningBlock1","","","","<div style=""font-size:60px;""> </div>","null","LF","learning/Slide12.JPG","This is a dep:","",""
"","html-keyboard-response","43","595046","0.0-6.0-0.12","LF","3zzac4tx1p","1280","720","en","on03as29","null","","","","learningBlock1","","","","This is a bim:","null","","","","",""
"","image-keyboard-response","44","595373","0.0-6.0-1.12","LF","3zzac4tx1p","1280","720","en","on03as29","null","","","","","","","","learning/Slide13.JPG","null","","","","",""
"","html-keyboard-response","45","596376","0.0-6.0-2.12","LF","3zzac4tx1p","1280","720","en","on03as29","null","","","","learningBlock1","","","","<div style=""font-size:60px;""> </div>","null","LF","learning/Slide13.JPG","This is a bim:","",""
"","html-keyboard-response","46","597378","0.0-6.0-0.13","LF","3zzac4tx1p","1280","720","en","on03as29","null","","","","learningBlock1","","","","This is a wug:","null","","","","",""
"","image-keyboard-response","47","597706","0.0-6.0-1.13","LF","3zzac4tx1p","1280","720","en","on03as29","null","","","","","","","","learning/Slide14.JPG","null","","","","",""
"","html-keyboard-response","48","598709","0.0-6.0-2.13","LF","3zzac4tx1p","1280","720","en","on03as29","null","","","","learningBlock1","","","","<div style=""font-size:60px;""> </div>","null","LF","learning/Slide14.JPG","This is a wug:","",""
"","html-keyboard-response","49","599712","0.0-6.0-0.14","LF","3zzac4tx1p","1280","720","en","on03as29","null","","","","learningBlock1","","","","This is a tob:","null","","","","",""
"","image-keyboard-response","50","600039","0.0-6.0-1.14","LF","3zzac4tx1p","1280","720","en","on03as29","null","","","","","","","","learning/Slide15.JPG","null","","","","",""
"","html-keyboard-response","51","601042","0.0-6.0-2.14","LF","3zzac4tx1p","1280","720","en","on03as29","null","","","","learningBlock1","","","","<div style=""font-size:60px;""> </div>","null","LF","learning/Slide15.JPG","This is a tob:","",""
"","html-keyboard-response","52","602045","0.0-6.0-0.15","LF","3zzac4tx1p","1280","720","en","on03as29","null","","","","learningBlock1","","","","This is a dep:","null","","","","",""
"","image-keyboard-response","53","602372","0.0-6.0-1.15","LF","3zzac4tx1p","1280","720","en","on03as29","null","","","","","","","","learning/Slide16.JPG","null","","","","",""
"","html-keyboard-response","54","603374","0.0-6.0-2.15","LF","3zzac4tx1p","1280","720","en","on03as29","null","","","","learningBlock1","","","","<div style=""font-size:60px;""> </div>","null","LF","learning/Slide16.JPG","This is a dep:","",""
"","html-keyboard-response","55","604376","0.0-6.0-0.16","LF","3zzac4tx1p","1280","720","en","on03as29","null","","","","learningBlock1","","","","This is a bim:","null","","","","",""
"","image-keyboard-response","56","604705","0.0-6.0-1.16","LF","3zzac4tx1p","1280","720","en","on03as29","null","","","","","","","","learning/Slide17.JPG","null","","","","",""
"","html-keyboard-response","57","605707","0.0-6.0-2.16","LF","3zzac4tx1p","1280","720","en","on03as29","null","","","","learningBlock1","","","","<div style=""font-size:60px;""> </div>","null","LF","learning/Slide17.JPG","This is a bim:","",""
"","html-keyboard-response","58","606709","0.0-6.0-0.17","LF","3zzac4tx1p","1280","720","en","on03as29","null","","","","learningBlock1","","","","This is a tob:","null","","","","",""
"","image-keyboard-response","59","607037","0.0-6.0-1.17","LF","3zzac4tx1p","1280","720","en","on03as29","null","","","","","","","","learning/Slide18.JPG","null","","","","",""
"","html-keyboard-response","60","608039","0.0-6.0-2.17","LF","3zzac4tx1p","1280","720","en","on03as29","null","","","","learningBlock1","","","","<div style=""font-size:60px;""> </div>","null","LF","learning/Slide18.JPG","This is a tob:","",""
"","html-keyboard-response","61","609041","0.0-6.0-0.18","LF","3zzac4tx1p","1280","720","en","on03as29","null","","","","learningBlock1","","","","This is a wug:","null","","","","",""
"","image-keyboard-response","62","609370","0.0-6.0-1.18","LF","3zzac4tx1p","1280","720","en","on03as29","null","","","","","","","","learning/Slide19.JPG","null","","","","",""
"","html-keyboard-response","63","610373","0.0-6.0-2.18","LF","3zzac4tx1p","1280","720","en","on03as29","null","","","","learningBlock1","","","","<div style=""font-size:60px;""> </div>","null","LF","learning/Slide19.JPG","This is a wug:","",""
"","html-keyboard-response","64","611375","0.0-6.0-0.19","LF","3zzac4tx1p","1280","720","en","on03as29","null","","","","learningBlock1","","","","This is a bim:","null","","","","",""
"","image-keyboard-response","65","611703","0.0-6.0-1.19","LF","3zzac4tx1p","1280","720","en","on03as29","null","","","","","","","","learning/Slide20.JPG","null","","","","",""
"","html-keyboard-response","66","612705","0.0-6.0-2.19","LF","3zzac4tx1p","1280","720","en","on03as29","null","","","","learningBlock1","","","","<div style=""font-size:60px;""> </div>","null","LF","learning/Slide20.JPG","This is a bim:","",""
"","html-keyboard-response","67","613707","0.0-6.0-0.20","LF","3zzac4tx1p","1280","720","en","on03as29","null","","","","learningBlock1","","","","This is a dep:","null","","","","",""
"","image-keyboard-response","68","614035","0.0-6.0-1.20","LF","3zzac4tx1p","1280","720","en","on03as29","null","","","","","","","","learning/Slide21.JPG","null","","","","",""
"","html-keyboard-response","69","615042","0.0-6.0-2.20","LF","3zzac4tx1p","1280","720","en","on03as29","null","","","","learningBlock1","","","","<div style=""font-size:60px;""> </div>","null","LF","learning/Slide21.JPG","This is a dep:","",""
"","html-keyboard-response","70","616045","0.0-6.0-0.21","LF","3zzac4tx1p","1280","720","en","on03as29","null","","","","learningBlock1","","","","This is a bim:","null","","","","",""
"","image-keyboard-response","71","616374","0.0-6.0-1.21","LF","3zzac4tx1p","1280","720","en","on03as29","null","","","","","","","","learning/Slide22.JPG","null","","","","",""
"","html-keyboard-response","72","617377","0.0-6.0-2.21","LF","3zzac4tx1p","1280","720","en","on03as29","null","","","","learningBlock1","","","","<div style=""font-size:60px;""> </div>","null","LF","learning/Slide22.JPG","This is a bim:","",""
"","html-keyboard-response","73","618380","0.0-6.0-0.22","LF","3zzac4tx1p","1280","720","en","on03as29","null","","","","learningBlock1","","","","This is a tob:","null","","","","",""
"","image-keyboard-response","74","618708","0.0-6.0-1.22","LF","3zzac4tx1p","1280","720","en","on03as29","null","","","","","","","","learning/Slide23.JPG","null","","","","",""
"","html-keyboard-response","75","619710","0.0-6.0-2.22","LF","3zzac4tx1p","1280","720","en","on03as29","null","","","","learningBlock1","","","","<div style=""font-size:60px;""> </div>","null","LF","learning/Slide23.JPG","This is a tob:","",""
"","html-keyboard-response","76","620712","0.0-6.0-0.23","LF","3zzac4tx1p","1280","720","en","on03as29","null","","","","learningBlock1","","","","This is a wug:","null","","","","",""
"","image-keyboard-response","77","621039","0.0-6.0-1.23","LF","3zzac4tx1p","1280","720","en","on03as29","null","","","","","","","","learning/Slide24.JPG","null","","","","",""
"","html-keyboard-response","78","622042","0.0-6.0-2.23","LF","3zzac4tx1p","1280","720","en","on03as29","null","","","","learningBlock1","","","","<div style=""font-size:60px;""> </div>","null","LF","learning/Slide24.JPG","This is a wug:","",""
"","html-keyboard-response","79","623044","0.0-6.0-0.24","LF","3zzac4tx1p","1280","720","en","on03as29","null","","","","learningBlock1","","","","This is a dep:","null","","","","",""
"","image-keyboard-response","80","623371","0.0-6.0-1.24","LF","3zzac4tx1p","1280","720","en","on03as29","null","","","","","","","","learning/Slide25.JPG","null","","","","",""
"","html-keyboard-response","81","624373","0.0-6.0-2.24","LF","3zzac4tx1p","1280","720","en","on03as29","null","","","","learningBlock1","","","","<div style=""font-size:60px;""> </div>","null","LF","learning/Slide25.JPG","This is a dep:","",""
"","html-keyboard-response","82","625375","0.0-6.0-0.25","LF","3zzac4tx1p","1280","720","en","on03as29","null","","","","learningBlock1","","","","This is a wug:","null","","","","",""
"","image-keyboard-response","83","625703","0.0-6.0-1.25","LF","3zzac4tx1p","1280","720","en","on03as29","null","","","","","","","","learning/Slide26.JPG","null","","","","",""
"","html-keyboard-response","84","626706","0.0-6.0-2.25","LF","3zzac4tx1p","1280","720","en","on03as29","null","","","","learningBlock1","","","","<div style=""font-size:60px;""> </div>","null","LF","learning/Slide26.JPG","This is a wug:","",""
"","html-keyboard-response","85","627708","0.0-6.0-0.26","LF","3zzac4tx1p","1280","720","en","on03as29","null","","","","learningBlock1","","","","This is a bim:","null","","","","",""
"","image-keyboard-response","86","628035","0.0-6.0-1.26","LF","3zzac4tx1p","1280","720","en","on03as29","null","","","","","","","","learning/Slide27.JPG","null","","","","",""
"","html-keyboard-response","87","629038","0.0-6.0-2.26","LF","3zzac4tx1p","1280","720","en","on03as29","null","","","","learningBlock1","","","","<div style=""font-size:60px;""> </div>","null","LF","learning/Slide27.JPG","This is a bim:","",""
"","html-keyboard-response","88","630041","0.0-6.0-0.27","LF","3zzac4tx1p","1280","720","en","on03as29","null","","","","learningBlock1","","","","This is a dep:","null","","","","",""
"","image-keyboard-response","89","630369","0.0-6.0-1.27","LF","3zzac4tx1p","1280","720","en","on03as29","null","","","","","","","","learning/Slide28.JPG","null","","","","",""
"","html-keyboard-response","90","631371","0.0-6.0-2.27","LF","3zzac4tx1p","1280","720","en","on03as29","null","","","","learningBlock1","","","","<div style=""font-size:60px;""> </div>","null","LF","learning/Slide28.JPG","This is a dep:","",""
"","html-keyboard-response","91","632374","0.0-6.0-0.28","LF","3zzac4tx1p","1280","720","en","on03as29","null","","","","learningBlock1","","","","This is a tob:","null","","","","",""
"","image-keyboard-response","92","632702","0.0-6.0-1.28","LF","3zzac4tx1p","1280","720","en","on03as29","null","","","","","","","","learning/Slide29.JPG","null","","","","",""
"","html-keyboard-response","93","633704","0.0-6.0-2.28","LF","3zzac4tx1p","1280","720","en","on03as29","null","","","","learningBlock1","","","","<div style=""font-size:60px;""> </div>","null","LF","learning/Slide29.JPG","This is a tob:","",""
"","html-keyboard-response","94","634707","0.0-6.0-0.29","LF","3zzac4tx1p","1280","720","en","on03as29","null","","","","learningBlock1","","","","This is a dep:","null","","","","",""
"","image-keyboard-response","95","635035","0.0-6.0-1.29","LF","3zzac4tx1p","1280","720","en","on03as29","null","","","","","","","","learning/Slide30.JPG","null","","","","",""
"","html-keyboard-response","96","636038","0.0-6.0-2.29","LF","3zzac4tx1p","1280","720","en","on03as29","null","","","","learningBlock1","","","","<div style=""font-size:60px;""> </div>","null","LF","learning/Slide30.JPG","This is a dep:","",""
"","html-keyboard-response","97","637040","0.0-6.0-0.30","LF","3zzac4tx1p","1280","720","en","on03as29","null","","","","learningBlock1","","","","This is a wug:","null","","","","",""
"","image-keyboard-response","98","637368","0.0-6.0-1.30","LF","3zzac4tx1p","1280","720","en","on03as29","null","","","","","","","","learning/Slide31.JPG","null","","","","",""
"","html-keyboard-response","99","638370","0.0-6.0-2.30","LF","3zzac4tx1p","1280","720","en","on03as29","null","","","","learningBlock1","","","","<div style=""font-size:60px;""> </div>","null","LF","learning/Slide31.JPG","This is a wug:","",""
"","html-keyboard-response","100","639372","0.0-6.0-0.31","LF","3zzac4tx1p","1280","720","en","on03as29","null","","","","learningBlock1","","","","This is a tob:","null","","","","",""
"","image-keyboard-response","101","639700","0.0-6.0-1.31","LF","3zzac4tx1p","1280","720","en","on03as29","null","","","","","","","","learning/Slide32.JPG","null","","","","",""
"","html-keyboard-response","102","640702","0.0-6.0-2.31","LF","3zzac4tx1p","1280","720","en","on03as29","null","","","","learningBlock1","","","","<div style=""font-size:60px;""> </div>","null","LF","learning/Slide32.JPG","This is a tob:","",""
"","html-keyboard-response","103","641704","0.0-6.0-0.32","LF","3zzac4tx1p","1280","720","en","on03as29","null","","","","learningBlock1","","","","This is a bim:","null","","","","",""
"","image-keyboard-response","104","642033","0.0-6.0-1.32","LF","3zzac4tx1p","1280","720","en","on03as29","null","","","","","","","","learning/Slide33.JPG","null","","","","",""
"","html-keyboard-response","105","643035","0.0-6.0-2.32","LF","3zzac4tx1p","1280","720","en","on03as29","null","","","","learningBlock1","","","","<div style=""font-size:60px;""> </div>","null","LF","learning/Slide33.JPG","This is a bim:","",""
"","html-keyboard-response","106","644038","0.0-6.0-0.33","LF","3zzac4tx1p","1280","720","en","on03as29","null","","","","learningBlock1","","","","This is a tob:","null","","","","",""
"","image-keyboard-response","107","644366","0.0-6.0-1.33","LF","3zzac4tx1p","1280","720","en","on03as29","null","","","","","","","","learning/Slide34.JPG","null","","","","",""
"","html-keyboard-response","108","645369","0.0-6.0-2.33","LF","3zzac4tx1p","1280","720","en","on03as29","null","","","","learningBlock1","","","","<div style=""font-size:60px;""> </div>","null","LF","learning/Slide34.JPG","This is a tob:","",""
"","html-keyboard-response","109","646372","0.0-6.0-0.34","LF","3zzac4tx1p","1280","720","en","on03as29","null","","","","learningBlock1","","","","This is a bim:","null","","","","",""
"","image-keyboard-response","110","646700","0.0-6.0-1.34","LF","3zzac4tx1p","1280","720","en","on03as29","null","","","","","","","","learning/Slide35.JPG","null","","","","",""
"","html-keyboard-response","111","647702","0.0-6.0-2.34","LF","3zzac4tx1p","1280","720","en","on03as29","null","","","","learningBlock1","","","","<div style=""font-size:60px;""> </div>","null","LF","learning/Slide35.JPG","This is a bim:","",""
"","html-keyboard-response","112","648704","0.0-6.0-0.35","LF","3zzac4tx1p","1280","720","en","on03as29","null","","","","learningBlock1","","","","This is a dep:","null","","","","",""
"","image-keyboard-response","113","649031","0.0-6.0-1.35","LF","3zzac4tx1p","1280","720","en","on03as29","null","","","","","","","","learning/Slide36.JPG","null","","","","",""
"","html-keyboard-response","114","650034","0.0-6.0-2.35","LF","3zzac4tx1p","1280","720","en","on03as29","null","","","","learningBlock1","","","","<div style=""font-size:60px;""> </div>","null","LF","learning/Slide36.JPG","This is a dep:","",""
"","html-keyboard-response","115","651036","0.0-6.0-0.36","LF","3zzac4tx1p","1280","720","en","on03as29","null","","","","learningBlock1","","","","This is a tob:","null","","","","",""
"","image-keyboard-response","116","651364","0.0-6.0-1.36","LF","3zzac4tx1p","1280","720","en","on03as29","null","","","","","","","","learning/Slide37.JPG","null","","","","",""
"","html-keyboard-response","117","652366","0.0-6.0-2.36","LF","3zzac4tx1p","1280","720","en","on03as29","null","","","","learningBlock1","","","","<div style=""font-size:60px;""> </div>","null","LF","learning/Slide37.JPG","This is a tob:","",""
"","html-keyboard-response","118","653368","0.0-6.0-0.37","LF","3zzac4tx1p","1280","720","en","on03as29","null","","","","learningBlock1","","","","This is a wug:","null","","","","",""
"","image-keyboard-response","119","653696","0.0-6.0-1.37","LF","3zzac4tx1p","1280","720","en","on03as29","null","","","","","","","","learning/Slide38.JPG","null","","","","",""
"","html-keyboard-response","120","654699","0.0-6.0-2.37","LF","3zzac4tx1p","1280","720","en","on03as29","null","","","","learningBlock1","","","","<div style=""font-size:60px;""> </div>","null","LF","learning/Slide38.JPG","This is a wug:","",""
"","html-keyboard-response","121","655702","0.0-6.0-0.38","LF","3zzac4tx1p","1280","720","en","on03as29","null","","","","learningBlock1","","","","This is a bim:","null","","","","",""
"","image-keyboard-response","122","656029","0.0-6.0-1.38","LF","3zzac4tx1p","1280","720","en","on03as29","null","","","","","","","","learning/Slide39.JPG","null","","","","",""
"","html-keyboard-response","123","657032","0.0-6.0-2.38","LF","3zzac4tx1p","1280","720","en","on03as29","null","","","","learningBlock1","","","","<div style=""font-size:60px;""> </div>","null","LF","learning/Slide39.JPG","This is a bim:","",""
"","html-keyboard-response","124","658034","0.0-6.0-0.39","LF","3zzac4tx1p","1280","720","en","on03as29","null","","","","learningBlock1","","","","This is a tob:","null","","","","",""
"","image-keyboard-response","125","658363","0.0-6.0-1.39","LF","3zzac4tx1p","1280","720","en","on03as29","null","","","","","","","","learning/Slide40.JPG","null","","","","",""
"","html-keyboard-response","126","659365","0.0-6.0-2.39","LF","3zzac4tx1p","1280","720","en","on03as29","null","","","","learningBlock1","","","","<div style=""font-size:60px;""> </div>","null","LF","learning/Slide40.JPG","This is a tob:","",""
"","html-keyboard-response","127","660367","0.0-6.0-0.40","LF","3zzac4tx1p","1280","720","en","on03as29","null","","","","learningBlock1","","","","This is a bim:","null","","","","",""
"","image-keyboard-response","128","660695","0.0-6.0-1.40","LF","3zzac4tx1p","1280","720","en","on03as29","null","","","","","","","","learning/Slide41.JPG","null","","","","",""
"","html-keyboard-response","129","661698","0.0-6.0-2.40","LF","3zzac4tx1p","1280","720","en","on03as29","null","","","","learningBlock1","","","","<div style=""font-size:60px;""> </div>","null","LF","learning/Slide41.JPG","This is a bim:","",""
"","html-keyboard-response","130","662701","0.0-6.0-0.41","LF","3zzac4tx1p","1280","720","en","on03as29","null","","","","learningBlock1","","","","This is a dep:","null","","","","",""
"","image-keyboard-response","131","663029","0.0-6.0-1.41","LF","3zzac4tx1p","1280","720","en","on03as29","null","","","","","","","","learning/Slide42.JPG","null","","","","",""
"","html-keyboard-response","132","664032","0.0-6.0-2.41","LF","3zzac4tx1p","1280","720","en","on03as29","null","","","","learningBlock1","","","","<div style=""font-size:60px;""> </div>","null","LF","learning/Slide42.JPG","This is a dep:","",""
"","html-keyboard-response","133","665034","0.0-6.0-0.42","LF","3zzac4tx1p","1280","720","en","on03as29","null","","","","learningBlock1","","","","This is a wug:","null","","","","",""
"","image-keyboard-response","134","665362","0.0-6.0-1.42","LF","3zzac4tx1p","1280","720","en","on03as29","null","","","","","","","","learning/Slide43.JPG","null","","","","",""
"","html-keyboard-response","135","666364","0.0-6.0-2.42","LF","3zzac4tx1p","1280","720","en","on03as29","null","","","","learningBlock1","","","","<div style=""font-size:60px;""> </div>","null","LF","learning/Slide43.JPG","This is a wug:","",""
"","html-keyboard-response","136","667366","0.0-6.0-0.43","LF","3zzac4tx1p","1280","720","en","on03as29","null","","","","learningBlock1","","","","This is a bim:","null","","","","",""
"","image-keyboard-response","137","667694","0.0-6.0-1.43","LF","3zzac4tx1p","1280","720","en","on03as29","null","","","","","","","","learning/Slide44.JPG","null","","","","",""
"","html-keyboard-response","138","668697","0.0-6.0-2.43","LF","3zzac4tx1p","1280","720","en","on03as29","null","","","","learningBlock1","","","","<div style=""font-size:60px;""> </div>","null","LF","learning/Slide44.JPG","This is a bim:","",""
"","html-keyboard-response","139","669699","0.0-6.0-0.44","LF","3zzac4tx1p","1280","720","en","on03as29","null","","","","learningBlock1","","","","This is a wug:","null","","","","",""
"","image-keyboard-response","140","670027","0.0-6.0-1.44","LF","3zzac4tx1p","1280","720","en","on03as29","null","","","","","","","","learning/Slide45.JPG","null","","","","",""
"","html-keyboard-response","141","671030","0.0-6.0-2.44","LF","3zzac4tx1p","1280","720","en","on03as29","null","","","","learningBlock1","","","","<div style=""font-size:60px;""> </div>","null","LF","learning/Slide45.JPG","This is a wug:","",""
"","html-keyboard-response","142","672032","0.0-6.0-0.45","LF","3zzac4tx1p","1280","720","en","on03as29","null","","","","learningBlock1","","","","This is a dep:","null","","","","",""
"","image-keyboard-response","143","672361","0.0-6.0-1.45","LF","3zzac4tx1p","1280","720","en","on03as29","null","","","","","","","","learning/Slide46.JPG","null","","","","",""
"","html-keyboard-response","144","673364","0.0-6.0-2.45","LF","3zzac4tx1p","1280","720","en","on03as29","null","","","","learningBlock1","","","","<div style=""font-size:60px;""> </div>","null","LF","learning/Slide46.JPG","This is a dep:","",""
"","html-keyboard-response","145","674367","0.0-6.0-0.46","LF","3zzac4tx1p","1280","720","en","on03as29","null","","","","learningBlock1","","","","This is a tob:","null","","","","",""
"","image-keyboard-response","146","674696","0.0-6.0-1.46","LF","3zzac4tx1p","1280","720","en","on03as29","null","","","","","","","","learning/Slide47.JPG","null","","","","",""
"","html-keyboard-response","147","675699","0.0-6.0-2.46","LF","3zzac4tx1p","1280","720","en","on03as29","null","","","","learningBlock1","","","","<div style=""font-size:60px;""> </div>","null","LF","learning/Slide47.JPG","This is a tob:","",""
"","html-keyboard-response","148","676701","0.0-6.0-0.47","LF","3zzac4tx1p","1280","720","en","on03as29","null","","","","learningBlock1","","","","This is a bim:","null","","","","",""
"","image-keyboard-response","149","677030","0.0-6.0-1.47","LF","3zzac4tx1p","1280","720","en","on03as29","null","","","","","","","","learning/Slide48.JPG","null","","","","",""
"","html-keyboard-response","150","678032","0.0-6.0-2.47","LF","3zzac4tx1p","1280","720","en","on03as29","null","","","","learningBlock1","","","","<div style=""font-size:60px;""> </div>","null","LF","learning/Slide48.JPG","This is a bim:","",""
"","html-keyboard-response","151","679035","0.0-6.0-0.48","LF","3zzac4tx1p","1280","720","en","on03as29","null","","","","learningBlock1","","","","This is a dep:","null","","","","",""
"","image-keyboard-response","152","679362","0.0-6.0-1.48","LF","3zzac4tx1p","1280","720","en","on03as29","null","","","","","","","","learning/Slide49.JPG","null","","","","",""
"","html-keyboard-response","153","680366","0.0-6.0-2.48","LF","3zzac4tx1p","1280","720","en","on03as29","null","","","","learningBlock1","","","","<div style=""font-size:60px;""> </div>","null","LF","learning/Slide49.JPG","This is a dep:","",""
"","html-keyboard-response","154","681369","0.0-6.0-0.49","LF","3zzac4tx1p","1280","720","en","on03as29","null","","","","learningBlock1","","","","This is a tob:","null","","","","",""
"","image-keyboard-response","155","681696","0.0-6.0-1.49","LF","3zzac4tx1p","1280","720","en","on03as29","null","","","","","","","","learning/Slide50.JPG","null","","","","",""
"","html-keyboard-response","156","682699","0.0-6.0-2.49","LF","3zzac4tx1p","1280","720","en","on03as29","null","","","","learningBlock1","","","","<div style=""font-size:60px;""> </div>","null","LF","learning/Slide50.JPG","This is a tob:","",""
"","html-keyboard-response","157","683701","0.0-6.0-0.50","LF","3zzac4tx1p","1280","720","en","on03as29","null","","","","learningBlock1","","","","This is a bim:","null","","","","",""
"","image-keyboard-response","158","684029","0.0-6.0-1.50","LF","3zzac4tx1p","1280","720","en","on03as29","null","","","","","","","","learning/Slide51.JPG","null","","","","",""
"","html-keyboard-response","159","685032","0.0-6.0-2.50","LF","3zzac4tx1p","1280","720","en","on03as29","null","","","","learningBlock1","","","","<div style=""font-size:60px;""> </div>","null","LF","learning/Slide51.JPG","This is a bim:","",""
"","html-keyboard-response","160","686034","0.0-6.0-0.51","LF","3zzac4tx1p","1280","720","en","on03as29","null","","","","learningBlock1","","","","This is a wug:","null","","","","",""
"","image-keyboard-response","161","686363","0.0-6.0-1.51","LF","3zzac4tx1p","1280","720","en","on03as29","null","","","","","","","","learning/Slide52.JPG","null","","","","",""
"","html-keyboard-response","162","687366","0.0-6.0-2.51","LF","3zzac4tx1p","1280","720","en","on03as29","null","","","","learningBlock1","","","","<div style=""font-size:60px;""> </div>","null","LF","learning/Slide52.JPG","This is a wug:","",""
"","html-keyboard-response","163","688367","0.0-6.0-0.52","LF","3zzac4tx1p","1280","720","en","on03as29","null","","","","learningBlock1","","","","This is a tob:","null","","","","",""
"","image-keyboard-response","164","688695","0.0-6.0-1.52","LF","3zzac4tx1p","1280","720","en","on03as29","null","","","","","","","","learning/Slide53.JPG","null","","","","",""
"","html-keyboard-response","165","689700","0.0-6.0-2.52","LF","3zzac4tx1p","1280","720","en","on03as29","null","","","","learningBlock1","","","","<div style=""font-size:60px;""> </div>","null","LF","learning/Slide53.JPG","This is a tob:","",""
"","html-keyboard-response","166","690703","0.0-6.0-0.53","LF","3zzac4tx1p","1280","720","en","on03as29","null","","","","learningBlock1","","","","This is a dep:","null","","","","",""
"","image-keyboard-response","167","691032","0.0-6.0-1.53","LF","3zzac4tx1p","1280","720","en","on03as29","null","","","","","","","","learning/Slide54.JPG","null","","","","",""
"","html-keyboard-response","168","692034","0.0-6.0-2.53","LF","3zzac4tx1p","1280","720","en","on03as29","null","","","","learningBlock1","","","","<div style=""font-size:60px;""> </div>","null","LF","learning/Slide54.JPG","This is a dep:","",""
"","html-keyboard-response","169","693036","0.0-6.0-0.54","LF","3zzac4tx1p","1280","720","en","on03as29","null","","","","learningBlock1","","","","This is a bim:","null","","","","",""
"","image-keyboard-response","170","693364","0.0-6.0-1.54","LF","3zzac4tx1p","1280","720","en","on03as29","null","","","","","","","","learning/Slide55.JPG","null","","","","",""
"","html-keyboard-response","171","694366","0.0-6.0-2.54","LF","3zzac4tx1p","1280","720","en","on03as29","null","","","","learningBlock1","","","","<div style=""font-size:60px;""> </div>","null","LF","learning/Slide55.JPG","This is a bim:","",""
"","html-keyboard-response","172","695369","0.0-6.0-0.55","LF","3zzac4tx1p","1280","720","en","on03as29","null","","","","learningBlock1","","","","This is a tob:","null","","","","",""
"","image-keyboard-response","173","695697","0.0-6.0-1.55","LF","3zzac4tx1p","1280","720","en","on03as29","null","","","","","","","","learning/Slide56.JPG","null","","","","",""
"","html-keyboard-response","174","696699","0.0-6.0-2.55","LF","3zzac4tx1p","1280","720","en","on03as29","null","","","","learningBlock1","","","","<div style=""font-size:60px;""> </div>","null","LF","learning/Slide56.JPG","This is a tob:","",""
"","html-keyboard-response","175","697701","0.0-6.0-0.56","LF","3zzac4tx1p","1280","720","en","on03as29","null","","","","learningBlock1","","","","This is a dep:","null","","","","",""
"","image-keyboard-response","176","698030","0.0-6.0-1.56","LF","3zzac4tx1p","1280","720","en","on03as29","null","","","","","","","","learning/Slide57.JPG","null","","","","",""
"","html-keyboard-response","177","699032","0.0-6.0-2.56","LF","3zzac4tx1p","1280","720","en","on03as29","null","","","","learningBlock1","","","","<div style=""font-size:60px;""> </div>","null","LF","learning/Slide57.JPG","This is a dep:","",""
"","html-keyboard-response","178","700034","0.0-6.0-0.57","LF","3zzac4tx1p","1280","720","en","on03as29","null","","","","learningBlock1","","","","This is a wug:","null","","","","",""
"","image-keyboard-response","179","700362","0.0-6.0-1.57","LF","3zzac4tx1p","1280","720","en","on03as29","null","","","","","","","","learning/Slide58.JPG","null","","","","",""
"","html-keyboard-response","180","701364","0.0-6.0-2.57","LF","3zzac4tx1p","1280","720","en","on03as29","null","","","","learningBlock1","","","","<div style=""font-size:60px;""> </div>","null","LF","learning/Slide58.JPG","This is a wug:","",""
"","html-keyboard-response","181","702367","0.0-6.0-0.58","LF","3zzac4tx1p","1280","720","en","on03as29","null","","","","learningBlock1","","","","This is a dep:","null","","","","",""
"","image-keyboard-response","182","702695","0.0-6.0-1.58","LF","3zzac4tx1p","1280","720","en","on03as29","null","","","","","","","","learning/Slide59.JPG","null","","","","",""
"","html-keyboard-response","183","703697","0.0-6.0-2.58","LF","3zzac4tx1p","1280","720","en","on03as29","null","","","","learningBlock1","","","","<div style=""font-size:60px;""> </div>","null","LF","learning/Slide59.JPG","This is a dep:","",""
"","html-keyboard-response","184","704700","0.0-6.0-0.59","LF","3zzac4tx1p","1280","720","en","on03as29","null","","","","learningBlock1","","","","This is a wug:","null","","","","",""
"","image-keyboard-response","185","705028","0.0-6.0-1.59","LF","3zzac4tx1p","1280","720","en","on03as29","null","","","","","","","","learning/Slide60.JPG","null","","","","",""
"","html-keyboard-response","186","706031","0.0-6.0-2.59","LF","3zzac4tx1p","1280","720","en","on03as29","null","","","","learningBlock1","","","","<div style=""font-size:60px;""> </div>","null","LF","learning/Slide60.JPG","This is a wug:","",""
"","html-keyboard-response","187","707033","0.0-6.0-0.60","LF","3zzac4tx1p","1280","720","en","on03as29","null","","","","learningBlock1","","","","This is a bim:","null","","","","",""
"","image-keyboard-response","188","707361","0.0-6.0-1.60","LF","3zzac4tx1p","1280","720","en","on03as29","null","","","","","","","","learning/Slide61.JPG","null","","","","",""
"","html-keyboard-response","189","708364","0.0-6.0-2.60","LF","3zzac4tx1p","1280","720","en","on03as29","null","","","","learningBlock1","","","","<div style=""font-size:60px;""> </div>","null","LF","learning/Slide61.JPG","This is a bim:","",""
"","html-keyboard-response","190","709366","0.0-6.0-0.61","LF","3zzac4tx1p","1280","720","en","on03as29","null","","","","learningBlock1","","","","This is a dep:","null","","","","",""
"","image-keyboard-response","191","709694","0.0-6.0-1.61","LF","3zzac4tx1p","1280","720","en","on03as29","null","","","","","","","","learning/Slide62.JPG","null","","","","",""
"","html-keyboard-response","192","710697","0.0-6.0-2.61","LF","3zzac4tx1p","1280","720","en","on03as29","null","","","","learningBlock1","","","","<div style=""font-size:60px;""> </div>","null","LF","learning/Slide62.JPG","This is a dep:","",""
"","html-keyboard-response","193","711700","0.0-6.0-0.62","LF","3zzac4tx1p","1280","720","en","on03as29","null","","","","learningBlock1","","","","This is a bim:","null","","","","",""
"","image-keyboard-response","194","712027","0.0-6.0-1.62","LF","3zzac4tx1p","1280","720","en","on03as29","null","","","","","","","","learning/Slide63.JPG","null","","","","",""
"","html-keyboard-response","195","713030","0.0-6.0-2.62","LF","3zzac4tx1p","1280","720","en","on03as29","null","","","","learningBlock1","","","","<div style=""font-size:60px;""> </div>","null","LF","learning/Slide63.JPG","This is a bim:","",""
"","html-keyboard-response","196","714033","0.0-6.0-0.63","LF","3zzac4tx1p","1280","720","en","on03as29","null","","","","learningBlock1","","","","This is a tob:","null","","","","",""
"","image-keyboard-response","197","714360","0.0-6.0-1.63","LF","3zzac4tx1p","1280","720","en","on03as29","null","","","","","","","","learning/Slide64.JPG","null","","","","",""
"","html-keyboard-response","198","715363","0.0-6.0-2.63","LF","3zzac4tx1p","1280","720","en","on03as29","null","","","","learningBlock1","","","","<div style=""font-size:60px;""> </div>","null","LF","learning/Slide64.JPG","This is a tob:","",""
"","html-keyboard-response","199","716366","0.0-6.0-0.64","LF","3zzac4tx1p","1280","720","en","on03as29","null","","","","learningBlock1","","","","This is a wug:","null","","","","",""
"","image-keyboard-response","200","716693","0.0-6.0-1.64","LF","3zzac4tx1p","1280","720","en","on03as29","null","","","","","","","","learning/Slide65.JPG","null","","","","",""
"","html-keyboard-response","201","717696","0.0-6.0-2.64","LF","3zzac4tx1p","1280","720","en","on03as29","null","","","","learningBlock1","","","","<div style=""font-size:60px;""> </div>","null","LF","learning/Slide65.JPG","This is a wug:","",""
"","html-keyboard-response","202","718698","0.0-6.0-0.65","LF","3zzac4tx1p","1280","720","en","on03as29","null","","","","learningBlock1","","","","This is a dep:","null","","","","",""
"","image-keyboard-response","203","719026","0.0-6.0-1.65","LF","3zzac4tx1p","1280","720","en","on03as29","null","","","","","","","","learning/Slide66.JPG","null","","","","",""
"","html-keyboard-response","204","720028","0.0-6.0-2.65","LF","3zzac4tx1p","1280","720","en","on03as29","null","","","","learningBlock1","","","","<div style=""font-size:60px;""> </div>","null","LF","learning/Slide66.JPG","This is a dep:","",""
"","html-keyboard-response","205","721030","0.0-6.0-0.66","LF","3zzac4tx1p","1280","720","en","on03as29","null","","","","learningBlock1","","","","This is a tob:","null","","","","",""
"","image-keyboard-response","206","721358","0.0-6.0-1.66","LF","3zzac4tx1p","1280","720","en","on03as29","null","","","","","","","","learning/Slide67.JPG","null","","","","",""
"","html-keyboard-response","207","722361","0.0-6.0-2.66","LF","3zzac4tx1p","1280","720","en","on03as29","null","","","","learningBlock1","","","","<div style=""font-size:60px;""> </div>","null","LF","learning/Slide67.JPG","This is a tob:","",""
"","html-keyboard-response","208","723363","0.0-6.0-0.67","LF","3zzac4tx1p","1280","720","en","on03as29","null","","","","learningBlock1","","","","This is a wug:","null","","","","",""
"","image-keyboard-response","209","723691","0.0-6.0-1.67","LF","3zzac4tx1p","1280","720","en","on03as29","null","","","","","","","","learning/Slide68.JPG","null","","","","",""
"","html-keyboard-response","210","724693","0.0-6.0-2.67","LF","3zzac4tx1p","1280","720","en","on03as29","null","","","","learningBlock1","","","","<div style=""font-size:60px;""> </div>","null","LF","learning/Slide68.JPG","This is a wug:","",""
"","html-keyboard-response","211","725695","0.0-6.0-0.68","LF","3zzac4tx1p","1280","720","en","on03as29","null","","","","learningBlock1","","","","This is a tob:","null","","","","",""
"","image-keyboard-response","212","726023","0.0-6.0-1.68","LF","3zzac4tx1p","1280","720","en","on03as29","null","","","","","","","","learning/Slide69.JPG","null","","","","",""
"","html-keyboard-response","213","727025","0.0-6.0-2.68","LF","3zzac4tx1p","1280","720","en","on03as29","null","","","","learningBlock1","","","","<div style=""font-size:60px;""> </div>","null","LF","learning/Slide69.JPG","This is a tob:","",""
"","html-keyboard-response","214","728027","0.0-6.0-0.69","LF","3zzac4tx1p","1280","720","en","on03as29","null","","","","learningBlock1","","","","This is a dep:","null","","","","",""
"","image-keyboard-response","215","728356","0.0-6.0-1.69","LF","3zzac4tx1p","1280","720","en","on03as29","null","","","","","","","","learning/Slide70.JPG","null","","","","",""
"","html-keyboard-response","216","729359","0.0-6.0-2.69","LF","3zzac4tx1p","1280","720","en","on03as29","null","","","","learningBlock1","","","","<div style=""font-size:60px;""> </div>","null","LF","learning/Slide70.JPG","This is a dep:","",""
"","html-keyboard-response","217","730361","0.0-6.0-0.70","LF","3zzac4tx1p","1280","720","en","on03as29","null","","","","learningBlock1","","","","This is a wug:","null","","","","",""
"","image-keyboard-response","218","730689","0.0-6.0-1.70","LF","3zzac4tx1p","1280","720","en","on03as29","null","","","","","","","","learning/Slide71.JPG","null","","","","",""
"","html-keyboard-response","219","731691","0.0-6.0-2.70","LF","3zzac4tx1p","1280","720","en","on03as29","null","","","","learningBlock1","","","","<div style=""font-size:60px;""> </div>","null","LF","learning/Slide71.JPG","This is a wug:","",""
"","html-keyboard-response","220","732692","0.0-6.0-0.71","LF","3zzac4tx1p","1280","720","en","on03as29","null","","","","learningBlock1","","","","This is a bim:","null","","","","",""
"","image-keyboard-response","221","733021","0.0-6.0-1.71","LF","3zzac4tx1p","1280","720","en","on03as29","null","","","","","","","","learning/Slide72.JPG","null","","","","",""
"","html-keyboard-response","222","734024","0.0-6.0-2.71","LF","3zzac4tx1p","1280","720","en","on03as29","null","","","","learningBlock1","","","","<div style=""font-size:60px;""> </div>","null","LF","learning/Slide72.JPG","This is a bim:","",""
"","html-keyboard-response","223","735027","0.0-6.0-0.72","LF","3zzac4tx1p","1280","720","en","on03as29","null","","","","learningBlock1","","","","This is a wug:","null","","","","",""
"","image-keyboard-response","224","735355","0.0-6.0-1.72","LF","3zzac4tx1p","1280","720","en","on03as29","null","","","","","","","","learning/Slide73.JPG","null","","","","",""
"","html-keyboard-response","225","736357","0.0-6.0-2.72","LF","3zzac4tx1p","1280","720","en","on03as29","null","","","","learningBlock1","","","","<div style=""font-size:60px;""> </div>","null","LF","learning/Slide73.JPG","This is a wug:","",""
"","html-keyboard-response","226","737358","0.0-6.0-0.73","LF","3zzac4tx1p","1280","720","en","on03as29","null","","","","learningBlock1","","","","This is a dep:","null","","","","",""
"","image-keyboard-response","227","737686","0.0-6.0-1.73","LF","3zzac4tx1p","1280","720","en","on03as29","null","","","","","","","","learning/Slide74.JPG","null","","","","",""
"","html-keyboard-response","228","738688","0.0-6.0-2.73","LF","3zzac4tx1p","1280","720","en","on03as29","null","","","","learningBlock1","","","","<div style=""font-size:60px;""> </div>","null","LF","learning/Slide74.JPG","This is a dep:","",""
"","html-keyboard-response","229","739690","0.0-6.0-0.74","LF","3zzac4tx1p","1280","720","en","on03as29","null","","","","learningBlock1","","","","This is a tob:","null","","","","",""
"","image-keyboard-response","230","740018","0.0-6.0-1.74","LF","3zzac4tx1p","1280","720","en","on03as29","null","","","","","","","","learning/Slide75.JPG","null","","","","",""
"","html-keyboard-response","231","741021","0.0-6.0-2.74","LF","3zzac4tx1p","1280","720","en","on03as29","null","","","","learningBlock1","","","","<div style=""font-size:60px;""> </div>","null","LF","learning/Slide75.JPG","This is a tob:","",""
"","html-keyboard-response","232","742023","0.0-6.0-0.75","LF","3zzac4tx1p","1280","720","en","on03as29","null","","","","learningBlock1","","","","This is a bim:","null","","","","",""
"","image-keyboard-response","233","742351","0.0-6.0-1.75","LF","3zzac4tx1p","1280","720","en","on03as29","null","","","","","","","","learning/Slide76.JPG","null","","","","",""
"","html-keyboard-response","234","743353","0.0-6.0-2.75","LF","3zzac4tx1p","1280","720","en","on03as29","null","","","","learningBlock1","","","","<div style=""font-size:60px;""> </div>","null","LF","learning/Slide76.JPG","This is a bim:","",""
"","html-keyboard-response","235","744355","0.0-6.0-0.76","LF","3zzac4tx1p","1280","720","en","on03as29","null","","","","learningBlock1","","","","This is a tob:","null","","","","",""
"","image-keyboard-response","236","744683","0.0-6.0-1.76","LF","3zzac4tx1p","1280","720","en","on03as29","null","","","","","","","","learning/Slide77.JPG","null","","","","",""
"","html-keyboard-response","237","745686","0.0-6.0-2.76","LF","3zzac4tx1p","1280","720","en","on03as29","null","","","","learningBlock1","","","","<div style=""font-size:60px;""> </div>","null","LF","learning/Slide77.JPG","This is a tob:","",""
"","html-keyboard-response","238","746689","0.0-6.0-0.77","LF","3zzac4tx1p","1280","720","en","on03as29","null","","","","learningBlock1","","","","This is a wug:","null","","","","",""
"","image-keyboard-response","239","747017","0.0-6.0-1.77","LF","3zzac4tx1p","1280","720","en","on03as29","null","","","","","","","","learning/Slide78.JPG","null","","","","",""
"","html-keyboard-response","240","748020","0.0-6.0-2.77","LF","3zzac4tx1p","1280","720","en","on03as29","null","","","","learningBlock1","","","","<div style=""font-size:60px;""> </div>","null","LF","learning/Slide78.JPG","This is a wug:","",""
"","html-keyboard-response","241","749022","0.0-6.0-0.78","LF","3zzac4tx1p","1280","720","en","on03as29","null","","","","learningBlock1","","","","This is a bim:","null","","","","",""
"","image-keyboard-response","242","749351","0.0-6.0-1.78","LF","3zzac4tx1p","1280","720","en","on03as29","null","","","","","","","","learning/Slide79.JPG","null","","","","",""
"","html-keyboard-response","243","750353","0.0-6.0-2.78","LF","3zzac4tx1p","1280","720","en","on03as29","null","","","","learningBlock1","","","","<div style=""font-size:60px;""> </div>","null","LF","learning/Slide79.JPG","This is a bim:","",""
"","html-keyboard-response","244","751355","0.0-6.0-0.79","LF","3zzac4tx1p","1280","720","en","on03as29","null","","","","learningBlock1","","","","This is a tob:","null","","","","",""
"","image-keyboard-response","245","751683","0.0-6.0-1.79","LF","3zzac4tx1p","1280","720","en","on03as29","null","","","","","","","","learning/Slide80.JPG","null","","","","",""
"","html-keyboard-response","246","752686","0.0-6.0-2.79","LF","3zzac4tx1p","1280","720","en","on03as29","null","","","","learningBlock1","","","","<div style=""font-size:60px;""> </div>","null","LF","learning/Slide80.JPG","This is a tob:","",""
"","instructions","247","770684","0.0-7.0","LF","3zzac4tx1p","1280","720","en","on03as29","NA","","","[{""page_index"":0,""viewing_time"":17995.23500003852}]","instructions","","","","","","","","","",""
"","html-keyboard-response","248","771688","0.0-8.0-0.0","LF","3zzac4tx1p","1280","720","en","on03as29","null","","","","learningBlock2","","","","This is a wug:","null","","","","",""
"","image-keyboard-response","249","772016","0.0-8.0-1.0","LF","3zzac4tx1p","1280","720","en","on03as29","null","","","","","","","","learning/Slide81.JPG","null","","","","",""
"","html-keyboard-response","250","773019","0.0-8.0-2.0","LF","3zzac4tx1p","1280","720","en","on03as29","null","","","","learningBlock2","","","","<div style=""font-size:60px;""> </div>","null","LF","learning/Slide81.JPG","This is a wug:","",""
"","html-keyboard-response","251","774022","0.0-8.0-0.1","LF","3zzac4tx1p","1280","720","en","on03as29","null","","","","learningBlock2","","","","This is a bim:","null","","","","",""
"","image-keyboard-response","252","774350","0.0-8.0-1.1","LF","3zzac4tx1p","1280","720","en","on03as29","null","","","","","","","","learning/Slide82.JPG","null","","","","",""
"","html-keyboard-response","253","775352","0.0-8.0-2.1","LF","3zzac4tx1p","1280","720","en","on03as29","null","","","","learningBlock2","","","","<div style=""font-size:60px;""> </div>","null","LF","learning/Slide82.JPG","This is a bim:","",""
"","html-keyboard-response","254","776355","0.0-8.0-0.2","LF","3zzac4tx1p","1280","720","en","on03as29","null","","","","learningBlock2","","","","This is a wug:","null","","","","",""
"","image-keyboard-response","255","776682","0.0-8.0-1.2","LF","3zzac4tx1p","1280","720","en","on03as29","null","","","","","","","","learning/Slide83.JPG","null","","","","",""
"","html-keyboard-response","256","777684","0.0-8.0-2.2","LF","3zzac4tx1p","1280","720","en","on03as29","null","","","","learningBlock2","","","","<div style=""font-size:60px;""> </div>","null","LF","learning/Slide83.JPG","This is a wug:","",""
"","html-keyboard-response","257","778687","0.0-8.0-0.3","LF","3zzac4tx1p","1280","720","en","on03as29","null","","","","learningBlock2","","","","This is a dep:","null","","","","",""
"","image-keyboard-response","258","779015","0.0-8.0-1.3","LF","3zzac4tx1p","1280","720","en","on03as29","null","","","","","","","","learning/Slide84.JPG","null","","","","",""
"","html-keyboard-response","259","780017","0.0-8.0-2.3","LF","3zzac4tx1p","1280","720","en","on03as29","null","","","","learningBlock2","","","","<div style=""font-size:60px;""> </div>","null","LF","learning/Slide84.JPG","This is a dep:","",""
"","html-keyboard-response","260","781019","0.0-8.0-0.4","LF","3zzac4tx1p","1280","720","en","on03as29","null","","","","learningBlock2","","","","This is a bim:","null","","","","",""
"","image-keyboard-response","261","781346","0.0-8.0-1.4","LF","3zzac4tx1p","1280","720","en","on03as29","null","","","","","","","","learning/Slide85.JPG","null","","","","",""
"","html-keyboard-response","262","782349","0.0-8.0-2.4","LF","3zzac4tx1p","1280","720","en","on03as29","null","","","","learningBlock2","","","","<div style=""font-size:60px;""> </div>","null","LF","learning/Slide85.JPG","This is a bim:","",""
"","html-keyboard-response","263","783352","0.0-8.0-0.5","LF","3zzac4tx1p","1280","720","en","on03as29","null","","","","learningBlock2","","","","This is a tob:","null","","","","",""
"","image-keyboard-response","264","783680","0.0-8.0-1.5","LF","3zzac4tx1p","1280","720","en","on03as29","null","","","","","","","","learning/Slide86.JPG","null","","","","",""
"","html-keyboard-response","265","784682","0.0-8.0-2.5","LF","3zzac4tx1p","1280","720","en","on03as29","null","","","","learningBlock2","","","","<div style=""font-size:60px;""> </div>","null","LF","learning/Slide86.JPG","This is a tob:","",""
"","html-keyboard-response","266","785684","0.0-8.0-0.6","LF","3zzac4tx1p","1280","720","en","on03as29","null","","","","learningBlock2","","","","This is a wug:","null","","","","",""
"","image-keyboard-response","267","786012","0.0-8.0-1.6","LF","3zzac4tx1p","1280","720","en","on03as29","null","","","","","","","","learning/Slide87.JPG","null","","","","",""
"","html-keyboard-response","268","787015","0.0-8.0-2.6","LF","3zzac4tx1p","1280","720","en","on03as29","null","","","","learningBlock2","","","","<div style=""font-size:60px;""> </div>","null","LF","learning/Slide87.JPG","This is a wug:","",""
"","html-keyboard-response","269","788017","0.0-8.0-0.7","LF","3zzac4tx1p","1280","720","en","on03as29","null","","","","learningBlock2","","","","This is a tob:","null","","","","",""
"","image-keyboard-response","270","788345","0.0-8.0-1.7","LF","3zzac4tx1p","1280","720","en","on03as29","null","","","","","","","","learning/Slide88.JPG","null","","","","",""
"","html-keyboard-response","271","789348","0.0-8.0-2.7","LF","3zzac4tx1p","1280","720","en","on03as29","null","","","","learningBlock2","","","","<div style=""font-size:60px;""> </div>","null","LF","learning/Slide88.JPG","This is a tob:","",""
"","html-keyboard-response","272","790350","0.0-8.0-0.8","LF","3zzac4tx1p","1280","720","en","on03as29","null","","","","learningBlock2","","","","This is a bim:","null","","","","",""
"","image-keyboard-response","273","790680","0.0-8.0-1.8","LF","3zzac4tx1p","1280","720","en","on03as29","null","","","","","","","","learning/Slide89.JPG","null","","","","",""
"","html-keyboard-response","274","791682","0.0-8.0-2.8","LF","3zzac4tx1p","1280","720","en","on03as29","null","","","","learningBlock2","","","","<div style=""font-size:60px;""> </div>","null","LF","learning/Slide89.JPG","This is a bim:","",""
"","html-keyboard-response","275","792684","0.0-8.0-0.9","LF","3zzac4tx1p","1280","720","en","on03as29","null","","","","learningBlock2","","","","This is a dep:","null","","","","",""
"","image-keyboard-response","276","793011","0.0-8.0-1.9","LF","3zzac4tx1p","1280","720","en","on03as29","null","","","","","","","","learning/Slide90.JPG","null","","","","",""
"","html-keyboard-response","277","794014","0.0-8.0-2.9","LF","3zzac4tx1p","1280","720","en","on03as29","null","","","","learningBlock2","","","","<div style=""font-size:60px;""> </div>","null","LF","learning/Slide90.JPG","This is a dep:","",""
"","html-keyboard-response","278","795017","0.0-8.0-0.10","LF","3zzac4tx1p","1280","720","en","on03as29","null","","","","learningBlock2","","","","This is a wug:","null","","","","",""
"","image-keyboard-response","279","795345","0.0-8.0-1.10","LF","3zzac4tx1p","1280","720","en","on03as29","null","","","","","","","","learning/Slide91.JPG","null","","","","",""
"","html-keyboard-response","280","796347","0.0-8.0-2.10","LF","3zzac4tx1p","1280","720","en","on03as29","null","","","","learningBlock2","","","","<div style=""font-size:60px;""> </div>","null","LF","learning/Slide91.JPG","This is a wug:","",""
"","html-keyboard-response","281","797350","0.0-8.0-0.11","LF","3zzac4tx1p","1280","720","en","on03as29","null","","","","learningBlock2","","","","This is a tob:","null","","","","",""
"","image-keyboard-response","282","797677","0.0-8.0-1.11","LF","3zzac4tx1p","1280","720","en","on03as29","null","","","","","","","","learning/Slide92.JPG","null","","","","",""
"","html-keyboard-response","283","798679","0.0-8.0-2.11","LF","3zzac4tx1p","1280","720","en","on03as29","null","","","","learningBlock2","","","","<div style=""font-size:60px;""> </div>","null","LF","learning/Slide92.JPG","This is a tob:","",""
"","html-keyboard-response","284","799681","0.0-8.0-0.12","LF","3zzac4tx1p","1280","720","en","on03as29","null","","","","learningBlock2","","","","This is a bim:","null","","","","",""
"","image-keyboard-response","285","800009","0.0-8.0-1.12","LF","3zzac4tx1p","1280","720","en","on03as29","null","","","","","","","","learning/Slide93.JPG","null","","","","",""
"","html-keyboard-response","286","801012","0.0-8.0-2.12","LF","3zzac4tx1p","1280","720","en","on03as29","null","","","","learningBlock2","","","","<div style=""font-size:60px;""> </div>","null","LF","learning/Slide93.JPG","This is a bim:","",""
"","html-keyboard-response","287","802014","0.0-8.0-0.13","LF","3zzac4tx1p","1280","720","en","on03as29","null","","","","learningBlock2","","","","This is a tob:","null","","","","",""
"","image-keyboard-response","288","802342","0.0-8.0-1.13","LF","3zzac4tx1p","1280","720","en","on03as29","null","","","","","","","","learning/Slide94.JPG","null","","","","",""
"","html-keyboard-response","289","803345","0.0-8.0-2.13","LF","3zzac4tx1p","1280","720","en","on03as29","null","","","","learningBlock2","","","","<div style=""font-size:60px;""> </div>","null","LF","learning/Slide94.JPG","This is a tob:","",""
"","html-keyboard-response","290","804347","0.0-8.0-0.14","LF","3zzac4tx1p","1280","720","en","on03as29","null","","","","learningBlock2","","","","This is a wug:","null","","","","",""
"","image-keyboard-response","291","804676","0.0-8.0-1.14","LF","3zzac4tx1p","1280","720","en","on03as29","null","","","","","","","","learning/Slide95.JPG","null","","","","",""
"","html-keyboard-response","292","805678","0.0-8.0-2.14","LF","3zzac4tx1p","1280","720","en","on03as29","null","","","","learningBlock2","","","","<div style=""font-size:60px;""> </div>","null","LF","learning/Slide95.JPG","This is a wug:","",""
"","html-keyboard-response","293","806680","0.0-8.0-0.15","LF","3zzac4tx1p","1280","720","en","on03as29","null","","","","learningBlock2","","","","This is a tob:","null","","","","",""
"","image-keyboard-response","294","807008","0.0-8.0-1.15","LF","3zzac4tx1p","1280","720","en","on03as29","null","","","","","","","","learning/Slide96.JPG","null","","","","",""
"","html-keyboard-response","295","808010","0.0-8.0-2.15","LF","3zzac4tx1p","1280","720","en","on03as29","null","","","","learningBlock2","","","","<div style=""font-size:60px;""> </div>","null","LF","learning/Slide96.JPG","This is a tob:","",""
"","html-keyboard-response","296","809012","0.0-8.0-0.16","LF","3zzac4tx1p","1280","720","en","on03as29","null","","","","learningBlock2","","","","This is a dep:","null","","","","",""
"","image-keyboard-response","297","809341","0.0-8.0-1.16","LF","3zzac4tx1p","1280","720","en","on03as29","null","","","","","","","","learning/Slide97.JPG","null","","","","",""
"","html-keyboard-response","298","810344","0.0-8.0-2.16","LF","3zzac4tx1p","1280","720","en","on03as29","null","","","","learningBlock2","","","","<div style=""font-size:60px;""> </div>","null","LF","learning/Slide97.JPG","This is a dep:","",""
"","html-keyboard-response","299","811347","0.0-8.0-0.17","LF","3zzac4tx1p","1280","720","en","on03as29","null","","","","learningBlock2","","","","This is a bim:","null","","","","",""
"","image-keyboard-response","300","811675","0.0-8.0-1.17","LF","3zzac4tx1p","1280","720","en","on03as29","null","","","","","","","","learning/Slide98.JPG","null","","","","",""
"","html-keyboard-response","301","812678","0.0-8.0-2.17","LF","3zzac4tx1p","1280","720","en","on03as29","null","","","","learningBlock2","","","","<div style=""font-size:60px;""> </div>","null","LF","learning/Slide98.JPG","This is a bim:","",""
"","html-keyboard-response","302","813680","0.0-8.0-0.18","LF","3zzac4tx1p","1280","720","en","on03as29","null","","","","learningBlock2","","","","This is a dep:","null","","","","",""
"","image-keyboard-response","303","814009","0.0-8.0-1.18","LF","3zzac4tx1p","1280","720","en","on03as29","null","","","","","","","","learning/Slide99.JPG","null","","","","",""
"","html-keyboard-response","304","815012","0.0-8.0-2.18","LF","3zzac4tx1p","1280","720","en","on03as29","null","","","","learningBlock2","","","","<div style=""font-size:60px;""> </div>","null","LF","learning/Slide99.JPG","This is a dep:","",""
"","html-keyboard-response","305","816014","0.0-8.0-0.19","LF","3zzac4tx1p","1280","720","en","on03as29","null","","","","learningBlock2","","","","This is a bim:","null","","","","",""
"","image-keyboard-response","306","816342","0.0-8.0-1.19","LF","3zzac4tx1p","1280","720","en","on03as29","null","","","","","","","","learning/Slide100.JPG","null","","","","",""
"","html-keyboard-response","307","817344","0.0-8.0-2.19","LF","3zzac4tx1p","1280","720","en","on03as29","null","","","","learningBlock2","","","","<div style=""font-size:60px;""> </div>","null","LF","learning/Slide100.JPG","This is a bim:","",""
"","html-keyboard-response","308","818346","0.0-8.0-0.20","LF","3zzac4tx1p","1280","720","en","on03as29","null","","","","learningBlock2","","","","This is a tob:","null","","","","",""
"","image-keyboard-response","309","818675","0.0-8.0-1.20","LF","3zzac4tx1p","1280","720","en","on03as29","null","","","","","","","","learning/Slide101.JPG","null","","","","",""
"","html-keyboard-response","310","819677","0.0-8.0-2.20","LF","3zzac4tx1p","1280","720","en","on03as29","null","","","","learningBlock2","","","","<div style=""font-size:60px;""> </div>","null","LF","learning/Slide101.JPG","This is a tob:","",""
"","html-keyboard-response","311","820680","0.0-8.0-0.21","LF","3zzac4tx1p","1280","720","en","on03as29","null","","","","learningBlock2","","","","This is a bim:","null","","","","",""
"","image-keyboard-response","312","821008","0.0-8.0-1.21","LF","3zzac4tx1p","1280","720","en","on03as29","null","","","","","","","","learning/Slide102.JPG","null","","","","",""
"","html-keyboard-response","313","822010","0.0-8.0-2.21","LF","3zzac4tx1p","1280","720","en","on03as29","null","","","","learningBlock2","","","","<div style=""font-size:60px;""> </div>","null","LF","learning/Slide102.JPG","This is a bim:","",""
"","html-keyboard-response","314","823011","0.0-8.0-0.22","LF","3zzac4tx1p","1280","720","en","on03as29","null","","","","learningBlock2","","","","This is a dep:","null","","","","",""
"","image-keyboard-response","315","823339","0.0-8.0-1.22","LF","3zzac4tx1p","1280","720","en","on03as29","null","","","","","","","","learning/Slide103.JPG","null","","","","",""
"","html-keyboard-response","316","824343","0.0-8.0-2.22","LF","3zzac4tx1p","1280","720","en","on03as29","null","","","","learningBlock2","","","","<div style=""font-size:60px;""> </div>","null","LF","learning/Slide103.JPG","This is a dep:","",""
"","html-keyboard-response","317","825345","0.0-8.0-0.23","LF","3zzac4tx1p","1280","720","en","on03as29","null","","","","learningBlock2","","","","This is a tob:","null","","","","",""
"","image-keyboard-response","318","825672","0.0-8.0-1.23","LF","3zzac4tx1p","1280","720","en","on03as29","null","","","","","","","","learning/Slide104.JPG","null","","","","",""
"","html-keyboard-response","319","826675","0.0-8.0-2.23","LF","3zzac4tx1p","1280","720","en","on03as29","null","","","","learningBlock2","","","","<div style=""font-size:60px;""> </div>","null","LF","learning/Slide104.JPG","This is a tob:","",""
"","html-keyboard-response","320","827677","0.0-8.0-0.24","LF","3zzac4tx1p","1280","720","en","on03as29","null","","","","learningBlock2","","","","This is a dep:","null","","","","",""
"","image-keyboard-response","321","828004","0.0-8.0-1.24","LF","3zzac4tx1p","1280","720","en","on03as29","null","","","","","","","","learning/Slide105.JPG","null","","","","",""
"","html-keyboard-response","322","829006","0.0-8.0-2.24","LF","3zzac4tx1p","1280","720","en","on03as29","null","","","","learningBlock2","","","","<div style=""font-size:60px;""> </div>","null","LF","learning/Slide105.JPG","This is a dep:","",""
"","html-keyboard-response","323","830008","0.0-8.0-0.25","LF","3zzac4tx1p","1280","720","en","on03as29","null","","","","learningBlock2","","","","This is a wug:","null","","","","",""
"","image-keyboard-response","324","830337","0.0-8.0-1.25","LF","3zzac4tx1p","1280","720","en","on03as29","null","","","","","","","","learning/Slide106.JPG","null","","","","",""
"","html-keyboard-response","325","831340","0.0-8.0-2.25","LF","3zzac4tx1p","1280","720","en","on03as29","null","","","","learningBlock2","","","","<div style=""font-size:60px;""> </div>","null","LF","learning/Slide106.JPG","This is a wug:","",""
"","html-keyboard-response","326","832343","0.0-8.0-0.26","LF","3zzac4tx1p","1280","720","en","on03as29","null","","","","learningBlock2","","","","This is a bim:","null","","","","",""
"","image-keyboard-response","327","832671","0.0-8.0-1.26","LF","3zzac4tx1p","1280","720","en","on03as29","null","","","","","","","","learning/Slide107.JPG","null","","","","",""
"","html-keyboard-response","328","833674","0.0-8.0-2.26","LF","3zzac4tx1p","1280","720","en","on03as29","null","","","","learningBlock2","","","","<div style=""font-size:60px;""> </div>","null","LF","learning/Slide107.JPG","This is a bim:","",""
"","html-keyboard-response","329","834677","0.0-8.0-0.27","LF","3zzac4tx1p","1280","720","en","on03as29","null","","","","learningBlock2","","","","This is a dep:","null","","","","",""
"","image-keyboard-response","330","835004","0.0-8.0-1.27","LF","3zzac4tx1p","1280","720","en","on03as29","null","","","","","","","","learning/Slide108.JPG","null","","","","",""
"","html-keyboard-response","331","836007","0.0-8.0-2.27","LF","3zzac4tx1p","1280","720","en","on03as29","null","","","","learningBlock2","","","","<div style=""font-size:60px;""> </div>","null","LF","learning/Slide108.JPG","This is a dep:","",""
"","html-keyboard-response","332","837009","0.0-8.0-0.28","LF","3zzac4tx1p","1280","720","en","on03as29","null","","","","learningBlock2","","","","This is a wug:","null","","","","",""
"","image-keyboard-response","333","837337","0.0-8.0-1.28","LF","3zzac4tx1p","1280","720","en","on03as29","null","","","","","","","","learning/Slide109.JPG","null","","","","",""
"","html-keyboard-response","334","838339","0.0-8.0-2.28","LF","3zzac4tx1p","1280","720","en","on03as29","null","","","","learningBlock2","","","","<div style=""font-size:60px;""> </div>","null","LF","learning/Slide109.JPG","This is a wug:","",""
"","html-keyboard-response","335","839341","0.0-8.0-0.29","LF","3zzac4tx1p","1280","720","en","on03as29","null","","","","learningBlock2","","","","This is a bim:","null","","","","",""
"","image-keyboard-response","336","839669","0.0-8.0-1.29","LF","3zzac4tx1p","1280","720","en","on03as29","null","","","","","","","","learning/Slide110.JPG","null","","","","",""
"","html-keyboard-response","337","840673","0.0-8.0-2.29","LF","3zzac4tx1p","1280","720","en","on03as29","null","","","","learningBlock2","","","","<div style=""font-size:60px;""> </div>","null","LF","learning/Slide110.JPG","This is a bim:","",""
"","html-keyboard-response","338","841675","0.0-8.0-0.30","LF","3zzac4tx1p","1280","720","en","on03as29","null","","","","learningBlock2","","","","This is a tob:","null","","","","",""
"","image-keyboard-response","339","842002","0.0-8.0-1.30","LF","3zzac4tx1p","1280","720","en","on03as29","null","","","","","","","","learning/Slide111.JPG","null","","","","",""
"","html-keyboard-response","340","843005","0.0-8.0-2.30","LF","3zzac4tx1p","1280","720","en","on03as29","null","","","","learningBlock2","","","","<div style=""font-size:60px;""> </div>","null","LF","learning/Slide111.JPG","This is a tob:","",""
"","html-keyboard-response","341","844007","0.0-8.0-0.31","LF","3zzac4tx1p","1280","720","en","on03as29","null","","","","learningBlock2","","","","This is a wug:","null","","","","",""
"","image-keyboard-response","342","844335","0.0-8.0-1.31","LF","3zzac4tx1p","1280","720","en","on03as29","null","","","","","","","","learning/Slide112.JPG","null","","","","",""
"","html-keyboard-response","343","845337","0.0-8.0-2.31","LF","3zzac4tx1p","1280","720","en","on03as29","null","","","","learningBlock2","","","","<div style=""font-size:60px;""> </div>","null","LF","learning/Slide112.JPG","This is a wug:","",""
"","html-keyboard-response","344","846339","0.0-8.0-0.32","LF","3zzac4tx1p","1280","720","en","on03as29","null","","","","learningBlock2","","","","This is a tob:","null","","","","",""
"","image-keyboard-response","345","846668","0.0-8.0-1.32","LF","3zzac4tx1p","1280","720","en","on03as29","null","","","","","","","","learning/Slide113.JPG","null","","","","",""
"","html-keyboard-response","346","847671","0.0-8.0-2.32","LF","3zzac4tx1p","1280","720","en","on03as29","null","","","","learningBlock2","","","","<div style=""font-size:60px;""> </div>","null","LF","learning/Slide113.JPG","This is a tob:","",""
"","html-keyboard-response","347","848673","0.0-8.0-0.33","LF","3zzac4tx1p","1280","720","en","on03as29","null","","","","learningBlock2","","","","This is a wug:","null","","","","",""
"","image-keyboard-response","348","849001","0.0-8.0-1.33","LF","3zzac4tx1p","1280","720","en","on03as29","null","","","","","","","","learning/Slide114.JPG","null","","","","",""
"","html-keyboard-response","349","850004","0.0-8.0-2.33","LF","3zzac4tx1p","1280","720","en","on03as29","null","","","","learningBlock2","","","","<div style=""font-size:60px;""> </div>","null","LF","learning/Slide114.JPG","This is a wug:","",""
"","html-keyboard-response","350","851006","0.0-8.0-0.34","LF","3zzac4tx1p","1280","720","en","on03as29","null","","","","learningBlock2","","","","This is a bim:","null","","","","",""
"","image-keyboard-response","351","851334","0.0-8.0-1.34","LF","3zzac4tx1p","1280","720","en","on03as29","null","","","","","","","","learning/Slide115.JPG","null","","","","",""
"","html-keyboard-response","352","852337","0.0-8.0-2.34","LF","3zzac4tx1p","1280","720","en","on03as29","null","","","","learningBlock2","","","","<div style=""font-size:60px;""> </div>","null","LF","learning/Slide115.JPG","This is a bim:","",""
"","html-keyboard-response","353","853339","0.0-8.0-0.35","LF","3zzac4tx1p","1280","720","en","on03as29","null","","","","learningBlock2","","","","This is a dep:","null","","","","",""
"","image-keyboard-response","354","853668","0.0-8.0-1.35","LF","3zzac4tx1p","1280","720","en","on03as29","null","","","","","","","","learning/Slide116.JPG","null","","","","",""
"","html-keyboard-response","355","854671","0.0-8.0-2.35","LF","3zzac4tx1p","1280","720","en","on03as29","null","","","","learningBlock2","","","","<div style=""font-size:60px;""> </div>","null","LF","learning/Slide116.JPG","This is a dep:","",""
"","html-keyboard-response","356","855673","0.0-8.0-0.36","LF","3zzac4tx1p","1280","720","en","on03as29","null","","","","learningBlock2","","","","This is a tob:","null","","","","",""
"","image-keyboard-response","357","856001","0.0-8.0-1.36","LF","3zzac4tx1p","1280","720","en","on03as29","null","","","","","","","","learning/Slide117.JPG","null","","","","",""
"","html-keyboard-response","358","857003","0.0-8.0-2.36","LF","3zzac4tx1p","1280","720","en","on03as29","null","","","","learningBlock2","","","","<div style=""font-size:60px;""> </div>","null","LF","learning/Slide117.JPG","This is a tob:","",""
"","html-keyboard-response","359","858006","0.0-8.0-0.37","LF","3zzac4tx1p","1280","720","en","on03as29","null","","","","learningBlock2","","","","This is a dep:","null","","","","",""
"","image-keyboard-response","360","858333","0.0-8.0-1.37","LF","3zzac4tx1p","1280","720","en","on03as29","null","","","","","","","","learning/Slide118.JPG","null","","","","",""
"","html-keyboard-response","361","859336","0.0-8.0-2.37","LF","3zzac4tx1p","1280","720","en","on03as29","null","","","","learningBlock2","","","","<div style=""font-size:60px;""> </div>","null","LF","learning/Slide118.JPG","This is a dep:","",""
"","html-keyboard-response","362","860338","0.0-8.0-0.38","LF","3zzac4tx1p","1280","720","en","on03as29","null","","","","learningBlock2","","","","This is a wug:","null","","","","",""
"","image-keyboard-response","363","860666","0.0-8.0-1.38","LF","3zzac4tx1p","1280","720","en","on03as29","null","","","","","","","","learning/Slide119.JPG","null","","","","",""
"","html-keyboard-response","364","861668","0.0-8.0-2.38","LF","3zzac4tx1p","1280","720","en","on03as29","null","","","","learningBlock2","","","","<div style=""font-size:60px;""> </div>","null","LF","learning/Slide119.JPG","This is a wug:","",""
"","html-keyboard-response","365","862670","0.0-8.0-0.39","LF","3zzac4tx1p","1280","720","en","on03as29","null","","","","learningBlock2","","","","This is a dep:","null","","","","",""
"","image-keyboard-response","366","863000","0.0-8.0-1.39","LF","3zzac4tx1p","1280","720","en","on03as29","null","","","","","","","","learning/Slide120.JPG","null","","","","",""
"","html-keyboard-response","367","864003","0.0-8.0-2.39","LF","3zzac4tx1p","1280","720","en","on03as29","null","","","","learningBlock2","","","","<div style=""font-size:60px;""> </div>","null","LF","learning/Slide120.JPG","This is a dep:","",""
"","html-keyboard-response","368","865004","0.0-8.0-0.40","LF","3zzac4tx1p","1280","720","en","on03as29","null","","","","learningBlock2","","","","This is a bim:","null","","","","",""
"","image-keyboard-response","369","865332","0.0-8.0-1.40","LF","3zzac4tx1p","1280","720","en","on03as29","null","","","","","","","","learning/Slide121.JPG","null","","","","",""
"","html-keyboard-response","370","866335","0.0-8.0-2.40","LF","3zzac4tx1p","1280","720","en","on03as29","null","","","","learningBlock2","","","","<div style=""font-size:60px;""> </div>","null","LF","learning/Slide121.JPG","This is a bim:","",""
"","html-keyboard-response","371","867337","0.0-8.0-0.41","LF","3zzac4tx1p","1280","720","en","on03as29","null","","","","learningBlock2","","","","This is a wug:","null","","","","",""
"","image-keyboard-response","372","867665","0.0-8.0-1.41","LF","3zzac4tx1p","1280","720","en","on03as29","null","","","","","","","","learning/Slide122.JPG","null","","","","",""
"","html-keyboard-response","373","868667","0.0-8.0-2.41","LF","3zzac4tx1p","1280","720","en","on03as29","null","","","","learningBlock2","","","","<div style=""font-size:60px;""> </div>","null","LF","learning/Slide122.JPG","This is a wug:","",""
"","html-keyboard-response","374","869670","0.0-8.0-0.42","LF","3zzac4tx1p","1280","720","en","on03as29","null","","","","learningBlock2","","","","This is a bim:","null","","","","",""
"","image-keyboard-response","375","870000","0.0-8.0-1.42","LF","3zzac4tx1p","1280","720","en","on03as29","null","","","","","","","","learning/Slide123.JPG","null","","","","",""
"","html-keyboard-response","376","871002","0.0-8.0-2.42","LF","3zzac4tx1p","1280","720","en","on03as29","null","","","","learningBlock2","","","","<div style=""font-size:60px;""> </div>","null","LF","learning/Slide123.JPG","This is a bim:","",""
"","html-keyboard-response","377","872005","0.0-8.0-0.43","LF","3zzac4tx1p","1280","720","en","on03as29","null","","","","learningBlock2","","","","This is a tob:","null","","","","",""
"","image-keyboard-response","378","872332","0.0-8.0-1.43","LF","3zzac4tx1p","1280","720","en","on03as29","null","","","","","","","","learning/Slide124.JPG","null","","","","",""
"","html-keyboard-response","379","873335","0.0-8.0-2.43","LF","3zzac4tx1p","1280","720","en","on03as29","null","","","","learningBlock2","","","","<div style=""font-size:60px;""> </div>","null","LF","learning/Slide124.JPG","This is a tob:","",""
"","html-keyboard-response","380","874337","0.0-8.0-0.44","LF","3zzac4tx1p","1280","720","en","on03as29","null","","","","learningBlock2","","","","This is a bim:","null","","","","",""
"","image-keyboard-response","381","874665","0.0-8.0-1.44","LF","3zzac4tx1p","1280","720","en","on03as29","null","","","","","","","","learning/Slide125.JPG","null","","","","",""
"","html-keyboard-response","382","875669","0.0-8.0-2.44","LF","3zzac4tx1p","1280","720","en","on03as29","null","","","","learningBlock2","","","","<div style=""font-size:60px;""> </div>","null","LF","learning/Slide125.JPG","This is a bim:","",""
"","html-keyboard-response","383","876671","0.0-8.0-0.45","LF","3zzac4tx1p","1280","720","en","on03as29","null","","","","learningBlock2","","","","This is a tob:","null","","","","",""
"","image-keyboard-response","384","877000","0.0-8.0-1.45","LF","3zzac4tx1p","1280","720","en","on03as29","null","","","","","","","","learning/Slide126.JPG","null","","","","",""
"","html-keyboard-response","385","878002","0.0-8.0-2.45","LF","3zzac4tx1p","1280","720","en","on03as29","null","","","","learningBlock2","","","","<div style=""font-size:60px;""> </div>","null","LF","learning/Slide126.JPG","This is a tob:","",""
"","html-keyboard-response","386","879004","0.0-8.0-0.46","LF","3zzac4tx1p","1280","720","en","on03as29","null","","","","learningBlock2","","","","This is a dep:","null","","","","",""
"","image-keyboard-response","387","879333","0.0-8.0-1.46","LF","3zzac4tx1p","1280","720","en","on03as29","null","","","","","","","","learning/Slide127.JPG","null","","","","",""
"","html-keyboard-response","388","880336","0.0-8.0-2.46","LF","3zzac4tx1p","1280","720","en","on03as29","null","","","","learningBlock2","","","","<div style=""font-size:60px;""> </div>","null","LF","learning/Slide127.JPG","This is a dep:","",""
"","html-keyboard-response","389","881339","0.0-8.0-0.47","LF","3zzac4tx1p","1280","720","en","on03as29","null","","","","learningBlock2","","","","This is a wug:","null","","","","",""
"","image-keyboard-response","390","881666","0.0-8.0-1.47","LF","3zzac4tx1p","1280","720","en","on03as29","null","","","","","","","","learning/Slide128.JPG","null","","","","",""
"","html-keyboard-response","391","882669","0.0-8.0-2.47","LF","3zzac4tx1p","1280","720","en","on03as29","null","","","","learningBlock2","","","","<div style=""font-size:60px;""> </div>","null","LF","learning/Slide128.JPG","This is a wug:","",""
"","html-keyboard-response","392","883671","0.0-8.0-0.48","LF","3zzac4tx1p","1280","720","en","on03as29","null","","","","learningBlock2","","","","This is a tob:","null","","","","",""
"","image-keyboard-response","393","883998","0.0-8.0-1.48","LF","3zzac4tx1p","1280","720","en","on03as29","null","","","","","","","","learning/Slide129.JPG","null","","","","",""
"","html-keyboard-response","394","885001","0.0-8.0-2.48","LF","3zzac4tx1p","1280","720","en","on03as29","null","","","","learningBlock2","","","","<div style=""font-size:60px;""> </div>","null","LF","learning/Slide129.JPG","This is a tob:","",""
"","html-keyboard-response","395","886004","0.0-8.0-0.49","LF","3zzac4tx1p","1280","720","en","on03as29","null","","","","learningBlock2","","","","This is a wug:","null","","","","",""
"","image-keyboard-response","396","886331","0.0-8.0-1.49","LF","3zzac4tx1p","1280","720","en","on03as29","null","","","","","","","","learning/Slide130.JPG","null","","","","",""
"","html-keyboard-response","397","887333","0.0-8.0-2.49","LF","3zzac4tx1p","1280","720","en","on03as29","null","","","","learningBlock2","","","","<div style=""font-size:60px;""> </div>","null","LF","learning/Slide130.JPG","This is a wug:","",""
"","html-keyboard-response","398","888336","0.0-8.0-0.50","LF","3zzac4tx1p","1280","720","en","on03as29","null","","","","learningBlock2","","","","This is a bim:","null","","","","",""
"","image-keyboard-response","399","888664","0.0-8.0-1.50","LF","3zzac4tx1p","1280","720","en","on03as29","null","","","","","","","","learning/Slide131.JPG","null","","","","",""
"","html-keyboard-response","400","889666","0.0-8.0-2.50","LF","3zzac4tx1p","1280","720","en","on03as29","null","","","","learningBlock2","","","","<div style=""font-size:60px;""> </div>","null","LF","learning/Slide131.JPG","This is a bim:","",""
"","html-keyboard-response","401","890668","0.0-8.0-0.51","LF","3zzac4tx1p","1280","720","en","on03as29","null","","","","learningBlock2","","","","This is a dep:","null","","","","",""
"","image-keyboard-response","402","890997","0.0-8.0-1.51","LF","3zzac4tx1p","1280","720","en","on03as29","null","","","","","","","","learning/Slide132.JPG","null","","","","",""
"","html-keyboard-response","403","891999","0.0-8.0-2.51","LF","3zzac4tx1p","1280","720","en","on03as29","null","","","","learningBlock2","","","","<div style=""font-size:60px;""> </div>","null","LF","learning/Slide132.JPG","This is a dep:","",""
"","html-keyboard-response","404","893007","0.0-8.0-0.52","LF","3zzac4tx1p","1280","720","en","on03as29","null","","","","learningBlock2","","","","This is a tob:","null","","","","",""
"","image-keyboard-response","405","893335","0.0-8.0-1.52","LF","3zzac4tx1p","1280","720","en","on03as29","null","","","","","","","","learning/Slide133.JPG","null","","","","",""
"","html-keyboard-response","406","894338","0.0-8.0-2.52","LF","3zzac4tx1p","1280","720","en","on03as29","null","","","","learningBlock2","","","","<div style=""font-size:60px;""> </div>","null","LF","learning/Slide133.JPG","This is a tob:","",""
"","html-keyboard-response","407","895340","0.0-8.0-0.53","LF","3zzac4tx1p","1280","720","en","on03as29","null","","","","learningBlock2","","","","This is a dep:","null","","","","",""
"","image-keyboard-response","408","895669","0.0-8.0-1.53","LF","3zzac4tx1p","1280","720","en","on03as29","null","","","","","","","","learning/Slide134.JPG","null","","","","",""
"","html-keyboard-response","409","896671","0.0-8.0-2.53","LF","3zzac4tx1p","1280","720","en","on03as29","null","","","","learningBlock2","","","","<div style=""font-size:60px;""> </div>","null","LF","learning/Slide134.JPG","This is a dep:","",""
"","html-keyboard-response","410","897674","0.0-8.0-0.54","LF","3zzac4tx1p","1280","720","en","on03as29","null","","","","learningBlock2","","","","This is a tob:","null","","","","",""
"","image-keyboard-response","411","898002","0.0-8.0-1.54","LF","3zzac4tx1p","1280","720","en","on03as29","null","","","","","","","","learning/Slide135.JPG","null","","","","",""
"","html-keyboard-response","412","899005","0.0-8.0-2.54","LF","3zzac4tx1p","1280","720","en","on03as29","null","","","","learningBlock2","","","","<div style=""font-size:60px;""> </div>","null","LF","learning/Slide135.JPG","This is a tob:","",""
"","html-keyboard-response","413","900007","0.0-8.0-0.55","LF","3zzac4tx1p","1280","720","en","on03as29","null","","","","learningBlock2","","","","This is a wug:","null","","","","",""
"","image-keyboard-response","414","900337","0.0-8.0-1.55","LF","3zzac4tx1p","1280","720","en","on03as29","null","","","","","","","","learning/Slide136.JPG","null","","","","",""
"","html-keyboard-response","415","901339","0.0-8.0-2.55","LF","3zzac4tx1p","1280","720","en","on03as29","null","","","","learningBlock2","","","","<div style=""font-size:60px;""> </div>","null","LF","learning/Slide136.JPG","This is a wug:","",""
"","html-keyboard-response","416","902341","0.0-8.0-0.56","LF","3zzac4tx1p","1280","720","en","on03as29","null","","","","learningBlock2","","","","This is a tob:","null","","","","",""
"","image-keyboard-response","417","902668","0.0-8.0-1.56","LF","3zzac4tx1p","1280","720","en","on03as29","null","","","","","","","","learning/Slide137.JPG","null","","","","",""
"","html-keyboard-response","418","903671","0.0-8.0-2.56","LF","3zzac4tx1p","1280","720","en","on03as29","null","","","","learningBlock2","","","","<div style=""font-size:60px;""> </div>","null","LF","learning/Slide137.JPG","This is a tob:","",""
"","html-keyboard-response","419","904674","0.0-8.0-0.57","LF","3zzac4tx1p","1280","720","en","on03as29","null","","","","learningBlock2","","","","This is a bim:","null","","","","",""
"","image-keyboard-response","420","905003","0.0-8.0-1.57","LF","3zzac4tx1p","1280","720","en","on03as29","null","","","","","","","","learning/Slide138.JPG","null","","","","",""
"","html-keyboard-response","421","906005","0.0-8.0-2.57","LF","3zzac4tx1p","1280","720","en","on03as29","null","","","","learningBlock2","","","","<div style=""font-size:60px;""> </div>","null","LF","learning/Slide138.JPG","This is a bim:","",""
"","html-keyboard-response","422","907007","0.0-8.0-0.58","LF","3zzac4tx1p","1280","720","en","on03as29","null","","","","learningBlock2","","","","This is a wug:","null","","","","",""
"","image-keyboard-response","423","907335","0.0-8.0-1.58","LF","3zzac4tx1p","1280","720","en","on03as29","null","","","","","","","","learning/Slide139.JPG","null","","","","",""
"","html-keyboard-response","424","908337","0.0-8.0-2.58","LF","3zzac4tx1p","1280","720","en","on03as29","null","","","","learningBlock2","","","","<div style=""font-size:60px;""> </div>","null","LF","learning/Slide139.JPG","This is a wug:","",""
"","html-keyboard-response","425","909340","0.0-8.0-0.59","LF","3zzac4tx1p","1280","720","en","on03as29","null","","","","learningBlock2","","","","This is a dep:","null","","","","",""
"","image-keyboard-response","426","909668","0.0-8.0-1.59","LF","3zzac4tx1p","1280","720","en","on03as29","null","","","","","","","","learning/Slide140.JPG","null","","","","",""
"","html-keyboard-response","427","910671","0.0-8.0-2.59","LF","3zzac4tx1p","1280","720","en","on03as29","null","","","","learningBlock2","","","","<div style=""font-size:60px;""> </div>","null","LF","learning/Slide140.JPG","This is a dep:","",""
"","html-keyboard-response","428","911673","0.0-8.0-0.60","LF","3zzac4tx1p","1280","720","en","on03as29","null","","","","learningBlock2","","","","This is a tob:","null","","","","",""
"","image-keyboard-response","429","912001","0.0-8.0-1.60","LF","3zzac4tx1p","1280","720","en","on03as29","null","","","","","","","","learning/Slide141.JPG","null","","","","",""
"","html-keyboard-response","430","913003","0.0-8.0-2.60","LF","3zzac4tx1p","1280","720","en","on03as29","null","","","","learningBlock2","","","","<div style=""font-size:60px;""> </div>","null","LF","learning/Slide141.JPG","This is a tob:","",""
"","html-keyboard-response","431","914005","0.0-8.0-0.61","LF","3zzac4tx1p","1280","720","en","on03as29","null","","","","learningBlock2","","","","This is a wug:","null","","","","",""
"","image-keyboard-response","432","914333","0.0-8.0-1.61","LF","3zzac4tx1p","1280","720","en","on03as29","null","","","","","","","","learning/Slide142.JPG","null","","","","",""
"","html-keyboard-response","433","915336","0.0-8.0-2.61","LF","3zzac4tx1p","1280","720","en","on03as29","null","","","","learningBlock2","","","","<div style=""font-size:60px;""> </div>","null","LF","learning/Slide142.JPG","This is a wug:","",""
"","html-keyboard-response","434","916338","0.0-8.0-0.62","LF","3zzac4tx1p","1280","720","en","on03as29","null","","","","learningBlock2","","","","This is a bim:","null","","","","",""
"","image-keyboard-response","435","916667","0.0-8.0-1.62","LF","3zzac4tx1p","1280","720","en","on03as29","null","","","","","","","","learning/Slide143.JPG","null","","","","",""
"","html-keyboard-response","436","917670","0.0-8.0-2.62","LF","3zzac4tx1p","1280","720","en","on03as29","null","","","","learningBlock2","","","","<div style=""font-size:60px;""> </div>","null","LF","learning/Slide143.JPG","This is a bim:","",""
"","html-keyboard-response","437","918672","0.0-8.0-0.63","LF","3zzac4tx1p","1280","720","en","on03as29","null","","","","learningBlock2","","","","This is a dep:","null","","","","",""
"","image-keyboard-response","438","919001","0.0-8.0-1.63","LF","3zzac4tx1p","1280","720","en","on03as29","null","","","","","","","","learning/Slide144.JPG","null","","","","",""
"","html-keyboard-response","439","920003","0.0-8.0-2.63","LF","3zzac4tx1p","1280","720","en","on03as29","null","","","","learningBlock2","","","","<div style=""font-size:60px;""> </div>","null","LF","learning/Slide144.JPG","This is a dep:","",""
"","html-keyboard-response","440","921006","0.0-8.0-0.64","LF","3zzac4tx1p","1280","720","en","on03as29","null","","","","learningBlock2","","","","This is a bim:","null","","","","",""
"","image-keyboard-response","441","921333","0.0-8.0-1.64","LF","3zzac4tx1p","1280","720","en","on03as29","null","","","","","","","","learning/Slide145.JPG","null","","","","",""
"","html-keyboard-response","442","922336","0.0-8.0-2.64","LF","3zzac4tx1p","1280","720","en","on03as29","null","","","","learningBlock2","","","","<div style=""font-size:60px;""> </div>","null","LF","learning/Slide145.JPG","This is a bim:","",""
"","html-keyboard-response","443","923339","0.0-8.0-0.65","LF","3zzac4tx1p","1280","720","en","on03as29","null","","","","learningBlock2","","","","This is a tob:","null","","","","",""
"","image-keyboard-response","444","923666","0.0-8.0-1.65","LF","3zzac4tx1p","1280","720","en","on03as29","null","","","","","","","","learning/Slide146.JPG","null","","","","",""
"","html-keyboard-response","445","924669","0.0-8.0-2.65","LF","3zzac4tx1p","1280","720","en","on03as29","null","","","","learningBlock2","","","","<div style=""font-size:60px;""> </div>","null","LF","learning/Slide146.JPG","This is a tob:","",""
"","html-keyboard-response","446","925672","0.0-8.0-0.66","LF","3zzac4tx1p","1280","720","en","on03as29","null","","","","learningBlock2","","","","This is a wug:","null","","","","",""
"","image-keyboard-response","447","926001","0.0-8.0-1.66","LF","3zzac4tx1p","1280","720","en","on03as29","null","","","","","","","","learning/Slide147.JPG","null","","","","",""
"","html-keyboard-response","448","927003","0.0-8.0-2.66","LF","3zzac4tx1p","1280","720","en","on03as29","null","","","","learningBlock2","","","","<div style=""font-size:60px;""> </div>","null","LF","learning/Slide147.JPG","This is a wug:","",""
"","html-keyboard-response","449","928005","0.0-8.0-0.67","LF","3zzac4tx1p","1280","720","en","on03as29","null","","","","learningBlock2","","","","This is a bim:","null","","","","",""
"","image-keyboard-response","450","928334","0.0-8.0-1.67","LF","3zzac4tx1p","1280","720","en","on03as29","null","","","","","","","","learning/Slide148.JPG","null","","","","",""
"","html-keyboard-response","451","929337","0.0-8.0-2.67","LF","3zzac4tx1p","1280","720","en","on03as29","null","","","","learningBlock2","","","","<div style=""font-size:60px;""> </div>","null","LF","learning/Slide148.JPG","This is a bim:","",""
"","html-keyboard-response","452","930340","0.0-8.0-0.68","LF","3zzac4tx1p","1280","720","en","on03as29","null","","","","learningBlock2","","","","This is a dep:","null","","","","",""
"","image-keyboard-response","453","930667","0.0-8.0-1.68","LF","3zzac4tx1p","1280","720","en","on03as29","null","","","","","","","","learning/Slide149.JPG","null","","","","",""
"","html-keyboard-response","454","931670","0.0-8.0-2.68","LF","3zzac4tx1p","1280","720","en","on03as29","null","","","","learningBlock2","","","","<div style=""font-size:60px;""> </div>","null","LF","learning/Slide149.JPG","This is a dep:","",""
"","html-keyboard-response","455","932673","0.0-8.0-0.69","LF","3zzac4tx1p","1280","720","en","on03as29","null","","","","learningBlock2","","","","This is a wug:","null","","","","",""
"","image-keyboard-response","456","933001","0.0-8.0-1.69","LF","3zzac4tx1p","1280","720","en","on03as29","null","","","","","","","","learning/Slide150.JPG","null","","","","",""
"","html-keyboard-response","457","934004","0.0-8.0-2.69","LF","3zzac4tx1p","1280","720","en","on03as29","null","","","","learningBlock2","","","","<div style=""font-size:60px;""> </div>","null","LF","learning/Slide150.JPG","This is a wug:","",""
"","html-keyboard-response","458","935006","0.0-8.0-0.70","LF","3zzac4tx1p","1280","720","en","on03as29","null","","","","learningBlock2","","","","This is a dep:","null","","","","",""
"","image-keyboard-response","459","935334","0.0-8.0-1.70","LF","3zzac4tx1p","1280","720","en","on03as29","null","","","","","","","","learning/Slide151.JPG","null","","","","",""
"","html-keyboard-response","460","936337","0.0-8.0-2.70","LF","3zzac4tx1p","1280","720","en","on03as29","null","","","","learningBlock2","","","","<div style=""font-size:60px;""> </div>","null","LF","learning/Slide151.JPG","This is a dep:","",""
"","html-keyboard-response","461","937339","0.0-8.0-0.71","LF","3zzac4tx1p","1280","720","en","on03as29","null","","","","learningBlock2","","","","This is a wug:","null","","","","",""
"","image-keyboard-response","462","937667","0.0-8.0-1.71","LF","3zzac4tx1p","1280","720","en","on03as29","null","","","","","","","","learning/Slide152.JPG","null","","","","",""
"","html-keyboard-response","463","938670","0.0-8.0-2.71","LF","3zzac4tx1p","1280","720","en","on03as29","null","","","","learningBlock2","","","","<div style=""font-size:60px;""> </div>","null","LF","learning/Slide152.JPG","This is a wug:","",""
"","html-keyboard-response","464","939673","0.0-8.0-0.72","LF","3zzac4tx1p","1280","720","en","on03as29","null","","","","learningBlock2","","","","This is a bim:","null","","","","",""
"","image-keyboard-response","465","940001","0.0-8.0-1.72","LF","3zzac4tx1p","1280","720","en","on03as29","null","","","","","","","","learning/Slide153.JPG","null","","","","",""
"","html-keyboard-response","466","941004","0.0-8.0-2.72","LF","3zzac4tx1p","1280","720","en","on03as29","null","","","","learningBlock2","","","","<div style=""font-size:60px;""> </div>","null","LF","learning/Slide153.JPG","This is a bim:","",""
"","html-keyboard-response","467","942006","0.0-8.0-0.73","LF","3zzac4tx1p","1280","720","en","on03as29","null","","","","learningBlock2","","","","This is a tob:","null","","","","",""
"","image-keyboard-response","468","942334","0.0-8.0-1.73","LF","3zzac4tx1p","1280","720","en","on03as29","null","","","","","","","","learning/Slide154.JPG","null","","","","",""
"","html-keyboard-response","469","943336","0.0-8.0-2.73","LF","3zzac4tx1p","1280","720","en","on03as29","null","","","","learningBlock2","","","","<div style=""font-size:60px;""> </div>","null","LF","learning/Slide154.JPG","This is a tob:","",""
"","html-keyboard-response","470","944339","0.0-8.0-0.74","LF","3zzac4tx1p","1280","720","en","on03as29","null","","","","learningBlock2","","","","This is a dep:","null","","","","",""
"","image-keyboard-response","471","944667","0.0-8.0-1.74","LF","3zzac4tx1p","1280","720","en","on03as29","null","","","","","","","","learning/Slide155.JPG","null","","","","",""
"","html-keyboard-response","472","945671","0.0-8.0-2.74","LF","3zzac4tx1p","1280","720","en","on03as29","null","","","","learningBlock2","","","","<div style=""font-size:60px;""> </div>","null","LF","learning/Slide155.JPG","This is a dep:","",""
"","html-keyboard-response","473","946674","0.0-8.0-0.75","LF","3zzac4tx1p","1280","720","en","on03as29","null","","","","learningBlock2","","","","This is a bim:","null","","","","",""
"","image-keyboard-response","474","947002","0.0-8.0-1.75","LF","3zzac4tx1p","1280","720","en","on03as29","null","","","","","","","","learning/Slide156.JPG","null","","","","",""
"","html-keyboard-response","475","948005","0.0-8.0-2.75","LF","3zzac4tx1p","1280","720","en","on03as29","null","","","","learningBlock2","","","","<div style=""font-size:60px;""> </div>","null","LF","learning/Slide156.JPG","This is a bim:","",""
"","html-keyboard-response","476","949008","0.0-8.0-0.76","LF","3zzac4tx1p","1280","720","en","on03as29","null","","","","learningBlock2","","","","This is a dep:","null","","","","",""
"","image-keyboard-response","477","949337","0.0-8.0-1.76","LF","3zzac4tx1p","1280","720","en","on03as29","null","","","","","","","","learning/Slide157.JPG","null","","","","",""
"","html-keyboard-response","478","950341","0.0-8.0-2.76","LF","3zzac4tx1p","1280","720","en","on03as29","null","","","","learningBlock2","","","","<div style=""font-size:60px;""> </div>","null","LF","learning/Slide157.JPG","This is a dep:","",""
"","html-keyboard-response","479","951343","0.0-8.0-0.77","LF","3zzac4tx1p","1280","720","en","on03as29","null","","","","learningBlock2","","","","This is a tob:","null","","","","",""
"","image-keyboard-response","480","951671","0.0-8.0-1.77","LF","3zzac4tx1p","1280","720","en","on03as29","null","","","","","","","","learning/Slide158.JPG","null","","","","",""
"","html-keyboard-response","481","952674","0.0-8.0-2.77","LF","3zzac4tx1p","1280","720","en","on03as29","null","","","","learningBlock2","","","","<div style=""font-size:60px;""> </div>","null","LF","learning/Slide158.JPG","This is a tob:","",""
"","html-keyboard-response","482","953676","0.0-8.0-0.78","LF","3zzac4tx1p","1280","720","en","on03as29","null","","","","learningBlock2","","","","This is a dep:","null","","","","",""
"","image-keyboard-response","483","954005","0.0-8.0-1.78","LF","3zzac4tx1p","1280","720","en","on03as29","null","","","","","","","","learning/Slide159.JPG","null","","","","",""
"","html-keyboard-response","484","955008","0.0-8.0-2.78","LF","3zzac4tx1p","1280","720","en","on03as29","null","","","","learningBlock2","","","","<div style=""font-size:60px;""> </div>","null","LF","learning/Slide159.JPG","This is a dep:","",""
"","html-keyboard-response","485","956010","0.0-8.0-0.79","LF","3zzac4tx1p","1280","720","en","on03as29","null","","","","learningBlock2","","","","This is a wug:","null","","","","",""
"","image-keyboard-response","486","956338","0.0-8.0-1.79","LF","3zzac4tx1p","1280","720","en","on03as29","null","","","","","","","","learning/Slide160.JPG","null","","","","",""
"","html-keyboard-response","487","957341","0.0-8.0-2.79","LF","3zzac4tx1p","1280","720","en","on03as29","null","","","","learningBlock2","","","","<div style=""font-size:60px;""> </div>","null","LF","learning/Slide160.JPG","This is a wug:","",""
"","resize2","488","961939","0.0-9.0","LF","3zzac4tx1p","1280","720","en","on03as29","","","","","","","104","1.04","","","","","","",""
"","instructions","489","971699","0.0-10.0","LF","3zzac4tx1p","1280","720","en","on03as29","NA","","","[{""page_index"":0,""viewing_time"":9758.39500001166}]","instructions","","","","","","","","","",""
