"success","trial_type","trial_index","time_elapsed","internal_node_id","condition","subject","screen_width","screen_height","language","codeword","rt","responses","url","view_history","test_part","final_height_px","final_width_px","scale_factor","stimulus","key_press","learningType","presentedImage","presentedLabel","button_pressed","response"
"true","fullscreen","0","27781","0.0-0.0","LF","7908vbmsu0","1440","900","en","en19ao08","","","","","","","","","","","","","","",""
"","survey-html-form","1","38972","0.0-1.0","LF","7908vbmsu0","1440","900","en","en19ao08","11187.05500010401","{""language"":""en""}","","","","","","","","","","","","",""
"","external-html","2","296727","0.0-3.0-0.0","LF","7908vbmsu0","1440","900","en","en19ao08","257707.87499984726","","text/information_english.html","","","","","","","","","","","",""
"","external-html","3","333821","0.0-3.0-1.0","LF","7908vbmsu0","1440","900","en","en19ao08","37050.20500021055","","text/consent_english.html","","","","","","","","","","","",""
"","survey-html-form","4","515943","0.0-3.0-2.0","LF","7908vbmsu0","1440","900","en","en19ao08","182123.52500017732","{""codeword_enter"":""en19ao08""}","","","","","","","","","","","","",""
"","instructions","5","542052","0.0-4.0","LF","7908vbmsu0","1440","900","en","en19ao08","NA","","","[{""page_index"":0,""viewing_time"":7355.410000309348},{""page_index"":1,""viewing_time"":17249.7849999927}]","instructions","","","","","","","","","",""
"","resize","6","690332","0.0-5.0","LF","7908vbmsu0","1440","900","en","en19ao08","","","","","","","433","2.749206349206349","","","","","","",""
"","html-keyboard-response","7","691340","0.0-6.0-0.0","LF","7908vbmsu0","1440","900","en","en19ao08","null","","","","learningBlock1","","","","This is a tob:","null","","","","",""
"","image-keyboard-response","8","691676","0.0-6.0-1.0","LF","7908vbmsu0","1440","900","en","en19ao08","null","","","","","","","","learning/Slide1.JPG","null","","","","",""
"","html-keyboard-response","9","692678","0.0-6.0-2.0","LF","7908vbmsu0","1440","900","en","en19ao08","null","","","","learningBlock1","","","","<div style=""font-size:60px;""> </div>","null","LF","learning/Slide1.JPG","This is a tob:","",""
"","html-keyboard-response","10","693681","0.0-6.0-0.1","LF","7908vbmsu0","1440","900","en","en19ao08","null","","","","learningBlock1","","","","This is a wug:","null","","","","",""
"","image-keyboard-response","11","694012","0.0-6.0-1.1","LF","7908vbmsu0","1440","900","en","en19ao08","null","","","","","","","","learning/Slide2.JPG","null","","","","",""
"","html-keyboard-response","12","695014","0.0-6.0-2.1","LF","7908vbmsu0","1440","900","en","en19ao08","null","","","","learningBlock1","","","","<div style=""font-size:60px;""> </div>","null","LF","learning/Slide2.JPG","This is a wug:","",""
"","html-keyboard-response","13","696017","0.0-6.0-0.2","LF","7908vbmsu0","1440","900","en","en19ao08","null","","","","learningBlock1","","","","This is a bim:","null","","","","",""
"","image-keyboard-response","14","696348","0.0-6.0-1.2","LF","7908vbmsu0","1440","900","en","en19ao08","null","","","","","","","","learning/Slide3.JPG","null","","","","",""
"","html-keyboard-response","15","697350","0.0-6.0-2.2","LF","7908vbmsu0","1440","900","en","en19ao08","null","","","","learningBlock1","","","","<div style=""font-size:60px;""> </div>","null","LF","learning/Slide3.JPG","This is a bim:","",""
"","html-keyboard-response","16","698352","0.0-6.0-0.3","LF","7908vbmsu0","1440","900","en","en19ao08","null","","","","learningBlock1","","","","This is a dep:","null","","","","",""
"","image-keyboard-response","17","698686","0.0-6.0-1.3","LF","7908vbmsu0","1440","900","en","en19ao08","null","","","","","","","","learning/Slide4.JPG","null","","","","",""
"","html-keyboard-response","18","699692","0.0-6.0-2.3","LF","7908vbmsu0","1440","900","en","en19ao08","null","","","","learningBlock1","","","","<div style=""font-size:60px;""> </div>","null","LF","learning/Slide4.JPG","This is a dep:","",""
"","html-keyboard-response","19","700694","0.0-6.0-0.4","LF","7908vbmsu0","1440","900","en","en19ao08","null","","","","learningBlock1","","","","This is a wug:","null","","","","",""
"","image-keyboard-response","20","701030","0.0-6.0-1.4","LF","7908vbmsu0","1440","900","en","en19ao08","null","","","","","","","","learning/Slide5.JPG","null","","","","",""
"","html-keyboard-response","21","702037","0.0-6.0-2.4","LF","7908vbmsu0","1440","900","en","en19ao08","null","","","","learningBlock1","","","","<div style=""font-size:60px;""> </div>","null","LF","learning/Slide5.JPG","This is a wug:","",""
"","html-keyboard-response","22","703041","0.0-6.0-0.5","LF","7908vbmsu0","1440","900","en","en19ao08","null","","","","learningBlock1","","","","This is a dep:","null","","","","",""
"","image-keyboard-response","23","703374","0.0-6.0-1.5","LF","7908vbmsu0","1440","900","en","en19ao08","null","","","","","","","","learning/Slide6.JPG","null","","","","",""
"","html-keyboard-response","24","704380","0.0-6.0-2.5","LF","7908vbmsu0","1440","900","en","en19ao08","null","","","","learningBlock1","","","","<div style=""font-size:60px;""> </div>","null","LF","learning/Slide6.JPG","This is a dep:","",""
"","html-keyboard-response","25","705382","0.0-6.0-0.6","LF","7908vbmsu0","1440","900","en","en19ao08","null","","","","learningBlock1","","","","This is a wug:","null","","","","",""
"","image-keyboard-response","26","705713","0.0-6.0-1.6","LF","7908vbmsu0","1440","900","en","en19ao08","null","","","","","","","","learning/Slide7.JPG","null","","","","",""
"","html-keyboard-response","27","706716","0.0-6.0-2.6","LF","7908vbmsu0","1440","900","en","en19ao08","null","","","","learningBlock1","","","","<div style=""font-size:60px;""> </div>","null","LF","learning/Slide7.JPG","This is a wug:","",""
"","html-keyboard-response","28","707718","0.0-6.0-0.7","LF","7908vbmsu0","1440","900","en","en19ao08","null","","","","learningBlock1","","","","This is a bim:","null","","","","",""
"","image-keyboard-response","29","708049","0.0-6.0-1.7","LF","7908vbmsu0","1440","900","en","en19ao08","null","","","","","","","","learning/Slide8.JPG","null","","","","",""
"","html-keyboard-response","30","709051","0.0-6.0-2.7","LF","7908vbmsu0","1440","900","en","en19ao08","null","","","","learningBlock1","","","","<div style=""font-size:60px;""> </div>","null","LF","learning/Slide8.JPG","This is a bim:","",""
"","html-keyboard-response","31","710054","0.0-6.0-0.8","LF","7908vbmsu0","1440","900","en","en19ao08","null","","","","learningBlock1","","","","This is a wug:","null","","","","",""
"","image-keyboard-response","32","710388","0.0-6.0-1.8","LF","7908vbmsu0","1440","900","en","en19ao08","null","","","","","","","","learning/Slide9.JPG","null","","","","",""
"","html-keyboard-response","33","711393","0.0-6.0-2.8","LF","7908vbmsu0","1440","900","en","en19ao08","null","","","","learningBlock1","","","","<div style=""font-size:60px;""> </div>","null","LF","learning/Slide9.JPG","This is a wug:","",""
"","html-keyboard-response","34","712396","0.0-6.0-0.9","LF","7908vbmsu0","1440","900","en","en19ao08","null","","","","learningBlock1","","","","This is a dep:","null","","","","",""
"","image-keyboard-response","35","712726","0.0-6.0-1.9","LF","7908vbmsu0","1440","900","en","en19ao08","null","","","","","","","","learning/Slide10.JPG","null","","","","",""
"","html-keyboard-response","36","713729","0.0-6.0-2.9","LF","7908vbmsu0","1440","900","en","en19ao08","null","","","","learningBlock1","","","","<div style=""font-size:60px;""> </div>","null","LF","learning/Slide10.JPG","This is a dep:","",""
"","html-keyboard-response","37","714731","0.0-6.0-0.10","LF","7908vbmsu0","1440","900","en","en19ao08","null","","","","learningBlock1","","","","This is a tob:","null","","","","",""
"","image-keyboard-response","38","715062","0.0-6.0-1.10","LF","7908vbmsu0","1440","900","en","en19ao08","null","","","","","","","","learning/Slide11.JPG","null","","","","",""
"","html-keyboard-response","39","716065","0.0-6.0-2.10","LF","7908vbmsu0","1440","900","en","en19ao08","null","","","","learningBlock1","","","","<div style=""font-size:60px;""> </div>","null","LF","learning/Slide11.JPG","This is a tob:","",""
"","html-keyboard-response","40","717067","0.0-6.0-0.11","LF","7908vbmsu0","1440","900","en","en19ao08","null","","","","learningBlock1","","","","This is a dep:","null","","","","",""
"","image-keyboard-response","41","717398","0.0-6.0-1.11","LF","7908vbmsu0","1440","900","en","en19ao08","null","","","","","","","","learning/Slide12.JPG","null","","","","",""
"","html-keyboard-response","42","718401","0.0-6.0-2.11","LF","7908vbmsu0","1440","900","en","en19ao08","null","","","","learningBlock1","","","","<div style=""font-size:60px;""> </div>","null","LF","learning/Slide12.JPG","This is a dep:","",""
"","html-keyboard-response","43","719403","0.0-6.0-0.12","LF","7908vbmsu0","1440","900","en","en19ao08","null","","","","learningBlock1","","","","This is a bim:","null","","","","",""
"","image-keyboard-response","44","719734","0.0-6.0-1.12","LF","7908vbmsu0","1440","900","en","en19ao08","null","","","","","","","","learning/Slide13.JPG","null","","","","",""
"","html-keyboard-response","45","720736","0.0-6.0-2.12","LF","7908vbmsu0","1440","900","en","en19ao08","null","","","","learningBlock1","","","","<div style=""font-size:60px;""> </div>","null","LF","learning/Slide13.JPG","This is a bim:","",""
"","html-keyboard-response","46","721739","0.0-6.0-0.13","LF","7908vbmsu0","1440","900","en","en19ao08","null","","","","learningBlock1","","","","This is a wug:","null","","","","",""
"","image-keyboard-response","47","722072","0.0-6.0-1.13","LF","7908vbmsu0","1440","900","en","en19ao08","null","","","","","","","","learning/Slide14.JPG","null","","","","",""
"","html-keyboard-response","48","723078","0.0-6.0-2.13","LF","7908vbmsu0","1440","900","en","en19ao08","null","","","","learningBlock1","","","","<div style=""font-size:60px;""> </div>","null","LF","learning/Slide14.JPG","This is a wug:","",""
"","html-keyboard-response","49","724081","0.0-6.0-0.14","LF","7908vbmsu0","1440","900","en","en19ao08","null","","","","learningBlock1","","","","This is a tob:","null","","","","",""
"","image-keyboard-response","50","724411","0.0-6.0-1.14","LF","7908vbmsu0","1440","900","en","en19ao08","null","","","","","","","","learning/Slide15.JPG","null","","","","",""
"","html-keyboard-response","51","725417","0.0-6.0-2.14","LF","7908vbmsu0","1440","900","en","en19ao08","null","","","","learningBlock1","","","","<div style=""font-size:60px;""> </div>","null","LF","learning/Slide15.JPG","This is a tob:","",""
"","html-keyboard-response","52","726422","0.0-6.0-0.15","LF","7908vbmsu0","1440","900","en","en19ao08","null","","","","learningBlock1","","","","This is a dep:","null","","","","",""
"","image-keyboard-response","53","726757","0.0-6.0-1.15","LF","7908vbmsu0","1440","900","en","en19ao08","null","","","","","","","","learning/Slide16.JPG","null","","","","",""
"","html-keyboard-response","54","727760","0.0-6.0-2.15","LF","7908vbmsu0","1440","900","en","en19ao08","null","","","","learningBlock1","","","","<div style=""font-size:60px;""> </div>","null","LF","learning/Slide16.JPG","This is a dep:","",""
"","html-keyboard-response","55","728763","0.0-6.0-0.16","LF","7908vbmsu0","1440","900","en","en19ao08","null","","","","learningBlock1","","","","This is a bim:","null","","","","",""
"","image-keyboard-response","56","729094","0.0-6.0-1.16","LF","7908vbmsu0","1440","900","en","en19ao08","null","","","","","","","","learning/Slide17.JPG","null","","","","",""
"","html-keyboard-response","57","730096","0.0-6.0-2.16","LF","7908vbmsu0","1440","900","en","en19ao08","null","","","","learningBlock1","","","","<div style=""font-size:60px;""> </div>","null","LF","learning/Slide17.JPG","This is a bim:","",""
"","html-keyboard-response","58","731102","0.0-6.0-0.17","LF","7908vbmsu0","1440","900","en","en19ao08","null","","","","learningBlock1","","","","This is a tob:","null","","","","",""
"","image-keyboard-response","59","731430","0.0-6.0-1.17","LF","7908vbmsu0","1440","900","en","en19ao08","null","","","","","","","","learning/Slide18.JPG","null","","","","",""
"","html-keyboard-response","60","732432","0.0-6.0-2.17","LF","7908vbmsu0","1440","900","en","en19ao08","null","","","","learningBlock1","","","","<div style=""font-size:60px;""> </div>","null","LF","learning/Slide18.JPG","This is a tob:","",""
"","html-keyboard-response","61","733435","0.0-6.0-0.18","LF","7908vbmsu0","1440","900","en","en19ao08","null","","","","learningBlock1","","","","This is a wug:","null","","","","",""
"","image-keyboard-response","62","733766","0.0-6.0-1.18","LF","7908vbmsu0","1440","900","en","en19ao08","null","","","","","","","","learning/Slide19.JPG","null","","","","",""
"","html-keyboard-response","63","734768","0.0-6.0-2.18","LF","7908vbmsu0","1440","900","en","en19ao08","null","","","","learningBlock1","","","","<div style=""font-size:60px;""> </div>","null","LF","learning/Slide19.JPG","This is a wug:","",""
"","html-keyboard-response","64","735774","0.0-6.0-0.19","LF","7908vbmsu0","1440","900","en","en19ao08","null","","","","learningBlock1","","","","This is a bim:","null","","","","",""
"","image-keyboard-response","65","736107","0.0-6.0-1.19","LF","7908vbmsu0","1440","900","en","en19ao08","null","","","","","","","","learning/Slide20.JPG","null","","","","",""
"","html-keyboard-response","66","737110","0.0-6.0-2.19","LF","7908vbmsu0","1440","900","en","en19ao08","null","","","","learningBlock1","","","","<div style=""font-size:60px;""> </div>","null","LF","learning/Slide20.JPG","This is a bim:","",""
"","html-keyboard-response","67","738112","0.0-6.0-0.20","LF","7908vbmsu0","1440","900","en","en19ao08","null","","","","learningBlock1","","","","This is a dep:","null","","","","",""
"","image-keyboard-response","68","738443","0.0-6.0-1.20","LF","7908vbmsu0","1440","900","en","en19ao08","null","","","","","","","","learning/Slide21.JPG","null","","","","",""
"","html-keyboard-response","69","739451","0.0-6.0-2.20","LF","7908vbmsu0","1440","900","en","en19ao08","null","","","","learningBlock1","","","","<div style=""font-size:60px;""> </div>","null","LF","learning/Slide21.JPG","This is a dep:","",""
"","html-keyboard-response","70","740453","0.0-6.0-0.21","LF","7908vbmsu0","1440","900","en","en19ao08","null","","","","learningBlock1","","","","This is a bim:","null","","","","",""
"","image-keyboard-response","71","740787","0.0-6.0-1.21","LF","7908vbmsu0","1440","900","en","en19ao08","null","","","","","","","","learning/Slide22.JPG","null","","","","",""
"","html-keyboard-response","72","741792","0.0-6.0-2.21","LF","7908vbmsu0","1440","900","en","en19ao08","null","","","","learningBlock1","","","","<div style=""font-size:60px;""> </div>","null","LF","learning/Slide22.JPG","This is a bim:","",""
"","html-keyboard-response","73","742795","0.0-6.0-0.22","LF","7908vbmsu0","1440","900","en","en19ao08","null","","","","learningBlock1","","","","This is a tob:","null","","","","",""
"","image-keyboard-response","74","743131","0.0-6.0-1.22","LF","7908vbmsu0","1440","900","en","en19ao08","null","","","","","","","","learning/Slide23.JPG","null","","","","",""
"","html-keyboard-response","75","744136","0.0-6.0-2.22","LF","7908vbmsu0","1440","900","en","en19ao08","null","","","","learningBlock1","","","","<div style=""font-size:60px;""> </div>","null","LF","learning/Slide23.JPG","This is a tob:","",""
"","html-keyboard-response","76","745141","0.0-6.0-0.23","LF","7908vbmsu0","1440","900","en","en19ao08","null","","","","learningBlock1","","","","This is a wug:","null","","","","",""
"","image-keyboard-response","77","745472","0.0-6.0-1.23","LF","7908vbmsu0","1440","900","en","en19ao08","null","","","","","","","","learning/Slide24.JPG","null","","","","",""
"","html-keyboard-response","78","746479","0.0-6.0-2.23","LF","7908vbmsu0","1440","900","en","en19ao08","null","","","","learningBlock1","","","","<div style=""font-size:60px;""> </div>","null","LF","learning/Slide24.JPG","This is a wug:","",""
"","html-keyboard-response","79","747483","0.0-6.0-0.24","LF","7908vbmsu0","1440","900","en","en19ao08","null","","","","learningBlock1","","","","This is a dep:","null","","","","",""
"","image-keyboard-response","80","747813","0.0-6.0-1.24","LF","7908vbmsu0","1440","900","en","en19ao08","null","","","","","","","","learning/Slide25.JPG","null","","","","",""
"","html-keyboard-response","81","748816","0.0-6.0-2.24","LF","7908vbmsu0","1440","900","en","en19ao08","null","","","","learningBlock1","","","","<div style=""font-size:60px;""> </div>","null","LF","learning/Slide25.JPG","This is a dep:","",""
"","html-keyboard-response","82","749819","0.0-6.0-0.25","LF","7908vbmsu0","1440","900","en","en19ao08","null","","","","learningBlock1","","","","This is a wug:","null","","","","",""
"","image-keyboard-response","83","750155","0.0-6.0-1.25","LF","7908vbmsu0","1440","900","en","en19ao08","null","","","","","","","","learning/Slide26.JPG","null","","","","",""
"","html-keyboard-response","84","751157","0.0-6.0-2.25","LF","7908vbmsu0","1440","900","en","en19ao08","null","","","","learningBlock1","","","","<div style=""font-size:60px;""> </div>","null","LF","learning/Slide26.JPG","This is a wug:","",""
"","html-keyboard-response","85","752160","0.0-6.0-0.26","LF","7908vbmsu0","1440","900","en","en19ao08","null","","","","learningBlock1","","","","This is a bim:","null","","","","",""
"","image-keyboard-response","86","752490","0.0-6.0-1.26","LF","7908vbmsu0","1440","900","en","en19ao08","null","","","","","","","","learning/Slide27.JPG","null","","","","",""
"","html-keyboard-response","87","753493","0.0-6.0-2.26","LF","7908vbmsu0","1440","900","en","en19ao08","null","","","","learningBlock1","","","","<div style=""font-size:60px;""> </div>","null","LF","learning/Slide27.JPG","This is a bim:","",""
"","html-keyboard-response","88","754496","0.0-6.0-0.27","LF","7908vbmsu0","1440","900","en","en19ao08","null","","","","learningBlock1","","","","This is a dep:","null","","","","",""
"","image-keyboard-response","89","754827","0.0-6.0-1.27","LF","7908vbmsu0","1440","900","en","en19ao08","null","","","","","","","","learning/Slide28.JPG","null","","","","",""
"","html-keyboard-response","90","755829","0.0-6.0-2.27","LF","7908vbmsu0","1440","900","en","en19ao08","null","","","","learningBlock1","","","","<div style=""font-size:60px;""> </div>","null","LF","learning/Slide28.JPG","This is a dep:","",""
"","html-keyboard-response","91","756832","0.0-6.0-0.28","LF","7908vbmsu0","1440","900","en","en19ao08","null","","","","learningBlock1","","","","This is a tob:","null","","","","",""
"","image-keyboard-response","92","757168","0.0-6.0-1.28","LF","7908vbmsu0","1440","900","en","en19ao08","null","","","","","","","","learning/Slide29.JPG","null","","","","",""
"","html-keyboard-response","93","758170","0.0-6.0-2.28","LF","7908vbmsu0","1440","900","en","en19ao08","null","","","","learningBlock1","","","","<div style=""font-size:60px;""> </div>","null","LF","learning/Slide29.JPG","This is a tob:","",""
"","html-keyboard-response","94","759173","0.0-6.0-0.29","LF","7908vbmsu0","1440","900","en","en19ao08","null","","","","learningBlock1","","","","This is a dep:","null","","","","",""
"","image-keyboard-response","95","759504","0.0-6.0-1.29","LF","7908vbmsu0","1440","900","en","en19ao08","null","","","","","","","","learning/Slide30.JPG","null","","","","",""
"","html-keyboard-response","96","760506","0.0-6.0-2.29","LF","7908vbmsu0","1440","900","en","en19ao08","null","","","","learningBlock1","","","","<div style=""font-size:60px;""> </div>","null","LF","learning/Slide30.JPG","This is a dep:","",""
"","html-keyboard-response","97","761509","0.0-6.0-0.30","LF","7908vbmsu0","1440","900","en","en19ao08","null","","","","learningBlock1","","","","This is a wug:","null","","","","",""
"","image-keyboard-response","98","761840","0.0-6.0-1.30","LF","7908vbmsu0","1440","900","en","en19ao08","null","","","","","","","","learning/Slide31.JPG","null","","","","",""
"","html-keyboard-response","99","762846","0.0-6.0-2.30","LF","7908vbmsu0","1440","900","en","en19ao08","null","","","","learningBlock1","","","","<div style=""font-size:60px;""> </div>","null","LF","learning/Slide31.JPG","This is a wug:","",""
"","html-keyboard-response","100","763852","0.0-6.0-0.31","LF","7908vbmsu0","1440","900","en","en19ao08","null","","","","learningBlock1","","","","This is a tob:","null","","","","",""
"","image-keyboard-response","101","764181","0.0-6.0-1.31","LF","7908vbmsu0","1440","900","en","en19ao08","null","","","","","","","","learning/Slide32.JPG","null","","","","",""
"","html-keyboard-response","102","765184","0.0-6.0-2.31","LF","7908vbmsu0","1440","900","en","en19ao08","null","","","","learningBlock1","","","","<div style=""font-size:60px;""> </div>","null","LF","learning/Slide32.JPG","This is a tob:","",""
"","html-keyboard-response","103","766186","0.0-6.0-0.32","LF","7908vbmsu0","1440","900","en","en19ao08","null","","","","learningBlock1","","","","This is a bim:","null","","","","",""
"","image-keyboard-response","104","766517","0.0-6.0-1.32","LF","7908vbmsu0","1440","900","en","en19ao08","null","","","","","","","","learning/Slide33.JPG","null","","","","",""
"","html-keyboard-response","105","767519","0.0-6.0-2.32","LF","7908vbmsu0","1440","900","en","en19ao08","null","","","","learningBlock1","","","","<div style=""font-size:60px;""> </div>","null","LF","learning/Slide33.JPG","This is a bim:","",""
"","html-keyboard-response","106","768522","0.0-6.0-0.33","LF","7908vbmsu0","1440","900","en","en19ao08","null","","","","learningBlock1","","","","This is a tob:","null","","","","",""
"","image-keyboard-response","107","768859","0.0-6.0-1.33","LF","7908vbmsu0","1440","900","en","en19ao08","null","","","","","","","","learning/Slide34.JPG","null","","","","",""
"","html-keyboard-response","108","769861","0.0-6.0-2.33","LF","7908vbmsu0","1440","900","en","en19ao08","null","","","","learningBlock1","","","","<div style=""font-size:60px;""> </div>","null","LF","learning/Slide34.JPG","This is a tob:","",""
"","html-keyboard-response","109","770864","0.0-6.0-0.34","LF","7908vbmsu0","1440","900","en","en19ao08","null","","","","learningBlock1","","","","This is a bim:","null","","","","",""
"","image-keyboard-response","110","771194","0.0-6.0-1.34","LF","7908vbmsu0","1440","900","en","en19ao08","null","","","","","","","","learning/Slide35.JPG","null","","","","",""
"","html-keyboard-response","111","772197","0.0-6.0-2.34","LF","7908vbmsu0","1440","900","en","en19ao08","null","","","","learningBlock1","","","","<div style=""font-size:60px;""> </div>","null","LF","learning/Slide35.JPG","This is a bim:","",""
"","html-keyboard-response","112","773200","0.0-6.0-0.35","LF","7908vbmsu0","1440","900","en","en19ao08","null","","","","learningBlock1","","","","This is a dep:","null","","","","",""
"","image-keyboard-response","113","773535","0.0-6.0-1.35","LF","7908vbmsu0","1440","900","en","en19ao08","null","","","","","","","","learning/Slide36.JPG","null","","","","",""
"","html-keyboard-response","114","774541","0.0-6.0-2.35","LF","7908vbmsu0","1440","900","en","en19ao08","null","","","","learningBlock1","","","","<div style=""font-size:60px;""> </div>","null","LF","learning/Slide36.JPG","This is a dep:","",""
"","html-keyboard-response","115","775546","0.0-6.0-0.36","LF","7908vbmsu0","1440","900","en","en19ao08","null","","","","learningBlock1","","","","This is a tob:","null","","","","",""
"","image-keyboard-response","116","775877","0.0-6.0-1.36","LF","7908vbmsu0","1440","900","en","en19ao08","null","","","","","","","","learning/Slide37.JPG","null","","","","",""
"","html-keyboard-response","117","776879","0.0-6.0-2.36","LF","7908vbmsu0","1440","900","en","en19ao08","null","","","","learningBlock1","","","","<div style=""font-size:60px;""> </div>","null","LF","learning/Slide37.JPG","This is a tob:","",""
"","html-keyboard-response","118","777882","0.0-6.0-0.37","LF","7908vbmsu0","1440","900","en","en19ao08","null","","","","learningBlock1","","","","This is a wug:","null","","","","",""
"","image-keyboard-response","119","778215","0.0-6.0-1.37","LF","7908vbmsu0","1440","900","en","en19ao08","null","","","","","","","","learning/Slide38.JPG","null","","","","",""
"","html-keyboard-response","120","779221","0.0-6.0-2.37","LF","7908vbmsu0","1440","900","en","en19ao08","null","","","","learningBlock1","","","","<div style=""font-size:60px;""> </div>","null","LF","learning/Slide38.JPG","This is a wug:","",""
"","html-keyboard-response","121","780223","0.0-6.0-0.38","LF","7908vbmsu0","1440","900","en","en19ao08","null","","","","learningBlock1","","","","This is a bim:","null","","","","",""
"","image-keyboard-response","122","780559","0.0-6.0-1.38","LF","7908vbmsu0","1440","900","en","en19ao08","null","","","","","","","","learning/Slide39.JPG","null","","","","",""
"","html-keyboard-response","123","781562","0.0-6.0-2.38","LF","7908vbmsu0","1440","900","en","en19ao08","null","","","","learningBlock1","","","","<div style=""font-size:60px;""> </div>","null","LF","learning/Slide39.JPG","This is a bim:","",""
"","html-keyboard-response","124","782568","0.0-6.0-0.39","LF","7908vbmsu0","1440","900","en","en19ao08","null","","","","learningBlock1","","","","This is a tob:","null","","","","",""
"","image-keyboard-response","125","782897","0.0-6.0-1.39","LF","7908vbmsu0","1440","900","en","en19ao08","null","","","","","","","","learning/Slide40.JPG","null","","","","",""
"","html-keyboard-response","126","783898","0.0-6.0-2.39","LF","7908vbmsu0","1440","900","en","en19ao08","null","","","","learningBlock1","","","","<div style=""font-size:60px;""> </div>","null","LF","learning/Slide40.JPG","This is a tob:","",""
"","html-keyboard-response","127","784904","0.0-6.0-0.40","LF","7908vbmsu0","1440","900","en","en19ao08","null","","","","learningBlock1","","","","This is a bim:","null","","","","",""
"","image-keyboard-response","128","785240","0.0-6.0-1.40","LF","7908vbmsu0","1440","900","en","en19ao08","null","","","","","","","","learning/Slide41.JPG","null","","","","",""
"","html-keyboard-response","129","786244","0.0-6.0-2.40","LF","7908vbmsu0","1440","900","en","en19ao08","null","","","","learningBlock1","","","","<div style=""font-size:60px;""> </div>","null","LF","learning/Slide41.JPG","This is a bim:","",""
"","html-keyboard-response","130","787247","0.0-6.0-0.41","LF","7908vbmsu0","1440","900","en","en19ao08","null","","","","learningBlock1","","","","This is a dep:","null","","","","",""
"","image-keyboard-response","131","787581","0.0-6.0-1.41","LF","7908vbmsu0","1440","900","en","en19ao08","null","","","","","","","","learning/Slide42.JPG","null","","","","",""
"","html-keyboard-response","132","788586","0.0-6.0-2.41","LF","7908vbmsu0","1440","900","en","en19ao08","null","","","","learningBlock1","","","","<div style=""font-size:60px;""> </div>","null","LF","learning/Slide42.JPG","This is a dep:","",""
"","html-keyboard-response","133","789589","0.0-6.0-0.42","LF","7908vbmsu0","1440","900","en","en19ao08","null","","","","learningBlock1","","","","This is a wug:","null","","","","",""
"","image-keyboard-response","134","789924","0.0-6.0-1.42","LF","7908vbmsu0","1440","900","en","en19ao08","null","","","","","","","","learning/Slide43.JPG","null","","","","",""
"","html-keyboard-response","135","790927","0.0-6.0-2.42","LF","7908vbmsu0","1440","900","en","en19ao08","null","","","","learningBlock1","","","","<div style=""font-size:60px;""> </div>","null","LF","learning/Slide43.JPG","This is a wug:","",""
"","html-keyboard-response","136","791933","0.0-6.0-0.43","LF","7908vbmsu0","1440","900","en","en19ao08","null","","","","learningBlock1","","","","This is a bim:","null","","","","",""
"","image-keyboard-response","137","792266","0.0-6.0-1.43","LF","7908vbmsu0","1440","900","en","en19ao08","null","","","","","","","","learning/Slide44.JPG","null","","","","",""
"","html-keyboard-response","138","793268","0.0-6.0-2.43","LF","7908vbmsu0","1440","900","en","en19ao08","null","","","","learningBlock1","","","","<div style=""font-size:60px;""> </div>","null","LF","learning/Slide44.JPG","This is a bim:","",""
"","html-keyboard-response","139","794271","0.0-6.0-0.44","LF","7908vbmsu0","1440","900","en","en19ao08","null","","","","learningBlock1","","","","This is a wug:","null","","","","",""
"","image-keyboard-response","140","794607","0.0-6.0-1.44","LF","7908vbmsu0","1440","900","en","en19ao08","null","","","","","","","","learning/Slide45.JPG","null","","","","",""
"","html-keyboard-response","141","795610","0.0-6.0-2.44","LF","7908vbmsu0","1440","900","en","en19ao08","null","","","","learningBlock1","","","","<div style=""font-size:60px;""> </div>","null","LF","learning/Slide45.JPG","This is a wug:","",""
"","html-keyboard-response","142","796612","0.0-6.0-0.45","LF","7908vbmsu0","1440","900","en","en19ao08","null","","","","learningBlock1","","","","This is a dep:","null","","","","",""
"","image-keyboard-response","143","796948","0.0-6.0-1.45","LF","7908vbmsu0","1440","900","en","en19ao08","null","","","","","","","","learning/Slide46.JPG","null","","","","",""
"","html-keyboard-response","144","797951","0.0-6.0-2.45","LF","7908vbmsu0","1440","900","en","en19ao08","null","","","","learningBlock1","","","","<div style=""font-size:60px;""> </div>","null","LF","learning/Slide46.JPG","This is a dep:","",""
"","html-keyboard-response","145","798954","0.0-6.0-0.46","LF","7908vbmsu0","1440","900","en","en19ao08","null","","","","learningBlock1","","","","This is a tob:","null","","","","",""
"","image-keyboard-response","146","799284","0.0-6.0-1.46","LF","7908vbmsu0","1440","900","en","en19ao08","null","","","","","","","","learning/Slide47.JPG","null","","","","",""
"","html-keyboard-response","147","800287","0.0-6.0-2.46","LF","7908vbmsu0","1440","900","en","en19ao08","null","","","","learningBlock1","","","","<div style=""font-size:60px;""> </div>","null","LF","learning/Slide47.JPG","This is a tob:","",""
"","html-keyboard-response","148","801290","0.0-6.0-0.47","LF","7908vbmsu0","1440","900","en","en19ao08","null","","","","learningBlock1","","","","This is a bim:","null","","","","",""
"","image-keyboard-response","149","801626","0.0-6.0-1.47","LF","7908vbmsu0","1440","900","en","en19ao08","null","","","","","","","","learning/Slide48.JPG","null","","","","",""
"","html-keyboard-response","150","802628","0.0-6.0-2.47","LF","7908vbmsu0","1440","900","en","en19ao08","null","","","","learningBlock1","","","","<div style=""font-size:60px;""> </div>","null","LF","learning/Slide48.JPG","This is a bim:","",""
"","html-keyboard-response","151","803631","0.0-6.0-0.48","LF","7908vbmsu0","1440","900","en","en19ao08","null","","","","learningBlock1","","","","This is a dep:","null","","","","",""
"","image-keyboard-response","152","803961","0.0-6.0-1.48","LF","7908vbmsu0","1440","900","en","en19ao08","null","","","","","","","","learning/Slide49.JPG","null","","","","",""
"","html-keyboard-response","153","804964","0.0-6.0-2.48","LF","7908vbmsu0","1440","900","en","en19ao08","null","","","","learningBlock1","","","","<div style=""font-size:60px;""> </div>","null","LF","learning/Slide49.JPG","This is a dep:","",""
"","html-keyboard-response","154","805965","0.0-6.0-0.49","LF","7908vbmsu0","1440","900","en","en19ao08","null","","","","learningBlock1","","","","This is a tob:","null","","","","",""
"","image-keyboard-response","155","806292","0.0-6.0-1.49","LF","7908vbmsu0","1440","900","en","en19ao08","null","","","","","","","","learning/Slide50.JPG","null","","","","",""
"","html-keyboard-response","156","807295","0.0-6.0-2.49","LF","7908vbmsu0","1440","900","en","en19ao08","null","","","","learningBlock1","","","","<div style=""font-size:60px;""> </div>","null","LF","learning/Slide50.JPG","This is a tob:","",""
"","html-keyboard-response","157","808297","0.0-6.0-0.50","LF","7908vbmsu0","1440","900","en","en19ao08","null","","","","learningBlock1","","","","This is a bim:","null","","","","",""
"","image-keyboard-response","158","808628","0.0-6.0-1.50","LF","7908vbmsu0","1440","900","en","en19ao08","null","","","","","","","","learning/Slide51.JPG","null","","","","",""
"","html-keyboard-response","159","809631","0.0-6.0-2.50","LF","7908vbmsu0","1440","900","en","en19ao08","null","","","","learningBlock1","","","","<div style=""font-size:60px;""> </div>","null","LF","learning/Slide51.JPG","This is a bim:","",""
"","html-keyboard-response","160","810637","0.0-6.0-0.51","LF","7908vbmsu0","1440","900","en","en19ao08","null","","","","learningBlock1","","","","This is a wug:","null","","","","",""
"","image-keyboard-response","161","810964","0.0-6.0-1.51","LF","7908vbmsu0","1440","900","en","en19ao08","null","","","","","","","","learning/Slide52.JPG","null","","","","",""
"","html-keyboard-response","162","811970","0.0-6.0-2.51","LF","7908vbmsu0","1440","900","en","en19ao08","null","","","","learningBlock1","","","","<div style=""font-size:60px;""> </div>","null","LF","learning/Slide52.JPG","This is a wug:","",""
"","html-keyboard-response","163","812974","0.0-6.0-0.52","LF","7908vbmsu0","1440","900","en","en19ao08","null","","","","learningBlock1","","","","This is a tob:","null","","","","",""
"","image-keyboard-response","164","813306","0.0-6.0-1.52","LF","7908vbmsu0","1440","900","en","en19ao08","null","","","","","","","","learning/Slide53.JPG","null","","","","",""
"","html-keyboard-response","165","814313","0.0-6.0-2.52","LF","7908vbmsu0","1440","900","en","en19ao08","null","","","","learningBlock1","","","","<div style=""font-size:60px;""> </div>","null","LF","learning/Slide53.JPG","This is a tob:","",""
"","html-keyboard-response","166","815317","0.0-6.0-0.53","LF","7908vbmsu0","1440","900","en","en19ao08","null","","","","learningBlock1","","","","This is a dep:","null","","","","",""
"","image-keyboard-response","167","815647","0.0-6.0-1.53","LF","7908vbmsu0","1440","900","en","en19ao08","null","","","","","","","","learning/Slide54.JPG","null","","","","",""
"","html-keyboard-response","168","816649","0.0-6.0-2.53","LF","7908vbmsu0","1440","900","en","en19ao08","null","","","","learningBlock1","","","","<div style=""font-size:60px;""> </div>","null","LF","learning/Slide54.JPG","This is a dep:","",""
"","html-keyboard-response","169","817652","0.0-6.0-0.54","LF","7908vbmsu0","1440","900","en","en19ao08","null","","","","learningBlock1","","","","This is a bim:","null","","","","",""
"","image-keyboard-response","170","817982","0.0-6.0-1.54","LF","7908vbmsu0","1440","900","en","en19ao08","null","","","","","","","","learning/Slide55.JPG","null","","","","",""
"","html-keyboard-response","171","818985","0.0-6.0-2.54","LF","7908vbmsu0","1440","900","en","en19ao08","null","","","","learningBlock1","","","","<div style=""font-size:60px;""> </div>","null","LF","learning/Slide55.JPG","This is a bim:","",""
"","html-keyboard-response","172","819988","0.0-6.0-0.55","LF","7908vbmsu0","1440","900","en","en19ao08","null","","","","learningBlock1","","","","This is a tob:","null","","","","",""
"","image-keyboard-response","173","820318","0.0-6.0-1.55","LF","7908vbmsu0","1440","900","en","en19ao08","null","","","","","","","","learning/Slide56.JPG","null","","","","",""
"","html-keyboard-response","174","821325","0.0-6.0-2.55","LF","7908vbmsu0","1440","900","en","en19ao08","null","","","","learningBlock1","","","","<div style=""font-size:60px;""> </div>","null","LF","learning/Slide56.JPG","This is a tob:","",""
"","html-keyboard-response","175","822329","0.0-6.0-0.56","LF","7908vbmsu0","1440","900","en","en19ao08","null","","","","learningBlock1","","","","This is a dep:","null","","","","",""
"","image-keyboard-response","176","822665","0.0-6.0-1.56","LF","7908vbmsu0","1440","900","en","en19ao08","null","","","","","","","","learning/Slide57.JPG","null","","","","",""
"","html-keyboard-response","177","823668","0.0-6.0-2.56","LF","7908vbmsu0","1440","900","en","en19ao08","null","","","","learningBlock1","","","","<div style=""font-size:60px;""> </div>","null","LF","learning/Slide57.JPG","This is a dep:","",""
"","html-keyboard-response","178","824674","0.0-6.0-0.57","LF","7908vbmsu0","1440","900","en","en19ao08","null","","","","learningBlock1","","","","This is a wug:","null","","","","",""
"","image-keyboard-response","179","825001","0.0-6.0-1.57","LF","7908vbmsu0","1440","900","en","en19ao08","null","","","","","","","","learning/Slide58.JPG","null","","","","",""
"","html-keyboard-response","180","826004","0.0-6.0-2.57","LF","7908vbmsu0","1440","900","en","en19ao08","null","","","","learningBlock1","","","","<div style=""font-size:60px;""> </div>","null","LF","learning/Slide58.JPG","This is a wug:","",""
"","html-keyboard-response","181","827006","0.0-6.0-0.58","LF","7908vbmsu0","1440","900","en","en19ao08","null","","","","learningBlock1","","","","This is a dep:","null","","","","",""
"","image-keyboard-response","182","827337","0.0-6.0-1.58","LF","7908vbmsu0","1440","900","en","en19ao08","null","","","","","","","","learning/Slide59.JPG","null","","","","",""
"","html-keyboard-response","183","828340","0.0-6.0-2.58","LF","7908vbmsu0","1440","900","en","en19ao08","null","","","","learningBlock1","","","","<div style=""font-size:60px;""> </div>","null","LF","learning/Slide59.JPG","This is a dep:","",""
"","html-keyboard-response","184","829342","0.0-6.0-0.59","LF","7908vbmsu0","1440","900","en","en19ao08","null","","","","learningBlock1","","","","This is a wug:","null","","","","",""
"","image-keyboard-response","185","829677","0.0-6.0-1.59","LF","7908vbmsu0","1440","900","en","en19ao08","null","","","","","","","","learning/Slide60.JPG","null","","","","",""
"","html-keyboard-response","186","830681","0.0-6.0-2.59","LF","7908vbmsu0","1440","900","en","en19ao08","null","","","","learningBlock1","","","","<div style=""font-size:60px;""> </div>","null","LF","learning/Slide60.JPG","This is a wug:","",""
"","html-keyboard-response","187","831684","0.0-6.0-0.60","LF","7908vbmsu0","1440","900","en","en19ao08","null","","","","learningBlock1","","","","This is a bim:","null","","","","",""
"","image-keyboard-response","188","832014","0.0-6.0-1.60","LF","7908vbmsu0","1440","900","en","en19ao08","null","","","","","","","","learning/Slide61.JPG","null","","","","",""
"","html-keyboard-response","189","833017","0.0-6.0-2.60","LF","7908vbmsu0","1440","900","en","en19ao08","null","","","","learningBlock1","","","","<div style=""font-size:60px;""> </div>","null","LF","learning/Slide61.JPG","This is a bim:","",""
"","html-keyboard-response","190","834020","0.0-6.0-0.61","LF","7908vbmsu0","1440","900","en","en19ao08","null","","","","learningBlock1","","","","This is a dep:","null","","","","",""
"","image-keyboard-response","191","834350","0.0-6.0-1.61","LF","7908vbmsu0","1440","900","en","en19ao08","null","","","","","","","","learning/Slide62.JPG","null","","","","",""
"","html-keyboard-response","192","835353","0.0-6.0-2.61","LF","7908vbmsu0","1440","900","en","en19ao08","null","","","","learningBlock1","","","","<div style=""font-size:60px;""> </div>","null","LF","learning/Slide62.JPG","This is a dep:","",""
"","html-keyboard-response","193","836356","0.0-6.0-0.62","LF","7908vbmsu0","1440","900","en","en19ao08","null","","","","learningBlock1","","","","This is a bim:","null","","","","",""
"","image-keyboard-response","194","836686","0.0-6.0-1.62","LF","7908vbmsu0","1440","900","en","en19ao08","null","","","","","","","","learning/Slide63.JPG","null","","","","",""
"","html-keyboard-response","195","837689","0.0-6.0-2.62","LF","7908vbmsu0","1440","900","en","en19ao08","null","","","","learningBlock1","","","","<div style=""font-size:60px;""> </div>","null","LF","learning/Slide63.JPG","This is a bim:","",""
"","html-keyboard-response","196","838691","0.0-6.0-0.63","LF","7908vbmsu0","1440","900","en","en19ao08","null","","","","learningBlock1","","","","This is a tob:","null","","","","",""
"","image-keyboard-response","197","839022","0.0-6.0-1.63","LF","7908vbmsu0","1440","900","en","en19ao08","null","","","","","","","","learning/Slide64.JPG","null","","","","",""
"","html-keyboard-response","198","840028","0.0-6.0-2.63","LF","7908vbmsu0","1440","900","en","en19ao08","null","","","","learningBlock1","","","","<div style=""font-size:60px;""> </div>","null","LF","learning/Slide64.JPG","This is a tob:","",""
"","html-keyboard-response","199","841037","0.0-6.0-0.64","LF","7908vbmsu0","1440","900","en","en19ao08","null","","","","learningBlock1","","","","This is a wug:","null","","","","",""
"","image-keyboard-response","200","841368","0.0-6.0-1.64","LF","7908vbmsu0","1440","900","en","en19ao08","null","","","","","","","","learning/Slide65.JPG","null","","","","",""
"","html-keyboard-response","201","842371","0.0-6.0-2.64","LF","7908vbmsu0","1440","900","en","en19ao08","null","","","","learningBlock1","","","","<div style=""font-size:60px;""> </div>","null","LF","learning/Slide65.JPG","This is a wug:","",""
"","html-keyboard-response","202","843374","0.0-6.0-0.65","LF","7908vbmsu0","1440","900","en","en19ao08","null","","","","learningBlock1","","","","This is a dep:","null","","","","",""
"","image-keyboard-response","203","843711","0.0-6.0-1.65","LF","7908vbmsu0","1440","900","en","en19ao08","null","","","","","","","","learning/Slide66.JPG","null","","","","",""
"","html-keyboard-response","204","844713","0.0-6.0-2.65","LF","7908vbmsu0","1440","900","en","en19ao08","null","","","","learningBlock1","","","","<div style=""font-size:60px;""> </div>","null","LF","learning/Slide66.JPG","This is a dep:","",""
"","html-keyboard-response","205","845715","0.0-6.0-0.66","LF","7908vbmsu0","1440","900","en","en19ao08","null","","","","learningBlock1","","","","This is a tob:","null","","","","",""
"","image-keyboard-response","206","846050","0.0-6.0-1.66","LF","7908vbmsu0","1440","900","en","en19ao08","null","","","","","","","","learning/Slide67.JPG","null","","","","",""
"","html-keyboard-response","207","847054","0.0-6.0-2.66","LF","7908vbmsu0","1440","900","en","en19ao08","null","","","","learningBlock1","","","","<div style=""font-size:60px;""> </div>","null","LF","learning/Slide67.JPG","This is a tob:","",""
"","html-keyboard-response","208","848057","0.0-6.0-0.67","LF","7908vbmsu0","1440","900","en","en19ao08","null","","","","learningBlock1","","","","This is a wug:","null","","","","",""
"","image-keyboard-response","209","848393","0.0-6.0-1.67","LF","7908vbmsu0","1440","900","en","en19ao08","null","","","","","","","","learning/Slide68.JPG","null","","","","",""
"","html-keyboard-response","210","849395","0.0-6.0-2.67","LF","7908vbmsu0","1440","900","en","en19ao08","null","","","","learningBlock1","","","","<div style=""font-size:60px;""> </div>","null","LF","learning/Slide68.JPG","This is a wug:","",""
"","html-keyboard-response","211","850401","0.0-6.0-0.68","LF","7908vbmsu0","1440","900","en","en19ao08","null","","","","learningBlock1","","","","This is a tob:","null","","","","",""
"","image-keyboard-response","212","850729","0.0-6.0-1.68","LF","7908vbmsu0","1440","900","en","en19ao08","null","","","","","","","","learning/Slide69.JPG","null","","","","",""
"","html-keyboard-response","213","851731","0.0-6.0-2.68","LF","7908vbmsu0","1440","900","en","en19ao08","null","","","","learningBlock1","","","","<div style=""font-size:60px;""> </div>","null","LF","learning/Slide69.JPG","This is a tob:","",""
"","html-keyboard-response","214","852737","0.0-6.0-0.69","LF","7908vbmsu0","1440","900","en","en19ao08","null","","","","learningBlock1","","","","This is a dep:","null","","","","",""
"","image-keyboard-response","215","853069","0.0-6.0-1.69","LF","7908vbmsu0","1440","900","en","en19ao08","null","","","","","","","","learning/Slide70.JPG","null","","","","",""
"","html-keyboard-response","216","854072","0.0-6.0-2.69","LF","7908vbmsu0","1440","900","en","en19ao08","null","","","","learningBlock1","","","","<div style=""font-size:60px;""> </div>","null","LF","learning/Slide70.JPG","This is a dep:","",""
"","html-keyboard-response","217","855078","0.0-6.0-0.70","LF","7908vbmsu0","1440","900","en","en19ao08","null","","","","learningBlock1","","","","This is a wug:","null","","","","",""
"","image-keyboard-response","218","855411","0.0-6.0-1.70","LF","7908vbmsu0","1440","900","en","en19ao08","null","","","","","","","","learning/Slide71.JPG","null","","","","",""
"","html-keyboard-response","219","856414","0.0-6.0-2.70","LF","7908vbmsu0","1440","900","en","en19ao08","null","","","","learningBlock1","","","","<div style=""font-size:60px;""> </div>","null","LF","learning/Slide71.JPG","This is a wug:","",""
"","html-keyboard-response","220","857416","0.0-6.0-0.71","LF","7908vbmsu0","1440","900","en","en19ao08","null","","","","learningBlock1","","","","This is a bim:","null","","","","",""
"","image-keyboard-response","221","857747","0.0-6.0-1.71","LF","7908vbmsu0","1440","900","en","en19ao08","null","","","","","","","","learning/Slide72.JPG","null","","","","",""
"","html-keyboard-response","222","858750","0.0-6.0-2.71","LF","7908vbmsu0","1440","900","en","en19ao08","null","","","","learningBlock1","","","","<div style=""font-size:60px;""> </div>","null","LF","learning/Slide72.JPG","This is a bim:","",""
"","html-keyboard-response","223","859752","0.0-6.0-0.72","LF","7908vbmsu0","1440","900","en","en19ao08","null","","","","learningBlock1","","","","This is a wug:","null","","","","",""
"","image-keyboard-response","224","860086","0.0-6.0-1.72","LF","7908vbmsu0","1440","900","en","en19ao08","null","","","","","","","","learning/Slide73.JPG","null","","","","",""
"","html-keyboard-response","225","861091","0.0-6.0-2.72","LF","7908vbmsu0","1440","900","en","en19ao08","null","","","","learningBlock1","","","","<div style=""font-size:60px;""> </div>","null","LF","learning/Slide73.JPG","This is a wug:","",""
"","html-keyboard-response","226","862096","0.0-6.0-0.73","LF","7908vbmsu0","1440","900","en","en19ao08","null","","","","learningBlock1","","","","This is a dep:","null","","","","",""
"","image-keyboard-response","227","862430","0.0-6.0-1.73","LF","7908vbmsu0","1440","900","en","en19ao08","null","","","","","","","","learning/Slide74.JPG","null","","","","",""
"","html-keyboard-response","228","863432","0.0-6.0-2.73","LF","7908vbmsu0","1440","900","en","en19ao08","null","","","","learningBlock1","","","","<div style=""font-size:60px;""> </div>","null","LF","learning/Slide74.JPG","This is a dep:","",""
"","html-keyboard-response","229","864438","0.0-6.0-0.74","LF","7908vbmsu0","1440","900","en","en19ao08","null","","","","learningBlock1","","","","This is a tob:","null","","","","",""
"","image-keyboard-response","230","864766","0.0-6.0-1.74","LF","7908vbmsu0","1440","900","en","en19ao08","null","","","","","","","","learning/Slide75.JPG","null","","","","",""
"","html-keyboard-response","231","865768","0.0-6.0-2.74","LF","7908vbmsu0","1440","900","en","en19ao08","null","","","","learningBlock1","","","","<div style=""font-size:60px;""> </div>","null","LF","learning/Slide75.JPG","This is a tob:","",""
"","html-keyboard-response","232","866771","0.0-6.0-0.75","LF","7908vbmsu0","1440","900","en","en19ao08","null","","","","learningBlock1","","","","This is a bim:","null","","","","",""
"","image-keyboard-response","233","867102","0.0-6.0-1.75","LF","7908vbmsu0","1440","900","en","en19ao08","null","","","","","","","","learning/Slide76.JPG","null","","","","",""
"","html-keyboard-response","234","868104","0.0-6.0-2.75","LF","7908vbmsu0","1440","900","en","en19ao08","null","","","","learningBlock1","","","","<div style=""font-size:60px;""> </div>","null","LF","learning/Slide76.JPG","This is a bim:","",""
"","html-keyboard-response","235","869107","0.0-6.0-0.76","LF","7908vbmsu0","1440","900","en","en19ao08","null","","","","learningBlock1","","","","This is a tob:","null","","","","",""
"","image-keyboard-response","236","869437","0.0-6.0-1.76","LF","7908vbmsu0","1440","900","en","en19ao08","null","","","","","","","","learning/Slide77.JPG","null","","","","",""
"","html-keyboard-response","237","870440","0.0-6.0-2.76","LF","7908vbmsu0","1440","900","en","en19ao08","null","","","","learningBlock1","","","","<div style=""font-size:60px;""> </div>","null","LF","learning/Slide77.JPG","This is a tob:","",""
"","html-keyboard-response","238","871443","0.0-6.0-0.77","LF","7908vbmsu0","1440","900","en","en19ao08","null","","","","learningBlock1","","","","This is a wug:","null","","","","",""
"","image-keyboard-response","239","871773","0.0-6.0-1.77","LF","7908vbmsu0","1440","900","en","en19ao08","null","","","","","","","","learning/Slide78.JPG","null","","","","",""
"","html-keyboard-response","240","872776","0.0-6.0-2.77","LF","7908vbmsu0","1440","900","en","en19ao08","null","","","","learningBlock1","","","","<div style=""font-size:60px;""> </div>","null","LF","learning/Slide78.JPG","This is a wug:","",""
"","html-keyboard-response","241","873782","0.0-6.0-0.78","LF","7908vbmsu0","1440","900","en","en19ao08","null","","","","learningBlock1","","","","This is a bim:","null","","","","",""
"","image-keyboard-response","242","874110","0.0-6.0-1.78","LF","7908vbmsu0","1440","900","en","en19ao08","null","","","","","","","","learning/Slide79.JPG","null","","","","",""
"","html-keyboard-response","243","875115","0.0-6.0-2.78","LF","7908vbmsu0","1440","900","en","en19ao08","null","","","","learningBlock1","","","","<div style=""font-size:60px;""> </div>","null","LF","learning/Slide79.JPG","This is a bim:","",""
"","html-keyboard-response","244","876120","0.0-6.0-0.79","LF","7908vbmsu0","1440","900","en","en19ao08","null","","","","learningBlock1","","","","This is a tob:","null","","","","",""
"","image-keyboard-response","245","876456","0.0-6.0-1.79","LF","7908vbmsu0","1440","900","en","en19ao08","null","","","","","","","","learning/Slide80.JPG","null","","","","",""
"","html-keyboard-response","246","877459","0.0-6.0-2.79","LF","7908vbmsu0","1440","900","en","en19ao08","null","","","","learningBlock1","","","","<div style=""font-size:60px;""> </div>","null","LF","learning/Slide80.JPG","This is a tob:","",""
"","instructions","247","894882","0.0-7.0","LF","7908vbmsu0","1440","900","en","en19ao08","NA","","","[{""page_index"":0,""viewing_time"":17422.01999993995}]","instructions","","","","","","","","","",""
"","html-keyboard-response","248","895885","0.0-8.0-0.0","LF","7908vbmsu0","1440","900","en","en19ao08","null","","","","learningBlock2","","","","This is a wug:","null","","","","",""
"","image-keyboard-response","249","896216","0.0-8.0-1.0","LF","7908vbmsu0","1440","900","en","en19ao08","null","","","","","","","","learning/Slide81.JPG","null","","","","",""
"","html-keyboard-response","250","897221","0.0-8.0-2.0","LF","7908vbmsu0","1440","900","en","en19ao08","null","","","","learningBlock2","","","","<div style=""font-size:60px;""> </div>","null","LF","learning/Slide81.JPG","This is a wug:","",""
"","html-keyboard-response","251","898227","0.0-8.0-0.1","LF","7908vbmsu0","1440","900","en","en19ao08","null","","","","learningBlock2","","","","This is a bim:","null","","","","",""
"","image-keyboard-response","252","898557","0.0-8.0-1.1","LF","7908vbmsu0","1440","900","en","en19ao08","null","","","","","","","","learning/Slide82.JPG","null","","","","",""
"","html-keyboard-response","253","899563","0.0-8.0-2.1","LF","7908vbmsu0","1440","900","en","en19ao08","null","","","","learningBlock2","","","","<div style=""font-size:60px;""> </div>","null","LF","learning/Slide82.JPG","This is a bim:","",""
"","html-keyboard-response","254","900568","0.0-8.0-0.2","LF","7908vbmsu0","1440","900","en","en19ao08","null","","","","learningBlock2","","","","This is a wug:","null","","","","",""
"","image-keyboard-response","255","900895","0.0-8.0-1.2","LF","7908vbmsu0","1440","900","en","en19ao08","null","","","","","","","","learning/Slide83.JPG","null","","","","",""
"","html-keyboard-response","256","901901","0.0-8.0-2.2","LF","7908vbmsu0","1440","900","en","en19ao08","null","","","","learningBlock2","","","","<div style=""font-size:60px;""> </div>","null","LF","learning/Slide83.JPG","This is a wug:","",""
"","html-keyboard-response","257","902903","0.0-8.0-0.3","LF","7908vbmsu0","1440","900","en","en19ao08","null","","","","learningBlock2","","","","This is a dep:","null","","","","",""
"","image-keyboard-response","258","903234","0.0-8.0-1.3","LF","7908vbmsu0","1440","900","en","en19ao08","null","","","","","","","","learning/Slide84.JPG","null","","","","",""
"","html-keyboard-response","259","904237","0.0-8.0-2.3","LF","7908vbmsu0","1440","900","en","en19ao08","null","","","","learningBlock2","","","","<div style=""font-size:60px;""> </div>","null","LF","learning/Slide84.JPG","This is a dep:","",""
"","html-keyboard-response","260","905243","0.0-8.0-0.4","LF","7908vbmsu0","1440","900","en","en19ao08","null","","","","learningBlock2","","","","This is a bim:","null","","","","",""
"","image-keyboard-response","261","905575","0.0-8.0-1.4","LF","7908vbmsu0","1440","900","en","en19ao08","null","","","","","","","","learning/Slide85.JPG","null","","","","",""
"","html-keyboard-response","262","906581","0.0-8.0-2.4","LF","7908vbmsu0","1440","900","en","en19ao08","null","","","","learningBlock2","","","","<div style=""font-size:60px;""> </div>","null","LF","learning/Slide85.JPG","This is a bim:","",""
"","html-keyboard-response","263","907586","0.0-8.0-0.5","LF","7908vbmsu0","1440","900","en","en19ao08","null","","","","learningBlock2","","","","This is a tob:","null","","","","",""
"","image-keyboard-response","264","907917","0.0-8.0-1.5","LF","7908vbmsu0","1440","900","en","en19ao08","null","","","","","","","","learning/Slide86.JPG","null","","","","",""
"","html-keyboard-response","265","908919","0.0-8.0-2.5","LF","7908vbmsu0","1440","900","en","en19ao08","null","","","","learningBlock2","","","","<div style=""font-size:60px;""> </div>","null","LF","learning/Slide86.JPG","This is a tob:","",""
"","html-keyboard-response","266","909922","0.0-8.0-0.6","LF","7908vbmsu0","1440","900","en","en19ao08","null","","","","learningBlock2","","","","This is a wug:","null","","","","",""
"","image-keyboard-response","267","910253","0.0-8.0-1.6","LF","7908vbmsu0","1440","900","en","en19ao08","null","","","","","","","","learning/Slide87.JPG","null","","","","",""
"","html-keyboard-response","268","911259","0.0-8.0-2.6","LF","7908vbmsu0","1440","900","en","en19ao08","null","","","","learningBlock2","","","","<div style=""font-size:60px;""> </div>","null","LF","learning/Slide87.JPG","This is a wug:","",""
"","html-keyboard-response","269","912263","0.0-8.0-0.7","LF","7908vbmsu0","1440","900","en","en19ao08","null","","","","learningBlock2","","","","This is a tob:","null","","","","",""
"","image-keyboard-response","270","912594","0.0-8.0-1.7","LF","7908vbmsu0","1440","900","en","en19ao08","null","","","","","","","","learning/Slide88.JPG","null","","","","",""
"","html-keyboard-response","271","913597","0.0-8.0-2.7","LF","7908vbmsu0","1440","900","en","en19ao08","null","","","","learningBlock2","","","","<div style=""font-size:60px;""> </div>","null","LF","learning/Slide88.JPG","This is a tob:","",""
"","html-keyboard-response","272","914599","0.0-8.0-0.8","LF","7908vbmsu0","1440","900","en","en19ao08","null","","","","learningBlock2","","","","This is a bim:","null","","","","",""
"","image-keyboard-response","273","914934","0.0-8.0-1.8","LF","7908vbmsu0","1440","900","en","en19ao08","null","","","","","","","","learning/Slide89.JPG","null","","","","",""
"","html-keyboard-response","274","915938","0.0-8.0-2.8","LF","7908vbmsu0","1440","900","en","en19ao08","null","","","","learningBlock2","","","","<div style=""font-size:60px;""> </div>","null","LF","learning/Slide89.JPG","This is a bim:","",""
"","html-keyboard-response","275","916943","0.0-8.0-0.9","LF","7908vbmsu0","1440","900","en","en19ao08","null","","","","learningBlock2","","","","This is a dep:","null","","","","",""
"","image-keyboard-response","276","917276","0.0-8.0-1.9","LF","7908vbmsu0","1440","900","en","en19ao08","null","","","","","","","","learning/Slide90.JPG","null","","","","",""
"","html-keyboard-response","277","918279","0.0-8.0-2.9","LF","7908vbmsu0","1440","900","en","en19ao08","null","","","","learningBlock2","","","","<div style=""font-size:60px;""> </div>","null","LF","learning/Slide90.JPG","This is a dep:","",""
"","html-keyboard-response","278","919285","0.0-8.0-0.10","LF","7908vbmsu0","1440","900","en","en19ao08","null","","","","learningBlock2","","","","This is a wug:","null","","","","",""
"","image-keyboard-response","279","919612","0.0-8.0-1.10","LF","7908vbmsu0","1440","900","en","en19ao08","null","","","","","","","","learning/Slide91.JPG","null","","","","",""
"","html-keyboard-response","280","920615","0.0-8.0-2.10","LF","7908vbmsu0","1440","900","en","en19ao08","null","","","","learningBlock2","","","","<div style=""font-size:60px;""> </div>","null","LF","learning/Slide91.JPG","This is a wug:","",""
"","html-keyboard-response","281","921618","0.0-8.0-0.11","LF","7908vbmsu0","1440","900","en","en19ao08","null","","","","learningBlock2","","","","This is a tob:","null","","","","",""
"","image-keyboard-response","282","921949","0.0-8.0-1.11","LF","7908vbmsu0","1440","900","en","en19ao08","null","","","","","","","","learning/Slide92.JPG","null","","","","",""
"","html-keyboard-response","283","922955","0.0-8.0-2.11","LF","7908vbmsu0","1440","900","en","en19ao08","null","","","","learningBlock2","","","","<div style=""font-size:60px;""> </div>","null","LF","learning/Slide92.JPG","This is a tob:","",""
"","html-keyboard-response","284","923959","0.0-8.0-0.12","LF","7908vbmsu0","1440","900","en","en19ao08","null","","","","learningBlock2","","","","This is a bim:","null","","","","",""
"","image-keyboard-response","285","924290","0.0-8.0-1.12","LF","7908vbmsu0","1440","900","en","en19ao08","null","","","","","","","","learning/Slide93.JPG","null","","","","",""
"","html-keyboard-response","286","925292","0.0-8.0-2.12","LF","7908vbmsu0","1440","900","en","en19ao08","null","","","","learningBlock2","","","","<div style=""font-size:60px;""> </div>","null","LF","learning/Slide93.JPG","This is a bim:","",""
"","html-keyboard-response","287","926295","0.0-8.0-0.13","LF","7908vbmsu0","1440","900","en","en19ao08","null","","","","learningBlock2","","","","This is a tob:","null","","","","",""
"","image-keyboard-response","288","926626","0.0-8.0-1.13","LF","7908vbmsu0","1440","900","en","en19ao08","null","","","","","","","","learning/Slide94.JPG","null","","","","",""
"","html-keyboard-response","289","927628","0.0-8.0-2.13","LF","7908vbmsu0","1440","900","en","en19ao08","null","","","","learningBlock2","","","","<div style=""font-size:60px;""> </div>","null","LF","learning/Slide94.JPG","This is a tob:","",""
"","html-keyboard-response","290","928634","0.0-8.0-0.14","LF","7908vbmsu0","1440","900","en","en19ao08","null","","","","learningBlock2","","","","This is a wug:","null","","","","",""
"","image-keyboard-response","291","928962","0.0-8.0-1.14","LF","7908vbmsu0","1440","900","en","en19ao08","null","","","","","","","","learning/Slide95.JPG","null","","","","",""
"","html-keyboard-response","292","929964","0.0-8.0-2.14","LF","7908vbmsu0","1440","900","en","en19ao08","null","","","","learningBlock2","","","","<div style=""font-size:60px;""> </div>","null","LF","learning/Slide95.JPG","This is a wug:","",""
"","html-keyboard-response","293","930970","0.0-8.0-0.15","LF","7908vbmsu0","1440","900","en","en19ao08","null","","","","learningBlock2","","","","This is a tob:","null","","","","",""
"","image-keyboard-response","294","931303","0.0-8.0-1.15","LF","7908vbmsu0","1440","900","en","en19ao08","null","","","","","","","","learning/Slide96.JPG","null","","","","",""
"","html-keyboard-response","295","932305","0.0-8.0-2.15","LF","7908vbmsu0","1440","900","en","en19ao08","null","","","","learningBlock2","","","","<div style=""font-size:60px;""> </div>","null","LF","learning/Slide96.JPG","This is a tob:","",""
"","html-keyboard-response","296","933312","0.0-8.0-0.16","LF","7908vbmsu0","1440","900","en","en19ao08","null","","","","learningBlock2","","","","This is a dep:","null","","","","",""
"","image-keyboard-response","297","933644","0.0-8.0-1.16","LF","7908vbmsu0","1440","900","en","en19ao08","null","","","","","","","","learning/Slide97.JPG","null","","","","",""
"","html-keyboard-response","298","934650","0.0-8.0-2.16","LF","7908vbmsu0","1440","900","en","en19ao08","null","","","","learningBlock2","","","","<div style=""font-size:60px;""> </div>","null","LF","learning/Slide97.JPG","This is a dep:","",""
"","html-keyboard-response","299","935655","0.0-8.0-0.17","LF","7908vbmsu0","1440","900","en","en19ao08","null","","","","learningBlock2","","","","This is a bim:","null","","","","",""
"","image-keyboard-response","300","935991","0.0-8.0-1.17","LF","7908vbmsu0","1440","900","en","en19ao08","null","","","","","","","","learning/Slide98.JPG","null","","","","",""
"","html-keyboard-response","301","936993","0.0-8.0-2.17","LF","7908vbmsu0","1440","900","en","en19ao08","null","","","","learningBlock2","","","","<div style=""font-size:60px;""> </div>","null","LF","learning/Slide98.JPG","This is a bim:","",""
"","html-keyboard-response","302","937996","0.0-8.0-0.18","LF","7908vbmsu0","1440","900","en","en19ao08","null","","","","learningBlock2","","","","This is a dep:","null","","","","",""
"","image-keyboard-response","303","938327","0.0-8.0-1.18","LF","7908vbmsu0","1440","900","en","en19ao08","null","","","","","","","","learning/Slide99.JPG","null","","","","",""
"","html-keyboard-response","304","939329","0.0-8.0-2.18","LF","7908vbmsu0","1440","900","en","en19ao08","null","","","","learningBlock2","","","","<div style=""font-size:60px;""> </div>","null","LF","learning/Slide99.JPG","This is a dep:","",""
"","html-keyboard-response","305","940332","0.0-8.0-0.19","LF","7908vbmsu0","1440","900","en","en19ao08","null","","","","learningBlock2","","","","This is a bim:","null","","","","",""
"","image-keyboard-response","306","940668","0.0-8.0-1.19","LF","7908vbmsu0","1440","900","en","en19ao08","null","","","","","","","","learning/Slide100.JPG","null","","","","",""
"","html-keyboard-response","307","941671","0.0-8.0-2.19","LF","7908vbmsu0","1440","900","en","en19ao08","null","","","","learningBlock2","","","","<div style=""font-size:60px;""> </div>","null","LF","learning/Slide100.JPG","This is a bim:","",""
"","html-keyboard-response","308","942677","0.0-8.0-0.20","LF","7908vbmsu0","1440","900","en","en19ao08","null","","","","learningBlock2","","","","This is a tob:","null","","","","",""
"","image-keyboard-response","309","943009","0.0-8.0-1.20","LF","7908vbmsu0","1440","900","en","en19ao08","null","","","","","","","","learning/Slide101.JPG","null","","","","",""
"","html-keyboard-response","310","944013","0.0-8.0-2.20","LF","7908vbmsu0","1440","900","en","en19ao08","null","","","","learningBlock2","","","","<div style=""font-size:60px;""> </div>","null","LF","learning/Slide101.JPG","This is a tob:","",""
"","html-keyboard-response","311","945015","0.0-8.0-0.21","LF","7908vbmsu0","1440","900","en","en19ao08","null","","","","learningBlock2","","","","This is a bim:","null","","","","",""
"","image-keyboard-response","312","945351","0.0-8.0-1.21","LF","7908vbmsu0","1440","900","en","en19ao08","null","","","","","","","","learning/Slide102.JPG","null","","","","",""
"","html-keyboard-response","313","946353","0.0-8.0-2.21","LF","7908vbmsu0","1440","900","en","en19ao08","null","","","","learningBlock2","","","","<div style=""font-size:60px;""> </div>","null","LF","learning/Slide102.JPG","This is a bim:","",""
"","html-keyboard-response","314","947359","0.0-8.0-0.22","LF","7908vbmsu0","1440","900","en","en19ao08","null","","","","learningBlock2","","","","This is a dep:","null","","","","",""
"","image-keyboard-response","315","947686","0.0-8.0-1.22","LF","7908vbmsu0","1440","900","en","en19ao08","null","","","","","","","","learning/Slide103.JPG","null","","","","",""
"","html-keyboard-response","316","948693","0.0-8.0-2.22","LF","7908vbmsu0","1440","900","en","en19ao08","null","","","","learningBlock2","","","","<div style=""font-size:60px;""> </div>","null","LF","learning/Slide103.JPG","This is a dep:","",""
"","html-keyboard-response","317","949697","0.0-8.0-0.23","LF","7908vbmsu0","1440","900","en","en19ao08","null","","","","learningBlock2","","","","This is a tob:","null","","","","",""
"","image-keyboard-response","318","950028","0.0-8.0-1.23","LF","7908vbmsu0","1440","900","en","en19ao08","null","","","","","","","","learning/Slide104.JPG","null","","","","",""
"","html-keyboard-response","319","951030","0.0-8.0-2.23","LF","7908vbmsu0","1440","900","en","en19ao08","null","","","","learningBlock2","","","","<div style=""font-size:60px;""> </div>","null","LF","learning/Slide104.JPG","This is a tob:","",""
"","html-keyboard-response","320","952036","0.0-8.0-0.24","LF","7908vbmsu0","1440","900","en","en19ao08","null","","","","learningBlock2","","","","This is a dep:","null","","","","",""
"","image-keyboard-response","321","952368","0.0-8.0-1.24","LF","7908vbmsu0","1440","900","en","en19ao08","null","","","","","","","","learning/Slide105.JPG","null","","","","",""
"","html-keyboard-response","322","953372","0.0-8.0-2.24","LF","7908vbmsu0","1440","900","en","en19ao08","null","","","","learningBlock2","","","","<div style=""font-size:60px;""> </div>","null","LF","learning/Slide105.JPG","This is a dep:","",""
"","html-keyboard-response","323","954375","0.0-8.0-0.25","LF","7908vbmsu0","1440","900","en","en19ao08","null","","","","learningBlock2","","","","This is a wug:","null","","","","",""
"","image-keyboard-response","324","954710","0.0-8.0-1.25","LF","7908vbmsu0","1440","900","en","en19ao08","null","","","","","","","","learning/Slide106.JPG","null","","","","",""
"","html-keyboard-response","325","955713","0.0-8.0-2.25","LF","7908vbmsu0","1440","900","en","en19ao08","null","","","","learningBlock2","","","","<div style=""font-size:60px;""> </div>","null","LF","learning/Slide106.JPG","This is a wug:","",""
"","html-keyboard-response","326","956719","0.0-8.0-0.26","LF","7908vbmsu0","1440","900","en","en19ao08","null","","","","learningBlock2","","","","This is a bim:","null","","","","",""
"","image-keyboard-response","327","957052","0.0-8.0-1.26","LF","7908vbmsu0","1440","900","en","en19ao08","null","","","","","","","","learning/Slide107.JPG","null","","","","",""
"","html-keyboard-response","328","958054","0.0-8.0-2.26","LF","7908vbmsu0","1440","900","en","en19ao08","null","","","","learningBlock2","","","","<div style=""font-size:60px;""> </div>","null","LF","learning/Slide107.JPG","This is a bim:","",""
"","html-keyboard-response","329","959057","0.0-8.0-0.27","LF","7908vbmsu0","1440","900","en","en19ao08","null","","","","learningBlock2","","","","This is a dep:","null","","","","",""
"","image-keyboard-response","330","959393","0.0-8.0-1.27","LF","7908vbmsu0","1440","900","en","en19ao08","null","","","","","","","","learning/Slide108.JPG","null","","","","",""
"","html-keyboard-response","331","960396","0.0-8.0-2.27","LF","7908vbmsu0","1440","900","en","en19ao08","null","","","","learningBlock2","","","","<div style=""font-size:60px;""> </div>","null","LF","learning/Slide108.JPG","This is a dep:","",""
"","html-keyboard-response","332","961398","0.0-8.0-0.28","LF","7908vbmsu0","1440","900","en","en19ao08","null","","","","learningBlock2","","","","This is a wug:","null","","","","",""
"","image-keyboard-response","333","961729","0.0-8.0-1.28","LF","7908vbmsu0","1440","900","en","en19ao08","null","","","","","","","","learning/Slide109.JPG","null","","","","",""
"","html-keyboard-response","334","962732","0.0-8.0-2.28","LF","7908vbmsu0","1440","900","en","en19ao08","null","","","","learningBlock2","","","","<div style=""font-size:60px;""> </div>","null","LF","learning/Slide109.JPG","This is a wug:","",""
"","html-keyboard-response","335","963734","0.0-8.0-0.29","LF","7908vbmsu0","1440","900","en","en19ao08","null","","","","learningBlock2","","","","This is a bim:","null","","","","",""
"","image-keyboard-response","336","964065","0.0-8.0-1.29","LF","7908vbmsu0","1440","900","en","en19ao08","null","","","","","","","","learning/Slide110.JPG","null","","","","",""
"","html-keyboard-response","337","965068","0.0-8.0-2.29","LF","7908vbmsu0","1440","900","en","en19ao08","null","","","","learningBlock2","","","","<div style=""font-size:60px;""> </div>","null","LF","learning/Slide110.JPG","This is a bim:","",""
"","html-keyboard-response","338","966070","0.0-8.0-0.30","LF","7908vbmsu0","1440","900","en","en19ao08","null","","","","learningBlock2","","","","This is a tob:","null","","","","",""
"","image-keyboard-response","339","966401","0.0-8.0-1.30","LF","7908vbmsu0","1440","900","en","en19ao08","null","","","","","","","","learning/Slide111.JPG","null","","","","",""
"","html-keyboard-response","340","967403","0.0-8.0-2.30","LF","7908vbmsu0","1440","900","en","en19ao08","null","","","","learningBlock2","","","","<div style=""font-size:60px;""> </div>","null","LF","learning/Slide111.JPG","This is a tob:","",""
"","html-keyboard-response","341","968409","0.0-8.0-0.31","LF","7908vbmsu0","1440","900","en","en19ao08","null","","","","learningBlock2","","","","This is a wug:","null","","","","",""
"","image-keyboard-response","342","968742","0.0-8.0-1.31","LF","7908vbmsu0","1440","900","en","en19ao08","null","","","","","","","","learning/Slide112.JPG","null","","","","",""
"","html-keyboard-response","343","969745","0.0-8.0-2.31","LF","7908vbmsu0","1440","900","en","en19ao08","null","","","","learningBlock2","","","","<div style=""font-size:60px;""> </div>","null","LF","learning/Slide112.JPG","This is a wug:","",""
"","html-keyboard-response","344","970747","0.0-8.0-0.32","LF","7908vbmsu0","1440","900","en","en19ao08","null","","","","learningBlock2","","","","This is a tob:","null","","","","",""
"","image-keyboard-response","345","971078","0.0-8.0-1.32","LF","7908vbmsu0","1440","900","en","en19ao08","null","","","","","","","","learning/Slide113.JPG","null","","","","",""
"","html-keyboard-response","346","972081","0.0-8.0-2.32","LF","7908vbmsu0","1440","900","en","en19ao08","null","","","","learningBlock2","","","","<div style=""font-size:60px;""> </div>","null","LF","learning/Slide113.JPG","This is a tob:","",""
"","html-keyboard-response","347","973083","0.0-8.0-0.33","LF","7908vbmsu0","1440","900","en","en19ao08","null","","","","learningBlock2","","","","This is a wug:","null","","","","",""
"","image-keyboard-response","348","973417","0.0-8.0-1.33","LF","7908vbmsu0","1440","900","en","en19ao08","null","","","","","","","","learning/Slide114.JPG","null","","","","",""
"","html-keyboard-response","349","974422","0.0-8.0-2.33","LF","7908vbmsu0","1440","900","en","en19ao08","null","","","","learningBlock2","","","","<div style=""font-size:60px;""> </div>","null","LF","learning/Slide114.JPG","This is a wug:","",""
"","html-keyboard-response","350","975425","0.0-8.0-0.34","LF","7908vbmsu0","1440","900","en","en19ao08","null","","","","learningBlock2","","","","This is a bim:","null","","","","",""
"","image-keyboard-response","351","975755","0.0-8.0-1.34","LF","7908vbmsu0","1440","900","en","en19ao08","null","","","","","","","","learning/Slide115.JPG","null","","","","",""
"","html-keyboard-response","352","976758","0.0-8.0-2.34","LF","7908vbmsu0","1440","900","en","en19ao08","null","","","","learningBlock2","","","","<div style=""font-size:60px;""> </div>","null","LF","learning/Slide115.JPG","This is a bim:","",""
"","html-keyboard-response","353","977761","0.0-8.0-0.35","LF","7908vbmsu0","1440","900","en","en19ao08","null","","","","learningBlock2","","","","This is a dep:","null","","","","",""
"","image-keyboard-response","354","978097","0.0-8.0-1.35","LF","7908vbmsu0","1440","900","en","en19ao08","null","","","","","","","","learning/Slide116.JPG","null","","","","",""
"","html-keyboard-response","355","979099","0.0-8.0-2.35","LF","7908vbmsu0","1440","900","en","en19ao08","null","","","","learningBlock2","","","","<div style=""font-size:60px;""> </div>","null","LF","learning/Slide116.JPG","This is a dep:","",""
"","html-keyboard-response","356","980102","0.0-8.0-0.36","LF","7908vbmsu0","1440","900","en","en19ao08","null","","","","learningBlock2","","","","This is a tob:","null","","","","",""
"","image-keyboard-response","357","980433","0.0-8.0-1.36","LF","7908vbmsu0","1440","900","en","en19ao08","null","","","","","","","","learning/Slide117.JPG","null","","","","",""
"","html-keyboard-response","358","981435","0.0-8.0-2.36","LF","7908vbmsu0","1440","900","en","en19ao08","null","","","","learningBlock2","","","","<div style=""font-size:60px;""> </div>","null","LF","learning/Slide117.JPG","This is a tob:","",""
"","html-keyboard-response","359","982441","0.0-8.0-0.37","LF","7908vbmsu0","1440","900","en","en19ao08","null","","","","learningBlock2","","","","This is a dep:","null","","","","",""
"","image-keyboard-response","360","982768","0.0-8.0-1.37","LF","7908vbmsu0","1440","900","en","en19ao08","null","","","","","","","","learning/Slide118.JPG","null","","","","",""
"","html-keyboard-response","361","983771","0.0-8.0-2.37","LF","7908vbmsu0","1440","900","en","en19ao08","null","","","","learningBlock2","","","","<div style=""font-size:60px;""> </div>","null","LF","learning/Slide118.JPG","This is a dep:","",""
"","html-keyboard-response","362","984774","0.0-8.0-0.38","LF","7908vbmsu0","1440","900","en","en19ao08","null","","","","learningBlock2","","","","This is a wug:","null","","","","",""
"","image-keyboard-response","363","985104","0.0-8.0-1.38","LF","7908vbmsu0","1440","900","en","en19ao08","null","","","","","","","","learning/Slide119.JPG","null","","","","",""
"","html-keyboard-response","364","986111","0.0-8.0-2.38","LF","7908vbmsu0","1440","900","en","en19ao08","null","","","","learningBlock2","","","","<div style=""font-size:60px;""> </div>","null","LF","learning/Slide119.JPG","This is a wug:","",""
"","html-keyboard-response","365","987115","0.0-8.0-0.39","LF","7908vbmsu0","1440","900","en","en19ao08","null","","","","learningBlock2","","","","This is a dep:","null","","","","",""
"","image-keyboard-response","366","987450","0.0-8.0-1.39","LF","7908vbmsu0","1440","900","en","en19ao08","null","","","","","","","","learning/Slide120.JPG","null","","","","",""
"","html-keyboard-response","367","988454","0.0-8.0-2.39","LF","7908vbmsu0","1440","900","en","en19ao08","null","","","","learningBlock2","","","","<div style=""font-size:60px;""> </div>","null","LF","learning/Slide120.JPG","This is a dep:","",""
"","html-keyboard-response","368","989456","0.0-8.0-0.40","LF","7908vbmsu0","1440","900","en","en19ao08","null","","","","learningBlock2","","","","This is a bim:","null","","","","",""
"","image-keyboard-response","369","989787","0.0-8.0-1.40","LF","7908vbmsu0","1440","900","en","en19ao08","null","","","","","","","","learning/Slide121.JPG","null","","","","",""
"","html-keyboard-response","370","990790","0.0-8.0-2.40","LF","7908vbmsu0","1440","900","en","en19ao08","null","","","","learningBlock2","","","","<div style=""font-size:60px;""> </div>","null","LF","learning/Slide121.JPG","This is a bim:","",""
"","html-keyboard-response","371","991792","0.0-8.0-0.41","LF","7908vbmsu0","1440","900","en","en19ao08","null","","","","learningBlock2","","","","This is a wug:","null","","","","",""
"","image-keyboard-response","372","992123","0.0-8.0-1.41","LF","7908vbmsu0","1440","900","en","en19ao08","null","","","","","","","","learning/Slide122.JPG","null","","","","",""
"","html-keyboard-response","373","993129","0.0-8.0-2.41","LF","7908vbmsu0","1440","900","en","en19ao08","null","","","","learningBlock2","","","","<div style=""font-size:60px;""> </div>","null","LF","learning/Slide122.JPG","This is a wug:","",""
"","html-keyboard-response","374","994132","0.0-8.0-0.42","LF","7908vbmsu0","1440","900","en","en19ao08","null","","","","learningBlock2","","","","This is a bim:","null","","","","",""
"","image-keyboard-response","375","994464","0.0-8.0-1.42","LF","7908vbmsu0","1440","900","en","en19ao08","null","","","","","","","","learning/Slide123.JPG","null","","","","",""
"","html-keyboard-response","376","995467","0.0-8.0-2.42","LF","7908vbmsu0","1440","900","en","en19ao08","null","","","","learningBlock2","","","","<div style=""font-size:60px;""> </div>","null","LF","learning/Slide123.JPG","This is a bim:","",""
"","html-keyboard-response","377","996473","0.0-8.0-0.43","LF","7908vbmsu0","1440","900","en","en19ao08","null","","","","learningBlock2","","","","This is a tob:","null","","","","",""
"","image-keyboard-response","378","996800","0.0-8.0-1.43","LF","7908vbmsu0","1440","900","en","en19ao08","null","","","","","","","","learning/Slide124.JPG","null","","","","",""
"","html-keyboard-response","379","997803","0.0-8.0-2.43","LF","7908vbmsu0","1440","900","en","en19ao08","null","","","","learningBlock2","","","","<div style=""font-size:60px;""> </div>","null","LF","learning/Slide124.JPG","This is a tob:","",""
"","html-keyboard-response","380","998809","0.0-8.0-0.44","LF","7908vbmsu0","1440","900","en","en19ao08","null","","","","learningBlock2","","","","This is a bim:","null","","","","",""
"","image-keyboard-response","381","999136","0.0-8.0-1.44","LF","7908vbmsu0","1440","900","en","en19ao08","null","","","","","","","","learning/Slide125.JPG","null","","","","",""
"","html-keyboard-response","382","1000139","0.0-8.0-2.44","LF","7908vbmsu0","1440","900","en","en19ao08","null","","","","learningBlock2","","","","<div style=""font-size:60px;""> </div>","null","LF","learning/Slide125.JPG","This is a bim:","",""
"","html-keyboard-response","383","1001145","0.0-8.0-0.45","LF","7908vbmsu0","1440","900","en","en19ao08","null","","","","learningBlock2","","","","This is a tob:","null","","","","",""
"","image-keyboard-response","384","1001477","0.0-8.0-1.45","LF","7908vbmsu0","1440","900","en","en19ao08","null","","","","","","","","learning/Slide126.JPG","null","","","","",""
"","html-keyboard-response","385","1002480","0.0-8.0-2.45","LF","7908vbmsu0","1440","900","en","en19ao08","null","","","","learningBlock2","","","","<div style=""font-size:60px;""> </div>","null","LF","learning/Slide126.JPG","This is a tob:","",""
"","html-keyboard-response","386","1003483","0.0-8.0-0.46","LF","7908vbmsu0","1440","900","en","en19ao08","null","","","","learningBlock2","","","","This is a dep:","null","","","","",""
"","image-keyboard-response","387","1003814","0.0-8.0-1.46","LF","7908vbmsu0","1440","900","en","en19ao08","null","","","","","","","","learning/Slide127.JPG","null","","","","",""
"","html-keyboard-response","388","1004816","0.0-8.0-2.46","LF","7908vbmsu0","1440","900","en","en19ao08","null","","","","learningBlock2","","","","<div style=""font-size:60px;""> </div>","null","LF","learning/Slide127.JPG","This is a dep:","",""
"","html-keyboard-response","389","1005819","0.0-8.0-0.47","LF","7908vbmsu0","1440","900","en","en19ao08","null","","","","learningBlock2","","","","This is a wug:","null","","","","",""
"","image-keyboard-response","390","1006149","0.0-8.0-1.47","LF","7908vbmsu0","1440","900","en","en19ao08","null","","","","","","","","learning/Slide128.JPG","null","","","","",""
"","html-keyboard-response","391","1007152","0.0-8.0-2.47","LF","7908vbmsu0","1440","900","en","en19ao08","null","","","","learningBlock2","","","","<div style=""font-size:60px;""> </div>","null","LF","learning/Slide128.JPG","This is a wug:","",""
"","html-keyboard-response","392","1008158","0.0-8.0-0.48","LF","7908vbmsu0","1440","900","en","en19ao08","null","","","","learningBlock2","","","","This is a tob:","null","","","","",""
"","image-keyboard-response","393","1008495","0.0-8.0-1.48","LF","7908vbmsu0","1440","900","en","en19ao08","null","","","","","","","","learning/Slide129.JPG","null","","","","",""
"","html-keyboard-response","394","1009496","0.0-8.0-2.48","LF","7908vbmsu0","1440","900","en","en19ao08","null","","","","learningBlock2","","","","<div style=""font-size:60px;""> </div>","null","LF","learning/Slide129.JPG","This is a tob:","",""
"","html-keyboard-response","395","1010501","0.0-8.0-0.49","LF","7908vbmsu0","1440","900","en","en19ao08","null","","","","learningBlock2","","","","This is a wug:","null","","","","",""
"","image-keyboard-response","396","1010837","0.0-8.0-1.49","LF","7908vbmsu0","1440","900","en","en19ao08","null","","","","","","","","learning/Slide130.JPG","null","","","","",""
"","html-keyboard-response","397","1011840","0.0-8.0-2.49","LF","7908vbmsu0","1440","900","en","en19ao08","null","","","","learningBlock2","","","","<div style=""font-size:60px;""> </div>","null","LF","learning/Slide130.JPG","This is a wug:","",""
"","html-keyboard-response","398","1012843","0.0-8.0-0.50","LF","7908vbmsu0","1440","900","en","en19ao08","null","","","","learningBlock2","","","","This is a bim:","null","","","","",""
"","image-keyboard-response","399","1013174","0.0-8.0-1.50","LF","7908vbmsu0","1440","900","en","en19ao08","null","","","","","","","","learning/Slide131.JPG","null","","","","",""
"","html-keyboard-response","400","1014176","0.0-8.0-2.50","LF","7908vbmsu0","1440","900","en","en19ao08","null","","","","learningBlock2","","","","<div style=""font-size:60px;""> </div>","null","LF","learning/Slide131.JPG","This is a bim:","",""
"","html-keyboard-response","401","1015182","0.0-8.0-0.51","LF","7908vbmsu0","1440","900","en","en19ao08","null","","","","learningBlock2","","","","This is a dep:","null","","","","",""
"","image-keyboard-response","402","1015514","0.0-8.0-1.51","LF","7908vbmsu0","1440","900","en","en19ao08","null","","","","","","","","learning/Slide132.JPG","null","","","","",""
"","html-keyboard-response","403","1016517","0.0-8.0-2.51","LF","7908vbmsu0","1440","900","en","en19ao08","null","","","","learningBlock2","","","","<div style=""font-size:60px;""> </div>","null","LF","learning/Slide132.JPG","This is a dep:","",""
"","html-keyboard-response","404","1017526","0.0-8.0-0.52","LF","7908vbmsu0","1440","900","en","en19ao08","null","","","","learningBlock2","","","","This is a tob:","null","","","","",""
"","image-keyboard-response","405","1017861","0.0-8.0-1.52","LF","7908vbmsu0","1440","900","en","en19ao08","null","","","","","","","","learning/Slide133.JPG","null","","","","",""
"","html-keyboard-response","406","1018864","0.0-8.0-2.52","LF","7908vbmsu0","1440","900","en","en19ao08","null","","","","learningBlock2","","","","<div style=""font-size:60px;""> </div>","null","LF","learning/Slide133.JPG","This is a tob:","",""
"","html-keyboard-response","407","1019866","0.0-8.0-0.53","LF","7908vbmsu0","1440","900","en","en19ao08","null","","","","learningBlock2","","","","This is a dep:","null","","","","",""
"","image-keyboard-response","408","1020198","0.0-8.0-1.53","LF","7908vbmsu0","1440","900","en","en19ao08","null","","","","","","","","learning/Slide134.JPG","null","","","","",""
"","html-keyboard-response","409","1021200","0.0-8.0-2.53","LF","7908vbmsu0","1440","900","en","en19ao08","null","","","","learningBlock2","","","","<div style=""font-size:60px;""> </div>","null","LF","learning/Slide134.JPG","This is a dep:","",""
"","html-keyboard-response","410","1022202","0.0-8.0-0.54","LF","7908vbmsu0","1440","900","en","en19ao08","null","","","","learningBlock2","","","","This is a tob:","null","","","","",""
"","image-keyboard-response","411","1022533","0.0-8.0-1.54","LF","7908vbmsu0","1440","900","en","en19ao08","null","","","","","","","","learning/Slide135.JPG","null","","","","",""
"","html-keyboard-response","412","1023539","0.0-8.0-2.54","LF","7908vbmsu0","1440","900","en","en19ao08","null","","","","learningBlock2","","","","<div style=""font-size:60px;""> </div>","null","LF","learning/Slide135.JPG","This is a tob:","",""
"","html-keyboard-response","413","1024544","0.0-8.0-0.55","LF","7908vbmsu0","1440","900","en","en19ao08","null","","","","learningBlock2","","","","This is a wug:","null","","","","",""
"","image-keyboard-response","414","1024874","0.0-8.0-1.55","LF","7908vbmsu0","1440","900","en","en19ao08","null","","","","","","","","learning/Slide136.JPG","null","","","","",""
"","html-keyboard-response","415","1025877","0.0-8.0-2.55","LF","7908vbmsu0","1440","900","en","en19ao08","null","","","","learningBlock2","","","","<div style=""font-size:60px;""> </div>","null","LF","learning/Slide136.JPG","This is a wug:","",""
"","html-keyboard-response","416","1026878","0.0-8.0-0.56","LF","7908vbmsu0","1440","900","en","en19ao08","null","","","","learningBlock2","","","","This is a tob:","null","","","","",""
"","image-keyboard-response","417","1027205","0.0-8.0-1.56","LF","7908vbmsu0","1440","900","en","en19ao08","null","","","","","","","","learning/Slide137.JPG","null","","","","",""
"","html-keyboard-response","418","1028211","0.0-8.0-2.56","LF","7908vbmsu0","1440","900","en","en19ao08","null","","","","learningBlock2","","","","<div style=""font-size:60px;""> </div>","null","LF","learning/Slide137.JPG","This is a tob:","",""
"","html-keyboard-response","419","1029216","0.0-8.0-0.57","LF","7908vbmsu0","1440","900","en","en19ao08","null","","","","learningBlock2","","","","This is a bim:","null","","","","",""
"","image-keyboard-response","420","1029546","0.0-8.0-1.57","LF","7908vbmsu0","1440","900","en","en19ao08","null","","","","","","","","learning/Slide138.JPG","null","","","","",""
"","html-keyboard-response","421","1030549","0.0-8.0-2.57","LF","7908vbmsu0","1440","900","en","en19ao08","null","","","","learningBlock2","","","","<div style=""font-size:60px;""> </div>","null","LF","learning/Slide138.JPG","This is a bim:","",""
"","html-keyboard-response","422","1031551","0.0-8.0-0.58","LF","7908vbmsu0","1440","900","en","en19ao08","null","","","","learningBlock2","","","","This is a wug:","null","","","","",""
"","image-keyboard-response","423","1031888","0.0-8.0-1.58","LF","7908vbmsu0","1440","900","en","en19ao08","null","","","","","","","","learning/Slide139.JPG","null","","","","",""
"","html-keyboard-response","424","1032890","0.0-8.0-2.58","LF","7908vbmsu0","1440","900","en","en19ao08","null","","","","learningBlock2","","","","<div style=""font-size:60px;""> </div>","null","LF","learning/Slide139.JPG","This is a wug:","",""
"","html-keyboard-response","425","1033893","0.0-8.0-0.59","LF","7908vbmsu0","1440","900","en","en19ao08","null","","","","learningBlock2","","","","This is a dep:","null","","","","",""
"","image-keyboard-response","426","1034223","0.0-8.0-1.59","LF","7908vbmsu0","1440","900","en","en19ao08","null","","","","","","","","learning/Slide140.JPG","null","","","","",""
"","html-keyboard-response","427","1035226","0.0-8.0-2.59","LF","7908vbmsu0","1440","900","en","en19ao08","null","","","","learningBlock2","","","","<div style=""font-size:60px;""> </div>","null","LF","learning/Slide140.JPG","This is a dep:","",""
"","html-keyboard-response","428","1036232","0.0-8.0-0.60","LF","7908vbmsu0","1440","900","en","en19ao08","null","","","","learningBlock2","","","","This is a tob:","null","","","","",""
"","image-keyboard-response","429","1036565","0.0-8.0-1.60","LF","7908vbmsu0","1440","900","en","en19ao08","null","","","","","","","","learning/Slide141.JPG","null","","","","",""
"","html-keyboard-response","430","1037567","0.0-8.0-2.60","LF","7908vbmsu0","1440","900","en","en19ao08","null","","","","learningBlock2","","","","<div style=""font-size:60px;""> </div>","null","LF","learning/Slide141.JPG","This is a tob:","",""
"","html-keyboard-response","431","1038573","0.0-8.0-0.61","LF","7908vbmsu0","1440","900","en","en19ao08","null","","","","learningBlock2","","","","This is a wug:","null","","","","",""
"","image-keyboard-response","432","1038904","0.0-8.0-1.61","LF","7908vbmsu0","1440","900","en","en19ao08","null","","","","","","","","learning/Slide142.JPG","null","","","","",""
"","html-keyboard-response","433","1039909","0.0-8.0-2.61","LF","7908vbmsu0","1440","900","en","en19ao08","null","","","","learningBlock2","","","","<div style=""font-size:60px;""> </div>","null","LF","learning/Slide142.JPG","This is a wug:","",""
"","html-keyboard-response","434","1040911","0.0-8.0-0.62","LF","7908vbmsu0","1440","900","en","en19ao08","null","","","","learningBlock2","","","","This is a bim:","null","","","","",""
"","image-keyboard-response","435","1041249","0.0-8.0-1.62","LF","7908vbmsu0","1440","900","en","en19ao08","null","","","","","","","","learning/Slide143.JPG","null","","","","",""
"","html-keyboard-response","436","1042250","0.0-8.0-2.62","LF","7908vbmsu0","1440","900","en","en19ao08","null","","","","learningBlock2","","","","<div style=""font-size:60px;""> </div>","null","LF","learning/Slide143.JPG","This is a bim:","",""
"","html-keyboard-response","437","1043251","0.0-8.0-0.63","LF","7908vbmsu0","1440","900","en","en19ao08","null","","","","learningBlock2","","","","This is a dep:","null","","","","",""
"","image-keyboard-response","438","1043578","0.0-8.0-1.63","LF","7908vbmsu0","1440","900","en","en19ao08","null","","","","","","","","learning/Slide144.JPG","null","","","","",""
"","html-keyboard-response","439","1044584","0.0-8.0-2.63","LF","7908vbmsu0","1440","900","en","en19ao08","null","","","","learningBlock2","","","","<div style=""font-size:60px;""> </div>","null","LF","learning/Slide144.JPG","This is a dep:","",""
"","html-keyboard-response","440","1045588","0.0-8.0-0.64","LF","7908vbmsu0","1440","900","en","en19ao08","null","","","","learningBlock2","","","","This is a bim:","null","","","","",""
"","image-keyboard-response","441","1045924","0.0-8.0-1.64","LF","7908vbmsu0","1440","900","en","en19ao08","null","","","","","","","","learning/Slide145.JPG","null","","","","",""
"","html-keyboard-response","442","1046927","0.0-8.0-2.64","LF","7908vbmsu0","1440","900","en","en19ao08","null","","","","learningBlock2","","","","<div style=""font-size:60px;""> </div>","null","LF","learning/Slide145.JPG","This is a bim:","",""
"","html-keyboard-response","443","1047930","0.0-8.0-0.65","LF","7908vbmsu0","1440","900","en","en19ao08","null","","","","learningBlock2","","","","This is a tob:","null","","","","",""
"","image-keyboard-response","444","1048266","0.0-8.0-1.65","LF","7908vbmsu0","1440","900","en","en19ao08","null","","","","","","","","learning/Slide146.JPG","null","","","","",""
"","html-keyboard-response","445","1049268","0.0-8.0-2.65","LF","7908vbmsu0","1440","900","en","en19ao08","null","","","","learningBlock2","","","","<div style=""font-size:60px;""> </div>","null","LF","learning/Slide146.JPG","This is a tob:","",""
"","html-keyboard-response","446","1050271","0.0-8.0-0.66","LF","7908vbmsu0","1440","900","en","en19ao08","null","","","","learningBlock2","","","","This is a wug:","null","","","","",""
"","image-keyboard-response","447","1050602","0.0-8.0-1.66","LF","7908vbmsu0","1440","900","en","en19ao08","null","","","","","","","","learning/Slide147.JPG","null","","","","",""
"","html-keyboard-response","448","1051604","0.0-8.0-2.66","LF","7908vbmsu0","1440","900","en","en19ao08","null","","","","learningBlock2","","","","<div style=""font-size:60px;""> </div>","null","LF","learning/Slide147.JPG","This is a wug:","",""
"","html-keyboard-response","449","1052610","0.0-8.0-0.67","LF","7908vbmsu0","1440","900","en","en19ao08","null","","","","learningBlock2","","","","This is a bim:","null","","","","",""
"","image-keyboard-response","450","1052943","0.0-8.0-1.67","LF","7908vbmsu0","1440","900","en","en19ao08","null","","","","","","","","learning/Slide148.JPG","null","","","","",""
"","html-keyboard-response","451","1053946","0.0-8.0-2.67","LF","7908vbmsu0","1440","900","en","en19ao08","null","","","","learningBlock2","","","","<div style=""font-size:60px;""> </div>","null","LF","learning/Slide148.JPG","This is a bim:","",""
"","html-keyboard-response","452","1054952","0.0-8.0-0.68","LF","7908vbmsu0","1440","900","en","en19ao08","null","","","","learningBlock2","","","","This is a dep:","null","","","","",""
"","image-keyboard-response","453","1055284","0.0-8.0-1.68","LF","7908vbmsu0","1440","900","en","en19ao08","null","","","","","","","","learning/Slide149.JPG","null","","","","",""
"","html-keyboard-response","454","1056287","0.0-8.0-2.68","LF","7908vbmsu0","1440","900","en","en19ao08","null","","","","learningBlock2","","","","<div style=""font-size:60px;""> </div>","null","LF","learning/Slide149.JPG","This is a dep:","",""
"","html-keyboard-response","455","1057290","0.0-8.0-0.69","LF","7908vbmsu0","1440","900","en","en19ao08","null","","","","learningBlock2","","","","This is a wug:","null","","","","",""
"","image-keyboard-response","456","1057620","0.0-8.0-1.69","LF","7908vbmsu0","1440","900","en","en19ao08","null","","","","","","","","learning/Slide150.JPG","null","","","","",""
"","html-keyboard-response","457","1058623","0.0-8.0-2.69","LF","7908vbmsu0","1440","900","en","en19ao08","null","","","","learningBlock2","","","","<div style=""font-size:60px;""> </div>","null","LF","learning/Slide150.JPG","This is a wug:","",""
"","html-keyboard-response","458","1059629","0.0-8.0-0.70","LF","7908vbmsu0","1440","900","en","en19ao08","null","","","","learningBlock2","","","","This is a dep:","null","","","","",""
"","image-keyboard-response","459","1059962","0.0-8.0-1.70","LF","7908vbmsu0","1440","900","en","en19ao08","null","","","","","","","","learning/Slide151.JPG","null","","","","",""
"","html-keyboard-response","460","1060964","0.0-8.0-2.70","LF","7908vbmsu0","1440","900","en","en19ao08","null","","","","learningBlock2","","","","<div style=""font-size:60px;""> </div>","null","LF","learning/Slide151.JPG","This is a dep:","",""
"","html-keyboard-response","461","1061967","0.0-8.0-0.71","LF","7908vbmsu0","1440","900","en","en19ao08","null","","","","learningBlock2","","","","This is a wug:","null","","","","",""
"","image-keyboard-response","462","1062303","0.0-8.0-1.71","LF","7908vbmsu0","1440","900","en","en19ao08","null","","","","","","","","learning/Slide152.JPG","null","","","","",""
"","html-keyboard-response","463","1063305","0.0-8.0-2.71","LF","7908vbmsu0","1440","900","en","en19ao08","null","","","","learningBlock2","","","","<div style=""font-size:60px;""> </div>","null","LF","learning/Slide152.JPG","This is a wug:","",""
"","html-keyboard-response","464","1064311","0.0-8.0-0.72","LF","7908vbmsu0","1440","900","en","en19ao08","null","","","","learningBlock2","","","","This is a bim:","null","","","","",""
"","image-keyboard-response","465","1064639","0.0-8.0-1.72","LF","7908vbmsu0","1440","900","en","en19ao08","null","","","","","","","","learning/Slide153.JPG","null","","","","",""
"","html-keyboard-response","466","1065641","0.0-8.0-2.72","LF","7908vbmsu0","1440","900","en","en19ao08","null","","","","learningBlock2","","","","<div style=""font-size:60px;""> </div>","null","LF","learning/Slide153.JPG","This is a bim:","",""
"","html-keyboard-response","467","1066646","0.0-8.0-0.73","LF","7908vbmsu0","1440","900","en","en19ao08","null","","","","learningBlock2","","","","This is a tob:","null","","","","",""
"","image-keyboard-response","468","1066975","0.0-8.0-1.73","LF","7908vbmsu0","1440","900","en","en19ao08","null","","","","","","","","learning/Slide154.JPG","null","","","","",""
"","html-keyboard-response","469","1067981","0.0-8.0-2.73","LF","7908vbmsu0","1440","900","en","en19ao08","null","","","","learningBlock2","","","","<div style=""font-size:60px;""> </div>","null","LF","learning/Slide154.JPG","This is a tob:","",""
"","html-keyboard-response","470","1068985","0.0-8.0-0.74","LF","7908vbmsu0","1440","900","en","en19ao08","null","","","","learningBlock2","","","","This is a dep:","null","","","","",""
"","image-keyboard-response","471","1069316","0.0-8.0-1.74","LF","7908vbmsu0","1440","900","en","en19ao08","null","","","","","","","","learning/Slide155.JPG","null","","","","",""
"","html-keyboard-response","472","1070319","0.0-8.0-2.74","LF","7908vbmsu0","1440","900","en","en19ao08","null","","","","learningBlock2","","","","<div style=""font-size:60px;""> </div>","null","LF","learning/Slide155.JPG","This is a dep:","",""
"","html-keyboard-response","473","1071321","0.0-8.0-0.75","LF","7908vbmsu0","1440","900","en","en19ao08","null","","","","learningBlock2","","","","This is a bim:","null","","","","",""
"","image-keyboard-response","474","1071652","0.0-8.0-1.75","LF","7908vbmsu0","1440","900","en","en19ao08","null","","","","","","","","learning/Slide156.JPG","null","","","","",""
"","html-keyboard-response","475","1072654","0.0-8.0-2.75","LF","7908vbmsu0","1440","900","en","en19ao08","null","","","","learningBlock2","","","","<div style=""font-size:60px;""> </div>","null","LF","learning/Slide156.JPG","This is a bim:","",""
"","html-keyboard-response","476","1073657","0.0-8.0-0.76","LF","7908vbmsu0","1440","900","en","en19ao08","null","","","","learningBlock2","","","","This is a dep:","null","","","","",""
"","image-keyboard-response","477","1073993","0.0-8.0-1.76","LF","7908vbmsu0","1440","900","en","en19ao08","null","","","","","","","","learning/Slide157.JPG","null","","","","",""
"","html-keyboard-response","478","1074996","0.0-8.0-2.76","LF","7908vbmsu0","1440","900","en","en19ao08","null","","","","learningBlock2","","","","<div style=""font-size:60px;""> </div>","null","LF","learning/Slide157.JPG","This is a dep:","",""
"","html-keyboard-response","479","1075999","0.0-8.0-0.77","LF","7908vbmsu0","1440","900","en","en19ao08","null","","","","learningBlock2","","","","This is a tob:","null","","","","",""
"","image-keyboard-response","480","1076334","0.0-8.0-1.77","LF","7908vbmsu0","1440","900","en","en19ao08","null","","","","","","","","learning/Slide158.JPG","null","","","","",""
"","html-keyboard-response","481","1077340","0.0-8.0-2.77","LF","7908vbmsu0","1440","900","en","en19ao08","null","","","","learningBlock2","","","","<div style=""font-size:60px;""> </div>","null","LF","learning/Slide158.JPG","This is a tob:","",""
"","html-keyboard-response","482","1078347","0.0-8.0-0.78","LF","7908vbmsu0","1440","900","en","en19ao08","null","","","","learningBlock2","","","","This is a dep:","null","","","","",""
"","image-keyboard-response","483","1078676","0.0-8.0-1.78","LF","7908vbmsu0","1440","900","en","en19ao08","null","","","","","","","","learning/Slide159.JPG","null","","","","",""
"","html-keyboard-response","484","1079678","0.0-8.0-2.78","LF","7908vbmsu0","1440","900","en","en19ao08","null","","","","learningBlock2","","","","<div style=""font-size:60px;""> </div>","null","LF","learning/Slide159.JPG","This is a dep:","",""
"","html-keyboard-response","485","1080681","0.0-8.0-0.79","LF","7908vbmsu0","1440","900","en","en19ao08","null","","","","learningBlock2","","","","This is a wug:","null","","","","",""
"","image-keyboard-response","486","1081012","0.0-8.0-1.79","LF","7908vbmsu0","1440","900","en","en19ao08","null","","","","","","","","learning/Slide160.JPG","null","","","","",""
"","html-keyboard-response","487","1082014","0.0-8.0-2.79","LF","7908vbmsu0","1440","900","en","en19ao08","null","","","","learningBlock2","","","","<div style=""font-size:60px;""> </div>","null","LF","learning/Slide160.JPG","This is a wug:","",""
"","resize2","488","1133290","0.0-9.0","LF","7908vbmsu0","1440","900","en","en19ao08","","","","","","","104","1.04","","","","","","",""
"","instructions","489","1151970","0.0-10.0","LF","7908vbmsu0","1440","900","en","en19ao08","NA","","","[{""page_index"":0,""viewing_time"":18679.150000214577}]","instructions","","","","","","","","","",""
