"success","trial_type","trial_index","time_elapsed","internal_node_id","condition","subject","screen_width","screen_height","language","codeword","rt","responses","url","view_history","test_part","final_height_px","final_width_px","scale_factor","stimulus","key_press","learningType","presentedImage","presentedLabel","button_pressed","response"
"true","fullscreen","0","11039","0.0-0.0","LF","csfpvftfnx","1600","900","de","ko05or02","","","","","","","","","","","","","","",""
"","survey-html-form","1","33398","0.0-1.0","LF","csfpvftfnx","1600","900","de","ko05or02","22353.29500027001","{""language"":""de""}","","","","","","","","","","","","",""
"","external-html","2","175724","0.0-2.0-0.0","LF","csfpvftfnx","1600","900","de","ko05or02","142232.21499845386","","text/information.html","","","","","","","","","","","",""
"","external-html","3","193229","0.0-2.0-1.0","LF","csfpvftfnx","1600","900","de","ko05or02","17432.77500011027","","text/consent.html","","","","","","","","","","","",""
"","survey-html-form","4","310002","0.0-2.0-2.0","LF","csfpvftfnx","1600","900","de","ko05or02","116768.42499896884","{""codeword_enter"":""ko05or02""}","","","","","","","","","","","","",""
"","instructions","5","351217","0.0-4.0","LF","csfpvftfnx","1600","900","de","ko05or02","NA","","","[{""page_index"":0,""viewing_time"":3439.6349992603064},{""page_index"":1,""viewing_time"":36263.365000486374}]","instructions","","","","","","","","","",""
"","resize","6","502859","0.0-5.0","LF","csfpvftfnx","1600","900","de","ko05or02","","","","","","","444","2.8190476190476192","","","","","","",""
"","html-keyboard-response","7","503864","0.0-6.0-0.0","LF","csfpvftfnx","1600","900","de","ko05or02","null","","","","learningBlock1","","","","This is a tob:","null","","","","",""
"","image-keyboard-response","8","504205","0.0-6.0-1.0","LF","csfpvftfnx","1600","900","de","ko05or02","null","","","","","","","","learning/Slide1.JPG","null","","","","",""
"","html-keyboard-response","9","505214","0.0-6.0-2.0","LF","csfpvftfnx","1600","900","de","ko05or02","null","","","","learningBlock1","","","","<div style=""font-size:60px;""> </div>","null","LF","learning/Slide1.JPG","This is a tob:","",""
"","html-keyboard-response","10","506219","0.0-6.0-0.1","LF","csfpvftfnx","1600","900","de","ko05or02","null","","","","learningBlock1","","","","This is a wug:","null","","","","",""
"","image-keyboard-response","11","506555","0.0-6.0-1.1","LF","csfpvftfnx","1600","900","de","ko05or02","null","","","","","","","","learning/Slide2.JPG","null","","","","",""
"","html-keyboard-response","12","507563","0.0-6.0-2.1","LF","csfpvftfnx","1600","900","de","ko05or02","null","","","","learningBlock1","","","","<div style=""font-size:60px;""> </div>","null","LF","learning/Slide2.JPG","This is a wug:","",""
"","html-keyboard-response","13","508576","0.0-6.0-0.2","LF","csfpvftfnx","1600","900","de","ko05or02","null","","","","learningBlock1","","","","This is a bim:","null","","","","",""
"","image-keyboard-response","14","508921","0.0-6.0-1.2","LF","csfpvftfnx","1600","900","de","ko05or02","null","","","","","","","","learning/Slide3.JPG","null","","","","",""
"","html-keyboard-response","15","509932","0.0-6.0-2.2","LF","csfpvftfnx","1600","900","de","ko05or02","null","","","","learningBlock1","","","","<div style=""font-size:60px;""> </div>","null","LF","learning/Slide3.JPG","This is a bim:","",""
"","html-keyboard-response","16","510944","0.0-6.0-0.3","LF","csfpvftfnx","1600","900","de","ko05or02","null","","","","learningBlock1","","","","This is a dep:","null","","","","",""
"","image-keyboard-response","17","511286","0.0-6.0-1.3","LF","csfpvftfnx","1600","900","de","ko05or02","null","","","","","","","","learning/Slide4.JPG","null","","","","",""
"","html-keyboard-response","18","512304","0.0-6.0-2.3","LF","csfpvftfnx","1600","900","de","ko05or02","null","","","","learningBlock1","","","","<div style=""font-size:60px;""> </div>","null","LF","learning/Slide4.JPG","This is a dep:","",""
"","html-keyboard-response","19","513309","0.0-6.0-0.4","LF","csfpvftfnx","1600","900","de","ko05or02","null","","","","learningBlock1","","","","This is a wug:","null","","","","",""
"","image-keyboard-response","20","513645","0.0-6.0-1.4","LF","csfpvftfnx","1600","900","de","ko05or02","null","","","","","","","","learning/Slide5.JPG","null","","","","",""
"","html-keyboard-response","21","514648","0.0-6.0-2.4","LF","csfpvftfnx","1600","900","de","ko05or02","null","","","","learningBlock1","","","","<div style=""font-size:60px;""> </div>","null","LF","learning/Slide5.JPG","This is a wug:","",""
"","html-keyboard-response","22","515658","0.0-6.0-0.5","LF","csfpvftfnx","1600","900","de","ko05or02","null","","","","learningBlock1","","","","This is a dep:","null","","","","",""
"","image-keyboard-response","23","516004","0.0-6.0-1.5","LF","csfpvftfnx","1600","900","de","ko05or02","null","","","","","","","","learning/Slide6.JPG","null","","","","",""
"","html-keyboard-response","24","517019","0.0-6.0-2.5","LF","csfpvftfnx","1600","900","de","ko05or02","null","","","","learningBlock1","","","","<div style=""font-size:60px;""> </div>","null","LF","learning/Slide6.JPG","This is a dep:","",""
"","html-keyboard-response","25","518028","0.0-6.0-0.6","LF","csfpvftfnx","1600","900","de","ko05or02","null","","","","learningBlock1","","","","This is a wug:","null","","","","",""
"","image-keyboard-response","26","518366","0.0-6.0-1.6","LF","csfpvftfnx","1600","900","de","ko05or02","null","","","","","","","","learning/Slide7.JPG","null","","","","",""
"","html-keyboard-response","27","519381","0.0-6.0-2.6","LF","csfpvftfnx","1600","900","de","ko05or02","null","","","","learningBlock1","","","","<div style=""font-size:60px;""> </div>","null","LF","learning/Slide7.JPG","This is a wug:","",""
"","html-keyboard-response","28","520386","0.0-6.0-0.7","LF","csfpvftfnx","1600","900","de","ko05or02","null","","","","learningBlock1","","","","This is a bim:","null","","","","",""
"","image-keyboard-response","29","520728","0.0-6.0-1.7","LF","csfpvftfnx","1600","900","de","ko05or02","null","","","","","","","","learning/Slide8.JPG","null","","","","",""
"","html-keyboard-response","30","521736","0.0-6.0-2.7","LF","csfpvftfnx","1600","900","de","ko05or02","null","","","","learningBlock1","","","","<div style=""font-size:60px;""> </div>","null","LF","learning/Slide8.JPG","This is a bim:","",""
"","html-keyboard-response","31","522740","0.0-6.0-0.8","LF","csfpvftfnx","1600","900","de","ko05or02","null","","","","learningBlock1","","","","This is a wug:","null","","","","",""
"","image-keyboard-response","32","523079","0.0-6.0-1.8","LF","csfpvftfnx","1600","900","de","ko05or02","null","","","","","","","","learning/Slide9.JPG","null","","","","",""
"","html-keyboard-response","33","524093","0.0-6.0-2.8","LF","csfpvftfnx","1600","900","de","ko05or02","null","","","","learningBlock1","","","","<div style=""font-size:60px;""> </div>","null","LF","learning/Slide9.JPG","This is a wug:","",""
"","html-keyboard-response","34","525102","0.0-6.0-0.9","LF","csfpvftfnx","1600","900","de","ko05or02","null","","","","learningBlock1","","","","This is a dep:","null","","","","",""
"","image-keyboard-response","35","525440","0.0-6.0-1.9","LF","csfpvftfnx","1600","900","de","ko05or02","null","","","","","","","","learning/Slide10.JPG","null","","","","",""
"","html-keyboard-response","36","526456","0.0-6.0-2.9","LF","csfpvftfnx","1600","900","de","ko05or02","null","","","","learningBlock1","","","","<div style=""font-size:60px;""> </div>","null","LF","learning/Slide10.JPG","This is a dep:","",""
"","html-keyboard-response","37","527469","0.0-6.0-0.10","LF","csfpvftfnx","1600","900","de","ko05or02","null","","","","learningBlock1","","","","This is a tob:","null","","","","",""
"","image-keyboard-response","38","527803","0.0-6.0-1.10","LF","csfpvftfnx","1600","900","de","ko05or02","null","","","","","","","","learning/Slide11.JPG","null","","","","",""
"","html-keyboard-response","39","528819","0.0-6.0-2.10","LF","csfpvftfnx","1600","900","de","ko05or02","null","","","","learningBlock1","","","","<div style=""font-size:60px;""> </div>","null","LF","learning/Slide11.JPG","This is a tob:","",""
"","html-keyboard-response","40","529836","0.0-6.0-0.11","LF","csfpvftfnx","1600","900","de","ko05or02","null","","","","learningBlock1","","","","This is a dep:","null","","","","",""
"","image-keyboard-response","41","530178","0.0-6.0-1.11","LF","csfpvftfnx","1600","900","de","ko05or02","null","","","","","","","","learning/Slide12.JPG","null","","","","",""
"","html-keyboard-response","42","531190","0.0-6.0-2.11","LF","csfpvftfnx","1600","900","de","ko05or02","null","","","","learningBlock1","","","","<div style=""font-size:60px;""> </div>","null","LF","learning/Slide12.JPG","This is a dep:","",""
"","html-keyboard-response","43","532206","0.0-6.0-0.12","LF","csfpvftfnx","1600","900","de","ko05or02","null","","","","learningBlock1","","","","This is a bim:","null","","","","",""
"","image-keyboard-response","44","532537","0.0-6.0-1.12","LF","csfpvftfnx","1600","900","de","ko05or02","null","","","","","","","","learning/Slide13.JPG","null","","","","",""
"","html-keyboard-response","45","533546","0.0-6.0-2.12","LF","csfpvftfnx","1600","900","de","ko05or02","null","","","","learningBlock1","","","","<div style=""font-size:60px;""> </div>","null","LF","learning/Slide13.JPG","This is a bim:","",""
"","html-keyboard-response","46","534552","0.0-6.0-0.13","LF","csfpvftfnx","1600","900","de","ko05or02","null","","","","learningBlock1","","","","This is a wug:","null","","","","",""
"","image-keyboard-response","47","534887","0.0-6.0-1.13","LF","csfpvftfnx","1600","900","de","ko05or02","null","","","","","","","","learning/Slide14.JPG","null","","","","",""
"","html-keyboard-response","48","535897","0.0-6.0-2.13","LF","csfpvftfnx","1600","900","de","ko05or02","null","","","","learningBlock1","","","","<div style=""font-size:60px;""> </div>","null","LF","learning/Slide14.JPG","This is a wug:","",""
"","html-keyboard-response","49","536909","0.0-6.0-0.14","LF","csfpvftfnx","1600","900","de","ko05or02","null","","","","learningBlock1","","","","This is a tob:","null","","","","",""
"","image-keyboard-response","50","537249","0.0-6.0-1.14","LF","csfpvftfnx","1600","900","de","ko05or02","null","","","","","","","","learning/Slide15.JPG","null","","","","",""
"","html-keyboard-response","51","538264","0.0-6.0-2.14","LF","csfpvftfnx","1600","900","de","ko05or02","null","","","","learningBlock1","","","","<div style=""font-size:60px;""> </div>","null","LF","learning/Slide15.JPG","This is a tob:","",""
"","html-keyboard-response","52","539276","0.0-6.0-0.15","LF","csfpvftfnx","1600","900","de","ko05or02","null","","","","learningBlock1","","","","This is a dep:","null","","","","",""
"","image-keyboard-response","53","539623","0.0-6.0-1.15","LF","csfpvftfnx","1600","900","de","ko05or02","null","","","","","","","","learning/Slide16.JPG","null","","","","",""
"","html-keyboard-response","54","540630","0.0-6.0-2.15","LF","csfpvftfnx","1600","900","de","ko05or02","null","","","","learningBlock1","","","","<div style=""font-size:60px;""> </div>","null","LF","learning/Slide16.JPG","This is a dep:","",""
"","html-keyboard-response","55","541640","0.0-6.0-0.16","LF","csfpvftfnx","1600","900","de","ko05or02","null","","","","learningBlock1","","","","This is a bim:","null","","","","",""
"","image-keyboard-response","56","541995","0.0-6.0-1.16","LF","csfpvftfnx","1600","900","de","ko05or02","null","","","","","","","","learning/Slide17.JPG","null","","","","",""
"","html-keyboard-response","57","543002","0.0-6.0-2.16","LF","csfpvftfnx","1600","900","de","ko05or02","null","","","","learningBlock1","","","","<div style=""font-size:60px;""> </div>","null","LF","learning/Slide17.JPG","This is a bim:","",""
"","html-keyboard-response","58","544006","0.0-6.0-0.17","LF","csfpvftfnx","1600","900","de","ko05or02","null","","","","learningBlock1","","","","This is a tob:","null","","","","",""
"","image-keyboard-response","59","544345","0.0-6.0-1.17","LF","csfpvftfnx","1600","900","de","ko05or02","null","","","","","","","","learning/Slide18.JPG","null","","","","",""
"","html-keyboard-response","60","545360","0.0-6.0-2.17","LF","csfpvftfnx","1600","900","de","ko05or02","null","","","","learningBlock1","","","","<div style=""font-size:60px;""> </div>","null","LF","learning/Slide18.JPG","This is a tob:","",""
"","html-keyboard-response","61","546365","0.0-6.0-0.18","LF","csfpvftfnx","1600","900","de","ko05or02","null","","","","learningBlock1","","","","This is a wug:","null","","","","",""
"","image-keyboard-response","62","546695","0.0-6.0-1.18","LF","csfpvftfnx","1600","900","de","ko05or02","null","","","","","","","","learning/Slide19.JPG","null","","","","",""
"","html-keyboard-response","63","547702","0.0-6.0-2.18","LF","csfpvftfnx","1600","900","de","ko05or02","null","","","","learningBlock1","","","","<div style=""font-size:60px;""> </div>","null","LF","learning/Slide19.JPG","This is a wug:","",""
"","html-keyboard-response","64","548710","0.0-6.0-0.19","LF","csfpvftfnx","1600","900","de","ko05or02","null","","","","learningBlock1","","","","This is a bim:","null","","","","",""
"","image-keyboard-response","65","549052","0.0-6.0-1.19","LF","csfpvftfnx","1600","900","de","ko05or02","null","","","","","","","","learning/Slide20.JPG","null","","","","",""
"","html-keyboard-response","66","550055","0.0-6.0-2.19","LF","csfpvftfnx","1600","900","de","ko05or02","null","","","","learningBlock1","","","","<div style=""font-size:60px;""> </div>","null","LF","learning/Slide20.JPG","This is a bim:","",""
"","html-keyboard-response","67","551064","0.0-6.0-0.20","LF","csfpvftfnx","1600","900","de","ko05or02","null","","","","learningBlock1","","","","This is a dep:","null","","","","",""
"","image-keyboard-response","68","551392","0.0-6.0-1.20","LF","csfpvftfnx","1600","900","de","ko05or02","null","","","","","","","","learning/Slide21.JPG","null","","","","",""
"","html-keyboard-response","69","552405","0.0-6.0-2.20","LF","csfpvftfnx","1600","900","de","ko05or02","null","","","","learningBlock1","","","","<div style=""font-size:60px;""> </div>","null","LF","learning/Slide21.JPG","This is a dep:","",""
"","html-keyboard-response","70","553419","0.0-6.0-0.21","LF","csfpvftfnx","1600","900","de","ko05or02","null","","","","learningBlock1","","","","This is a bim:","null","","","","",""
"","image-keyboard-response","71","553755","0.0-6.0-1.21","LF","csfpvftfnx","1600","900","de","ko05or02","null","","","","","","","","learning/Slide22.JPG","null","","","","",""
"","html-keyboard-response","72","554768","0.0-6.0-2.21","LF","csfpvftfnx","1600","900","de","ko05or02","null","","","","learningBlock1","","","","<div style=""font-size:60px;""> </div>","null","LF","learning/Slide22.JPG","This is a bim:","",""
"","html-keyboard-response","73","555772","0.0-6.0-0.22","LF","csfpvftfnx","1600","900","de","ko05or02","null","","","","learningBlock1","","","","This is a tob:","null","","","","",""
"","image-keyboard-response","74","556108","0.0-6.0-1.22","LF","csfpvftfnx","1600","900","de","ko05or02","null","","","","","","","","learning/Slide23.JPG","null","","","","",""
"","html-keyboard-response","75","557125","0.0-6.0-2.22","LF","csfpvftfnx","1600","900","de","ko05or02","null","","","","learningBlock1","","","","<div style=""font-size:60px;""> </div>","null","LF","learning/Slide23.JPG","This is a tob:","",""
"","html-keyboard-response","76","558135","0.0-6.0-0.23","LF","csfpvftfnx","1600","900","de","ko05or02","null","","","","learningBlock1","","","","This is a wug:","null","","","","",""
"","image-keyboard-response","77","558470","0.0-6.0-1.23","LF","csfpvftfnx","1600","900","de","ko05or02","null","","","","","","","","learning/Slide24.JPG","null","","","","",""
"","html-keyboard-response","78","559475","0.0-6.0-2.23","LF","csfpvftfnx","1600","900","de","ko05or02","null","","","","learningBlock1","","","","<div style=""font-size:60px;""> </div>","null","LF","learning/Slide24.JPG","This is a wug:","",""
"","html-keyboard-response","79","560485","0.0-6.0-0.24","LF","csfpvftfnx","1600","900","de","ko05or02","null","","","","learningBlock1","","","","This is a dep:","null","","","","",""
"","image-keyboard-response","80","560822","0.0-6.0-1.24","LF","csfpvftfnx","1600","900","de","ko05or02","null","","","","","","","","learning/Slide25.JPG","null","","","","",""
"","html-keyboard-response","81","561838","0.0-6.0-2.24","LF","csfpvftfnx","1600","900","de","ko05or02","null","","","","learningBlock1","","","","<div style=""font-size:60px;""> </div>","null","LF","learning/Slide25.JPG","This is a dep:","",""
"","html-keyboard-response","82","562852","0.0-6.0-0.25","LF","csfpvftfnx","1600","900","de","ko05or02","null","","","","learningBlock1","","","","This is a wug:","null","","","","",""
"","image-keyboard-response","83","563202","0.0-6.0-1.25","LF","csfpvftfnx","1600","900","de","ko05or02","null","","","","","","","","learning/Slide26.JPG","null","","","","",""
"","html-keyboard-response","84","564214","0.0-6.0-2.25","LF","csfpvftfnx","1600","900","de","ko05or02","null","","","","learningBlock1","","","","<div style=""font-size:60px;""> </div>","null","LF","learning/Slide26.JPG","This is a wug:","",""
"","html-keyboard-response","85","565225","0.0-6.0-0.26","LF","csfpvftfnx","1600","900","de","ko05or02","null","","","","learningBlock1","","","","This is a bim:","null","","","","",""
"","image-keyboard-response","86","565568","0.0-6.0-1.26","LF","csfpvftfnx","1600","900","de","ko05or02","null","","","","","","","","learning/Slide27.JPG","null","","","","",""
"","html-keyboard-response","87","566577","0.0-6.0-2.26","LF","csfpvftfnx","1600","900","de","ko05or02","null","","","","learningBlock1","","","","<div style=""font-size:60px;""> </div>","null","LF","learning/Slide27.JPG","This is a bim:","",""
"","html-keyboard-response","88","567581","0.0-6.0-0.27","LF","csfpvftfnx","1600","900","de","ko05or02","null","","","","learningBlock1","","","","This is a dep:","null","","","","",""
"","image-keyboard-response","89","567925","0.0-6.0-1.27","LF","csfpvftfnx","1600","900","de","ko05or02","null","","","","","","","","learning/Slide28.JPG","null","","","","",""
"","html-keyboard-response","90","568938","0.0-6.0-2.27","LF","csfpvftfnx","1600","900","de","ko05or02","null","","","","learningBlock1","","","","<div style=""font-size:60px;""> </div>","null","LF","learning/Slide28.JPG","This is a dep:","",""
"","html-keyboard-response","91","569955","0.0-6.0-0.28","LF","csfpvftfnx","1600","900","de","ko05or02","null","","","","learningBlock1","","","","This is a tob:","null","","","","",""
"","image-keyboard-response","92","570295","0.0-6.0-1.28","LF","csfpvftfnx","1600","900","de","ko05or02","null","","","","","","","","learning/Slide29.JPG","null","","","","",""
"","html-keyboard-response","93","571304","0.0-6.0-2.28","LF","csfpvftfnx","1600","900","de","ko05or02","null","","","","learningBlock1","","","","<div style=""font-size:60px;""> </div>","null","LF","learning/Slide29.JPG","This is a tob:","",""
"","html-keyboard-response","94","572309","0.0-6.0-0.29","LF","csfpvftfnx","1600","900","de","ko05or02","null","","","","learningBlock1","","","","This is a dep:","null","","","","",""
"","image-keyboard-response","95","572648","0.0-6.0-1.29","LF","csfpvftfnx","1600","900","de","ko05or02","null","","","","","","","","learning/Slide30.JPG","null","","","","",""
"","html-keyboard-response","96","573651","0.0-6.0-2.29","LF","csfpvftfnx","1600","900","de","ko05or02","null","","","","learningBlock1","","","","<div style=""font-size:60px;""> </div>","null","LF","learning/Slide30.JPG","This is a dep:","",""
"","html-keyboard-response","97","574668","0.0-6.0-0.30","LF","csfpvftfnx","1600","900","de","ko05or02","null","","","","learningBlock1","","","","This is a wug:","null","","","","",""
"","image-keyboard-response","98","575002","0.0-6.0-1.30","LF","csfpvftfnx","1600","900","de","ko05or02","null","","","","","","","","learning/Slide31.JPG","null","","","","",""
"","html-keyboard-response","99","576005","0.0-6.0-2.30","LF","csfpvftfnx","1600","900","de","ko05or02","null","","","","learningBlock1","","","","<div style=""font-size:60px;""> </div>","null","LF","learning/Slide31.JPG","This is a wug:","",""
"","html-keyboard-response","100","577012","0.0-6.0-0.31","LF","csfpvftfnx","1600","900","de","ko05or02","null","","","","learningBlock1","","","","This is a tob:","null","","","","",""
"","image-keyboard-response","101","577354","0.0-6.0-1.31","LF","csfpvftfnx","1600","900","de","ko05or02","null","","","","","","","","learning/Slide32.JPG","null","","","","",""
"","html-keyboard-response","102","578358","0.0-6.0-2.31","LF","csfpvftfnx","1600","900","de","ko05or02","null","","","","learningBlock1","","","","<div style=""font-size:60px;""> </div>","null","LF","learning/Slide32.JPG","This is a tob:","",""
"","html-keyboard-response","103","579373","0.0-6.0-0.32","LF","csfpvftfnx","1600","900","de","ko05or02","null","","","","learningBlock1","","","","This is a bim:","null","","","","",""
"","image-keyboard-response","104","579721","0.0-6.0-1.32","LF","csfpvftfnx","1600","900","de","ko05or02","null","","","","","","","","learning/Slide33.JPG","null","","","","",""
"","html-keyboard-response","105","580732","0.0-6.0-2.32","LF","csfpvftfnx","1600","900","de","ko05or02","null","","","","learningBlock1","","","","<div style=""font-size:60px;""> </div>","null","LF","learning/Slide33.JPG","This is a bim:","",""
"","html-keyboard-response","106","581734","0.0-6.0-0.33","LF","csfpvftfnx","1600","900","de","ko05or02","null","","","","learningBlock1","","","","This is a tob:","null","","","","",""
"","image-keyboard-response","107","582078","0.0-6.0-1.33","LF","csfpvftfnx","1600","900","de","ko05or02","null","","","","","","","","learning/Slide34.JPG","null","","","","",""
"","html-keyboard-response","108","583090","0.0-6.0-2.33","LF","csfpvftfnx","1600","900","de","ko05or02","null","","","","learningBlock1","","","","<div style=""font-size:60px;""> </div>","null","LF","learning/Slide34.JPG","This is a tob:","",""
"","html-keyboard-response","109","584106","0.0-6.0-0.34","LF","csfpvftfnx","1600","900","de","ko05or02","null","","","","learningBlock1","","","","This is a bim:","null","","","","",""
"","image-keyboard-response","110","584438","0.0-6.0-1.34","LF","csfpvftfnx","1600","900","de","ko05or02","null","","","","","","","","learning/Slide35.JPG","null","","","","",""
"","html-keyboard-response","111","585454","0.0-6.0-2.34","LF","csfpvftfnx","1600","900","de","ko05or02","null","","","","learningBlock1","","","","<div style=""font-size:60px;""> </div>","null","LF","learning/Slide35.JPG","This is a bim:","",""
"","html-keyboard-response","112","586467","0.0-6.0-0.35","LF","csfpvftfnx","1600","900","de","ko05or02","null","","","","learningBlock1","","","","This is a dep:","null","","","","",""
"","image-keyboard-response","113","586823","0.0-6.0-1.35","LF","csfpvftfnx","1600","900","de","ko05or02","null","","","","","","","","learning/Slide36.JPG","null","","","","",""
"","html-keyboard-response","114","587836","0.0-6.0-2.35","LF","csfpvftfnx","1600","900","de","ko05or02","null","","","","learningBlock1","","","","<div style=""font-size:60px;""> </div>","null","LF","learning/Slide36.JPG","This is a dep:","",""
"","html-keyboard-response","115","588845","0.0-6.0-0.36","LF","csfpvftfnx","1600","900","de","ko05or02","null","","","","learningBlock1","","","","This is a tob:","null","","","","",""
"","image-keyboard-response","116","589186","0.0-6.0-1.36","LF","csfpvftfnx","1600","900","de","ko05or02","null","","","","","","","","learning/Slide37.JPG","null","","","","",""
"","html-keyboard-response","117","590200","0.0-6.0-2.36","LF","csfpvftfnx","1600","900","de","ko05or02","null","","","","learningBlock1","","","","<div style=""font-size:60px;""> </div>","null","LF","learning/Slide37.JPG","This is a tob:","",""
"","html-keyboard-response","118","591212","0.0-6.0-0.37","LF","csfpvftfnx","1600","900","de","ko05or02","null","","","","learningBlock1","","","","This is a wug:","null","","","","",""
"","image-keyboard-response","119","591550","0.0-6.0-1.37","LF","csfpvftfnx","1600","900","de","ko05or02","null","","","","","","","","learning/Slide38.JPG","null","","","","",""
"","html-keyboard-response","120","592564","0.0-6.0-2.37","LF","csfpvftfnx","1600","900","de","ko05or02","null","","","","learningBlock1","","","","<div style=""font-size:60px;""> </div>","null","LF","learning/Slide38.JPG","This is a wug:","",""
"","html-keyboard-response","121","593566","0.0-6.0-0.38","LF","csfpvftfnx","1600","900","de","ko05or02","null","","","","learningBlock1","","","","This is a bim:","null","","","","",""
"","image-keyboard-response","122","593907","0.0-6.0-1.38","LF","csfpvftfnx","1600","900","de","ko05or02","null","","","","","","","","learning/Slide39.JPG","null","","","","",""
"","html-keyboard-response","123","594913","0.0-6.0-2.38","LF","csfpvftfnx","1600","900","de","ko05or02","null","","","","learningBlock1","","","","<div style=""font-size:60px;""> </div>","null","LF","learning/Slide39.JPG","This is a bim:","",""
"","html-keyboard-response","124","595920","0.0-6.0-0.39","LF","csfpvftfnx","1600","900","de","ko05or02","null","","","","learningBlock1","","","","This is a tob:","null","","","","",""
"","image-keyboard-response","125","596249","0.0-6.0-1.39","LF","csfpvftfnx","1600","900","de","ko05or02","null","","","","","","","","learning/Slide40.JPG","null","","","","",""
"","html-keyboard-response","126","597264","0.0-6.0-2.39","LF","csfpvftfnx","1600","900","de","ko05or02","null","","","","learningBlock1","","","","<div style=""font-size:60px;""> </div>","null","LF","learning/Slide40.JPG","This is a tob:","",""
"","html-keyboard-response","127","598270","0.0-6.0-0.40","LF","csfpvftfnx","1600","900","de","ko05or02","null","","","","learningBlock1","","","","This is a bim:","null","","","","",""
"","image-keyboard-response","128","598600","0.0-6.0-1.40","LF","csfpvftfnx","1600","900","de","ko05or02","null","","","","","","","","learning/Slide41.JPG","null","","","","",""
"","html-keyboard-response","129","599608","0.0-6.0-2.40","LF","csfpvftfnx","1600","900","de","ko05or02","null","","","","learningBlock1","","","","<div style=""font-size:60px;""> </div>","null","LF","learning/Slide41.JPG","This is a bim:","",""
"","html-keyboard-response","130","600621","0.0-6.0-0.41","LF","csfpvftfnx","1600","900","de","ko05or02","null","","","","learningBlock1","","","","This is a dep:","null","","","","",""
"","image-keyboard-response","131","600966","0.0-6.0-1.41","LF","csfpvftfnx","1600","900","de","ko05or02","null","","","","","","","","learning/Slide42.JPG","null","","","","",""
"","html-keyboard-response","132","601970","0.0-6.0-2.41","LF","csfpvftfnx","1600","900","de","ko05or02","null","","","","learningBlock1","","","","<div style=""font-size:60px;""> </div>","null","LF","learning/Slide42.JPG","This is a dep:","",""
"","html-keyboard-response","133","602983","0.0-6.0-0.42","LF","csfpvftfnx","1600","900","de","ko05or02","null","","","","learningBlock1","","","","This is a wug:","null","","","","",""
"","image-keyboard-response","134","603325","0.0-6.0-1.42","LF","csfpvftfnx","1600","900","de","ko05or02","null","","","","","","","","learning/Slide43.JPG","null","","","","",""
"","html-keyboard-response","135","604336","0.0-6.0-2.42","LF","csfpvftfnx","1600","900","de","ko05or02","null","","","","learningBlock1","","","","<div style=""font-size:60px;""> </div>","null","LF","learning/Slide43.JPG","This is a wug:","",""
"","html-keyboard-response","136","605342","0.0-6.0-0.43","LF","csfpvftfnx","1600","900","de","ko05or02","null","","","","learningBlock1","","","","This is a bim:","null","","","","",""
"","image-keyboard-response","137","605692","0.0-6.0-1.43","LF","csfpvftfnx","1600","900","de","ko05or02","null","","","","","","","","learning/Slide44.JPG","null","","","","",""
"","html-keyboard-response","138","606704","0.0-6.0-2.43","LF","csfpvftfnx","1600","900","de","ko05or02","null","","","","learningBlock1","","","","<div style=""font-size:60px;""> </div>","null","LF","learning/Slide44.JPG","This is a bim:","",""
"","html-keyboard-response","139","607712","0.0-6.0-0.44","LF","csfpvftfnx","1600","900","de","ko05or02","null","","","","learningBlock1","","","","This is a wug:","null","","","","",""
"","image-keyboard-response","140","608052","0.0-6.0-1.44","LF","csfpvftfnx","1600","900","de","ko05or02","null","","","","","","","","learning/Slide45.JPG","null","","","","",""
"","html-keyboard-response","141","609059","0.0-6.0-2.44","LF","csfpvftfnx","1600","900","de","ko05or02","null","","","","learningBlock1","","","","<div style=""font-size:60px;""> </div>","null","LF","learning/Slide45.JPG","This is a wug:","",""
"","html-keyboard-response","142","610066","0.0-6.0-0.45","LF","csfpvftfnx","1600","900","de","ko05or02","null","","","","learningBlock1","","","","This is a dep:","null","","","","",""
"","image-keyboard-response","143","610412","0.0-6.0-1.45","LF","csfpvftfnx","1600","900","de","ko05or02","null","","","","","","","","learning/Slide46.JPG","null","","","","",""
"","html-keyboard-response","144","611418","0.0-6.0-2.45","LF","csfpvftfnx","1600","900","de","ko05or02","null","","","","learningBlock1","","","","<div style=""font-size:60px;""> </div>","null","LF","learning/Slide46.JPG","This is a dep:","",""
"","html-keyboard-response","145","612422","0.0-6.0-0.46","LF","csfpvftfnx","1600","900","de","ko05or02","null","","","","learningBlock1","","","","This is a tob:","null","","","","",""
"","image-keyboard-response","146","612765","0.0-6.0-1.46","LF","csfpvftfnx","1600","900","de","ko05or02","null","","","","","","","","learning/Slide47.JPG","null","","","","",""
"","html-keyboard-response","147","613776","0.0-6.0-2.46","LF","csfpvftfnx","1600","900","de","ko05or02","null","","","","learningBlock1","","","","<div style=""font-size:60px;""> </div>","null","LF","learning/Slide47.JPG","This is a tob:","",""
"","html-keyboard-response","148","614782","0.0-6.0-0.47","LF","csfpvftfnx","1600","900","de","ko05or02","null","","","","learningBlock1","","","","This is a bim:","null","","","","",""
"","image-keyboard-response","149","615116","0.0-6.0-1.47","LF","csfpvftfnx","1600","900","de","ko05or02","null","","","","","","","","learning/Slide48.JPG","null","","","","",""
"","html-keyboard-response","150","616124","0.0-6.0-2.47","LF","csfpvftfnx","1600","900","de","ko05or02","null","","","","learningBlock1","","","","<div style=""font-size:60px;""> </div>","null","LF","learning/Slide48.JPG","This is a bim:","",""
"","html-keyboard-response","151","617140","0.0-6.0-0.48","LF","csfpvftfnx","1600","900","de","ko05or02","null","","","","learningBlock1","","","","This is a dep:","null","","","","",""
"","image-keyboard-response","152","617482","0.0-6.0-1.48","LF","csfpvftfnx","1600","900","de","ko05or02","null","","","","","","","","learning/Slide49.JPG","null","","","","",""
"","html-keyboard-response","153","618486","0.0-6.0-2.48","LF","csfpvftfnx","1600","900","de","ko05or02","null","","","","learningBlock1","","","","<div style=""font-size:60px;""> </div>","null","LF","learning/Slide49.JPG","This is a dep:","",""
"","html-keyboard-response","154","619499","0.0-6.0-0.49","LF","csfpvftfnx","1600","900","de","ko05or02","null","","","","learningBlock1","","","","This is a tob:","null","","","","",""
"","image-keyboard-response","155","619849","0.0-6.0-1.49","LF","csfpvftfnx","1600","900","de","ko05or02","null","","","","","","","","learning/Slide50.JPG","null","","","","",""
"","html-keyboard-response","156","620856","0.0-6.0-2.49","LF","csfpvftfnx","1600","900","de","ko05or02","null","","","","learningBlock1","","","","<div style=""font-size:60px;""> </div>","null","LF","learning/Slide50.JPG","This is a tob:","",""
"","html-keyboard-response","157","621866","0.0-6.0-0.50","LF","csfpvftfnx","1600","900","de","ko05or02","null","","","","learningBlock1","","","","This is a bim:","null","","","","",""
"","image-keyboard-response","158","622205","0.0-6.0-1.50","LF","csfpvftfnx","1600","900","de","ko05or02","null","","","","","","","","learning/Slide51.JPG","null","","","","",""
"","html-keyboard-response","159","623219","0.0-6.0-2.50","LF","csfpvftfnx","1600","900","de","ko05or02","null","","","","learningBlock1","","","","<div style=""font-size:60px;""> </div>","null","LF","learning/Slide51.JPG","This is a bim:","",""
"","html-keyboard-response","160","624228","0.0-6.0-0.51","LF","csfpvftfnx","1600","900","de","ko05or02","null","","","","learningBlock1","","","","This is a wug:","null","","","","",""
"","image-keyboard-response","161","624565","0.0-6.0-1.51","LF","csfpvftfnx","1600","900","de","ko05or02","null","","","","","","","","learning/Slide52.JPG","null","","","","",""
"","html-keyboard-response","162","625577","0.0-6.0-2.51","LF","csfpvftfnx","1600","900","de","ko05or02","null","","","","learningBlock1","","","","<div style=""font-size:60px;""> </div>","null","LF","learning/Slide52.JPG","This is a wug:","",""
"","html-keyboard-response","163","626590","0.0-6.0-0.52","LF","csfpvftfnx","1600","900","de","ko05or02","null","","","","learningBlock1","","","","This is a tob:","null","","","","",""
"","image-keyboard-response","164","626932","0.0-6.0-1.52","LF","csfpvftfnx","1600","900","de","ko05or02","null","","","","","","","","learning/Slide53.JPG","null","","","","",""
"","html-keyboard-response","165","627935","0.0-6.0-2.52","LF","csfpvftfnx","1600","900","de","ko05or02","null","","","","learningBlock1","","","","<div style=""font-size:60px;""> </div>","null","LF","learning/Slide53.JPG","This is a tob:","",""
"","html-keyboard-response","166","628954","0.0-6.0-0.53","LF","csfpvftfnx","1600","900","de","ko05or02","null","","","","learningBlock1","","","","This is a dep:","null","","","","",""
"","image-keyboard-response","167","629295","0.0-6.0-1.53","LF","csfpvftfnx","1600","900","de","ko05or02","null","","","","","","","","learning/Slide54.JPG","null","","","","",""
"","html-keyboard-response","168","630307","0.0-6.0-2.53","LF","csfpvftfnx","1600","900","de","ko05or02","null","","","","learningBlock1","","","","<div style=""font-size:60px;""> </div>","null","LF","learning/Slide54.JPG","This is a dep:","",""
"","html-keyboard-response","169","631320","0.0-6.0-0.54","LF","csfpvftfnx","1600","900","de","ko05or02","null","","","","learningBlock1","","","","This is a bim:","null","","","","",""
"","image-keyboard-response","170","631665","0.0-6.0-1.54","LF","csfpvftfnx","1600","900","de","ko05or02","null","","","","","","","","learning/Slide55.JPG","null","","","","",""
"","html-keyboard-response","171","632681","0.0-6.0-2.54","LF","csfpvftfnx","1600","900","de","ko05or02","null","","","","learningBlock1","","","","<div style=""font-size:60px;""> </div>","null","LF","learning/Slide55.JPG","This is a bim:","",""
"","html-keyboard-response","172","633696","0.0-6.0-0.55","LF","csfpvftfnx","1600","900","de","ko05or02","null","","","","learningBlock1","","","","This is a tob:","null","","","","",""
"","image-keyboard-response","173","634036","0.0-6.0-1.55","LF","csfpvftfnx","1600","900","de","ko05or02","null","","","","","","","","learning/Slide56.JPG","null","","","","",""
"","html-keyboard-response","174","635052","0.0-6.0-2.55","LF","csfpvftfnx","1600","900","de","ko05or02","null","","","","learningBlock1","","","","<div style=""font-size:60px;""> </div>","null","LF","learning/Slide56.JPG","This is a tob:","",""
"","html-keyboard-response","175","636069","0.0-6.0-0.56","LF","csfpvftfnx","1600","900","de","ko05or02","null","","","","learningBlock1","","","","This is a dep:","null","","","","",""
"","image-keyboard-response","176","636415","0.0-6.0-1.56","LF","csfpvftfnx","1600","900","de","ko05or02","null","","","","","","","","learning/Slide57.JPG","null","","","","",""
"","html-keyboard-response","177","637429","0.0-6.0-2.56","LF","csfpvftfnx","1600","900","de","ko05or02","null","","","","learningBlock1","","","","<div style=""font-size:60px;""> </div>","null","LF","learning/Slide57.JPG","This is a dep:","",""
"","html-keyboard-response","178","638435","0.0-6.0-0.57","LF","csfpvftfnx","1600","900","de","ko05or02","null","","","","learningBlock1","","","","This is a wug:","null","","","","",""
"","image-keyboard-response","179","638774","0.0-6.0-1.57","LF","csfpvftfnx","1600","900","de","ko05or02","null","","","","","","","","learning/Slide58.JPG","null","","","","",""
"","html-keyboard-response","180","639785","0.0-6.0-2.57","LF","csfpvftfnx","1600","900","de","ko05or02","null","","","","learningBlock1","","","","<div style=""font-size:60px;""> </div>","null","LF","learning/Slide58.JPG","This is a wug:","",""
"","html-keyboard-response","181","640798","0.0-6.0-0.58","LF","csfpvftfnx","1600","900","de","ko05or02","null","","","","learningBlock1","","","","This is a dep:","null","","","","",""
"","image-keyboard-response","182","641129","0.0-6.0-1.58","LF","csfpvftfnx","1600","900","de","ko05or02","null","","","","","","","","learning/Slide59.JPG","null","","","","",""
"","html-keyboard-response","183","642145","0.0-6.0-2.58","LF","csfpvftfnx","1600","900","de","ko05or02","null","","","","learningBlock1","","","","<div style=""font-size:60px;""> </div>","null","LF","learning/Slide59.JPG","This is a dep:","",""
"","html-keyboard-response","184","643148","0.0-6.0-0.59","LF","csfpvftfnx","1600","900","de","ko05or02","null","","","","learningBlock1","","","","This is a wug:","null","","","","",""
"","image-keyboard-response","185","643491","0.0-6.0-1.59","LF","csfpvftfnx","1600","900","de","ko05or02","null","","","","","","","","learning/Slide60.JPG","null","","","","",""
"","html-keyboard-response","186","644496","0.0-6.0-2.59","LF","csfpvftfnx","1600","900","de","ko05or02","null","","","","learningBlock1","","","","<div style=""font-size:60px;""> </div>","null","LF","learning/Slide60.JPG","This is a wug:","",""
"","html-keyboard-response","187","645509","0.0-6.0-0.60","LF","csfpvftfnx","1600","900","de","ko05or02","null","","","","learningBlock1","","","","This is a bim:","null","","","","",""
"","image-keyboard-response","188","645855","0.0-6.0-1.60","LF","csfpvftfnx","1600","900","de","ko05or02","null","","","","","","","","learning/Slide61.JPG","null","","","","",""
"","html-keyboard-response","189","646859","0.0-6.0-2.60","LF","csfpvftfnx","1600","900","de","ko05or02","null","","","","learningBlock1","","","","<div style=""font-size:60px;""> </div>","null","LF","learning/Slide61.JPG","This is a bim:","",""
"","html-keyboard-response","190","647869","0.0-6.0-0.61","LF","csfpvftfnx","1600","900","de","ko05or02","null","","","","learningBlock1","","","","This is a dep:","null","","","","",""
"","image-keyboard-response","191","648214","0.0-6.0-1.61","LF","csfpvftfnx","1600","900","de","ko05or02","null","","","","","","","","learning/Slide62.JPG","null","","","","",""
"","html-keyboard-response","192","649232","0.0-6.0-2.61","LF","csfpvftfnx","1600","900","de","ko05or02","null","","","","learningBlock1","","","","<div style=""font-size:60px;""> </div>","null","LF","learning/Slide62.JPG","This is a dep:","",""
"","html-keyboard-response","193","650236","0.0-6.0-0.62","LF","csfpvftfnx","1600","900","de","ko05or02","null","","","","learningBlock1","","","","This is a bim:","null","","","","",""
"","image-keyboard-response","194","650568","0.0-6.0-1.62","LF","csfpvftfnx","1600","900","de","ko05or02","null","","","","","","","","learning/Slide63.JPG","null","","","","",""
"","html-keyboard-response","195","651583","0.0-6.0-2.62","LF","csfpvftfnx","1600","900","de","ko05or02","null","","","","learningBlock1","","","","<div style=""font-size:60px;""> </div>","null","LF","learning/Slide63.JPG","This is a bim:","",""
"","html-keyboard-response","196","652588","0.0-6.0-0.63","LF","csfpvftfnx","1600","900","de","ko05or02","null","","","","learningBlock1","","","","This is a tob:","null","","","","",""
"","image-keyboard-response","197","652934","0.0-6.0-1.63","LF","csfpvftfnx","1600","900","de","ko05or02","null","","","","","","","","learning/Slide64.JPG","null","","","","",""
"","html-keyboard-response","198","653942","0.0-6.0-2.63","LF","csfpvftfnx","1600","900","de","ko05or02","null","","","","learningBlock1","","","","<div style=""font-size:60px;""> </div>","null","LF","learning/Slide64.JPG","This is a tob:","",""
"","html-keyboard-response","199","654951","0.0-6.0-0.64","LF","csfpvftfnx","1600","900","de","ko05or02","null","","","","learningBlock1","","","","This is a wug:","null","","","","",""
"","image-keyboard-response","200","655297","0.0-6.0-1.64","LF","csfpvftfnx","1600","900","de","ko05or02","null","","","","","","","","learning/Slide65.JPG","null","","","","",""
"","html-keyboard-response","201","656303","0.0-6.0-2.64","LF","csfpvftfnx","1600","900","de","ko05or02","null","","","","learningBlock1","","","","<div style=""font-size:60px;""> </div>","null","LF","learning/Slide65.JPG","This is a wug:","",""
"","html-keyboard-response","202","657311","0.0-6.0-0.65","LF","csfpvftfnx","1600","900","de","ko05or02","null","","","","learningBlock1","","","","This is a dep:","null","","","","",""
"","image-keyboard-response","203","657654","0.0-6.0-1.65","LF","csfpvftfnx","1600","900","de","ko05or02","null","","","","","","","","learning/Slide66.JPG","null","","","","",""
"","html-keyboard-response","204","658664","0.0-6.0-2.65","LF","csfpvftfnx","1600","900","de","ko05or02","null","","","","learningBlock1","","","","<div style=""font-size:60px;""> </div>","null","LF","learning/Slide66.JPG","This is a dep:","",""
"","html-keyboard-response","205","659669","0.0-6.0-0.66","LF","csfpvftfnx","1600","900","de","ko05or02","null","","","","learningBlock1","","","","This is a tob:","null","","","","",""
"","image-keyboard-response","206","660001","0.0-6.0-1.66","LF","csfpvftfnx","1600","900","de","ko05or02","null","","","","","","","","learning/Slide67.JPG","null","","","","",""
"","html-keyboard-response","207","661014","0.0-6.0-2.66","LF","csfpvftfnx","1600","900","de","ko05or02","null","","","","learningBlock1","","","","<div style=""font-size:60px;""> </div>","null","LF","learning/Slide67.JPG","This is a tob:","",""
"","html-keyboard-response","208","662018","0.0-6.0-0.67","LF","csfpvftfnx","1600","900","de","ko05or02","null","","","","learningBlock1","","","","This is a wug:","null","","","","",""
"","image-keyboard-response","209","662362","0.0-6.0-1.67","LF","csfpvftfnx","1600","900","de","ko05or02","null","","","","","","","","learning/Slide68.JPG","null","","","","",""
"","html-keyboard-response","210","663378","0.0-6.0-2.67","LF","csfpvftfnx","1600","900","de","ko05or02","null","","","","learningBlock1","","","","<div style=""font-size:60px;""> </div>","null","LF","learning/Slide68.JPG","This is a wug:","",""
"","html-keyboard-response","211","664388","0.0-6.0-0.68","LF","csfpvftfnx","1600","900","de","ko05or02","null","","","","learningBlock1","","","","This is a tob:","null","","","","",""
"","image-keyboard-response","212","664735","0.0-6.0-1.68","LF","csfpvftfnx","1600","900","de","ko05or02","null","","","","","","","","learning/Slide69.JPG","null","","","","",""
"","html-keyboard-response","213","665739","0.0-6.0-2.68","LF","csfpvftfnx","1600","900","de","ko05or02","null","","","","learningBlock1","","","","<div style=""font-size:60px;""> </div>","null","LF","learning/Slide69.JPG","This is a tob:","",""
"","html-keyboard-response","214","666747","0.0-6.0-0.69","LF","csfpvftfnx","1600","900","de","ko05or02","null","","","","learningBlock1","","","","This is a dep:","null","","","","",""
"","image-keyboard-response","215","667087","0.0-6.0-1.69","LF","csfpvftfnx","1600","900","de","ko05or02","null","","","","","","","","learning/Slide70.JPG","null","","","","",""
"","html-keyboard-response","216","668097","0.0-6.0-2.69","LF","csfpvftfnx","1600","900","de","ko05or02","null","","","","learningBlock1","","","","<div style=""font-size:60px;""> </div>","null","LF","learning/Slide70.JPG","This is a dep:","",""
"","html-keyboard-response","217","669103","0.0-6.0-0.70","LF","csfpvftfnx","1600","900","de","ko05or02","null","","","","learningBlock1","","","","This is a wug:","null","","","","",""
"","image-keyboard-response","218","669443","0.0-6.0-1.70","LF","csfpvftfnx","1600","900","de","ko05or02","null","","","","","","","","learning/Slide71.JPG","null","","","","",""
"","html-keyboard-response","219","670446","0.0-6.0-2.70","LF","csfpvftfnx","1600","900","de","ko05or02","null","","","","learningBlock1","","","","<div style=""font-size:60px;""> </div>","null","LF","learning/Slide71.JPG","This is a wug:","",""
"","html-keyboard-response","220","671455","0.0-6.0-0.71","LF","csfpvftfnx","1600","900","de","ko05or02","null","","","","learningBlock1","","","","This is a bim:","null","","","","",""
"","image-keyboard-response","221","671803","0.0-6.0-1.71","LF","csfpvftfnx","1600","900","de","ko05or02","null","","","","","","","","learning/Slide72.JPG","null","","","","",""
"","html-keyboard-response","222","672817","0.0-6.0-2.71","LF","csfpvftfnx","1600","900","de","ko05or02","null","","","","learningBlock1","","","","<div style=""font-size:60px;""> </div>","null","LF","learning/Slide72.JPG","This is a bim:","",""
"","html-keyboard-response","223","673831","0.0-6.0-0.72","LF","csfpvftfnx","1600","900","de","ko05or02","null","","","","learningBlock1","","","","This is a wug:","null","","","","",""
"","image-keyboard-response","224","674171","0.0-6.0-1.72","LF","csfpvftfnx","1600","900","de","ko05or02","null","","","","","","","","learning/Slide73.JPG","null","","","","",""
"","html-keyboard-response","225","675180","0.0-6.0-2.72","LF","csfpvftfnx","1600","900","de","ko05or02","null","","","","learningBlock1","","","","<div style=""font-size:60px;""> </div>","null","LF","learning/Slide73.JPG","This is a wug:","",""
"","html-keyboard-response","226","676184","0.0-6.0-0.73","LF","csfpvftfnx","1600","900","de","ko05or02","null","","","","learningBlock1","","","","This is a dep:","null","","","","",""
"","image-keyboard-response","227","676518","0.0-6.0-1.73","LF","csfpvftfnx","1600","900","de","ko05or02","null","","","","","","","","learning/Slide74.JPG","null","","","","",""
"","html-keyboard-response","228","677523","0.0-6.0-2.73","LF","csfpvftfnx","1600","900","de","ko05or02","null","","","","learningBlock1","","","","<div style=""font-size:60px;""> </div>","null","LF","learning/Slide74.JPG","This is a dep:","",""
"","html-keyboard-response","229","678531","0.0-6.0-0.74","LF","csfpvftfnx","1600","900","de","ko05or02","null","","","","learningBlock1","","","","This is a tob:","null","","","","",""
"","image-keyboard-response","230","678871","0.0-6.0-1.74","LF","csfpvftfnx","1600","900","de","ko05or02","null","","","","","","","","learning/Slide75.JPG","null","","","","",""
"","html-keyboard-response","231","679875","0.0-6.0-2.74","LF","csfpvftfnx","1600","900","de","ko05or02","null","","","","learningBlock1","","","","<div style=""font-size:60px;""> </div>","null","LF","learning/Slide75.JPG","This is a tob:","",""
"","html-keyboard-response","232","680887","0.0-6.0-0.75","LF","csfpvftfnx","1600","900","de","ko05or02","null","","","","learningBlock1","","","","This is a bim:","null","","","","",""
"","image-keyboard-response","233","681230","0.0-6.0-1.75","LF","csfpvftfnx","1600","900","de","ko05or02","null","","","","","","","","learning/Slide76.JPG","null","","","","",""
"","html-keyboard-response","234","682246","0.0-6.0-2.75","LF","csfpvftfnx","1600","900","de","ko05or02","null","","","","learningBlock1","","","","<div style=""font-size:60px;""> </div>","null","LF","learning/Slide76.JPG","This is a bim:","",""
"","html-keyboard-response","235","683263","0.0-6.0-0.76","LF","csfpvftfnx","1600","900","de","ko05or02","null","","","","learningBlock1","","","","This is a tob:","null","","","","",""
"","image-keyboard-response","236","683597","0.0-6.0-1.76","LF","csfpvftfnx","1600","900","de","ko05or02","null","","","","","","","","learning/Slide77.JPG","null","","","","",""
"","html-keyboard-response","237","684600","0.0-6.0-2.76","LF","csfpvftfnx","1600","900","de","ko05or02","null","","","","learningBlock1","","","","<div style=""font-size:60px;""> </div>","null","LF","learning/Slide77.JPG","This is a tob:","",""
"","html-keyboard-response","238","685617","0.0-6.0-0.77","LF","csfpvftfnx","1600","900","de","ko05or02","null","","","","learningBlock1","","","","This is a wug:","null","","","","",""
"","image-keyboard-response","239","685958","0.0-6.0-1.77","LF","csfpvftfnx","1600","900","de","ko05or02","null","","","","","","","","learning/Slide78.JPG","null","","","","",""
"","html-keyboard-response","240","686972","0.0-6.0-2.77","LF","csfpvftfnx","1600","900","de","ko05or02","null","","","","learningBlock1","","","","<div style=""font-size:60px;""> </div>","null","LF","learning/Slide78.JPG","This is a wug:","",""
"","html-keyboard-response","241","687979","0.0-6.0-0.78","LF","csfpvftfnx","1600","900","de","ko05or02","null","","","","learningBlock1","","","","This is a bim:","null","","","","",""
"","image-keyboard-response","242","688310","0.0-6.0-1.78","LF","csfpvftfnx","1600","900","de","ko05or02","null","","","","","","","","learning/Slide79.JPG","null","","","","",""
"","html-keyboard-response","243","689315","0.0-6.0-2.78","LF","csfpvftfnx","1600","900","de","ko05or02","null","","","","learningBlock1","","","","<div style=""font-size:60px;""> </div>","null","LF","learning/Slide79.JPG","This is a bim:","",""
"","html-keyboard-response","244","690331","0.0-6.0-0.79","LF","csfpvftfnx","1600","900","de","ko05or02","null","","","","learningBlock1","","","","This is a tob:","null","","","","",""
"","image-keyboard-response","245","690667","0.0-6.0-1.79","LF","csfpvftfnx","1600","900","de","ko05or02","null","","","","","","","","learning/Slide80.JPG","null","","","","",""
"","html-keyboard-response","246","691684","0.0-6.0-2.79","LF","csfpvftfnx","1600","900","de","ko05or02","null","","","","learningBlock1","","","","<div style=""font-size:60px;""> </div>","null","LF","learning/Slide80.JPG","This is a tob:","",""
"","instructions","247","698894","0.0-7.0","LF","csfpvftfnx","1600","900","de","ko05or02","NA","","","[{""page_index"":0,""viewing_time"":7208.310000598431}]","instructions","","","","","","","","","",""
"","html-keyboard-response","248","699905","0.0-8.0-0.0","LF","csfpvftfnx","1600","900","de","ko05or02","null","","","","learningBlock2","","","","This is a wug:","null","","","","",""
"","image-keyboard-response","249","700243","0.0-8.0-1.0","LF","csfpvftfnx","1600","900","de","ko05or02","null","","","","","","","","learning/Slide81.JPG","null","","","","",""
"","html-keyboard-response","250","701252","0.0-8.0-2.0","LF","csfpvftfnx","1600","900","de","ko05or02","null","","","","learningBlock2","","","","<div style=""font-size:60px;""> </div>","null","LF","learning/Slide81.JPG","This is a wug:","",""
"","html-keyboard-response","251","702258","0.0-8.0-0.1","LF","csfpvftfnx","1600","900","de","ko05or02","null","","","","learningBlock2","","","","This is a bim:","null","","","","",""
"","image-keyboard-response","252","702590","0.0-8.0-1.1","LF","csfpvftfnx","1600","900","de","ko05or02","null","","","","","","","","learning/Slide82.JPG","null","","","","",""
"","html-keyboard-response","253","703595","0.0-8.0-2.1","LF","csfpvftfnx","1600","900","de","ko05or02","null","","","","learningBlock2","","","","<div style=""font-size:60px;""> </div>","null","LF","learning/Slide82.JPG","This is a bim:","",""
"","html-keyboard-response","254","704613","0.0-8.0-0.2","LF","csfpvftfnx","1600","900","de","ko05or02","null","","","","learningBlock2","","","","This is a wug:","null","","","","",""
"","image-keyboard-response","255","704946","0.0-8.0-1.2","LF","csfpvftfnx","1600","900","de","ko05or02","null","","","","","","","","learning/Slide83.JPG","null","","","","",""
"","html-keyboard-response","256","705952","0.0-8.0-2.2","LF","csfpvftfnx","1600","900","de","ko05or02","null","","","","learningBlock2","","","","<div style=""font-size:60px;""> </div>","null","LF","learning/Slide83.JPG","This is a wug:","",""
"","html-keyboard-response","257","706965","0.0-8.0-0.3","LF","csfpvftfnx","1600","900","de","ko05or02","null","","","","learningBlock2","","","","This is a dep:","null","","","","",""
"","image-keyboard-response","258","707298","0.0-8.0-1.3","LF","csfpvftfnx","1600","900","de","ko05or02","null","","","","","","","","learning/Slide84.JPG","null","","","","",""
"","html-keyboard-response","259","708308","0.0-8.0-2.3","LF","csfpvftfnx","1600","900","de","ko05or02","null","","","","learningBlock2","","","","<div style=""font-size:60px;""> </div>","null","LF","learning/Slide84.JPG","This is a dep:","",""
"","html-keyboard-response","260","709322","0.0-8.0-0.4","LF","csfpvftfnx","1600","900","de","ko05or02","null","","","","learningBlock2","","","","This is a bim:","null","","","","",""
"","image-keyboard-response","261","709662","0.0-8.0-1.4","LF","csfpvftfnx","1600","900","de","ko05or02","null","","","","","","","","learning/Slide85.JPG","null","","","","",""
"","html-keyboard-response","262","710666","0.0-8.0-2.4","LF","csfpvftfnx","1600","900","de","ko05or02","null","","","","learningBlock2","","","","<div style=""font-size:60px;""> </div>","null","LF","learning/Slide85.JPG","This is a bim:","",""
"","html-keyboard-response","263","711670","0.0-8.0-0.5","LF","csfpvftfnx","1600","900","de","ko05or02","null","","","","learningBlock2","","","","This is a tob:","null","","","","",""
"","image-keyboard-response","264","712029","0.0-8.0-1.5","LF","csfpvftfnx","1600","900","de","ko05or02","null","","","","","","","","learning/Slide86.JPG","null","","","","",""
"","html-keyboard-response","265","713036","0.0-8.0-2.5","LF","csfpvftfnx","1600","900","de","ko05or02","null","","","","learningBlock2","","","","<div style=""font-size:60px;""> </div>","null","LF","learning/Slide86.JPG","This is a tob:","",""
"","html-keyboard-response","266","714053","0.0-8.0-0.6","LF","csfpvftfnx","1600","900","de","ko05or02","null","","","","learningBlock2","","","","This is a wug:","null","","","","",""
"","image-keyboard-response","267","714391","0.0-8.0-1.6","LF","csfpvftfnx","1600","900","de","ko05or02","null","","","","","","","","learning/Slide87.JPG","null","","","","",""
"","html-keyboard-response","268","715399","0.0-8.0-2.6","LF","csfpvftfnx","1600","900","de","ko05or02","null","","","","learningBlock2","","","","<div style=""font-size:60px;""> </div>","null","LF","learning/Slide87.JPG","This is a wug:","",""
"","html-keyboard-response","269","716416","0.0-8.0-0.7","LF","csfpvftfnx","1600","900","de","ko05or02","null","","","","learningBlock2","","","","This is a tob:","null","","","","",""
"","image-keyboard-response","270","716770","0.0-8.0-1.7","LF","csfpvftfnx","1600","900","de","ko05or02","null","","","","","","","","learning/Slide88.JPG","null","","","","",""
"","html-keyboard-response","271","717787","0.0-8.0-2.7","LF","csfpvftfnx","1600","900","de","ko05or02","null","","","","learningBlock2","","","","<div style=""font-size:60px;""> </div>","null","LF","learning/Slide88.JPG","This is a tob:","",""
"","html-keyboard-response","272","718791","0.0-8.0-0.8","LF","csfpvftfnx","1600","900","de","ko05or02","null","","","","learningBlock2","","","","This is a bim:","null","","","","",""
"","image-keyboard-response","273","719131","0.0-8.0-1.8","LF","csfpvftfnx","1600","900","de","ko05or02","null","","","","","","","","learning/Slide89.JPG","null","","","","",""
"","html-keyboard-response","274","720149","0.0-8.0-2.8","LF","csfpvftfnx","1600","900","de","ko05or02","null","","","","learningBlock2","","","","<div style=""font-size:60px;""> </div>","null","LF","learning/Slide89.JPG","This is a bim:","",""
"","html-keyboard-response","275","721155","0.0-8.0-0.9","LF","csfpvftfnx","1600","900","de","ko05or02","null","","","","learningBlock2","","","","This is a dep:","null","","","","",""
"","image-keyboard-response","276","721482","0.0-8.0-1.9","LF","csfpvftfnx","1600","900","de","ko05or02","null","","","","","","","","learning/Slide90.JPG","null","","","","",""
"","html-keyboard-response","277","722494","0.0-8.0-2.9","LF","csfpvftfnx","1600","900","de","ko05or02","null","","","","learningBlock2","","","","<div style=""font-size:60px;""> </div>","null","LF","learning/Slide90.JPG","This is a dep:","",""
"","html-keyboard-response","278","723508","0.0-8.0-0.10","LF","csfpvftfnx","1600","900","de","ko05or02","null","","","","learningBlock2","","","","This is a wug:","null","","","","",""
"","image-keyboard-response","279","723851","0.0-8.0-1.10","LF","csfpvftfnx","1600","900","de","ko05or02","null","","","","","","","","learning/Slide91.JPG","null","","","","",""
"","html-keyboard-response","280","724854","0.0-8.0-2.10","LF","csfpvftfnx","1600","900","de","ko05or02","null","","","","learningBlock2","","","","<div style=""font-size:60px;""> </div>","null","LF","learning/Slide91.JPG","This is a wug:","",""
"","html-keyboard-response","281","725867","0.0-8.0-0.11","LF","csfpvftfnx","1600","900","de","ko05or02","null","","","","learningBlock2","","","","This is a tob:","null","","","","",""
"","image-keyboard-response","282","726211","0.0-8.0-1.11","LF","csfpvftfnx","1600","900","de","ko05or02","null","","","","","","","","learning/Slide92.JPG","null","","","","",""
"","html-keyboard-response","283","727230","0.0-8.0-2.11","LF","csfpvftfnx","1600","900","de","ko05or02","null","","","","learningBlock2","","","","<div style=""font-size:60px;""> </div>","null","LF","learning/Slide92.JPG","This is a tob:","",""
"","html-keyboard-response","284","728245","0.0-8.0-0.12","LF","csfpvftfnx","1600","900","de","ko05or02","null","","","","learningBlock2","","","","This is a bim:","null","","","","",""
"","image-keyboard-response","285","728581","0.0-8.0-1.12","LF","csfpvftfnx","1600","900","de","ko05or02","null","","","","","","","","learning/Slide93.JPG","null","","","","",""
"","html-keyboard-response","286","729594","0.0-8.0-2.12","LF","csfpvftfnx","1600","900","de","ko05or02","null","","","","learningBlock2","","","","<div style=""font-size:60px;""> </div>","null","LF","learning/Slide93.JPG","This is a bim:","",""
"","html-keyboard-response","287","730606","0.0-8.0-0.13","LF","csfpvftfnx","1600","900","de","ko05or02","null","","","","learningBlock2","","","","This is a tob:","null","","","","",""
"","image-keyboard-response","288","730949","0.0-8.0-1.13","LF","csfpvftfnx","1600","900","de","ko05or02","null","","","","","","","","learning/Slide94.JPG","null","","","","",""
"","html-keyboard-response","289","731964","0.0-8.0-2.13","LF","csfpvftfnx","1600","900","de","ko05or02","null","","","","learningBlock2","","","","<div style=""font-size:60px;""> </div>","null","LF","learning/Slide94.JPG","This is a tob:","",""
"","html-keyboard-response","290","732978","0.0-8.0-0.14","LF","csfpvftfnx","1600","900","de","ko05or02","null","","","","learningBlock2","","","","This is a wug:","null","","","","",""
"","image-keyboard-response","291","733311","0.0-8.0-1.14","LF","csfpvftfnx","1600","900","de","ko05or02","null","","","","","","","","learning/Slide95.JPG","null","","","","",""
"","html-keyboard-response","292","734328","0.0-8.0-2.14","LF","csfpvftfnx","1600","900","de","ko05or02","null","","","","learningBlock2","","","","<div style=""font-size:60px;""> </div>","null","LF","learning/Slide95.JPG","This is a wug:","",""
"","html-keyboard-response","293","735339","0.0-8.0-0.15","LF","csfpvftfnx","1600","900","de","ko05or02","null","","","","learningBlock2","","","","This is a tob:","null","","","","",""
"","image-keyboard-response","294","735682","0.0-8.0-1.15","LF","csfpvftfnx","1600","900","de","ko05or02","null","","","","","","","","learning/Slide96.JPG","null","","","","",""
"","html-keyboard-response","295","736689","0.0-8.0-2.15","LF","csfpvftfnx","1600","900","de","ko05or02","null","","","","learningBlock2","","","","<div style=""font-size:60px;""> </div>","null","LF","learning/Slide96.JPG","This is a tob:","",""
"","html-keyboard-response","296","737695","0.0-8.0-0.16","LF","csfpvftfnx","1600","900","de","ko05or02","null","","","","learningBlock2","","","","This is a dep:","null","","","","",""
"","image-keyboard-response","297","738044","0.0-8.0-1.16","LF","csfpvftfnx","1600","900","de","ko05or02","null","","","","","","","","learning/Slide97.JPG","null","","","","",""
"","html-keyboard-response","298","739052","0.0-8.0-2.16","LF","csfpvftfnx","1600","900","de","ko05or02","null","","","","learningBlock2","","","","<div style=""font-size:60px;""> </div>","null","LF","learning/Slide97.JPG","This is a dep:","",""
"","html-keyboard-response","299","740063","0.0-8.0-0.17","LF","csfpvftfnx","1600","900","de","ko05or02","null","","","","learningBlock2","","","","This is a bim:","null","","","","",""
"","image-keyboard-response","300","740404","0.0-8.0-1.17","LF","csfpvftfnx","1600","900","de","ko05or02","null","","","","","","","","learning/Slide98.JPG","null","","","","",""
"","html-keyboard-response","301","741410","0.0-8.0-2.17","LF","csfpvftfnx","1600","900","de","ko05or02","null","","","","learningBlock2","","","","<div style=""font-size:60px;""> </div>","null","LF","learning/Slide98.JPG","This is a bim:","",""
"","html-keyboard-response","302","742428","0.0-8.0-0.18","LF","csfpvftfnx","1600","900","de","ko05or02","null","","","","learningBlock2","","","","This is a dep:","null","","","","",""
"","image-keyboard-response","303","742777","0.0-8.0-1.18","LF","csfpvftfnx","1600","900","de","ko05or02","null","","","","","","","","learning/Slide99.JPG","null","","","","",""
"","html-keyboard-response","304","743784","0.0-8.0-2.18","LF","csfpvftfnx","1600","900","de","ko05or02","null","","","","learningBlock2","","","","<div style=""font-size:60px;""> </div>","null","LF","learning/Slide99.JPG","This is a dep:","",""
"","html-keyboard-response","305","744786","0.0-8.0-0.19","LF","csfpvftfnx","1600","900","de","ko05or02","null","","","","learningBlock2","","","","This is a bim:","null","","","","",""
"","image-keyboard-response","306","745131","0.0-8.0-1.19","LF","csfpvftfnx","1600","900","de","ko05or02","null","","","","","","","","learning/Slide100.JPG","null","","","","",""
"","html-keyboard-response","307","746144","0.0-8.0-2.19","LF","csfpvftfnx","1600","900","de","ko05or02","null","","","","learningBlock2","","","","<div style=""font-size:60px;""> </div>","null","LF","learning/Slide100.JPG","This is a bim:","",""
"","html-keyboard-response","308","747161","0.0-8.0-0.20","LF","csfpvftfnx","1600","900","de","ko05or02","null","","","","learningBlock2","","","","This is a tob:","null","","","","",""
"","image-keyboard-response","309","747495","0.0-8.0-1.20","LF","csfpvftfnx","1600","900","de","ko05or02","null","","","","","","","","learning/Slide101.JPG","null","","","","",""
"","html-keyboard-response","310","748503","0.0-8.0-2.20","LF","csfpvftfnx","1600","900","de","ko05or02","null","","","","learningBlock2","","","","<div style=""font-size:60px;""> </div>","null","LF","learning/Slide101.JPG","This is a tob:","",""
"","html-keyboard-response","311","749507","0.0-8.0-0.21","LF","csfpvftfnx","1600","900","de","ko05or02","null","","","","learningBlock2","","","","This is a bim:","null","","","","",""
"","image-keyboard-response","312","749847","0.0-8.0-1.21","LF","csfpvftfnx","1600","900","de","ko05or02","null","","","","","","","","learning/Slide102.JPG","null","","","","",""
"","html-keyboard-response","313","750861","0.0-8.0-2.21","LF","csfpvftfnx","1600","900","de","ko05or02","null","","","","learningBlock2","","","","<div style=""font-size:60px;""> </div>","null","LF","learning/Slide102.JPG","This is a bim:","",""
"","html-keyboard-response","314","751865","0.0-8.0-0.22","LF","csfpvftfnx","1600","900","de","ko05or02","null","","","","learningBlock2","","","","This is a dep:","null","","","","",""
"","image-keyboard-response","315","752214","0.0-8.0-1.22","LF","csfpvftfnx","1600","900","de","ko05or02","null","","","","","","","","learning/Slide103.JPG","null","","","","",""
"","html-keyboard-response","316","753222","0.0-8.0-2.22","LF","csfpvftfnx","1600","900","de","ko05or02","null","","","","learningBlock2","","","","<div style=""font-size:60px;""> </div>","null","LF","learning/Slide103.JPG","This is a dep:","",""
"","html-keyboard-response","317","754233","0.0-8.0-0.23","LF","csfpvftfnx","1600","900","de","ko05or02","null","","","","learningBlock2","","","","This is a tob:","null","","","","",""
"","image-keyboard-response","318","754582","0.0-8.0-1.23","LF","csfpvftfnx","1600","900","de","ko05or02","null","","","","","","","","learning/Slide104.JPG","null","","","","",""
"","html-keyboard-response","319","755594","0.0-8.0-2.23","LF","csfpvftfnx","1600","900","de","ko05or02","null","","","","learningBlock2","","","","<div style=""font-size:60px;""> </div>","null","LF","learning/Slide104.JPG","This is a tob:","",""
"","html-keyboard-response","320","756600","0.0-8.0-0.24","LF","csfpvftfnx","1600","900","de","ko05or02","null","","","","learningBlock2","","","","This is a dep:","null","","","","",""
"","image-keyboard-response","321","756931","0.0-8.0-1.24","LF","csfpvftfnx","1600","900","de","ko05or02","null","","","","","","","","learning/Slide105.JPG","null","","","","",""
"","html-keyboard-response","322","757940","0.0-8.0-2.24","LF","csfpvftfnx","1600","900","de","ko05or02","null","","","","learningBlock2","","","","<div style=""font-size:60px;""> </div>","null","LF","learning/Slide105.JPG","This is a dep:","",""
"","html-keyboard-response","323","758945","0.0-8.0-0.25","LF","csfpvftfnx","1600","900","de","ko05or02","null","","","","learningBlock2","","","","This is a wug:","null","","","","",""
"","image-keyboard-response","324","759281","0.0-8.0-1.25","LF","csfpvftfnx","1600","900","de","ko05or02","null","","","","","","","","learning/Slide106.JPG","null","","","","",""
"","html-keyboard-response","325","760287","0.0-8.0-2.25","LF","csfpvftfnx","1600","900","de","ko05or02","null","","","","learningBlock2","","","","<div style=""font-size:60px;""> </div>","null","LF","learning/Slide106.JPG","This is a wug:","",""
"","html-keyboard-response","326","761301","0.0-8.0-0.26","LF","csfpvftfnx","1600","900","de","ko05or02","null","","","","learningBlock2","","","","This is a bim:","null","","","","",""
"","image-keyboard-response","327","761647","0.0-8.0-1.26","LF","csfpvftfnx","1600","900","de","ko05or02","null","","","","","","","","learning/Slide107.JPG","null","","","","",""
"","html-keyboard-response","328","762651","0.0-8.0-2.26","LF","csfpvftfnx","1600","900","de","ko05or02","null","","","","learningBlock2","","","","<div style=""font-size:60px;""> </div>","null","LF","learning/Slide107.JPG","This is a bim:","",""
"","html-keyboard-response","329","763665","0.0-8.0-0.27","LF","csfpvftfnx","1600","900","de","ko05or02","null","","","","learningBlock2","","","","This is a dep:","null","","","","",""
"","image-keyboard-response","330","763997","0.0-8.0-1.27","LF","csfpvftfnx","1600","900","de","ko05or02","null","","","","","","","","learning/Slide108.JPG","null","","","","",""
"","html-keyboard-response","331","765014","0.0-8.0-2.27","LF","csfpvftfnx","1600","900","de","ko05or02","null","","","","learningBlock2","","","","<div style=""font-size:60px;""> </div>","null","LF","learning/Slide108.JPG","This is a dep:","",""
"","html-keyboard-response","332","766028","0.0-8.0-0.28","LF","csfpvftfnx","1600","900","de","ko05or02","null","","","","learningBlock2","","","","This is a wug:","null","","","","",""
"","image-keyboard-response","333","766361","0.0-8.0-1.28","LF","csfpvftfnx","1600","900","de","ko05or02","null","","","","","","","","learning/Slide109.JPG","null","","","","",""
"","html-keyboard-response","334","767372","0.0-8.0-2.28","LF","csfpvftfnx","1600","900","de","ko05or02","null","","","","learningBlock2","","","","<div style=""font-size:60px;""> </div>","null","LF","learning/Slide109.JPG","This is a wug:","",""
"","html-keyboard-response","335","768377","0.0-8.0-0.29","LF","csfpvftfnx","1600","900","de","ko05or02","null","","","","learningBlock2","","","","This is a bim:","null","","","","",""
"","image-keyboard-response","336","768721","0.0-8.0-1.29","LF","csfpvftfnx","1600","900","de","ko05or02","null","","","","","","","","learning/Slide110.JPG","null","","","","",""
"","html-keyboard-response","337","769729","0.0-8.0-2.29","LF","csfpvftfnx","1600","900","de","ko05or02","null","","","","learningBlock2","","","","<div style=""font-size:60px;""> </div>","null","LF","learning/Slide110.JPG","This is a bim:","",""
"","html-keyboard-response","338","770739","0.0-8.0-0.30","LF","csfpvftfnx","1600","900","de","ko05or02","null","","","","learningBlock2","","","","This is a tob:","null","","","","",""
"","image-keyboard-response","339","771081","0.0-8.0-1.30","LF","csfpvftfnx","1600","900","de","ko05or02","null","","","","","","","","learning/Slide111.JPG","null","","","","",""
"","html-keyboard-response","340","772088","0.0-8.0-2.30","LF","csfpvftfnx","1600","900","de","ko05or02","null","","","","learningBlock2","","","","<div style=""font-size:60px;""> </div>","null","LF","learning/Slide111.JPG","This is a tob:","",""
"","html-keyboard-response","341","773101","0.0-8.0-0.31","LF","csfpvftfnx","1600","900","de","ko05or02","null","","","","learningBlock2","","","","This is a wug:","null","","","","",""
"","image-keyboard-response","342","773434","0.0-8.0-1.31","LF","csfpvftfnx","1600","900","de","ko05or02","null","","","","","","","","learning/Slide112.JPG","null","","","","",""
"","html-keyboard-response","343","774451","0.0-8.0-2.31","LF","csfpvftfnx","1600","900","de","ko05or02","null","","","","learningBlock2","","","","<div style=""font-size:60px;""> </div>","null","LF","learning/Slide112.JPG","This is a wug:","",""
"","html-keyboard-response","344","775464","0.0-8.0-0.32","LF","csfpvftfnx","1600","900","de","ko05or02","null","","","","learningBlock2","","","","This is a tob:","null","","","","",""
"","image-keyboard-response","345","775804","0.0-8.0-1.32","LF","csfpvftfnx","1600","900","de","ko05or02","null","","","","","","","","learning/Slide113.JPG","null","","","","",""
"","html-keyboard-response","346","776819","0.0-8.0-2.32","LF","csfpvftfnx","1600","900","de","ko05or02","null","","","","learningBlock2","","","","<div style=""font-size:60px;""> </div>","null","LF","learning/Slide113.JPG","This is a tob:","",""
"","html-keyboard-response","347","777823","0.0-8.0-0.33","LF","csfpvftfnx","1600","900","de","ko05or02","null","","","","learningBlock2","","","","This is a wug:","null","","","","",""
"","image-keyboard-response","348","778154","0.0-8.0-1.33","LF","csfpvftfnx","1600","900","de","ko05or02","null","","","","","","","","learning/Slide114.JPG","null","","","","",""
"","html-keyboard-response","349","779160","0.0-8.0-2.33","LF","csfpvftfnx","1600","900","de","ko05or02","null","","","","learningBlock2","","","","<div style=""font-size:60px;""> </div>","null","LF","learning/Slide114.JPG","This is a wug:","",""
"","html-keyboard-response","350","780176","0.0-8.0-0.34","LF","csfpvftfnx","1600","900","de","ko05or02","null","","","","learningBlock2","","","","This is a bim:","null","","","","",""
"","image-keyboard-response","351","780518","0.0-8.0-1.34","LF","csfpvftfnx","1600","900","de","ko05or02","null","","","","","","","","learning/Slide115.JPG","null","","","","",""
"","html-keyboard-response","352","781530","0.0-8.0-2.34","LF","csfpvftfnx","1600","900","de","ko05or02","null","","","","learningBlock2","","","","<div style=""font-size:60px;""> </div>","null","LF","learning/Slide115.JPG","This is a bim:","",""
"","html-keyboard-response","353","782547","0.0-8.0-0.35","LF","csfpvftfnx","1600","900","de","ko05or02","null","","","","learningBlock2","","","","This is a dep:","null","","","","",""
"","image-keyboard-response","354","782879","0.0-8.0-1.35","LF","csfpvftfnx","1600","900","de","ko05or02","null","","","","","","","","learning/Slide116.JPG","null","","","","",""
"","html-keyboard-response","355","783887","0.0-8.0-2.35","LF","csfpvftfnx","1600","900","de","ko05or02","null","","","","learningBlock2","","","","<div style=""font-size:60px;""> </div>","null","LF","learning/Slide116.JPG","This is a dep:","",""
"","html-keyboard-response","356","784893","0.0-8.0-0.36","LF","csfpvftfnx","1600","900","de","ko05or02","null","","","","learningBlock2","","","","This is a tob:","null","","","","",""
"","image-keyboard-response","357","785230","0.0-8.0-1.36","LF","csfpvftfnx","1600","900","de","ko05or02","null","","","","","","","","learning/Slide117.JPG","null","","","","",""
"","html-keyboard-response","358","786234","0.0-8.0-2.36","LF","csfpvftfnx","1600","900","de","ko05or02","null","","","","learningBlock2","","","","<div style=""font-size:60px;""> </div>","null","LF","learning/Slide117.JPG","This is a tob:","",""
"","html-keyboard-response","359","787244","0.0-8.0-0.37","LF","csfpvftfnx","1600","900","de","ko05or02","null","","","","learningBlock2","","","","This is a dep:","null","","","","",""
"","image-keyboard-response","360","787583","0.0-8.0-1.37","LF","csfpvftfnx","1600","900","de","ko05or02","null","","","","","","","","learning/Slide118.JPG","null","","","","",""
"","html-keyboard-response","361","788587","0.0-8.0-2.37","LF","csfpvftfnx","1600","900","de","ko05or02","null","","","","learningBlock2","","","","<div style=""font-size:60px;""> </div>","null","LF","learning/Slide118.JPG","This is a dep:","",""
"","html-keyboard-response","362","789596","0.0-8.0-0.38","LF","csfpvftfnx","1600","900","de","ko05or02","null","","","","learningBlock2","","","","This is a wug:","null","","","","",""
"","image-keyboard-response","363","789930","0.0-8.0-1.38","LF","csfpvftfnx","1600","900","de","ko05or02","null","","","","","","","","learning/Slide119.JPG","null","","","","",""
"","html-keyboard-response","364","790946","0.0-8.0-2.38","LF","csfpvftfnx","1600","900","de","ko05or02","null","","","","learningBlock2","","","","<div style=""font-size:60px;""> </div>","null","LF","learning/Slide119.JPG","This is a wug:","",""
"","html-keyboard-response","365","791954","0.0-8.0-0.39","LF","csfpvftfnx","1600","900","de","ko05or02","null","","","","learningBlock2","","","","This is a dep:","null","","","","",""
"","image-keyboard-response","366","792284","0.0-8.0-1.39","LF","csfpvftfnx","1600","900","de","ko05or02","null","","","","","","","","learning/Slide120.JPG","null","","","","",""
"","html-keyboard-response","367","793298","0.0-8.0-2.39","LF","csfpvftfnx","1600","900","de","ko05or02","null","","","","learningBlock2","","","","<div style=""font-size:60px;""> </div>","null","LF","learning/Slide120.JPG","This is a dep:","",""
"","html-keyboard-response","368","794309","0.0-8.0-0.40","LF","csfpvftfnx","1600","900","de","ko05or02","null","","","","learningBlock2","","","","This is a bim:","null","","","","",""
"","image-keyboard-response","369","794643","0.0-8.0-1.40","LF","csfpvftfnx","1600","900","de","ko05or02","null","","","","","","","","learning/Slide121.JPG","null","","","","",""
"","html-keyboard-response","370","795654","0.0-8.0-2.40","LF","csfpvftfnx","1600","900","de","ko05or02","null","","","","learningBlock2","","","","<div style=""font-size:60px;""> </div>","null","LF","learning/Slide121.JPG","This is a bim:","",""
"","html-keyboard-response","371","796663","0.0-8.0-0.41","LF","csfpvftfnx","1600","900","de","ko05or02","null","","","","learningBlock2","","","","This is a wug:","null","","","","",""
"","image-keyboard-response","372","796999","0.0-8.0-1.41","LF","csfpvftfnx","1600","900","de","ko05or02","null","","","","","","","","learning/Slide122.JPG","null","","","","",""
"","html-keyboard-response","373","798010","0.0-8.0-2.41","LF","csfpvftfnx","1600","900","de","ko05or02","null","","","","learningBlock2","","","","<div style=""font-size:60px;""> </div>","null","LF","learning/Slide122.JPG","This is a wug:","",""
"","html-keyboard-response","374","799014","0.0-8.0-0.42","LF","csfpvftfnx","1600","900","de","ko05or02","null","","","","learningBlock2","","","","This is a bim:","null","","","","",""
"","image-keyboard-response","375","799355","0.0-8.0-1.42","LF","csfpvftfnx","1600","900","de","ko05or02","null","","","","","","","","learning/Slide123.JPG","null","","","","",""
"","html-keyboard-response","376","800371","0.0-8.0-2.42","LF","csfpvftfnx","1600","900","de","ko05or02","null","","","","learningBlock2","","","","<div style=""font-size:60px;""> </div>","null","LF","learning/Slide123.JPG","This is a bim:","",""
"","html-keyboard-response","377","801384","0.0-8.0-0.43","LF","csfpvftfnx","1600","900","de","ko05or02","null","","","","learningBlock2","","","","This is a tob:","null","","","","",""
"","image-keyboard-response","378","801716","0.0-8.0-1.43","LF","csfpvftfnx","1600","900","de","ko05or02","null","","","","","","","","learning/Slide124.JPG","null","","","","",""
"","html-keyboard-response","379","802729","0.0-8.0-2.43","LF","csfpvftfnx","1600","900","de","ko05or02","null","","","","learningBlock2","","","","<div style=""font-size:60px;""> </div>","null","LF","learning/Slide124.JPG","This is a tob:","",""
"","html-keyboard-response","380","803741","0.0-8.0-0.44","LF","csfpvftfnx","1600","900","de","ko05or02","null","","","","learningBlock2","","","","This is a bim:","null","","","","",""
"","image-keyboard-response","381","804073","0.0-8.0-1.44","LF","csfpvftfnx","1600","900","de","ko05or02","null","","","","","","","","learning/Slide125.JPG","null","","","","",""
"","html-keyboard-response","382","805076","0.0-8.0-2.44","LF","csfpvftfnx","1600","900","de","ko05or02","null","","","","learningBlock2","","","","<div style=""font-size:60px;""> </div>","null","LF","learning/Slide125.JPG","This is a bim:","",""
"","html-keyboard-response","383","806089","0.0-8.0-0.45","LF","csfpvftfnx","1600","900","de","ko05or02","null","","","","learningBlock2","","","","This is a tob:","null","","","","",""
"","image-keyboard-response","384","806427","0.0-8.0-1.45","LF","csfpvftfnx","1600","900","de","ko05or02","null","","","","","","","","learning/Slide126.JPG","null","","","","",""
"","html-keyboard-response","385","807441","0.0-8.0-2.45","LF","csfpvftfnx","1600","900","de","ko05or02","null","","","","learningBlock2","","","","<div style=""font-size:60px;""> </div>","null","LF","learning/Slide126.JPG","This is a tob:","",""
"","html-keyboard-response","386","808459","0.0-8.0-0.46","LF","csfpvftfnx","1600","900","de","ko05or02","null","","","","learningBlock2","","","","This is a dep:","null","","","","",""
"","image-keyboard-response","387","808795","0.0-8.0-1.46","LF","csfpvftfnx","1600","900","de","ko05or02","null","","","","","","","","learning/Slide127.JPG","null","","","","",""
"","html-keyboard-response","388","809808","0.0-8.0-2.46","LF","csfpvftfnx","1600","900","de","ko05or02","null","","","","learningBlock2","","","","<div style=""font-size:60px;""> </div>","null","LF","learning/Slide127.JPG","This is a dep:","",""
"","html-keyboard-response","389","810818","0.0-8.0-0.47","LF","csfpvftfnx","1600","900","de","ko05or02","null","","","","learningBlock2","","","","This is a wug:","null","","","","",""
"","image-keyboard-response","390","811162","0.0-8.0-1.47","LF","csfpvftfnx","1600","900","de","ko05or02","null","","","","","","","","learning/Slide128.JPG","null","","","","",""
"","html-keyboard-response","391","812174","0.0-8.0-2.47","LF","csfpvftfnx","1600","900","de","ko05or02","null","","","","learningBlock2","","","","<div style=""font-size:60px;""> </div>","null","LF","learning/Slide128.JPG","This is a wug:","",""
"","html-keyboard-response","392","813180","0.0-8.0-0.48","LF","csfpvftfnx","1600","900","de","ko05or02","null","","","","learningBlock2","","","","This is a tob:","null","","","","",""
"","image-keyboard-response","393","813519","0.0-8.0-1.48","LF","csfpvftfnx","1600","900","de","ko05or02","null","","","","","","","","learning/Slide129.JPG","null","","","","",""
"","html-keyboard-response","394","814530","0.0-8.0-2.48","LF","csfpvftfnx","1600","900","de","ko05or02","null","","","","learningBlock2","","","","<div style=""font-size:60px;""> </div>","null","LF","learning/Slide129.JPG","This is a tob:","",""
"","html-keyboard-response","395","815541","0.0-8.0-0.49","LF","csfpvftfnx","1600","900","de","ko05or02","null","","","","learningBlock2","","","","This is a wug:","null","","","","",""
"","image-keyboard-response","396","815878","0.0-8.0-1.49","LF","csfpvftfnx","1600","900","de","ko05or02","null","","","","","","","","learning/Slide130.JPG","null","","","","",""
"","html-keyboard-response","397","816884","0.0-8.0-2.49","LF","csfpvftfnx","1600","900","de","ko05or02","null","","","","learningBlock2","","","","<div style=""font-size:60px;""> </div>","null","LF","learning/Slide130.JPG","This is a wug:","",""
"","html-keyboard-response","398","817897","0.0-8.0-0.50","LF","csfpvftfnx","1600","900","de","ko05or02","null","","","","learningBlock2","","","","This is a bim:","null","","","","",""
"","image-keyboard-response","399","818236","0.0-8.0-1.50","LF","csfpvftfnx","1600","900","de","ko05or02","null","","","","","","","","learning/Slide131.JPG","null","","","","",""
"","html-keyboard-response","400","819241","0.0-8.0-2.50","LF","csfpvftfnx","1600","900","de","ko05or02","null","","","","learningBlock2","","","","<div style=""font-size:60px;""> </div>","null","LF","learning/Slide131.JPG","This is a bim:","",""
"","html-keyboard-response","401","820248","0.0-8.0-0.51","LF","csfpvftfnx","1600","900","de","ko05or02","null","","","","learningBlock2","","","","This is a dep:","null","","","","",""
"","image-keyboard-response","402","820586","0.0-8.0-1.51","LF","csfpvftfnx","1600","900","de","ko05or02","null","","","","","","","","learning/Slide132.JPG","null","","","","",""
"","html-keyboard-response","403","821597","0.0-8.0-2.51","LF","csfpvftfnx","1600","900","de","ko05or02","null","","","","learningBlock2","","","","<div style=""font-size:60px;""> </div>","null","LF","learning/Slide132.JPG","This is a dep:","",""
"","html-keyboard-response","404","822608","0.0-8.0-0.52","LF","csfpvftfnx","1600","900","de","ko05or02","null","","","","learningBlock2","","","","This is a tob:","null","","","","",""
"","image-keyboard-response","405","822960","0.0-8.0-1.52","LF","csfpvftfnx","1600","900","de","ko05or02","null","","","","","","","","learning/Slide133.JPG","null","","","","",""
"","html-keyboard-response","406","823968","0.0-8.0-2.52","LF","csfpvftfnx","1600","900","de","ko05or02","null","","","","learningBlock2","","","","<div style=""font-size:60px;""> </div>","null","LF","learning/Slide133.JPG","This is a tob:","",""
"","html-keyboard-response","407","824981","0.0-8.0-0.53","LF","csfpvftfnx","1600","900","de","ko05or02","null","","","","learningBlock2","","","","This is a dep:","null","","","","",""
"","image-keyboard-response","408","825327","0.0-8.0-1.53","LF","csfpvftfnx","1600","900","de","ko05or02","null","","","","","","","","learning/Slide134.JPG","null","","","","",""
"","html-keyboard-response","409","826340","0.0-8.0-2.53","LF","csfpvftfnx","1600","900","de","ko05or02","null","","","","learningBlock2","","","","<div style=""font-size:60px;""> </div>","null","LF","learning/Slide134.JPG","This is a dep:","",""
"","html-keyboard-response","410","827357","0.0-8.0-0.54","LF","csfpvftfnx","1600","900","de","ko05or02","null","","","","learningBlock2","","","","This is a tob:","null","","","","",""
"","image-keyboard-response","411","827701","0.0-8.0-1.54","LF","csfpvftfnx","1600","900","de","ko05or02","null","","","","","","","","learning/Slide135.JPG","null","","","","",""
"","html-keyboard-response","412","828711","0.0-8.0-2.54","LF","csfpvftfnx","1600","900","de","ko05or02","null","","","","learningBlock2","","","","<div style=""font-size:60px;""> </div>","null","LF","learning/Slide135.JPG","This is a tob:","",""
"","html-keyboard-response","413","829727","0.0-8.0-0.55","LF","csfpvftfnx","1600","900","de","ko05or02","null","","","","learningBlock2","","","","This is a wug:","null","","","","",""
"","image-keyboard-response","414","830078","0.0-8.0-1.55","LF","csfpvftfnx","1600","900","de","ko05or02","null","","","","","","","","learning/Slide136.JPG","null","","","","",""
"","html-keyboard-response","415","831115","0.0-8.0-2.55","LF","csfpvftfnx","1600","900","de","ko05or02","null","","","","learningBlock2","","","","<div style=""font-size:60px;""> </div>","null","LF","learning/Slide136.JPG","This is a wug:","",""
"","html-keyboard-response","416","832124","0.0-8.0-0.56","LF","csfpvftfnx","1600","900","de","ko05or02","null","","","","learningBlock2","","","","This is a tob:","null","","","","",""
"","image-keyboard-response","417","832456","0.0-8.0-1.56","LF","csfpvftfnx","1600","900","de","ko05or02","null","","","","","","","","learning/Slide137.JPG","null","","","","",""
"","html-keyboard-response","418","833470","0.0-8.0-2.56","LF","csfpvftfnx","1600","900","de","ko05or02","null","","","","learningBlock2","","","","<div style=""font-size:60px;""> </div>","null","LF","learning/Slide137.JPG","This is a tob:","",""
"","html-keyboard-response","419","834478","0.0-8.0-0.57","LF","csfpvftfnx","1600","900","de","ko05or02","null","","","","learningBlock2","","","","This is a bim:","null","","","","",""
"","image-keyboard-response","420","834825","0.0-8.0-1.57","LF","csfpvftfnx","1600","900","de","ko05or02","null","","","","","","","","learning/Slide138.JPG","null","","","","",""
"","html-keyboard-response","421","835840","0.0-8.0-2.57","LF","csfpvftfnx","1600","900","de","ko05or02","null","","","","learningBlock2","","","","<div style=""font-size:60px;""> </div>","null","LF","learning/Slide138.JPG","This is a bim:","",""
"","html-keyboard-response","422","836843","0.0-8.0-0.58","LF","csfpvftfnx","1600","900","de","ko05or02","null","","","","learningBlock2","","","","This is a wug:","null","","","","",""
"","image-keyboard-response","423","837191","0.0-8.0-1.58","LF","csfpvftfnx","1600","900","de","ko05or02","null","","","","","","","","learning/Slide139.JPG","null","","","","",""
"","html-keyboard-response","424","838203","0.0-8.0-2.58","LF","csfpvftfnx","1600","900","de","ko05or02","null","","","","learningBlock2","","","","<div style=""font-size:60px;""> </div>","null","LF","learning/Slide139.JPG","This is a wug:","",""
"","html-keyboard-response","425","839216","0.0-8.0-0.59","LF","csfpvftfnx","1600","900","de","ko05or02","null","","","","learningBlock2","","","","This is a dep:","null","","","","",""
"","image-keyboard-response","426","839554","0.0-8.0-1.59","LF","csfpvftfnx","1600","900","de","ko05or02","null","","","","","","","","learning/Slide140.JPG","null","","","","",""
"","html-keyboard-response","427","840561","0.0-8.0-2.59","LF","csfpvftfnx","1600","900","de","ko05or02","null","","","","learningBlock2","","","","<div style=""font-size:60px;""> </div>","null","LF","learning/Slide140.JPG","This is a dep:","",""
"","html-keyboard-response","428","841573","0.0-8.0-0.60","LF","csfpvftfnx","1600","900","de","ko05or02","null","","","","learningBlock2","","","","This is a tob:","null","","","","",""
"","image-keyboard-response","429","841917","0.0-8.0-1.60","LF","csfpvftfnx","1600","900","de","ko05or02","null","","","","","","","","learning/Slide141.JPG","null","","","","",""
"","html-keyboard-response","430","842923","0.0-8.0-2.60","LF","csfpvftfnx","1600","900","de","ko05or02","null","","","","learningBlock2","","","","<div style=""font-size:60px;""> </div>","null","LF","learning/Slide141.JPG","This is a tob:","",""
"","html-keyboard-response","431","843934","0.0-8.0-0.61","LF","csfpvftfnx","1600","900","de","ko05or02","null","","","","learningBlock2","","","","This is a wug:","null","","","","",""
"","image-keyboard-response","432","844273","0.0-8.0-1.61","LF","csfpvftfnx","1600","900","de","ko05or02","null","","","","","","","","learning/Slide142.JPG","null","","","","",""
"","html-keyboard-response","433","845283","0.0-8.0-2.61","LF","csfpvftfnx","1600","900","de","ko05or02","null","","","","learningBlock2","","","","<div style=""font-size:60px;""> </div>","null","LF","learning/Slide142.JPG","This is a wug:","",""
"","html-keyboard-response","434","846296","0.0-8.0-0.62","LF","csfpvftfnx","1600","900","de","ko05or02","null","","","","learningBlock2","","","","This is a bim:","null","","","","",""
"","image-keyboard-response","435","846645","0.0-8.0-1.62","LF","csfpvftfnx","1600","900","de","ko05or02","null","","","","","","","","learning/Slide143.JPG","null","","","","",""
"","html-keyboard-response","436","847656","0.0-8.0-2.62","LF","csfpvftfnx","1600","900","de","ko05or02","null","","","","learningBlock2","","","","<div style=""font-size:60px;""> </div>","null","LF","learning/Slide143.JPG","This is a bim:","",""
"","html-keyboard-response","437","848668","0.0-8.0-0.63","LF","csfpvftfnx","1600","900","de","ko05or02","null","","","","learningBlock2","","","","This is a dep:","null","","","","",""
"","image-keyboard-response","438","849014","0.0-8.0-1.63","LF","csfpvftfnx","1600","900","de","ko05or02","null","","","","","","","","learning/Slide144.JPG","null","","","","",""
"","html-keyboard-response","439","850029","0.0-8.0-2.63","LF","csfpvftfnx","1600","900","de","ko05or02","null","","","","learningBlock2","","","","<div style=""font-size:60px;""> </div>","null","LF","learning/Slide144.JPG","This is a dep:","",""
"","html-keyboard-response","440","851043","0.0-8.0-0.64","LF","csfpvftfnx","1600","900","de","ko05or02","null","","","","learningBlock2","","","","This is a bim:","null","","","","",""
"","image-keyboard-response","441","851384","0.0-8.0-1.64","LF","csfpvftfnx","1600","900","de","ko05or02","null","","","","","","","","learning/Slide145.JPG","null","","","","",""
"","html-keyboard-response","442","852389","0.0-8.0-2.64","LF","csfpvftfnx","1600","900","de","ko05or02","null","","","","learningBlock2","","","","<div style=""font-size:60px;""> </div>","null","LF","learning/Slide145.JPG","This is a bim:","",""
"","html-keyboard-response","443","853401","0.0-8.0-0.65","LF","csfpvftfnx","1600","900","de","ko05or02","null","","","","learningBlock2","","","","This is a tob:","null","","","","",""
"","image-keyboard-response","444","853739","0.0-8.0-1.65","LF","csfpvftfnx","1600","900","de","ko05or02","null","","","","","","","","learning/Slide146.JPG","null","","","","",""
"","html-keyboard-response","445","854746","0.0-8.0-2.65","LF","csfpvftfnx","1600","900","de","ko05or02","null","","","","learningBlock2","","","","<div style=""font-size:60px;""> </div>","null","LF","learning/Slide146.JPG","This is a tob:","",""
"","html-keyboard-response","446","855760","0.0-8.0-0.66","LF","csfpvftfnx","1600","900","de","ko05or02","null","","","","learningBlock2","","","","This is a wug:","null","","","","",""
"","image-keyboard-response","447","856091","0.0-8.0-1.66","LF","csfpvftfnx","1600","900","de","ko05or02","null","","","","","","","","learning/Slide147.JPG","null","","","","",""
"","html-keyboard-response","448","857098","0.0-8.0-2.66","LF","csfpvftfnx","1600","900","de","ko05or02","null","","","","learningBlock2","","","","<div style=""font-size:60px;""> </div>","null","LF","learning/Slide147.JPG","This is a wug:","",""
"","html-keyboard-response","449","858110","0.0-8.0-0.67","LF","csfpvftfnx","1600","900","de","ko05or02","null","","","","learningBlock2","","","","This is a bim:","null","","","","",""
"","image-keyboard-response","450","858454","0.0-8.0-1.67","LF","csfpvftfnx","1600","900","de","ko05or02","null","","","","","","","","learning/Slide148.JPG","null","","","","",""
"","html-keyboard-response","451","859463","0.0-8.0-2.67","LF","csfpvftfnx","1600","900","de","ko05or02","null","","","","learningBlock2","","","","<div style=""font-size:60px;""> </div>","null","LF","learning/Slide148.JPG","This is a bim:","",""
"","html-keyboard-response","452","860473","0.0-8.0-0.68","LF","csfpvftfnx","1600","900","de","ko05or02","null","","","","learningBlock2","","","","This is a dep:","null","","","","",""
"","image-keyboard-response","453","860816","0.0-8.0-1.68","LF","csfpvftfnx","1600","900","de","ko05or02","null","","","","","","","","learning/Slide149.JPG","null","","","","",""
"","html-keyboard-response","454","861826","0.0-8.0-2.68","LF","csfpvftfnx","1600","900","de","ko05or02","null","","","","learningBlock2","","","","<div style=""font-size:60px;""> </div>","null","LF","learning/Slide149.JPG","This is a dep:","",""
"","html-keyboard-response","455","862840","0.0-8.0-0.69","LF","csfpvftfnx","1600","900","de","ko05or02","null","","","","learningBlock2","","","","This is a wug:","null","","","","",""
"","image-keyboard-response","456","863181","0.0-8.0-1.69","LF","csfpvftfnx","1600","900","de","ko05or02","null","","","","","","","","learning/Slide150.JPG","null","","","","",""
"","html-keyboard-response","457","864192","0.0-8.0-2.69","LF","csfpvftfnx","1600","900","de","ko05or02","null","","","","learningBlock2","","","","<div style=""font-size:60px;""> </div>","null","LF","learning/Slide150.JPG","This is a wug:","",""
"","html-keyboard-response","458","865197","0.0-8.0-0.70","LF","csfpvftfnx","1600","900","de","ko05or02","null","","","","learningBlock2","","","","This is a dep:","null","","","","",""
"","image-keyboard-response","459","865542","0.0-8.0-1.70","LF","csfpvftfnx","1600","900","de","ko05or02","null","","","","","","","","learning/Slide151.JPG","null","","","","",""
"","html-keyboard-response","460","866555","0.0-8.0-2.70","LF","csfpvftfnx","1600","900","de","ko05or02","null","","","","learningBlock2","","","","<div style=""font-size:60px;""> </div>","null","LF","learning/Slide151.JPG","This is a dep:","",""
"","html-keyboard-response","461","867559","0.0-8.0-0.71","LF","csfpvftfnx","1600","900","de","ko05or02","null","","","","learningBlock2","","","","This is a wug:","null","","","","",""
"","image-keyboard-response","462","867905","0.0-8.0-1.71","LF","csfpvftfnx","1600","900","de","ko05or02","null","","","","","","","","learning/Slide152.JPG","null","","","","",""
"","html-keyboard-response","463","868909","0.0-8.0-2.71","LF","csfpvftfnx","1600","900","de","ko05or02","null","","","","learningBlock2","","","","<div style=""font-size:60px;""> </div>","null","LF","learning/Slide152.JPG","This is a wug:","",""
"","html-keyboard-response","464","869915","0.0-8.0-0.72","LF","csfpvftfnx","1600","900","de","ko05or02","null","","","","learningBlock2","","","","This is a bim:","null","","","","",""
"","image-keyboard-response","465","870261","0.0-8.0-1.72","LF","csfpvftfnx","1600","900","de","ko05or02","null","","","","","","","","learning/Slide153.JPG","null","","","","",""
"","html-keyboard-response","466","871276","0.0-8.0-2.72","LF","csfpvftfnx","1600","900","de","ko05or02","null","","","","learningBlock2","","","","<div style=""font-size:60px;""> </div>","null","LF","learning/Slide153.JPG","This is a bim:","",""
"","html-keyboard-response","467","872288","0.0-8.0-0.73","LF","csfpvftfnx","1600","900","de","ko05or02","null","","","","learningBlock2","","","","This is a tob:","null","","","","",""
"","image-keyboard-response","468","872640","0.0-8.0-1.73","LF","csfpvftfnx","1600","900","de","ko05or02","null","","","","","","","","learning/Slide154.JPG","null","","","","",""
"","html-keyboard-response","469","873650","0.0-8.0-2.73","LF","csfpvftfnx","1600","900","de","ko05or02","null","","","","learningBlock2","","","","<div style=""font-size:60px;""> </div>","null","LF","learning/Slide154.JPG","This is a tob:","",""
"","html-keyboard-response","470","874665","0.0-8.0-0.74","LF","csfpvftfnx","1600","900","de","ko05or02","null","","","","learningBlock2","","","","This is a dep:","null","","","","",""
"","image-keyboard-response","471","874998","0.0-8.0-1.74","LF","csfpvftfnx","1600","900","de","ko05or02","null","","","","","","","","learning/Slide155.JPG","null","","","","",""
"","html-keyboard-response","472","876005","0.0-8.0-2.74","LF","csfpvftfnx","1600","900","de","ko05or02","null","","","","learningBlock2","","","","<div style=""font-size:60px;""> </div>","null","LF","learning/Slide155.JPG","This is a dep:","",""
"","html-keyboard-response","473","877010","0.0-8.0-0.75","LF","csfpvftfnx","1600","900","de","ko05or02","null","","","","learningBlock2","","","","This is a bim:","null","","","","",""
"","image-keyboard-response","474","877365","0.0-8.0-1.75","LF","csfpvftfnx","1600","900","de","ko05or02","null","","","","","","","","learning/Slide156.JPG","null","","","","",""
"","html-keyboard-response","475","878372","0.0-8.0-2.75","LF","csfpvftfnx","1600","900","de","ko05or02","null","","","","learningBlock2","","","","<div style=""font-size:60px;""> </div>","null","LF","learning/Slide156.JPG","This is a bim:","",""
"","html-keyboard-response","476","879385","0.0-8.0-0.76","LF","csfpvftfnx","1600","900","de","ko05or02","null","","","","learningBlock2","","","","This is a dep:","null","","","","",""
"","image-keyboard-response","477","879732","0.0-8.0-1.76","LF","csfpvftfnx","1600","900","de","ko05or02","null","","","","","","","","learning/Slide157.JPG","null","","","","",""
"","html-keyboard-response","478","880742","0.0-8.0-2.76","LF","csfpvftfnx","1600","900","de","ko05or02","null","","","","learningBlock2","","","","<div style=""font-size:60px;""> </div>","null","LF","learning/Slide157.JPG","This is a dep:","",""
"","html-keyboard-response","479","881754","0.0-8.0-0.77","LF","csfpvftfnx","1600","900","de","ko05or02","null","","","","learningBlock2","","","","This is a tob:","null","","","","",""
"","image-keyboard-response","480","882114","0.0-8.0-1.77","LF","csfpvftfnx","1600","900","de","ko05or02","null","","","","","","","","learning/Slide158.JPG","null","","","","",""
"","html-keyboard-response","481","883122","0.0-8.0-2.77","LF","csfpvftfnx","1600","900","de","ko05or02","null","","","","learningBlock2","","","","<div style=""font-size:60px;""> </div>","null","LF","learning/Slide158.JPG","This is a tob:","",""
"","html-keyboard-response","482","884138","0.0-8.0-0.78","LF","csfpvftfnx","1600","900","de","ko05or02","null","","","","learningBlock2","","","","This is a dep:","null","","","","",""
"","image-keyboard-response","483","884476","0.0-8.0-1.78","LF","csfpvftfnx","1600","900","de","ko05or02","null","","","","","","","","learning/Slide159.JPG","null","","","","",""
"","html-keyboard-response","484","885488","0.0-8.0-2.78","LF","csfpvftfnx","1600","900","de","ko05or02","null","","","","learningBlock2","","","","<div style=""font-size:60px;""> </div>","null","LF","learning/Slide159.JPG","This is a dep:","",""
"","html-keyboard-response","485","886492","0.0-8.0-0.79","LF","csfpvftfnx","1600","900","de","ko05or02","null","","","","learningBlock2","","","","This is a wug:","null","","","","",""
"","image-keyboard-response","486","886829","0.0-8.0-1.79","LF","csfpvftfnx","1600","900","de","ko05or02","null","","","","","","","","learning/Slide160.JPG","null","","","","",""
"","html-keyboard-response","487","887845","0.0-8.0-2.79","LF","csfpvftfnx","1600","900","de","ko05or02","null","","","","learningBlock2","","","","<div style=""font-size:60px;""> </div>","null","LF","learning/Slide160.JPG","This is a wug:","",""
"","resize2","488","1217606","0.0-9.0","LF","csfpvftfnx","1600","900","de","ko05or02","","","","","","","104","1.04","","","","","","",""
"","instructions","489","1239716","0.0-10.0","LF","csfpvftfnx","1600","900","de","ko05or02","NA","","","[{""page_index"":0,""viewing_time"":22109.069999307394}]","instructions","","","","","","","","","",""
