"success","trial_type","trial_index","time_elapsed","internal_node_id","condition","subject","screen_width","screen_height","language","codeword","rt","responses","url","view_history","test_part","final_height_px","final_width_px","scale_factor","stimulus","key_press","learningType","presentedImage","presentedLabel","button_pressed","response"
"true","fullscreen","0","21504","0.0-0.0","FL","et4cc4zeqy","1366","768","de","er08an21","","","","","","","","","","","","","","",""
"","survey-html-form","1","30945","0.0-1.0","FL","et4cc4zeqy","1366","768","de","er08an21","9438.400000013644","{""language"":""de""}","","","","","","","","","","","","",""
"","external-html","2","185285","0.0-2.0-0.0","FL","et4cc4zeqy","1366","768","de","er08an21","154259.73000001977","","text/information.html","","","","","","","","","","","",""
"","external-html","3","231352","0.0-2.0-1.0","FL","et4cc4zeqy","1366","768","de","er08an21","45940.39500001236","","text/consent.html","","","","","","","","","","","",""
"","survey-html-form","4","365531","0.0-2.0-2.0","FL","et4cc4zeqy","1366","768","de","er08an21","134173.9649999945","{""codeword_enter"":""er08an21""}","","","","","","","","","","","","",""
"","instructions","5","408741","0.0-4.0","FL","et4cc4zeqy","1366","768","de","er08an21","NA","","","[{""page_index"":0,""viewing_time"":4272.555000003194},{""page_index"":1,""viewing_time"":37424.219999986235}]","instructions","","","","","","","","","",""
"","resize","6","534644","0.0-5.0","FL","et4cc4zeqy","1366","768","de","er08an21","","","","","","","334","2.1206349206349207","","","","","","",""
"","image-keyboard-response","7","534824","0.0-6.0-0.0","FL","et4cc4zeqy","1366","768","de","er08an21","null","","","","","","","","learning/Slide1.JPG","null","","","","",""
"","html-keyboard-response","8","535984","0.0-6.0-1.0","FL","et4cc4zeqy","1366","768","de","er08an21","null","","","","learningBlock1","","","","That was a tob.","null","","","","",""
"","html-keyboard-response","9","536993","0.0-6.0-2.0","FL","et4cc4zeqy","1366","768","de","er08an21","null","","","","learningBlock1","","","","<div style=""font-size:60px;""> </div>","null","FL","learning/Slide1.JPG","That was a tob.","",""
"","image-keyboard-response","10","537174","0.0-6.0-0.1","FL","et4cc4zeqy","1366","768","de","er08an21","null","","","","","","","","learning/Slide2.JPG","null","","","","",""
"","html-keyboard-response","11","538333","0.0-6.0-1.1","FL","et4cc4zeqy","1366","768","de","er08an21","null","","","","learningBlock1","","","","That was a wug.","null","","","","",""
"","html-keyboard-response","12","539338","0.0-6.0-2.1","FL","et4cc4zeqy","1366","768","de","er08an21","null","","","","learningBlock1","","","","<div style=""font-size:60px;""> </div>","null","FL","learning/Slide2.JPG","That was a wug.","",""
"","image-keyboard-response","13","539518","0.0-6.0-0.2","FL","et4cc4zeqy","1366","768","de","er08an21","null","","","","","","","","learning/Slide3.JPG","null","","","","",""
"","html-keyboard-response","14","540677","0.0-6.0-1.2","FL","et4cc4zeqy","1366","768","de","er08an21","null","","","","learningBlock1","","","","That was a bim.","null","","","","",""
"","html-keyboard-response","15","541680","0.0-6.0-2.2","FL","et4cc4zeqy","1366","768","de","er08an21","null","","","","learningBlock1","","","","<div style=""font-size:60px;""> </div>","null","FL","learning/Slide3.JPG","That was a bim.","",""
"","image-keyboard-response","16","541860","0.0-6.0-0.3","FL","et4cc4zeqy","1366","768","de","er08an21","null","","","","","","","","learning/Slide4.JPG","null","","","","",""
"","html-keyboard-response","17","543017","0.0-6.0-1.3","FL","et4cc4zeqy","1366","768","de","er08an21","null","","","","learningBlock1","","","","That was a dep.","null","","","","",""
"","html-keyboard-response","18","544022","0.0-6.0-2.3","FL","et4cc4zeqy","1366","768","de","er08an21","null","","","","learningBlock1","","","","<div style=""font-size:60px;""> </div>","null","FL","learning/Slide4.JPG","That was a dep.","",""
"","image-keyboard-response","19","544204","0.0-6.0-0.4","FL","et4cc4zeqy","1366","768","de","er08an21","null","","","","","","","","learning/Slide5.JPG","null","","","","",""
"","html-keyboard-response","20","545365","0.0-6.0-1.4","FL","et4cc4zeqy","1366","768","de","er08an21","null","","","","learningBlock1","","","","That was a wug.","null","","","","",""
"","html-keyboard-response","21","546369","0.0-6.0-2.4","FL","et4cc4zeqy","1366","768","de","er08an21","null","","","","learningBlock1","","","","<div style=""font-size:60px;""> </div>","null","FL","learning/Slide5.JPG","That was a wug.","",""
"","image-keyboard-response","22","546550","0.0-6.0-0.5","FL","et4cc4zeqy","1366","768","de","er08an21","null","","","","","","","","learning/Slide6.JPG","null","","","","",""
"","html-keyboard-response","23","547712","0.0-6.0-1.5","FL","et4cc4zeqy","1366","768","de","er08an21","null","","","","learningBlock1","","","","That was a dep.","null","","","","",""
"","html-keyboard-response","24","548715","0.0-6.0-2.5","FL","et4cc4zeqy","1366","768","de","er08an21","null","","","","learningBlock1","","","","<div style=""font-size:60px;""> </div>","null","FL","learning/Slide6.JPG","That was a dep.","",""
"","image-keyboard-response","25","548896","0.0-6.0-0.6","FL","et4cc4zeqy","1366","768","de","er08an21","null","","","","","","","","learning/Slide7.JPG","null","","","","",""
"","html-keyboard-response","26","550058","0.0-6.0-1.6","FL","et4cc4zeqy","1366","768","de","er08an21","null","","","","learningBlock1","","","","That was a wug.","null","","","","",""
"","html-keyboard-response","27","551063","0.0-6.0-2.6","FL","et4cc4zeqy","1366","768","de","er08an21","null","","","","learningBlock1","","","","<div style=""font-size:60px;""> </div>","null","FL","learning/Slide7.JPG","That was a wug.","",""
"","image-keyboard-response","28","551243","0.0-6.0-0.7","FL","et4cc4zeqy","1366","768","de","er08an21","null","","","","","","","","learning/Slide8.JPG","null","","","","",""
"","html-keyboard-response","29","552404","0.0-6.0-1.7","FL","et4cc4zeqy","1366","768","de","er08an21","null","","","","learningBlock1","","","","That was a bim.","null","","","","",""
"","html-keyboard-response","30","553414","0.0-6.0-2.7","FL","et4cc4zeqy","1366","768","de","er08an21","null","","","","learningBlock1","","","","<div style=""font-size:60px;""> </div>","null","FL","learning/Slide8.JPG","That was a bim.","",""
"","image-keyboard-response","31","553594","0.0-6.0-0.8","FL","et4cc4zeqy","1366","768","de","er08an21","null","","","","","","","","learning/Slide9.JPG","null","","","","",""
"","html-keyboard-response","32","554756","0.0-6.0-1.8","FL","et4cc4zeqy","1366","768","de","er08an21","null","","","","learningBlock1","","","","That was a wug.","null","","","","",""
"","html-keyboard-response","33","555763","0.0-6.0-2.8","FL","et4cc4zeqy","1366","768","de","er08an21","null","","","","learningBlock1","","","","<div style=""font-size:60px;""> </div>","null","FL","learning/Slide9.JPG","That was a wug.","",""
"","image-keyboard-response","34","555944","0.0-6.0-0.9","FL","et4cc4zeqy","1366","768","de","er08an21","null","","","","","","","","learning/Slide10.JPG","null","","","","",""
"","html-keyboard-response","35","557106","0.0-6.0-1.9","FL","et4cc4zeqy","1366","768","de","er08an21","null","","","","learningBlock1","","","","That was a dep.","null","","","","",""
"","html-keyboard-response","36","558108","0.0-6.0-2.9","FL","et4cc4zeqy","1366","768","de","er08an21","null","","","","learningBlock1","","","","<div style=""font-size:60px;""> </div>","null","FL","learning/Slide10.JPG","That was a dep.","",""
"","image-keyboard-response","37","558289","0.0-6.0-0.10","FL","et4cc4zeqy","1366","768","de","er08an21","null","","","","","","","","learning/Slide11.JPG","null","","","","",""
"","html-keyboard-response","38","559451","0.0-6.0-1.10","FL","et4cc4zeqy","1366","768","de","er08an21","null","","","","learningBlock1","","","","That was a tob.","null","","","","",""
"","html-keyboard-response","39","560454","0.0-6.0-2.10","FL","et4cc4zeqy","1366","768","de","er08an21","null","","","","learningBlock1","","","","<div style=""font-size:60px;""> </div>","null","FL","learning/Slide11.JPG","That was a tob.","",""
"","image-keyboard-response","40","560635","0.0-6.0-0.11","FL","et4cc4zeqy","1366","768","de","er08an21","null","","","","","","","","learning/Slide12.JPG","null","","","","",""
"","html-keyboard-response","41","561796","0.0-6.0-1.11","FL","et4cc4zeqy","1366","768","de","er08an21","null","","","","learningBlock1","","","","That was a dep.","null","","","","",""
"","html-keyboard-response","42","562799","0.0-6.0-2.11","FL","et4cc4zeqy","1366","768","de","er08an21","null","","","","learningBlock1","","","","<div style=""font-size:60px;""> </div>","null","FL","learning/Slide12.JPG","That was a dep.","",""
"","image-keyboard-response","43","562980","0.0-6.0-0.12","FL","et4cc4zeqy","1366","768","de","er08an21","null","","","","","","","","learning/Slide13.JPG","null","","","","",""
"","html-keyboard-response","44","564143","0.0-6.0-1.12","FL","et4cc4zeqy","1366","768","de","er08an21","null","","","","learningBlock1","","","","That was a bim.","null","","","","",""
"","html-keyboard-response","45","565146","0.0-6.0-2.12","FL","et4cc4zeqy","1366","768","de","er08an21","null","","","","learningBlock1","","","","<div style=""font-size:60px;""> </div>","null","FL","learning/Slide13.JPG","That was a bim.","",""
"","image-keyboard-response","46","565328","0.0-6.0-0.13","FL","et4cc4zeqy","1366","768","de","er08an21","null","","","","","","","","learning/Slide14.JPG","null","","","","",""
"","html-keyboard-response","47","566491","0.0-6.0-1.13","FL","et4cc4zeqy","1366","768","de","er08an21","null","","","","learningBlock1","","","","That was a wug.","null","","","","",""
"","html-keyboard-response","48","567498","0.0-6.0-2.13","FL","et4cc4zeqy","1366","768","de","er08an21","null","","","","learningBlock1","","","","<div style=""font-size:60px;""> </div>","null","FL","learning/Slide14.JPG","That was a wug.","",""
"","image-keyboard-response","49","567679","0.0-6.0-0.14","FL","et4cc4zeqy","1366","768","de","er08an21","null","","","","","","","","learning/Slide15.JPG","null","","","","",""
"","html-keyboard-response","50","568843","0.0-6.0-1.14","FL","et4cc4zeqy","1366","768","de","er08an21","null","","","","learningBlock1","","","","That was a tob.","null","","","","",""
"","html-keyboard-response","51","569849","0.0-6.0-2.14","FL","et4cc4zeqy","1366","768","de","er08an21","null","","","","learningBlock1","","","","<div style=""font-size:60px;""> </div>","null","FL","learning/Slide15.JPG","That was a tob.","",""
"","image-keyboard-response","52","570030","0.0-6.0-0.15","FL","et4cc4zeqy","1366","768","de","er08an21","null","","","","","","","","learning/Slide16.JPG","null","","","","",""
"","html-keyboard-response","53","571189","0.0-6.0-1.15","FL","et4cc4zeqy","1366","768","de","er08an21","null","","","","learningBlock1","","","","That was a dep.","null","","","","",""
"","html-keyboard-response","54","572197","0.0-6.0-2.15","FL","et4cc4zeqy","1366","768","de","er08an21","null","","","","learningBlock1","","","","<div style=""font-size:60px;""> </div>","null","FL","learning/Slide16.JPG","That was a dep.","",""
"","image-keyboard-response","55","572378","0.0-6.0-0.16","FL","et4cc4zeqy","1366","768","de","er08an21","null","","","","","","","","learning/Slide17.JPG","null","","","","",""
"","html-keyboard-response","56","573543","0.0-6.0-1.16","FL","et4cc4zeqy","1366","768","de","er08an21","null","","","","learningBlock1","","","","That was a bim.","null","","","","",""
"","html-keyboard-response","57","574550","0.0-6.0-2.16","FL","et4cc4zeqy","1366","768","de","er08an21","null","","","","learningBlock1","","","","<div style=""font-size:60px;""> </div>","null","FL","learning/Slide17.JPG","That was a bim.","",""
"","image-keyboard-response","58","574730","0.0-6.0-0.17","FL","et4cc4zeqy","1366","768","de","er08an21","null","","","","","","","","learning/Slide18.JPG","null","","","","",""
"","html-keyboard-response","59","575891","0.0-6.0-1.17","FL","et4cc4zeqy","1366","768","de","er08an21","null","","","","learningBlock1","","","","That was a tob.","null","","","","",""
"","html-keyboard-response","60","576896","0.0-6.0-2.17","FL","et4cc4zeqy","1366","768","de","er08an21","null","","","","learningBlock1","","","","<div style=""font-size:60px;""> </div>","null","FL","learning/Slide18.JPG","That was a tob.","",""
"","image-keyboard-response","61","577079","0.0-6.0-0.18","FL","et4cc4zeqy","1366","768","de","er08an21","null","","","","","","","","learning/Slide19.JPG","null","","","","",""
"","html-keyboard-response","62","578237","0.0-6.0-1.18","FL","et4cc4zeqy","1366","768","de","er08an21","null","","","","learningBlock1","","","","That was a wug.","null","","","","",""
"","html-keyboard-response","63","579245","0.0-6.0-2.18","FL","et4cc4zeqy","1366","768","de","er08an21","null","","","","learningBlock1","","","","<div style=""font-size:60px;""> </div>","null","FL","learning/Slide19.JPG","That was a wug.","",""
"","image-keyboard-response","64","579428","0.0-6.0-0.19","FL","et4cc4zeqy","1366","768","de","er08an21","null","","","","","","","","learning/Slide20.JPG","null","","","","",""
"","html-keyboard-response","65","580586","0.0-6.0-1.19","FL","et4cc4zeqy","1366","768","de","er08an21","null","","","","learningBlock1","","","","That was a bim.","null","","","","",""
"","html-keyboard-response","66","581592","0.0-6.0-2.19","FL","et4cc4zeqy","1366","768","de","er08an21","null","","","","learningBlock1","","","","<div style=""font-size:60px;""> </div>","null","FL","learning/Slide20.JPG","That was a bim.","",""
"","image-keyboard-response","67","581775","0.0-6.0-0.20","FL","et4cc4zeqy","1366","768","de","er08an21","null","","","","","","","","learning/Slide21.JPG","null","","","","",""
"","html-keyboard-response","68","582940","0.0-6.0-1.20","FL","et4cc4zeqy","1366","768","de","er08an21","null","","","","learningBlock1","","","","That was a dep.","null","","","","",""
"","html-keyboard-response","69","583946","0.0-6.0-2.20","FL","et4cc4zeqy","1366","768","de","er08an21","null","","","","learningBlock1","","","","<div style=""font-size:60px;""> </div>","null","FL","learning/Slide21.JPG","That was a dep.","",""
"","image-keyboard-response","70","584127","0.0-6.0-0.21","FL","et4cc4zeqy","1366","768","de","er08an21","null","","","","","","","","learning/Slide22.JPG","null","","","","",""
"","html-keyboard-response","71","585287","0.0-6.0-1.21","FL","et4cc4zeqy","1366","768","de","er08an21","null","","","","learningBlock1","","","","That was a bim.","null","","","","",""
"","html-keyboard-response","72","586293","0.0-6.0-2.21","FL","et4cc4zeqy","1366","768","de","er08an21","null","","","","learningBlock1","","","","<div style=""font-size:60px;""> </div>","null","FL","learning/Slide22.JPG","That was a bim.","",""
"","image-keyboard-response","73","586474","0.0-6.0-0.22","FL","et4cc4zeqy","1366","768","de","er08an21","null","","","","","","","","learning/Slide23.JPG","null","","","","",""
"","html-keyboard-response","74","587633","0.0-6.0-1.22","FL","et4cc4zeqy","1366","768","de","er08an21","null","","","","learningBlock1","","","","That was a tob.","null","","","","",""
"","html-keyboard-response","75","588641","0.0-6.0-2.22","FL","et4cc4zeqy","1366","768","de","er08an21","null","","","","learningBlock1","","","","<div style=""font-size:60px;""> </div>","null","FL","learning/Slide23.JPG","That was a tob.","",""
"","image-keyboard-response","76","588823","0.0-6.0-0.23","FL","et4cc4zeqy","1366","768","de","er08an21","null","","","","","","","","learning/Slide24.JPG","null","","","","",""
"","html-keyboard-response","77","589987","0.0-6.0-1.23","FL","et4cc4zeqy","1366","768","de","er08an21","null","","","","learningBlock1","","","","That was a wug.","null","","","","",""
"","html-keyboard-response","78","590996","0.0-6.0-2.23","FL","et4cc4zeqy","1366","768","de","er08an21","null","","","","learningBlock1","","","","<div style=""font-size:60px;""> </div>","null","FL","learning/Slide24.JPG","That was a wug.","",""
"","image-keyboard-response","79","591177","0.0-6.0-0.24","FL","et4cc4zeqy","1366","768","de","er08an21","null","","","","","","","","learning/Slide25.JPG","null","","","","",""
"","html-keyboard-response","80","592340","0.0-6.0-1.24","FL","et4cc4zeqy","1366","768","de","er08an21","null","","","","learningBlock1","","","","That was a dep.","null","","","","",""
"","html-keyboard-response","81","593346","0.0-6.0-2.24","FL","et4cc4zeqy","1366","768","de","er08an21","null","","","","learningBlock1","","","","<div style=""font-size:60px;""> </div>","null","FL","learning/Slide25.JPG","That was a dep.","",""
"","image-keyboard-response","82","593527","0.0-6.0-0.25","FL","et4cc4zeqy","1366","768","de","er08an21","null","","","","","","","","learning/Slide26.JPG","null","","","","",""
"","html-keyboard-response","83","594693","0.0-6.0-1.25","FL","et4cc4zeqy","1366","768","de","er08an21","null","","","","learningBlock1","","","","That was a wug.","null","","","","",""
"","html-keyboard-response","84","595697","0.0-6.0-2.25","FL","et4cc4zeqy","1366","768","de","er08an21","null","","","","learningBlock1","","","","<div style=""font-size:60px;""> </div>","null","FL","learning/Slide26.JPG","That was a wug.","",""
"","image-keyboard-response","85","595877","0.0-6.0-0.26","FL","et4cc4zeqy","1366","768","de","er08an21","null","","","","","","","","learning/Slide27.JPG","null","","","","",""
"","html-keyboard-response","86","597038","0.0-6.0-1.26","FL","et4cc4zeqy","1366","768","de","er08an21","null","","","","learningBlock1","","","","That was a bim.","null","","","","",""
"","html-keyboard-response","87","598044","0.0-6.0-2.26","FL","et4cc4zeqy","1366","768","de","er08an21","null","","","","learningBlock1","","","","<div style=""font-size:60px;""> </div>","null","FL","learning/Slide27.JPG","That was a bim.","",""
"","image-keyboard-response","88","598225","0.0-6.0-0.27","FL","et4cc4zeqy","1366","768","de","er08an21","null","","","","","","","","learning/Slide28.JPG","null","","","","",""
"","html-keyboard-response","89","599383","0.0-6.0-1.27","FL","et4cc4zeqy","1366","768","de","er08an21","null","","","","learningBlock1","","","","That was a dep.","null","","","","",""
"","html-keyboard-response","90","600390","0.0-6.0-2.27","FL","et4cc4zeqy","1366","768","de","er08an21","null","","","","learningBlock1","","","","<div style=""font-size:60px;""> </div>","null","FL","learning/Slide28.JPG","That was a dep.","",""
"","image-keyboard-response","91","600570","0.0-6.0-0.28","FL","et4cc4zeqy","1366","768","de","er08an21","null","","","","","","","","learning/Slide29.JPG","null","","","","",""
"","html-keyboard-response","92","601735","0.0-6.0-1.28","FL","et4cc4zeqy","1366","768","de","er08an21","null","","","","learningBlock1","","","","That was a tob.","null","","","","",""
"","html-keyboard-response","93","602743","0.0-6.0-2.28","FL","et4cc4zeqy","1366","768","de","er08an21","null","","","","learningBlock1","","","","<div style=""font-size:60px;""> </div>","null","FL","learning/Slide29.JPG","That was a tob.","",""
"","image-keyboard-response","94","602924","0.0-6.0-0.29","FL","et4cc4zeqy","1366","768","de","er08an21","null","","","","","","","","learning/Slide30.JPG","null","","","","",""
"","html-keyboard-response","95","604087","0.0-6.0-1.29","FL","et4cc4zeqy","1366","768","de","er08an21","null","","","","learningBlock1","","","","That was a dep.","null","","","","",""
"","html-keyboard-response","96","605095","0.0-6.0-2.29","FL","et4cc4zeqy","1366","768","de","er08an21","null","","","","learningBlock1","","","","<div style=""font-size:60px;""> </div>","null","FL","learning/Slide30.JPG","That was a dep.","",""
"","image-keyboard-response","97","605277","0.0-6.0-0.30","FL","et4cc4zeqy","1366","768","de","er08an21","null","","","","","","","","learning/Slide31.JPG","null","","","","",""
"","html-keyboard-response","98","606435","0.0-6.0-1.30","FL","et4cc4zeqy","1366","768","de","er08an21","null","","","","learningBlock1","","","","That was a wug.","null","","","","",""
"","html-keyboard-response","99","607442","0.0-6.0-2.30","FL","et4cc4zeqy","1366","768","de","er08an21","null","","","","learningBlock1","","","","<div style=""font-size:60px;""> </div>","null","FL","learning/Slide31.JPG","That was a wug.","",""
"","image-keyboard-response","100","607623","0.0-6.0-0.31","FL","et4cc4zeqy","1366","768","de","er08an21","null","","","","","","","","learning/Slide32.JPG","null","","","","",""
"","html-keyboard-response","101","608789","0.0-6.0-1.31","FL","et4cc4zeqy","1366","768","de","er08an21","null","","","","learningBlock1","","","","That was a tob.","null","","","","",""
"","html-keyboard-response","102","609797","0.0-6.0-2.31","FL","et4cc4zeqy","1366","768","de","er08an21","null","","","","learningBlock1","","","","<div style=""font-size:60px;""> </div>","null","FL","learning/Slide32.JPG","That was a tob.","",""
"","image-keyboard-response","103","609978","0.0-6.0-0.32","FL","et4cc4zeqy","1366","768","de","er08an21","null","","","","","","","","learning/Slide33.JPG","null","","","","",""
"","html-keyboard-response","104","611143","0.0-6.0-1.32","FL","et4cc4zeqy","1366","768","de","er08an21","null","","","","learningBlock1","","","","That was a bim.","null","","","","",""
"","html-keyboard-response","105","612153","0.0-6.0-2.32","FL","et4cc4zeqy","1366","768","de","er08an21","null","","","","learningBlock1","","","","<div style=""font-size:60px;""> </div>","null","FL","learning/Slide33.JPG","That was a bim.","",""
"","image-keyboard-response","106","612334","0.0-6.0-0.33","FL","et4cc4zeqy","1366","768","de","er08an21","null","","","","","","","","learning/Slide34.JPG","null","","","","",""
"","html-keyboard-response","107","613500","0.0-6.0-1.33","FL","et4cc4zeqy","1366","768","de","er08an21","null","","","","learningBlock1","","","","That was a tob.","null","","","","",""
"","html-keyboard-response","108","614509","0.0-6.0-2.33","FL","et4cc4zeqy","1366","768","de","er08an21","null","","","","learningBlock1","","","","<div style=""font-size:60px;""> </div>","null","FL","learning/Slide34.JPG","That was a tob.","",""
"","image-keyboard-response","109","614690","0.0-6.0-0.34","FL","et4cc4zeqy","1366","768","de","er08an21","null","","","","","","","","learning/Slide35.JPG","null","","","","",""
"","html-keyboard-response","110","615847","0.0-6.0-1.34","FL","et4cc4zeqy","1366","768","de","er08an21","null","","","","learningBlock1","","","","That was a bim.","null","","","","",""
"","html-keyboard-response","111","616856","0.0-6.0-2.34","FL","et4cc4zeqy","1366","768","de","er08an21","null","","","","learningBlock1","","","","<div style=""font-size:60px;""> </div>","null","FL","learning/Slide35.JPG","That was a bim.","",""
"","image-keyboard-response","112","617037","0.0-6.0-0.35","FL","et4cc4zeqy","1366","768","de","er08an21","null","","","","","","","","learning/Slide36.JPG","null","","","","",""
"","html-keyboard-response","113","618197","0.0-6.0-1.35","FL","et4cc4zeqy","1366","768","de","er08an21","null","","","","learningBlock1","","","","That was a dep.","null","","","","",""
"","html-keyboard-response","114","619206","0.0-6.0-2.35","FL","et4cc4zeqy","1366","768","de","er08an21","null","","","","learningBlock1","","","","<div style=""font-size:60px;""> </div>","null","FL","learning/Slide36.JPG","That was a dep.","",""
"","image-keyboard-response","115","619388","0.0-6.0-0.36","FL","et4cc4zeqy","1366","768","de","er08an21","null","","","","","","","","learning/Slide37.JPG","null","","","","",""
"","html-keyboard-response","116","620552","0.0-6.0-1.36","FL","et4cc4zeqy","1366","768","de","er08an21","null","","","","learningBlock1","","","","That was a tob.","null","","","","",""
"","html-keyboard-response","117","621561","0.0-6.0-2.36","FL","et4cc4zeqy","1366","768","de","er08an21","null","","","","learningBlock1","","","","<div style=""font-size:60px;""> </div>","null","FL","learning/Slide37.JPG","That was a tob.","",""
"","image-keyboard-response","118","621741","0.0-6.0-0.37","FL","et4cc4zeqy","1366","768","de","er08an21","null","","","","","","","","learning/Slide38.JPG","null","","","","",""
"","html-keyboard-response","119","622904","0.0-6.0-1.37","FL","et4cc4zeqy","1366","768","de","er08an21","null","","","","learningBlock1","","","","That was a wug.","null","","","","",""
"","html-keyboard-response","120","623913","0.0-6.0-2.37","FL","et4cc4zeqy","1366","768","de","er08an21","null","","","","learningBlock1","","","","<div style=""font-size:60px;""> </div>","null","FL","learning/Slide38.JPG","That was a wug.","",""
"","image-keyboard-response","121","624094","0.0-6.0-0.38","FL","et4cc4zeqy","1366","768","de","er08an21","null","","","","","","","","learning/Slide39.JPG","null","","","","",""
"","html-keyboard-response","122","625261","0.0-6.0-1.38","FL","et4cc4zeqy","1366","768","de","er08an21","null","","","","learningBlock1","","","","That was a bim.","null","","","","",""
"","html-keyboard-response","123","626269","0.0-6.0-2.38","FL","et4cc4zeqy","1366","768","de","er08an21","null","","","","learningBlock1","","","","<div style=""font-size:60px;""> </div>","null","FL","learning/Slide39.JPG","That was a bim.","",""
"","image-keyboard-response","124","626451","0.0-6.0-0.39","FL","et4cc4zeqy","1366","768","de","er08an21","null","","","","","","","","learning/Slide40.JPG","null","","","","",""
"","html-keyboard-response","125","627617","0.0-6.0-1.39","FL","et4cc4zeqy","1366","768","de","er08an21","null","","","","learningBlock1","","","","That was a tob.","null","","","","",""
"","html-keyboard-response","126","628625","0.0-6.0-2.39","FL","et4cc4zeqy","1366","768","de","er08an21","null","","","","learningBlock1","","","","<div style=""font-size:60px;""> </div>","null","FL","learning/Slide40.JPG","That was a tob.","",""
"","image-keyboard-response","127","628807","0.0-6.0-0.40","FL","et4cc4zeqy","1366","768","de","er08an21","null","","","","","","","","learning/Slide41.JPG","null","","","","",""
"","html-keyboard-response","128","629969","0.0-6.0-1.40","FL","et4cc4zeqy","1366","768","de","er08an21","null","","","","learningBlock1","","","","That was a bim.","null","","","","",""
"","html-keyboard-response","129","630975","0.0-6.0-2.40","FL","et4cc4zeqy","1366","768","de","er08an21","null","","","","learningBlock1","","","","<div style=""font-size:60px;""> </div>","null","FL","learning/Slide41.JPG","That was a bim.","",""
"","image-keyboard-response","130","631157","0.0-6.0-0.41","FL","et4cc4zeqy","1366","768","de","er08an21","null","","","","","","","","learning/Slide42.JPG","null","","","","",""
"","html-keyboard-response","131","632323","0.0-6.0-1.41","FL","et4cc4zeqy","1366","768","de","er08an21","null","","","","learningBlock1","","","","That was a dep.","null","","","","",""
"","html-keyboard-response","132","633331","0.0-6.0-2.41","FL","et4cc4zeqy","1366","768","de","er08an21","null","","","","learningBlock1","","","","<div style=""font-size:60px;""> </div>","null","FL","learning/Slide42.JPG","That was a dep.","",""
"","image-keyboard-response","133","633512","0.0-6.0-0.42","FL","et4cc4zeqy","1366","768","de","er08an21","null","","","","","","","","learning/Slide43.JPG","null","","","","",""
"","html-keyboard-response","134","634674","0.0-6.0-1.42","FL","et4cc4zeqy","1366","768","de","er08an21","null","","","","learningBlock1","","","","That was a wug.","null","","","","",""
"","html-keyboard-response","135","635682","0.0-6.0-2.42","FL","et4cc4zeqy","1366","768","de","er08an21","null","","","","learningBlock1","","","","<div style=""font-size:60px;""> </div>","null","FL","learning/Slide43.JPG","That was a wug.","",""
"","image-keyboard-response","136","635863","0.0-6.0-0.43","FL","et4cc4zeqy","1366","768","de","er08an21","null","","","","","","","","learning/Slide44.JPG","null","","","","",""
"","html-keyboard-response","137","637024","0.0-6.0-1.43","FL","et4cc4zeqy","1366","768","de","er08an21","null","","","","learningBlock1","","","","That was a bim.","null","","","","",""
"","html-keyboard-response","138","638027","0.0-6.0-2.43","FL","et4cc4zeqy","1366","768","de","er08an21","null","","","","learningBlock1","","","","<div style=""font-size:60px;""> </div>","null","FL","learning/Slide44.JPG","That was a bim.","",""
"","image-keyboard-response","139","638209","0.0-6.0-0.44","FL","et4cc4zeqy","1366","768","de","er08an21","null","","","","","","","","learning/Slide45.JPG","null","","","","",""
"","html-keyboard-response","140","639370","0.0-6.0-1.44","FL","et4cc4zeqy","1366","768","de","er08an21","null","","","","learningBlock1","","","","That was a wug.","null","","","","",""
"","html-keyboard-response","141","640376","0.0-6.0-2.44","FL","et4cc4zeqy","1366","768","de","er08an21","null","","","","learningBlock1","","","","<div style=""font-size:60px;""> </div>","null","FL","learning/Slide45.JPG","That was a wug.","",""
"","image-keyboard-response","142","640557","0.0-6.0-0.45","FL","et4cc4zeqy","1366","768","de","er08an21","null","","","","","","","","learning/Slide46.JPG","null","","","","",""
"","html-keyboard-response","143","641720","0.0-6.0-1.45","FL","et4cc4zeqy","1366","768","de","er08an21","null","","","","learningBlock1","","","","That was a dep.","null","","","","",""
"","html-keyboard-response","144","642724","0.0-6.0-2.45","FL","et4cc4zeqy","1366","768","de","er08an21","null","","","","learningBlock1","","","","<div style=""font-size:60px;""> </div>","null","FL","learning/Slide46.JPG","That was a dep.","",""
"","image-keyboard-response","145","642906","0.0-6.0-0.46","FL","et4cc4zeqy","1366","768","de","er08an21","null","","","","","","","","learning/Slide47.JPG","null","","","","",""
"","html-keyboard-response","146","644068","0.0-6.0-1.46","FL","et4cc4zeqy","1366","768","de","er08an21","null","","","","learningBlock1","","","","That was a tob.","null","","","","",""
"","html-keyboard-response","147","645077","0.0-6.0-2.46","FL","et4cc4zeqy","1366","768","de","er08an21","null","","","","learningBlock1","","","","<div style=""font-size:60px;""> </div>","null","FL","learning/Slide47.JPG","That was a tob.","",""
"","image-keyboard-response","148","645259","0.0-6.0-0.47","FL","et4cc4zeqy","1366","768","de","er08an21","null","","","","","","","","learning/Slide48.JPG","null","","","","",""
"","html-keyboard-response","149","646422","0.0-6.0-1.47","FL","et4cc4zeqy","1366","768","de","er08an21","null","","","","learningBlock1","","","","That was a bim.","null","","","","",""
"","html-keyboard-response","150","647424","0.0-6.0-2.47","FL","et4cc4zeqy","1366","768","de","er08an21","null","","","","learningBlock1","","","","<div style=""font-size:60px;""> </div>","null","FL","learning/Slide48.JPG","That was a bim.","",""
"","image-keyboard-response","151","647607","0.0-6.0-0.48","FL","et4cc4zeqy","1366","768","de","er08an21","null","","","","","","","","learning/Slide49.JPG","null","","","","",""
"","html-keyboard-response","152","648764","0.0-6.0-1.48","FL","et4cc4zeqy","1366","768","de","er08an21","null","","","","learningBlock1","","","","That was a dep.","null","","","","",""
"","html-keyboard-response","153","649771","0.0-6.0-2.48","FL","et4cc4zeqy","1366","768","de","er08an21","null","","","","learningBlock1","","","","<div style=""font-size:60px;""> </div>","null","FL","learning/Slide49.JPG","That was a dep.","",""
"","image-keyboard-response","154","649952","0.0-6.0-0.49","FL","et4cc4zeqy","1366","768","de","er08an21","null","","","","","","","","learning/Slide50.JPG","null","","","","",""
"","html-keyboard-response","155","651111","0.0-6.0-1.49","FL","et4cc4zeqy","1366","768","de","er08an21","null","","","","learningBlock1","","","","That was a tob.","null","","","","",""
"","html-keyboard-response","156","652120","0.0-6.0-2.49","FL","et4cc4zeqy","1366","768","de","er08an21","null","","","","learningBlock1","","","","<div style=""font-size:60px;""> </div>","null","FL","learning/Slide50.JPG","That was a tob.","",""
"","image-keyboard-response","157","652301","0.0-6.0-0.50","FL","et4cc4zeqy","1366","768","de","er08an21","null","","","","","","","","learning/Slide51.JPG","null","","","","",""
"","html-keyboard-response","158","653468","0.0-6.0-1.50","FL","et4cc4zeqy","1366","768","de","er08an21","null","","","","learningBlock1","","","","That was a bim.","null","","","","",""
"","html-keyboard-response","159","654476","0.0-6.0-2.50","FL","et4cc4zeqy","1366","768","de","er08an21","null","","","","learningBlock1","","","","<div style=""font-size:60px;""> </div>","null","FL","learning/Slide51.JPG","That was a bim.","",""
"","image-keyboard-response","160","654656","0.0-6.0-0.51","FL","et4cc4zeqy","1366","768","de","er08an21","null","","","","","","","","learning/Slide52.JPG","null","","","","",""
"","html-keyboard-response","161","655821","0.0-6.0-1.51","FL","et4cc4zeqy","1366","768","de","er08an21","null","","","","learningBlock1","","","","That was a wug.","null","","","","",""
"","html-keyboard-response","162","656830","0.0-6.0-2.51","FL","et4cc4zeqy","1366","768","de","er08an21","null","","","","learningBlock1","","","","<div style=""font-size:60px;""> </div>","null","FL","learning/Slide52.JPG","That was a wug.","",""
"","image-keyboard-response","163","657012","0.0-6.0-0.52","FL","et4cc4zeqy","1366","768","de","er08an21","null","","","","","","","","learning/Slide53.JPG","null","","","","",""
"","html-keyboard-response","164","658174","0.0-6.0-1.52","FL","et4cc4zeqy","1366","768","de","er08an21","null","","","","learningBlock1","","","","That was a tob.","null","","","","",""
"","html-keyboard-response","165","659183","0.0-6.0-2.52","FL","et4cc4zeqy","1366","768","de","er08an21","null","","","","learningBlock1","","","","<div style=""font-size:60px;""> </div>","null","FL","learning/Slide53.JPG","That was a tob.","",""
"","image-keyboard-response","166","659365","0.0-6.0-0.53","FL","et4cc4zeqy","1366","768","de","er08an21","null","","","","","","","","learning/Slide54.JPG","null","","","","",""
"","html-keyboard-response","167","660529","0.0-6.0-1.53","FL","et4cc4zeqy","1366","768","de","er08an21","null","","","","learningBlock1","","","","That was a dep.","null","","","","",""
"","html-keyboard-response","168","661535","0.0-6.0-2.53","FL","et4cc4zeqy","1366","768","de","er08an21","null","","","","learningBlock1","","","","<div style=""font-size:60px;""> </div>","null","FL","learning/Slide54.JPG","That was a dep.","",""
"","image-keyboard-response","169","661716","0.0-6.0-0.54","FL","et4cc4zeqy","1366","768","de","er08an21","null","","","","","","","","learning/Slide55.JPG","null","","","","",""
"","html-keyboard-response","170","662880","0.0-6.0-1.54","FL","et4cc4zeqy","1366","768","de","er08an21","null","","","","learningBlock1","","","","That was a bim.","null","","","","",""
"","html-keyboard-response","171","663883","0.0-6.0-2.54","FL","et4cc4zeqy","1366","768","de","er08an21","null","","","","learningBlock1","","","","<div style=""font-size:60px;""> </div>","null","FL","learning/Slide55.JPG","That was a bim.","",""
"","image-keyboard-response","172","664063","0.0-6.0-0.55","FL","et4cc4zeqy","1366","768","de","er08an21","null","","","","","","","","learning/Slide56.JPG","null","","","","",""
"","html-keyboard-response","173","665225","0.0-6.0-1.55","FL","et4cc4zeqy","1366","768","de","er08an21","null","","","","learningBlock1","","","","That was a tob.","null","","","","",""
"","html-keyboard-response","174","666233","0.0-6.0-2.55","FL","et4cc4zeqy","1366","768","de","er08an21","null","","","","learningBlock1","","","","<div style=""font-size:60px;""> </div>","null","FL","learning/Slide56.JPG","That was a tob.","",""
"","image-keyboard-response","175","666413","0.0-6.0-0.56","FL","et4cc4zeqy","1366","768","de","er08an21","null","","","","","","","","learning/Slide57.JPG","null","","","","",""
"","html-keyboard-response","176","667577","0.0-6.0-1.56","FL","et4cc4zeqy","1366","768","de","er08an21","null","","","","learningBlock1","","","","That was a dep.","null","","","","",""
"","html-keyboard-response","177","668583","0.0-6.0-2.56","FL","et4cc4zeqy","1366","768","de","er08an21","null","","","","learningBlock1","","","","<div style=""font-size:60px;""> </div>","null","FL","learning/Slide57.JPG","That was a dep.","",""
"","image-keyboard-response","178","668764","0.0-6.0-0.57","FL","et4cc4zeqy","1366","768","de","er08an21","null","","","","","","","","learning/Slide58.JPG","null","","","","",""
"","html-keyboard-response","179","669929","0.0-6.0-1.57","FL","et4cc4zeqy","1366","768","de","er08an21","null","","","","learningBlock1","","","","That was a wug.","null","","","","",""
"","html-keyboard-response","180","670934","0.0-6.0-2.57","FL","et4cc4zeqy","1366","768","de","er08an21","null","","","","learningBlock1","","","","<div style=""font-size:60px;""> </div>","null","FL","learning/Slide58.JPG","That was a wug.","",""
"","image-keyboard-response","181","671115","0.0-6.0-0.58","FL","et4cc4zeqy","1366","768","de","er08an21","null","","","","","","","","learning/Slide59.JPG","null","","","","",""
"","html-keyboard-response","182","672280","0.0-6.0-1.58","FL","et4cc4zeqy","1366","768","de","er08an21","null","","","","learningBlock1","","","","That was a dep.","null","","","","",""
"","html-keyboard-response","183","673290","0.0-6.0-2.58","FL","et4cc4zeqy","1366","768","de","er08an21","null","","","","learningBlock1","","","","<div style=""font-size:60px;""> </div>","null","FL","learning/Slide59.JPG","That was a dep.","",""
"","image-keyboard-response","184","673471","0.0-6.0-0.59","FL","et4cc4zeqy","1366","768","de","er08an21","null","","","","","","","","learning/Slide60.JPG","null","","","","",""
"","html-keyboard-response","185","674633","0.0-6.0-1.59","FL","et4cc4zeqy","1366","768","de","er08an21","null","","","","learningBlock1","","","","That was a wug.","null","","","","",""
"","html-keyboard-response","186","675639","0.0-6.0-2.59","FL","et4cc4zeqy","1366","768","de","er08an21","null","","","","learningBlock1","","","","<div style=""font-size:60px;""> </div>","null","FL","learning/Slide60.JPG","That was a wug.","",""
"","image-keyboard-response","187","675820","0.0-6.0-0.60","FL","et4cc4zeqy","1366","768","de","er08an21","null","","","","","","","","learning/Slide61.JPG","null","","","","",""
"","html-keyboard-response","188","676985","0.0-6.0-1.60","FL","et4cc4zeqy","1366","768","de","er08an21","null","","","","learningBlock1","","","","That was a bim.","null","","","","",""
"","html-keyboard-response","189","677992","0.0-6.0-2.60","FL","et4cc4zeqy","1366","768","de","er08an21","null","","","","learningBlock1","","","","<div style=""font-size:60px;""> </div>","null","FL","learning/Slide61.JPG","That was a bim.","",""
"","image-keyboard-response","190","678173","0.0-6.0-0.61","FL","et4cc4zeqy","1366","768","de","er08an21","null","","","","","","","","learning/Slide62.JPG","null","","","","",""
"","html-keyboard-response","191","679338","0.0-6.0-1.61","FL","et4cc4zeqy","1366","768","de","er08an21","null","","","","learningBlock1","","","","That was a dep.","null","","","","",""
"","html-keyboard-response","192","680348","0.0-6.0-2.61","FL","et4cc4zeqy","1366","768","de","er08an21","null","","","","learningBlock1","","","","<div style=""font-size:60px;""> </div>","null","FL","learning/Slide62.JPG","That was a dep.","",""
"","image-keyboard-response","193","680528","0.0-6.0-0.62","FL","et4cc4zeqy","1366","768","de","er08an21","null","","","","","","","","learning/Slide63.JPG","null","","","","",""
"","html-keyboard-response","194","681692","0.0-6.0-1.62","FL","et4cc4zeqy","1366","768","de","er08an21","null","","","","learningBlock1","","","","That was a bim.","null","","","","",""
"","html-keyboard-response","195","682699","0.0-6.0-2.62","FL","et4cc4zeqy","1366","768","de","er08an21","null","","","","learningBlock1","","","","<div style=""font-size:60px;""> </div>","null","FL","learning/Slide63.JPG","That was a bim.","",""
"","image-keyboard-response","196","682880","0.0-6.0-0.63","FL","et4cc4zeqy","1366","768","de","er08an21","null","","","","","","","","learning/Slide64.JPG","null","","","","",""
"","html-keyboard-response","197","684038","0.0-6.0-1.63","FL","et4cc4zeqy","1366","768","de","er08an21","null","","","","learningBlock1","","","","That was a tob.","null","","","","",""
"","html-keyboard-response","198","685042","0.0-6.0-2.63","FL","et4cc4zeqy","1366","768","de","er08an21","null","","","","learningBlock1","","","","<div style=""font-size:60px;""> </div>","null","FL","learning/Slide64.JPG","That was a tob.","",""
"","image-keyboard-response","199","685223","0.0-6.0-0.64","FL","et4cc4zeqy","1366","768","de","er08an21","null","","","","","","","","learning/Slide65.JPG","null","","","","",""
"","html-keyboard-response","200","686387","0.0-6.0-1.64","FL","et4cc4zeqy","1366","768","de","er08an21","null","","","","learningBlock1","","","","That was a wug.","null","","","","",""
"","html-keyboard-response","201","687396","0.0-6.0-2.64","FL","et4cc4zeqy","1366","768","de","er08an21","null","","","","learningBlock1","","","","<div style=""font-size:60px;""> </div>","null","FL","learning/Slide65.JPG","That was a wug.","",""
"","image-keyboard-response","202","687576","0.0-6.0-0.65","FL","et4cc4zeqy","1366","768","de","er08an21","null","","","","","","","","learning/Slide66.JPG","null","","","","",""
"","html-keyboard-response","203","688738","0.0-6.0-1.65","FL","et4cc4zeqy","1366","768","de","er08an21","null","","","","learningBlock1","","","","That was a dep.","null","","","","",""
"","html-keyboard-response","204","689746","0.0-6.0-2.65","FL","et4cc4zeqy","1366","768","de","er08an21","null","","","","learningBlock1","","","","<div style=""font-size:60px;""> </div>","null","FL","learning/Slide66.JPG","That was a dep.","",""
"","image-keyboard-response","205","689928","0.0-6.0-0.66","FL","et4cc4zeqy","1366","768","de","er08an21","null","","","","","","","","learning/Slide67.JPG","null","","","","",""
"","html-keyboard-response","206","691088","0.0-6.0-1.66","FL","et4cc4zeqy","1366","768","de","er08an21","null","","","","learningBlock1","","","","That was a tob.","null","","","","",""
"","html-keyboard-response","207","692094","0.0-6.0-2.66","FL","et4cc4zeqy","1366","768","de","er08an21","null","","","","learningBlock1","","","","<div style=""font-size:60px;""> </div>","null","FL","learning/Slide67.JPG","That was a tob.","",""
"","image-keyboard-response","208","692274","0.0-6.0-0.67","FL","et4cc4zeqy","1366","768","de","er08an21","null","","","","","","","","learning/Slide68.JPG","null","","","","",""
"","html-keyboard-response","209","693439","0.0-6.0-1.67","FL","et4cc4zeqy","1366","768","de","er08an21","null","","","","learningBlock1","","","","That was a wug.","null","","","","",""
"","html-keyboard-response","210","694443","0.0-6.0-2.67","FL","et4cc4zeqy","1366","768","de","er08an21","null","","","","learningBlock1","","","","<div style=""font-size:60px;""> </div>","null","FL","learning/Slide68.JPG","That was a wug.","",""
"","image-keyboard-response","211","694625","0.0-6.0-0.68","FL","et4cc4zeqy","1366","768","de","er08an21","null","","","","","","","","learning/Slide69.JPG","null","","","","",""
"","html-keyboard-response","212","695789","0.0-6.0-1.68","FL","et4cc4zeqy","1366","768","de","er08an21","null","","","","learningBlock1","","","","That was a tob.","null","","","","",""
"","html-keyboard-response","213","696796","0.0-6.0-2.68","FL","et4cc4zeqy","1366","768","de","er08an21","null","","","","learningBlock1","","","","<div style=""font-size:60px;""> </div>","null","FL","learning/Slide69.JPG","That was a tob.","",""
"","image-keyboard-response","214","696976","0.0-6.0-0.69","FL","et4cc4zeqy","1366","768","de","er08an21","null","","","","","","","","learning/Slide70.JPG","null","","","","",""
"","html-keyboard-response","215","698139","0.0-6.0-1.69","FL","et4cc4zeqy","1366","768","de","er08an21","null","","","","learningBlock1","","","","That was a dep.","null","","","","",""
"","html-keyboard-response","216","699143","0.0-6.0-2.69","FL","et4cc4zeqy","1366","768","de","er08an21","null","","","","learningBlock1","","","","<div style=""font-size:60px;""> </div>","null","FL","learning/Slide70.JPG","That was a dep.","",""
"","image-keyboard-response","217","699324","0.0-6.0-0.70","FL","et4cc4zeqy","1366","768","de","er08an21","null","","","","","","","","learning/Slide71.JPG","null","","","","",""
"","html-keyboard-response","218","700488","0.0-6.0-1.70","FL","et4cc4zeqy","1366","768","de","er08an21","null","","","","learningBlock1","","","","That was a wug.","null","","","","",""
"","html-keyboard-response","219","701494","0.0-6.0-2.70","FL","et4cc4zeqy","1366","768","de","er08an21","null","","","","learningBlock1","","","","<div style=""font-size:60px;""> </div>","null","FL","learning/Slide71.JPG","That was a wug.","",""
"","image-keyboard-response","220","701675","0.0-6.0-0.71","FL","et4cc4zeqy","1366","768","de","er08an21","null","","","","","","","","learning/Slide72.JPG","null","","","","",""
"","html-keyboard-response","221","702836","0.0-6.0-1.71","FL","et4cc4zeqy","1366","768","de","er08an21","null","","","","learningBlock1","","","","That was a bim.","null","","","","",""
"","html-keyboard-response","222","703846","0.0-6.0-2.71","FL","et4cc4zeqy","1366","768","de","er08an21","null","","","","learningBlock1","","","","<div style=""font-size:60px;""> </div>","null","FL","learning/Slide72.JPG","That was a bim.","",""
"","image-keyboard-response","223","704027","0.0-6.0-0.72","FL","et4cc4zeqy","1366","768","de","er08an21","null","","","","","","","","learning/Slide73.JPG","null","","","","",""
"","html-keyboard-response","224","705188","0.0-6.0-1.72","FL","et4cc4zeqy","1366","768","de","er08an21","null","","","","learningBlock1","","","","That was a wug.","null","","","","",""
"","html-keyboard-response","225","706193","0.0-6.0-2.72","FL","et4cc4zeqy","1366","768","de","er08an21","null","","","","learningBlock1","","","","<div style=""font-size:60px;""> </div>","null","FL","learning/Slide73.JPG","That was a wug.","",""
"","image-keyboard-response","226","706374","0.0-6.0-0.73","FL","et4cc4zeqy","1366","768","de","er08an21","null","","","","","","","","learning/Slide74.JPG","null","","","","",""
"","html-keyboard-response","227","707536","0.0-6.0-1.73","FL","et4cc4zeqy","1366","768","de","er08an21","null","","","","learningBlock1","","","","That was a dep.","null","","","","",""
"","html-keyboard-response","228","708542","0.0-6.0-2.73","FL","et4cc4zeqy","1366","768","de","er08an21","null","","","","learningBlock1","","","","<div style=""font-size:60px;""> </div>","null","FL","learning/Slide74.JPG","That was a dep.","",""
"","image-keyboard-response","229","708722","0.0-6.0-0.74","FL","et4cc4zeqy","1366","768","de","er08an21","null","","","","","","","","learning/Slide75.JPG","null","","","","",""
"","html-keyboard-response","230","709883","0.0-6.0-1.74","FL","et4cc4zeqy","1366","768","de","er08an21","null","","","","learningBlock1","","","","That was a tob.","null","","","","",""
"","html-keyboard-response","231","710887","0.0-6.0-2.74","FL","et4cc4zeqy","1366","768","de","er08an21","null","","","","learningBlock1","","","","<div style=""font-size:60px;""> </div>","null","FL","learning/Slide75.JPG","That was a tob.","",""
"","image-keyboard-response","232","711069","0.0-6.0-0.75","FL","et4cc4zeqy","1366","768","de","er08an21","null","","","","","","","","learning/Slide76.JPG","null","","","","",""
"","html-keyboard-response","233","712231","0.0-6.0-1.75","FL","et4cc4zeqy","1366","768","de","er08an21","null","","","","learningBlock1","","","","That was a bim.","null","","","","",""
"","html-keyboard-response","234","713235","0.0-6.0-2.75","FL","et4cc4zeqy","1366","768","de","er08an21","null","","","","learningBlock1","","","","<div style=""font-size:60px;""> </div>","null","FL","learning/Slide76.JPG","That was a bim.","",""
"","image-keyboard-response","235","713415","0.0-6.0-0.76","FL","et4cc4zeqy","1366","768","de","er08an21","null","","","","","","","","learning/Slide77.JPG","null","","","","",""
"","html-keyboard-response","236","714573","0.0-6.0-1.76","FL","et4cc4zeqy","1366","768","de","er08an21","null","","","","learningBlock1","","","","That was a tob.","null","","","","",""
"","html-keyboard-response","237","715579","0.0-6.0-2.76","FL","et4cc4zeqy","1366","768","de","er08an21","null","","","","learningBlock1","","","","<div style=""font-size:60px;""> </div>","null","FL","learning/Slide77.JPG","That was a tob.","",""
"","image-keyboard-response","238","715761","0.0-6.0-0.77","FL","et4cc4zeqy","1366","768","de","er08an21","null","","","","","","","","learning/Slide78.JPG","null","","","","",""
"","html-keyboard-response","239","716923","0.0-6.0-1.77","FL","et4cc4zeqy","1366","768","de","er08an21","null","","","","learningBlock1","","","","That was a wug.","null","","","","",""
"","html-keyboard-response","240","717925","0.0-6.0-2.77","FL","et4cc4zeqy","1366","768","de","er08an21","null","","","","learningBlock1","","","","<div style=""font-size:60px;""> </div>","null","FL","learning/Slide78.JPG","That was a wug.","",""
"","image-keyboard-response","241","718106","0.0-6.0-0.78","FL","et4cc4zeqy","1366","768","de","er08an21","null","","","","","","","","learning/Slide79.JPG","null","","","","",""
"","html-keyboard-response","242","719264","0.0-6.0-1.78","FL","et4cc4zeqy","1366","768","de","er08an21","null","","","","learningBlock1","","","","That was a bim.","null","","","","",""
"","html-keyboard-response","243","720273","0.0-6.0-2.78","FL","et4cc4zeqy","1366","768","de","er08an21","null","","","","learningBlock1","","","","<div style=""font-size:60px;""> </div>","null","FL","learning/Slide79.JPG","That was a bim.","",""
"","image-keyboard-response","244","720455","0.0-6.0-0.79","FL","et4cc4zeqy","1366","768","de","er08an21","null","","","","","","","","learning/Slide80.JPG","null","","","","",""
"","html-keyboard-response","245","721619","0.0-6.0-1.79","FL","et4cc4zeqy","1366","768","de","er08an21","null","","","","learningBlock1","","","","That was a tob.","null","","","","",""
"","html-keyboard-response","246","722625","0.0-6.0-2.79","FL","et4cc4zeqy","1366","768","de","er08an21","null","","","","learningBlock1","","","","<div style=""font-size:60px;""> </div>","null","FL","learning/Slide80.JPG","That was a tob.","",""
"","instructions","247","1497822","0.0-7.0","FL","et4cc4zeqy","1366","768","de","er08an21","NA","","","[{""page_index"":0,""viewing_time"":775202.7549999766}]","instructions","","","","","","","","","",""
"","image-keyboard-response","248","1498002","0.0-8.0-0.0","FL","et4cc4zeqy","1366","768","de","er08an21","null","","","","","","","","learning/Slide81.JPG","null","","","","",""
"","html-keyboard-response","249","1499169","0.0-8.0-1.0","FL","et4cc4zeqy","1366","768","de","er08an21","null","","","","learningBlock2","","","","That was a wug.","null","","","","",""
"","html-keyboard-response","250","1500173","0.0-8.0-2.0","FL","et4cc4zeqy","1366","768","de","er08an21","null","","","","learningBlock2","","","","<div style=""font-size:60px;""> </div>","null","FL","learning/Slide81.JPG","That was a wug.","",""
"","image-keyboard-response","251","1500354","0.0-8.0-0.1","FL","et4cc4zeqy","1366","768","de","er08an21","null","","","","","","","","learning/Slide82.JPG","null","","","","",""
"","html-keyboard-response","252","1501512","0.0-8.0-1.1","FL","et4cc4zeqy","1366","768","de","er08an21","null","","","","learningBlock2","","","","That was a bim.","null","","","","",""
"","html-keyboard-response","253","1502523","0.0-8.0-2.1","FL","et4cc4zeqy","1366","768","de","er08an21","null","","","","learningBlock2","","","","<div style=""font-size:60px;""> </div>","null","FL","learning/Slide82.JPG","That was a bim.","",""
"","image-keyboard-response","254","1502704","0.0-8.0-0.2","FL","et4cc4zeqy","1366","768","de","er08an21","null","","","","","","","","learning/Slide83.JPG","null","","","","",""
"","html-keyboard-response","255","1503866","0.0-8.0-1.2","FL","et4cc4zeqy","1366","768","de","er08an21","null","","","","learningBlock2","","","","That was a wug.","null","","","","",""
"","html-keyboard-response","256","1504872","0.0-8.0-2.2","FL","et4cc4zeqy","1366","768","de","er08an21","null","","","","learningBlock2","","","","<div style=""font-size:60px;""> </div>","null","FL","learning/Slide83.JPG","That was a wug.","",""
"","image-keyboard-response","257","1505061","0.0-8.0-0.3","FL","et4cc4zeqy","1366","768","de","er08an21","null","","","","","","","","learning/Slide84.JPG","null","","","","",""
"","html-keyboard-response","258","1506223","0.0-8.0-1.3","FL","et4cc4zeqy","1366","768","de","er08an21","null","","","","learningBlock2","","","","That was a dep.","null","","","","",""
"","html-keyboard-response","259","1507227","0.0-8.0-2.3","FL","et4cc4zeqy","1366","768","de","er08an21","null","","","","learningBlock2","","","","<div style=""font-size:60px;""> </div>","null","FL","learning/Slide84.JPG","That was a dep.","",""
"","image-keyboard-response","260","1507408","0.0-8.0-0.4","FL","et4cc4zeqy","1366","768","de","er08an21","null","","","","","","","","learning/Slide85.JPG","null","","","","",""
"","html-keyboard-response","261","1508566","0.0-8.0-1.4","FL","et4cc4zeqy","1366","768","de","er08an21","null","","","","learningBlock2","","","","That was a bim.","null","","","","",""
"","html-keyboard-response","262","1509569","0.0-8.0-2.4","FL","et4cc4zeqy","1366","768","de","er08an21","null","","","","learningBlock2","","","","<div style=""font-size:60px;""> </div>","null","FL","learning/Slide85.JPG","That was a bim.","",""
"","image-keyboard-response","263","1509750","0.0-8.0-0.5","FL","et4cc4zeqy","1366","768","de","er08an21","null","","","","","","","","learning/Slide86.JPG","null","","","","",""
"","html-keyboard-response","264","1510912","0.0-8.0-1.5","FL","et4cc4zeqy","1366","768","de","er08an21","null","","","","learningBlock2","","","","That was a tob.","null","","","","",""
"","html-keyboard-response","265","1511914","0.0-8.0-2.5","FL","et4cc4zeqy","1366","768","de","er08an21","null","","","","learningBlock2","","","","<div style=""font-size:60px;""> </div>","null","FL","learning/Slide86.JPG","That was a tob.","",""
"","image-keyboard-response","266","1512094","0.0-8.0-0.6","FL","et4cc4zeqy","1366","768","de","er08an21","null","","","","","","","","learning/Slide87.JPG","null","","","","",""
"","html-keyboard-response","267","1513255","0.0-8.0-1.6","FL","et4cc4zeqy","1366","768","de","er08an21","null","","","","learningBlock2","","","","That was a wug.","null","","","","",""
"","html-keyboard-response","268","1514259","0.0-8.0-2.6","FL","et4cc4zeqy","1366","768","de","er08an21","null","","","","learningBlock2","","","","<div style=""font-size:60px;""> </div>","null","FL","learning/Slide87.JPG","That was a wug.","",""
"","image-keyboard-response","269","1514440","0.0-8.0-0.7","FL","et4cc4zeqy","1366","768","de","er08an21","null","","","","","","","","learning/Slide88.JPG","null","","","","",""
"","html-keyboard-response","270","1515605","0.0-8.0-1.7","FL","et4cc4zeqy","1366","768","de","er08an21","null","","","","learningBlock2","","","","That was a tob.","null","","","","",""
"","html-keyboard-response","271","1516611","0.0-8.0-2.7","FL","et4cc4zeqy","1366","768","de","er08an21","null","","","","learningBlock2","","","","<div style=""font-size:60px;""> </div>","null","FL","learning/Slide88.JPG","That was a tob.","",""
"","image-keyboard-response","272","1516791","0.0-8.0-0.8","FL","et4cc4zeqy","1366","768","de","er08an21","null","","","","","","","","learning/Slide89.JPG","null","","","","",""
"","html-keyboard-response","273","1517949","0.0-8.0-1.8","FL","et4cc4zeqy","1366","768","de","er08an21","null","","","","learningBlock2","","","","That was a bim.","null","","","","",""
"","html-keyboard-response","274","1518954","0.0-8.0-2.8","FL","et4cc4zeqy","1366","768","de","er08an21","null","","","","learningBlock2","","","","<div style=""font-size:60px;""> </div>","null","FL","learning/Slide89.JPG","That was a bim.","",""
"","image-keyboard-response","275","1519134","0.0-8.0-0.9","FL","et4cc4zeqy","1366","768","de","er08an21","null","","","","","","","","learning/Slide90.JPG","null","","","","",""
"","html-keyboard-response","276","1520294","0.0-8.0-1.9","FL","et4cc4zeqy","1366","768","de","er08an21","null","","","","learningBlock2","","","","That was a dep.","null","","","","",""
"","html-keyboard-response","277","1521299","0.0-8.0-2.9","FL","et4cc4zeqy","1366","768","de","er08an21","null","","","","learningBlock2","","","","<div style=""font-size:60px;""> </div>","null","FL","learning/Slide90.JPG","That was a dep.","",""
"","image-keyboard-response","278","1521480","0.0-8.0-0.10","FL","et4cc4zeqy","1366","768","de","er08an21","null","","","","","","","","learning/Slide91.JPG","null","","","","",""
"","html-keyboard-response","279","1522640","0.0-8.0-1.10","FL","et4cc4zeqy","1366","768","de","er08an21","null","","","","learningBlock2","","","","That was a wug.","null","","","","",""
"","html-keyboard-response","280","1523643","0.0-8.0-2.10","FL","et4cc4zeqy","1366","768","de","er08an21","null","","","","learningBlock2","","","","<div style=""font-size:60px;""> </div>","null","FL","learning/Slide91.JPG","That was a wug.","",""
"","image-keyboard-response","281","1523823","0.0-8.0-0.11","FL","et4cc4zeqy","1366","768","de","er08an21","null","","","","","","","","learning/Slide92.JPG","null","","","","",""
"","html-keyboard-response","282","1524984","0.0-8.0-1.11","FL","et4cc4zeqy","1366","768","de","er08an21","null","","","","learningBlock2","","","","That was a tob.","null","","","","",""
"","html-keyboard-response","283","1525989","0.0-8.0-2.11","FL","et4cc4zeqy","1366","768","de","er08an21","null","","","","learningBlock2","","","","<div style=""font-size:60px;""> </div>","null","FL","learning/Slide92.JPG","That was a tob.","",""
"","image-keyboard-response","284","1526169","0.0-8.0-0.12","FL","et4cc4zeqy","1366","768","de","er08an21","null","","","","","","","","learning/Slide93.JPG","null","","","","",""
"","html-keyboard-response","285","1527329","0.0-8.0-1.12","FL","et4cc4zeqy","1366","768","de","er08an21","null","","","","learningBlock2","","","","That was a bim.","null","","","","",""
"","html-keyboard-response","286","1528334","0.0-8.0-2.12","FL","et4cc4zeqy","1366","768","de","er08an21","null","","","","learningBlock2","","","","<div style=""font-size:60px;""> </div>","null","FL","learning/Slide93.JPG","That was a bim.","",""
"","image-keyboard-response","287","1528516","0.0-8.0-0.13","FL","et4cc4zeqy","1366","768","de","er08an21","null","","","","","","","","learning/Slide94.JPG","null","","","","",""
"","html-keyboard-response","288","1529676","0.0-8.0-1.13","FL","et4cc4zeqy","1366","768","de","er08an21","null","","","","learningBlock2","","","","That was a tob.","null","","","","",""
"","html-keyboard-response","289","1530681","0.0-8.0-2.13","FL","et4cc4zeqy","1366","768","de","er08an21","null","","","","learningBlock2","","","","<div style=""font-size:60px;""> </div>","null","FL","learning/Slide94.JPG","That was a tob.","",""
"","image-keyboard-response","290","1530862","0.0-8.0-0.14","FL","et4cc4zeqy","1366","768","de","er08an21","null","","","","","","","","learning/Slide95.JPG","null","","","","",""
"","html-keyboard-response","291","1532023","0.0-8.0-1.14","FL","et4cc4zeqy","1366","768","de","er08an21","null","","","","learningBlock2","","","","That was a wug.","null","","","","",""
"","html-keyboard-response","292","1533027","0.0-8.0-2.14","FL","et4cc4zeqy","1366","768","de","er08an21","null","","","","learningBlock2","","","","<div style=""font-size:60px;""> </div>","null","FL","learning/Slide95.JPG","That was a wug.","",""
"","image-keyboard-response","293","1533207","0.0-8.0-0.15","FL","et4cc4zeqy","1366","768","de","er08an21","null","","","","","","","","learning/Slide96.JPG","null","","","","",""
"","html-keyboard-response","294","1534378","0.0-8.0-1.15","FL","et4cc4zeqy","1366","768","de","er08an21","null","","","","learningBlock2","","","","That was a tob.","null","","","","",""
"","html-keyboard-response","295","1535386","0.0-8.0-2.15","FL","et4cc4zeqy","1366","768","de","er08an21","null","","","","learningBlock2","","","","<div style=""font-size:60px;""> </div>","null","FL","learning/Slide96.JPG","That was a tob.","",""
"","image-keyboard-response","296","1535566","0.0-8.0-0.16","FL","et4cc4zeqy","1366","768","de","er08an21","null","","","","","","","","learning/Slide97.JPG","null","","","","",""
"","html-keyboard-response","297","1536727","0.0-8.0-1.16","FL","et4cc4zeqy","1366","768","de","er08an21","null","","","","learningBlock2","","","","That was a dep.","null","","","","",""
"","html-keyboard-response","298","1537732","0.0-8.0-2.16","FL","et4cc4zeqy","1366","768","de","er08an21","null","","","","learningBlock2","","","","<div style=""font-size:60px;""> </div>","null","FL","learning/Slide97.JPG","That was a dep.","",""
"","image-keyboard-response","299","1537913","0.0-8.0-0.17","FL","et4cc4zeqy","1366","768","de","er08an21","null","","","","","","","","learning/Slide98.JPG","null","","","","",""
"","html-keyboard-response","300","1539072","0.0-8.0-1.17","FL","et4cc4zeqy","1366","768","de","er08an21","null","","","","learningBlock2","","","","That was a bim.","null","","","","",""
"","html-keyboard-response","301","1540076","0.0-8.0-2.17","FL","et4cc4zeqy","1366","768","de","er08an21","null","","","","learningBlock2","","","","<div style=""font-size:60px;""> </div>","null","FL","learning/Slide98.JPG","That was a bim.","",""
"","image-keyboard-response","302","1540258","0.0-8.0-0.18","FL","et4cc4zeqy","1366","768","de","er08an21","null","","","","","","","","learning/Slide99.JPG","null","","","","",""
"","html-keyboard-response","303","1541422","0.0-8.0-1.18","FL","et4cc4zeqy","1366","768","de","er08an21","null","","","","learningBlock2","","","","That was a dep.","null","","","","",""
"","html-keyboard-response","304","1542429","0.0-8.0-2.18","FL","et4cc4zeqy","1366","768","de","er08an21","null","","","","learningBlock2","","","","<div style=""font-size:60px;""> </div>","null","FL","learning/Slide99.JPG","That was a dep.","",""
"","image-keyboard-response","305","1542609","0.0-8.0-0.19","FL","et4cc4zeqy","1366","768","de","er08an21","null","","","","","","","","learning/Slide100.JPG","null","","","","",""
"","html-keyboard-response","306","1543767","0.0-8.0-1.19","FL","et4cc4zeqy","1366","768","de","er08an21","null","","","","learningBlock2","","","","That was a bim.","null","","","","",""
"","html-keyboard-response","307","1544773","0.0-8.0-2.19","FL","et4cc4zeqy","1366","768","de","er08an21","null","","","","learningBlock2","","","","<div style=""font-size:60px;""> </div>","null","FL","learning/Slide100.JPG","That was a bim.","",""
"","image-keyboard-response","308","1544954","0.0-8.0-0.20","FL","et4cc4zeqy","1366","768","de","er08an21","null","","","","","","","","learning/Slide101.JPG","null","","","","",""
"","html-keyboard-response","309","1546112","0.0-8.0-1.20","FL","et4cc4zeqy","1366","768","de","er08an21","null","","","","learningBlock2","","","","That was a tob.","null","","","","",""
"","html-keyboard-response","310","1547117","0.0-8.0-2.20","FL","et4cc4zeqy","1366","768","de","er08an21","null","","","","learningBlock2","","","","<div style=""font-size:60px;""> </div>","null","FL","learning/Slide101.JPG","That was a tob.","",""
"","image-keyboard-response","311","1547297","0.0-8.0-0.21","FL","et4cc4zeqy","1366","768","de","er08an21","null","","","","","","","","learning/Slide102.JPG","null","","","","",""
"","html-keyboard-response","312","1548459","0.0-8.0-1.21","FL","et4cc4zeqy","1366","768","de","er08an21","null","","","","learningBlock2","","","","That was a bim.","null","","","","",""
"","html-keyboard-response","313","1549463","0.0-8.0-2.21","FL","et4cc4zeqy","1366","768","de","er08an21","null","","","","learningBlock2","","","","<div style=""font-size:60px;""> </div>","null","FL","learning/Slide102.JPG","That was a bim.","",""
"","image-keyboard-response","314","1549644","0.0-8.0-0.22","FL","et4cc4zeqy","1366","768","de","er08an21","null","","","","","","","","learning/Slide103.JPG","null","","","","",""
"","html-keyboard-response","315","1550806","0.0-8.0-1.22","FL","et4cc4zeqy","1366","768","de","er08an21","null","","","","learningBlock2","","","","That was a dep.","null","","","","",""
"","html-keyboard-response","316","1551812","0.0-8.0-2.22","FL","et4cc4zeqy","1366","768","de","er08an21","null","","","","learningBlock2","","","","<div style=""font-size:60px;""> </div>","null","FL","learning/Slide103.JPG","That was a dep.","",""
"","image-keyboard-response","317","1551993","0.0-8.0-0.23","FL","et4cc4zeqy","1366","768","de","er08an21","null","","","","","","","","learning/Slide104.JPG","null","","","","",""
"","html-keyboard-response","318","1553154","0.0-8.0-1.23","FL","et4cc4zeqy","1366","768","de","er08an21","null","","","","learningBlock2","","","","That was a tob.","null","","","","",""
"","html-keyboard-response","319","1554164","0.0-8.0-2.23","FL","et4cc4zeqy","1366","768","de","er08an21","null","","","","learningBlock2","","","","<div style=""font-size:60px;""> </div>","null","FL","learning/Slide104.JPG","That was a tob.","",""
"","image-keyboard-response","320","1554344","0.0-8.0-0.24","FL","et4cc4zeqy","1366","768","de","er08an21","null","","","","","","","","learning/Slide105.JPG","null","","","","",""
"","html-keyboard-response","321","1555504","0.0-8.0-1.24","FL","et4cc4zeqy","1366","768","de","er08an21","null","","","","learningBlock2","","","","That was a dep.","null","","","","",""
"","html-keyboard-response","322","1556507","0.0-8.0-2.24","FL","et4cc4zeqy","1366","768","de","er08an21","null","","","","learningBlock2","","","","<div style=""font-size:60px;""> </div>","null","FL","learning/Slide105.JPG","That was a dep.","",""
"","image-keyboard-response","323","1556689","0.0-8.0-0.25","FL","et4cc4zeqy","1366","768","de","er08an21","null","","","","","","","","learning/Slide106.JPG","null","","","","",""
"","html-keyboard-response","324","1557852","0.0-8.0-1.25","FL","et4cc4zeqy","1366","768","de","er08an21","null","","","","learningBlock2","","","","That was a wug.","null","","","","",""
"","html-keyboard-response","325","1558855","0.0-8.0-2.25","FL","et4cc4zeqy","1366","768","de","er08an21","null","","","","learningBlock2","","","","<div style=""font-size:60px;""> </div>","null","FL","learning/Slide106.JPG","That was a wug.","",""
"","image-keyboard-response","326","1559036","0.0-8.0-0.26","FL","et4cc4zeqy","1366","768","de","er08an21","null","","","","","","","","learning/Slide107.JPG","null","","","","",""
"","html-keyboard-response","327","1560196","0.0-8.0-1.26","FL","et4cc4zeqy","1366","768","de","er08an21","null","","","","learningBlock2","","","","That was a bim.","null","","","","",""
"","html-keyboard-response","328","1561202","0.0-8.0-2.26","FL","et4cc4zeqy","1366","768","de","er08an21","null","","","","learningBlock2","","","","<div style=""font-size:60px;""> </div>","null","FL","learning/Slide107.JPG","That was a bim.","",""
"","image-keyboard-response","329","1561382","0.0-8.0-0.27","FL","et4cc4zeqy","1366","768","de","er08an21","null","","","","","","","","learning/Slide108.JPG","null","","","","",""
"","html-keyboard-response","330","1562540","0.0-8.0-1.27","FL","et4cc4zeqy","1366","768","de","er08an21","null","","","","learningBlock2","","","","That was a dep.","null","","","","",""
"","html-keyboard-response","331","1563548","0.0-8.0-2.27","FL","et4cc4zeqy","1366","768","de","er08an21","null","","","","learningBlock2","","","","<div style=""font-size:60px;""> </div>","null","FL","learning/Slide108.JPG","That was a dep.","",""
"","image-keyboard-response","332","1563729","0.0-8.0-0.28","FL","et4cc4zeqy","1366","768","de","er08an21","null","","","","","","","","learning/Slide109.JPG","null","","","","",""
"","html-keyboard-response","333","1564887","0.0-8.0-1.28","FL","et4cc4zeqy","1366","768","de","er08an21","null","","","","learningBlock2","","","","That was a wug.","null","","","","",""
"","html-keyboard-response","334","1565891","0.0-8.0-2.28","FL","et4cc4zeqy","1366","768","de","er08an21","null","","","","learningBlock2","","","","<div style=""font-size:60px;""> </div>","null","FL","learning/Slide109.JPG","That was a wug.","",""
"","image-keyboard-response","335","1566071","0.0-8.0-0.29","FL","et4cc4zeqy","1366","768","de","er08an21","null","","","","","","","","learning/Slide110.JPG","null","","","","",""
"","html-keyboard-response","336","1567230","0.0-8.0-1.29","FL","et4cc4zeqy","1366","768","de","er08an21","null","","","","learningBlock2","","","","That was a bim.","null","","","","",""
"","html-keyboard-response","337","1568237","0.0-8.0-2.29","FL","et4cc4zeqy","1366","768","de","er08an21","null","","","","learningBlock2","","","","<div style=""font-size:60px;""> </div>","null","FL","learning/Slide110.JPG","That was a bim.","",""
"","image-keyboard-response","338","1568418","0.0-8.0-0.30","FL","et4cc4zeqy","1366","768","de","er08an21","null","","","","","","","","learning/Slide111.JPG","null","","","","",""
"","html-keyboard-response","339","1569576","0.0-8.0-1.30","FL","et4cc4zeqy","1366","768","de","er08an21","null","","","","learningBlock2","","","","That was a tob.","null","","","","",""
"","html-keyboard-response","340","1570579","0.0-8.0-2.30","FL","et4cc4zeqy","1366","768","de","er08an21","null","","","","learningBlock2","","","","<div style=""font-size:60px;""> </div>","null","FL","learning/Slide111.JPG","That was a tob.","",""
"","image-keyboard-response","341","1570760","0.0-8.0-0.31","FL","et4cc4zeqy","1366","768","de","er08an21","null","","","","","","","","learning/Slide112.JPG","null","","","","",""
"","html-keyboard-response","342","1571925","0.0-8.0-1.31","FL","et4cc4zeqy","1366","768","de","er08an21","null","","","","learningBlock2","","","","That was a wug.","null","","","","",""
"","html-keyboard-response","343","1572928","0.0-8.0-2.31","FL","et4cc4zeqy","1366","768","de","er08an21","null","","","","learningBlock2","","","","<div style=""font-size:60px;""> </div>","null","FL","learning/Slide112.JPG","That was a wug.","",""
"","image-keyboard-response","344","1573109","0.0-8.0-0.32","FL","et4cc4zeqy","1366","768","de","er08an21","null","","","","","","","","learning/Slide113.JPG","null","","","","",""
"","html-keyboard-response","345","1574269","0.0-8.0-1.32","FL","et4cc4zeqy","1366","768","de","er08an21","null","","","","learningBlock2","","","","That was a tob.","null","","","","",""
"","html-keyboard-response","346","1575273","0.0-8.0-2.32","FL","et4cc4zeqy","1366","768","de","er08an21","null","","","","learningBlock2","","","","<div style=""font-size:60px;""> </div>","null","FL","learning/Slide113.JPG","That was a tob.","",""
"","image-keyboard-response","347","1575453","0.0-8.0-0.33","FL","et4cc4zeqy","1366","768","de","er08an21","null","","","","","","","","learning/Slide114.JPG","null","","","","",""
"","html-keyboard-response","348","1576611","0.0-8.0-1.33","FL","et4cc4zeqy","1366","768","de","er08an21","null","","","","learningBlock2","","","","That was a wug.","null","","","","",""
"","html-keyboard-response","349","1577618","0.0-8.0-2.33","FL","et4cc4zeqy","1366","768","de","er08an21","null","","","","learningBlock2","","","","<div style=""font-size:60px;""> </div>","null","FL","learning/Slide114.JPG","That was a wug.","",""
"","image-keyboard-response","350","1577801","0.0-8.0-0.34","FL","et4cc4zeqy","1366","768","de","er08an21","null","","","","","","","","learning/Slide115.JPG","null","","","","",""
"","html-keyboard-response","351","1578968","0.0-8.0-1.34","FL","et4cc4zeqy","1366","768","de","er08an21","null","","","","learningBlock2","","","","That was a bim.","null","","","","",""
"","html-keyboard-response","352","1579971","0.0-8.0-2.34","FL","et4cc4zeqy","1366","768","de","er08an21","null","","","","learningBlock2","","","","<div style=""font-size:60px;""> </div>","null","FL","learning/Slide115.JPG","That was a bim.","",""
"","image-keyboard-response","353","1580153","0.0-8.0-0.35","FL","et4cc4zeqy","1366","768","de","er08an21","null","","","","","","","","learning/Slide116.JPG","null","","","","",""
"","html-keyboard-response","354","1581316","0.0-8.0-1.35","FL","et4cc4zeqy","1366","768","de","er08an21","null","","","","learningBlock2","","","","That was a dep.","null","","","","",""
"","html-keyboard-response","355","1582320","0.0-8.0-2.35","FL","et4cc4zeqy","1366","768","de","er08an21","null","","","","learningBlock2","","","","<div style=""font-size:60px;""> </div>","null","FL","learning/Slide116.JPG","That was a dep.","",""
"","image-keyboard-response","356","1582501","0.0-8.0-0.36","FL","et4cc4zeqy","1366","768","de","er08an21","null","","","","","","","","learning/Slide117.JPG","null","","","","",""
"","html-keyboard-response","357","1583664","0.0-8.0-1.36","FL","et4cc4zeqy","1366","768","de","er08an21","null","","","","learningBlock2","","","","That was a tob.","null","","","","",""
"","html-keyboard-response","358","1584667","0.0-8.0-2.36","FL","et4cc4zeqy","1366","768","de","er08an21","null","","","","learningBlock2","","","","<div style=""font-size:60px;""> </div>","null","FL","learning/Slide117.JPG","That was a tob.","",""
"","image-keyboard-response","359","1584848","0.0-8.0-0.37","FL","et4cc4zeqy","1366","768","de","er08an21","null","","","","","","","","learning/Slide118.JPG","null","","","","",""
"","html-keyboard-response","360","1586008","0.0-8.0-1.37","FL","et4cc4zeqy","1366","768","de","er08an21","null","","","","learningBlock2","","","","That was a dep.","null","","","","",""
"","html-keyboard-response","361","1587011","0.0-8.0-2.37","FL","et4cc4zeqy","1366","768","de","er08an21","null","","","","learningBlock2","","","","<div style=""font-size:60px;""> </div>","null","FL","learning/Slide118.JPG","That was a dep.","",""
"","image-keyboard-response","362","1587192","0.0-8.0-0.38","FL","et4cc4zeqy","1366","768","de","er08an21","null","","","","","","","","learning/Slide119.JPG","null","","","","",""
"","html-keyboard-response","363","1588353","0.0-8.0-1.38","FL","et4cc4zeqy","1366","768","de","er08an21","null","","","","learningBlock2","","","","That was a wug.","null","","","","",""
"","html-keyboard-response","364","1589358","0.0-8.0-2.38","FL","et4cc4zeqy","1366","768","de","er08an21","null","","","","learningBlock2","","","","<div style=""font-size:60px;""> </div>","null","FL","learning/Slide119.JPG","That was a wug.","",""
"","image-keyboard-response","365","1589538","0.0-8.0-0.39","FL","et4cc4zeqy","1366","768","de","er08an21","null","","","","","","","","learning/Slide120.JPG","null","","","","",""
"","html-keyboard-response","366","1590699","0.0-8.0-1.39","FL","et4cc4zeqy","1366","768","de","er08an21","null","","","","learningBlock2","","","","That was a dep.","null","","","","",""
"","html-keyboard-response","367","1591703","0.0-8.0-2.39","FL","et4cc4zeqy","1366","768","de","er08an21","null","","","","learningBlock2","","","","<div style=""font-size:60px;""> </div>","null","FL","learning/Slide120.JPG","That was a dep.","",""
"","image-keyboard-response","368","1591885","0.0-8.0-0.40","FL","et4cc4zeqy","1366","768","de","er08an21","null","","","","","","","","learning/Slide121.JPG","null","","","","",""
"","html-keyboard-response","369","1593045","0.0-8.0-1.40","FL","et4cc4zeqy","1366","768","de","er08an21","null","","","","learningBlock2","","","","That was a bim.","null","","","","",""
"","html-keyboard-response","370","1594050","0.0-8.0-2.40","FL","et4cc4zeqy","1366","768","de","er08an21","null","","","","learningBlock2","","","","<div style=""font-size:60px;""> </div>","null","FL","learning/Slide121.JPG","That was a bim.","",""
"","image-keyboard-response","371","1594231","0.0-8.0-0.41","FL","et4cc4zeqy","1366","768","de","er08an21","null","","","","","","","","learning/Slide122.JPG","null","","","","",""
"","html-keyboard-response","372","1595391","0.0-8.0-1.41","FL","et4cc4zeqy","1366","768","de","er08an21","null","","","","learningBlock2","","","","That was a wug.","null","","","","",""
"","html-keyboard-response","373","1596396","0.0-8.0-2.41","FL","et4cc4zeqy","1366","768","de","er08an21","null","","","","learningBlock2","","","","<div style=""font-size:60px;""> </div>","null","FL","learning/Slide122.JPG","That was a wug.","",""
"","image-keyboard-response","374","1596577","0.0-8.0-0.42","FL","et4cc4zeqy","1366","768","de","er08an21","null","","","","","","","","learning/Slide123.JPG","null","","","","",""
"","html-keyboard-response","375","1597737","0.0-8.0-1.42","FL","et4cc4zeqy","1366","768","de","er08an21","null","","","","learningBlock2","","","","That was a bim.","null","","","","",""
"","html-keyboard-response","376","1598747","0.0-8.0-2.42","FL","et4cc4zeqy","1366","768","de","er08an21","null","","","","learningBlock2","","","","<div style=""font-size:60px;""> </div>","null","FL","learning/Slide123.JPG","That was a bim.","",""
"","image-keyboard-response","377","1598928","0.0-8.0-0.43","FL","et4cc4zeqy","1366","768","de","er08an21","null","","","","","","","","learning/Slide124.JPG","null","","","","",""
"","html-keyboard-response","378","1600090","0.0-8.0-1.43","FL","et4cc4zeqy","1366","768","de","er08an21","null","","","","learningBlock2","","","","That was a tob.","null","","","","",""
"","html-keyboard-response","379","1601096","0.0-8.0-2.43","FL","et4cc4zeqy","1366","768","de","er08an21","null","","","","learningBlock2","","","","<div style=""font-size:60px;""> </div>","null","FL","learning/Slide124.JPG","That was a tob.","",""
"","image-keyboard-response","380","1601276","0.0-8.0-0.44","FL","et4cc4zeqy","1366","768","de","er08an21","null","","","","","","","","learning/Slide125.JPG","null","","","","",""
"","html-keyboard-response","381","1602436","0.0-8.0-1.44","FL","et4cc4zeqy","1366","768","de","er08an21","null","","","","learningBlock2","","","","That was a bim.","null","","","","",""
"","html-keyboard-response","382","1603439","0.0-8.0-2.44","FL","et4cc4zeqy","1366","768","de","er08an21","null","","","","learningBlock2","","","","<div style=""font-size:60px;""> </div>","null","FL","learning/Slide125.JPG","That was a bim.","",""
"","image-keyboard-response","383","1603620","0.0-8.0-0.45","FL","et4cc4zeqy","1366","768","de","er08an21","null","","","","","","","","learning/Slide126.JPG","null","","","","",""
"","html-keyboard-response","384","1604778","0.0-8.0-1.45","FL","et4cc4zeqy","1366","768","de","er08an21","null","","","","learningBlock2","","","","That was a tob.","null","","","","",""
"","html-keyboard-response","385","1605784","0.0-8.0-2.45","FL","et4cc4zeqy","1366","768","de","er08an21","null","","","","learningBlock2","","","","<div style=""font-size:60px;""> </div>","null","FL","learning/Slide126.JPG","That was a tob.","",""
"","image-keyboard-response","386","1605965","0.0-8.0-0.46","FL","et4cc4zeqy","1366","768","de","er08an21","null","","","","","","","","learning/Slide127.JPG","null","","","","",""
"","html-keyboard-response","387","1607123","0.0-8.0-1.46","FL","et4cc4zeqy","1366","768","de","er08an21","null","","","","learningBlock2","","","","That was a dep.","null","","","","",""
"","html-keyboard-response","388","1608126","0.0-8.0-2.46","FL","et4cc4zeqy","1366","768","de","er08an21","null","","","","learningBlock2","","","","<div style=""font-size:60px;""> </div>","null","FL","learning/Slide127.JPG","That was a dep.","",""
"","image-keyboard-response","389","1608305","0.0-8.0-0.47","FL","et4cc4zeqy","1366","768","de","er08an21","null","","","","","","","","learning/Slide128.JPG","null","","","","",""
"","html-keyboard-response","390","1609466","0.0-8.0-1.47","FL","et4cc4zeqy","1366","768","de","er08an21","null","","","","learningBlock2","","","","That was a wug.","null","","","","",""
"","html-keyboard-response","391","1610469","0.0-8.0-2.47","FL","et4cc4zeqy","1366","768","de","er08an21","null","","","","learningBlock2","","","","<div style=""font-size:60px;""> </div>","null","FL","learning/Slide128.JPG","That was a wug.","",""
"","image-keyboard-response","392","1610650","0.0-8.0-0.48","FL","et4cc4zeqy","1366","768","de","er08an21","null","","","","","","","","learning/Slide129.JPG","null","","","","",""
"","html-keyboard-response","393","1611813","0.0-8.0-1.48","FL","et4cc4zeqy","1366","768","de","er08an21","null","","","","learningBlock2","","","","That was a tob.","null","","","","",""
"","html-keyboard-response","394","1612818","0.0-8.0-2.48","FL","et4cc4zeqy","1366","768","de","er08an21","null","","","","learningBlock2","","","","<div style=""font-size:60px;""> </div>","null","FL","learning/Slide129.JPG","That was a tob.","",""
"","image-keyboard-response","395","1612997","0.0-8.0-0.49","FL","et4cc4zeqy","1366","768","de","er08an21","null","","","","","","","","learning/Slide130.JPG","null","","","","",""
"","html-keyboard-response","396","1614164","0.0-8.0-1.49","FL","et4cc4zeqy","1366","768","de","er08an21","null","","","","learningBlock2","","","","That was a wug.","null","","","","",""
"","html-keyboard-response","397","1615169","0.0-8.0-2.49","FL","et4cc4zeqy","1366","768","de","er08an21","null","","","","learningBlock2","","","","<div style=""font-size:60px;""> </div>","null","FL","learning/Slide130.JPG","That was a wug.","",""
"","image-keyboard-response","398","1615348","0.0-8.0-0.50","FL","et4cc4zeqy","1366","768","de","er08an21","null","","","","","","","","learning/Slide131.JPG","null","","","","",""
"","html-keyboard-response","399","1616508","0.0-8.0-1.50","FL","et4cc4zeqy","1366","768","de","er08an21","null","","","","learningBlock2","","","","That was a bim.","null","","","","",""
"","html-keyboard-response","400","1617511","0.0-8.0-2.50","FL","et4cc4zeqy","1366","768","de","er08an21","null","","","","learningBlock2","","","","<div style=""font-size:60px;""> </div>","null","FL","learning/Slide131.JPG","That was a bim.","",""
"","image-keyboard-response","401","1617692","0.0-8.0-0.51","FL","et4cc4zeqy","1366","768","de","er08an21","null","","","","","","","","learning/Slide132.JPG","null","","","","",""
"","html-keyboard-response","402","1618852","0.0-8.0-1.51","FL","et4cc4zeqy","1366","768","de","er08an21","null","","","","learningBlock2","","","","That was a dep.","null","","","","",""
"","html-keyboard-response","403","1619861","0.0-8.0-2.51","FL","et4cc4zeqy","1366","768","de","er08an21","null","","","","learningBlock2","","","","<div style=""font-size:60px;""> </div>","null","FL","learning/Slide132.JPG","That was a dep.","",""
"","image-keyboard-response","404","1620042","0.0-8.0-0.52","FL","et4cc4zeqy","1366","768","de","er08an21","null","","","","","","","","learning/Slide133.JPG","null","","","","",""
"","html-keyboard-response","405","1621201","0.0-8.0-1.52","FL","et4cc4zeqy","1366","768","de","er08an21","null","","","","learningBlock2","","","","That was a tob.","null","","","","",""
"","html-keyboard-response","406","1622208","0.0-8.0-2.52","FL","et4cc4zeqy","1366","768","de","er08an21","null","","","","learningBlock2","","","","<div style=""font-size:60px;""> </div>","null","FL","learning/Slide133.JPG","That was a tob.","",""
"","image-keyboard-response","407","1622389","0.0-8.0-0.53","FL","et4cc4zeqy","1366","768","de","er08an21","null","","","","","","","","learning/Slide134.JPG","null","","","","",""
"","html-keyboard-response","408","1623549","0.0-8.0-1.53","FL","et4cc4zeqy","1366","768","de","er08an21","null","","","","learningBlock2","","","","That was a dep.","null","","","","",""
"","html-keyboard-response","409","1624556","0.0-8.0-2.53","FL","et4cc4zeqy","1366","768","de","er08an21","null","","","","learningBlock2","","","","<div style=""font-size:60px;""> </div>","null","FL","learning/Slide134.JPG","That was a dep.","",""
"","image-keyboard-response","410","1624737","0.0-8.0-0.54","FL","et4cc4zeqy","1366","768","de","er08an21","null","","","","","","","","learning/Slide135.JPG","null","","","","",""
"","html-keyboard-response","411","1625897","0.0-8.0-1.54","FL","et4cc4zeqy","1366","768","de","er08an21","null","","","","learningBlock2","","","","That was a tob.","null","","","","",""
"","html-keyboard-response","412","1626903","0.0-8.0-2.54","FL","et4cc4zeqy","1366","768","de","er08an21","null","","","","learningBlock2","","","","<div style=""font-size:60px;""> </div>","null","FL","learning/Slide135.JPG","That was a tob.","",""
"","image-keyboard-response","413","1627084","0.0-8.0-0.55","FL","et4cc4zeqy","1366","768","de","er08an21","null","","","","","","","","learning/Slide136.JPG","null","","","","",""
"","html-keyboard-response","414","1628244","0.0-8.0-1.55","FL","et4cc4zeqy","1366","768","de","er08an21","null","","","","learningBlock2","","","","That was a wug.","null","","","","",""
"","html-keyboard-response","415","1629250","0.0-8.0-2.55","FL","et4cc4zeqy","1366","768","de","er08an21","null","","","","learningBlock2","","","","<div style=""font-size:60px;""> </div>","null","FL","learning/Slide136.JPG","That was a wug.","",""
"","image-keyboard-response","416","1629432","0.0-8.0-0.56","FL","et4cc4zeqy","1366","768","de","er08an21","null","","","","","","","","learning/Slide137.JPG","null","","","","",""
"","html-keyboard-response","417","1630590","0.0-8.0-1.56","FL","et4cc4zeqy","1366","768","de","er08an21","null","","","","learningBlock2","","","","That was a tob.","null","","","","",""
"","html-keyboard-response","418","1631599","0.0-8.0-2.56","FL","et4cc4zeqy","1366","768","de","er08an21","null","","","","learningBlock2","","","","<div style=""font-size:60px;""> </div>","null","FL","learning/Slide137.JPG","That was a tob.","",""
"","image-keyboard-response","419","1631779","0.0-8.0-0.57","FL","et4cc4zeqy","1366","768","de","er08an21","null","","","","","","","","learning/Slide138.JPG","null","","","","",""
"","html-keyboard-response","420","1632940","0.0-8.0-1.57","FL","et4cc4zeqy","1366","768","de","er08an21","null","","","","learningBlock2","","","","That was a bim.","null","","","","",""
"","html-keyboard-response","421","1633945","0.0-8.0-2.57","FL","et4cc4zeqy","1366","768","de","er08an21","null","","","","learningBlock2","","","","<div style=""font-size:60px;""> </div>","null","FL","learning/Slide138.JPG","That was a bim.","",""
"","image-keyboard-response","422","1634126","0.0-8.0-0.58","FL","et4cc4zeqy","1366","768","de","er08an21","null","","","","","","","","learning/Slide139.JPG","null","","","","",""
"","html-keyboard-response","423","1635286","0.0-8.0-1.58","FL","et4cc4zeqy","1366","768","de","er08an21","null","","","","learningBlock2","","","","That was a wug.","null","","","","",""
"","html-keyboard-response","424","1636290","0.0-8.0-2.58","FL","et4cc4zeqy","1366","768","de","er08an21","null","","","","learningBlock2","","","","<div style=""font-size:60px;""> </div>","null","FL","learning/Slide139.JPG","That was a wug.","",""
"","image-keyboard-response","425","1636470","0.0-8.0-0.59","FL","et4cc4zeqy","1366","768","de","er08an21","null","","","","","","","","learning/Slide140.JPG","null","","","","",""
"","html-keyboard-response","426","1637631","0.0-8.0-1.59","FL","et4cc4zeqy","1366","768","de","er08an21","null","","","","learningBlock2","","","","That was a dep.","null","","","","",""
"","html-keyboard-response","427","1638639","0.0-8.0-2.59","FL","et4cc4zeqy","1366","768","de","er08an21","null","","","","learningBlock2","","","","<div style=""font-size:60px;""> </div>","null","FL","learning/Slide140.JPG","That was a dep.","",""
"","image-keyboard-response","428","1638820","0.0-8.0-0.60","FL","et4cc4zeqy","1366","768","de","er08an21","null","","","","","","","","learning/Slide141.JPG","null","","","","",""
"","html-keyboard-response","429","1639980","0.0-8.0-1.60","FL","et4cc4zeqy","1366","768","de","er08an21","null","","","","learningBlock2","","","","That was a tob.","null","","","","",""
"","html-keyboard-response","430","1640983","0.0-8.0-2.60","FL","et4cc4zeqy","1366","768","de","er08an21","null","","","","learningBlock2","","","","<div style=""font-size:60px;""> </div>","null","FL","learning/Slide141.JPG","That was a tob.","",""
"","image-keyboard-response","431","1641164","0.0-8.0-0.61","FL","et4cc4zeqy","1366","768","de","er08an21","null","","","","","","","","learning/Slide142.JPG","null","","","","",""
"","html-keyboard-response","432","1642325","0.0-8.0-1.61","FL","et4cc4zeqy","1366","768","de","er08an21","null","","","","learningBlock2","","","","That was a wug.","null","","","","",""
"","html-keyboard-response","433","1643329","0.0-8.0-2.61","FL","et4cc4zeqy","1366","768","de","er08an21","null","","","","learningBlock2","","","","<div style=""font-size:60px;""> </div>","null","FL","learning/Slide142.JPG","That was a wug.","",""
"","image-keyboard-response","434","1643509","0.0-8.0-0.62","FL","et4cc4zeqy","1366","768","de","er08an21","null","","","","","","","","learning/Slide143.JPG","null","","","","",""
"","html-keyboard-response","435","1644672","0.0-8.0-1.62","FL","et4cc4zeqy","1366","768","de","er08an21","null","","","","learningBlock2","","","","That was a bim.","null","","","","",""
"","html-keyboard-response","436","1645681","0.0-8.0-2.62","FL","et4cc4zeqy","1366","768","de","er08an21","null","","","","learningBlock2","","","","<div style=""font-size:60px;""> </div>","null","FL","learning/Slide143.JPG","That was a bim.","",""
"","image-keyboard-response","437","1645861","0.0-8.0-0.63","FL","et4cc4zeqy","1366","768","de","er08an21","null","","","","","","","","learning/Slide144.JPG","null","","","","",""
"","html-keyboard-response","438","1647019","0.0-8.0-1.63","FL","et4cc4zeqy","1366","768","de","er08an21","null","","","","learningBlock2","","","","That was a dep.","null","","","","",""
"","html-keyboard-response","439","1648023","0.0-8.0-2.63","FL","et4cc4zeqy","1366","768","de","er08an21","null","","","","learningBlock2","","","","<div style=""font-size:60px;""> </div>","null","FL","learning/Slide144.JPG","That was a dep.","",""
"","image-keyboard-response","440","1648204","0.0-8.0-0.64","FL","et4cc4zeqy","1366","768","de","er08an21","null","","","","","","","","learning/Slide145.JPG","null","","","","",""
"","html-keyboard-response","441","1649366","0.0-8.0-1.64","FL","et4cc4zeqy","1366","768","de","er08an21","null","","","","learningBlock2","","","","That was a bim.","null","","","","",""
"","html-keyboard-response","442","1650369","0.0-8.0-2.64","FL","et4cc4zeqy","1366","768","de","er08an21","null","","","","learningBlock2","","","","<div style=""font-size:60px;""> </div>","null","FL","learning/Slide145.JPG","That was a bim.","",""
"","image-keyboard-response","443","1650549","0.0-8.0-0.65","FL","et4cc4zeqy","1366","768","de","er08an21","null","","","","","","","","learning/Slide146.JPG","null","","","","",""
"","html-keyboard-response","444","1651702","0.0-8.0-1.65","FL","et4cc4zeqy","1366","768","de","er08an21","null","","","","learningBlock2","","","","That was a tob.","null","","","","",""
"","html-keyboard-response","445","1652711","0.0-8.0-2.65","FL","et4cc4zeqy","1366","768","de","er08an21","null","","","","learningBlock2","","","","<div style=""font-size:60px;""> </div>","null","FL","learning/Slide146.JPG","That was a tob.","",""
"","image-keyboard-response","446","1652893","0.0-8.0-0.66","FL","et4cc4zeqy","1366","768","de","er08an21","null","","","","","","","","learning/Slide147.JPG","null","","","","",""
"","html-keyboard-response","447","1654054","0.0-8.0-1.66","FL","et4cc4zeqy","1366","768","de","er08an21","null","","","","learningBlock2","","","","That was a wug.","null","","","","",""
"","html-keyboard-response","448","1655056","0.0-8.0-2.66","FL","et4cc4zeqy","1366","768","de","er08an21","null","","","","learningBlock2","","","","<div style=""font-size:60px;""> </div>","null","FL","learning/Slide147.JPG","That was a wug.","",""
"","image-keyboard-response","449","1655236","0.0-8.0-0.67","FL","et4cc4zeqy","1366","768","de","er08an21","null","","","","","","","","learning/Slide148.JPG","null","","","","",""
"","html-keyboard-response","450","1656397","0.0-8.0-1.67","FL","et4cc4zeqy","1366","768","de","er08an21","null","","","","learningBlock2","","","","That was a bim.","null","","","","",""
"","html-keyboard-response","451","1657400","0.0-8.0-2.67","FL","et4cc4zeqy","1366","768","de","er08an21","null","","","","learningBlock2","","","","<div style=""font-size:60px;""> </div>","null","FL","learning/Slide148.JPG","That was a bim.","",""
"","image-keyboard-response","452","1657582","0.0-8.0-0.68","FL","et4cc4zeqy","1366","768","de","er08an21","null","","","","","","","","learning/Slide149.JPG","null","","","","",""
"","html-keyboard-response","453","1658742","0.0-8.0-1.68","FL","et4cc4zeqy","1366","768","de","er08an21","null","","","","learningBlock2","","","","That was a dep.","null","","","","",""
"","html-keyboard-response","454","1659750","0.0-8.0-2.68","FL","et4cc4zeqy","1366","768","de","er08an21","null","","","","learningBlock2","","","","<div style=""font-size:60px;""> </div>","null","FL","learning/Slide149.JPG","That was a dep.","",""
"","image-keyboard-response","455","1659931","0.0-8.0-0.69","FL","et4cc4zeqy","1366","768","de","er08an21","null","","","","","","","","learning/Slide150.JPG","null","","","","",""
"","html-keyboard-response","456","1661092","0.0-8.0-1.69","FL","et4cc4zeqy","1366","768","de","er08an21","null","","","","learningBlock2","","","","That was a wug.","null","","","","",""
"","html-keyboard-response","457","1662099","0.0-8.0-2.69","FL","et4cc4zeqy","1366","768","de","er08an21","null","","","","learningBlock2","","","","<div style=""font-size:60px;""> </div>","null","FL","learning/Slide150.JPG","That was a wug.","",""
"","image-keyboard-response","458","1662280","0.0-8.0-0.70","FL","et4cc4zeqy","1366","768","de","er08an21","null","","","","","","","","learning/Slide151.JPG","null","","","","",""
"","html-keyboard-response","459","1663444","0.0-8.0-1.70","FL","et4cc4zeqy","1366","768","de","er08an21","null","","","","learningBlock2","","","","That was a dep.","null","","","","",""
"","html-keyboard-response","460","1664452","0.0-8.0-2.70","FL","et4cc4zeqy","1366","768","de","er08an21","null","","","","learningBlock2","","","","<div style=""font-size:60px;""> </div>","null","FL","learning/Slide151.JPG","That was a dep.","",""
"","image-keyboard-response","461","1664633","0.0-8.0-0.71","FL","et4cc4zeqy","1366","768","de","er08an21","null","","","","","","","","learning/Slide152.JPG","null","","","","",""
"","html-keyboard-response","462","1665796","0.0-8.0-1.71","FL","et4cc4zeqy","1366","768","de","er08an21","null","","","","learningBlock2","","","","That was a wug.","null","","","","",""
"","html-keyboard-response","463","1666802","0.0-8.0-2.71","FL","et4cc4zeqy","1366","768","de","er08an21","null","","","","learningBlock2","","","","<div style=""font-size:60px;""> </div>","null","FL","learning/Slide152.JPG","That was a wug.","",""
"","image-keyboard-response","464","1666983","0.0-8.0-0.72","FL","et4cc4zeqy","1366","768","de","er08an21","null","","","","","","","","learning/Slide153.JPG","null","","","","",""
"","html-keyboard-response","465","1668148","0.0-8.0-1.72","FL","et4cc4zeqy","1366","768","de","er08an21","null","","","","learningBlock2","","","","That was a bim.","null","","","","",""
"","html-keyboard-response","466","1669153","0.0-8.0-2.72","FL","et4cc4zeqy","1366","768","de","er08an21","null","","","","learningBlock2","","","","<div style=""font-size:60px;""> </div>","null","FL","learning/Slide153.JPG","That was a bim.","",""
"","image-keyboard-response","467","1669334","0.0-8.0-0.73","FL","et4cc4zeqy","1366","768","de","er08an21","null","","","","","","","","learning/Slide154.JPG","null","","","","",""
"","html-keyboard-response","468","1670498","0.0-8.0-1.73","FL","et4cc4zeqy","1366","768","de","er08an21","null","","","","learningBlock2","","","","That was a tob.","null","","","","",""
"","html-keyboard-response","469","1671507","0.0-8.0-2.73","FL","et4cc4zeqy","1366","768","de","er08an21","null","","","","learningBlock2","","","","<div style=""font-size:60px;""> </div>","null","FL","learning/Slide154.JPG","That was a tob.","",""
"","image-keyboard-response","470","1671688","0.0-8.0-0.74","FL","et4cc4zeqy","1366","768","de","er08an21","null","","","","","","","","learning/Slide155.JPG","null","","","","",""
"","html-keyboard-response","471","1672852","0.0-8.0-1.74","FL","et4cc4zeqy","1366","768","de","er08an21","null","","","","learningBlock2","","","","That was a dep.","null","","","","",""
"","html-keyboard-response","472","1673859","0.0-8.0-2.74","FL","et4cc4zeqy","1366","768","de","er08an21","null","","","","learningBlock2","","","","<div style=""font-size:60px;""> </div>","null","FL","learning/Slide155.JPG","That was a dep.","",""
"","image-keyboard-response","473","1674041","0.0-8.0-0.75","FL","et4cc4zeqy","1366","768","de","er08an21","null","","","","","","","","learning/Slide156.JPG","null","","","","",""
"","html-keyboard-response","474","1675206","0.0-8.0-1.75","FL","et4cc4zeqy","1366","768","de","er08an21","null","","","","learningBlock2","","","","That was a bim.","null","","","","",""
"","html-keyboard-response","475","1676210","0.0-8.0-2.75","FL","et4cc4zeqy","1366","768","de","er08an21","null","","","","learningBlock2","","","","<div style=""font-size:60px;""> </div>","null","FL","learning/Slide156.JPG","That was a bim.","",""
"","image-keyboard-response","476","1676391","0.0-8.0-0.76","FL","et4cc4zeqy","1366","768","de","er08an21","null","","","","","","","","learning/Slide157.JPG","null","","","","",""
"","html-keyboard-response","477","1677548","0.0-8.0-1.76","FL","et4cc4zeqy","1366","768","de","er08an21","null","","","","learningBlock2","","","","That was a dep.","null","","","","",""
"","html-keyboard-response","478","1678554","0.0-8.0-2.76","FL","et4cc4zeqy","1366","768","de","er08an21","null","","","","learningBlock2","","","","<div style=""font-size:60px;""> </div>","null","FL","learning/Slide157.JPG","That was a dep.","",""
"","image-keyboard-response","479","1678735","0.0-8.0-0.77","FL","et4cc4zeqy","1366","768","de","er08an21","null","","","","","","","","learning/Slide158.JPG","null","","","","",""
"","html-keyboard-response","480","1679900","0.0-8.0-1.77","FL","et4cc4zeqy","1366","768","de","er08an21","null","","","","learningBlock2","","","","That was a tob.","null","","","","",""
"","html-keyboard-response","481","1680909","0.0-8.0-2.77","FL","et4cc4zeqy","1366","768","de","er08an21","null","","","","learningBlock2","","","","<div style=""font-size:60px;""> </div>","null","FL","learning/Slide158.JPG","That was a tob.","",""
"","image-keyboard-response","482","1681090","0.0-8.0-0.78","FL","et4cc4zeqy","1366","768","de","er08an21","null","","","","","","","","learning/Slide159.JPG","null","","","","",""
"","html-keyboard-response","483","1682251","0.0-8.0-1.78","FL","et4cc4zeqy","1366","768","de","er08an21","null","","","","learningBlock2","","","","That was a dep.","null","","","","",""
"","html-keyboard-response","484","1683259","0.0-8.0-2.78","FL","et4cc4zeqy","1366","768","de","er08an21","null","","","","learningBlock2","","","","<div style=""font-size:60px;""> </div>","null","FL","learning/Slide159.JPG","That was a dep.","",""
"","image-keyboard-response","485","1683440","0.0-8.0-0.79","FL","et4cc4zeqy","1366","768","de","er08an21","null","","","","","","","","learning/Slide160.JPG","null","","","","",""
"","html-keyboard-response","486","1684602","0.0-8.0-1.79","FL","et4cc4zeqy","1366","768","de","er08an21","null","","","","learningBlock2","","","","That was a wug.","null","","","","",""
