"success","trial_type","trial_index","time_elapsed","internal_node_id","condition","subject","screen_width","screen_height","language","codeword","rt","responses","url","view_history","test_part","final_height_px","final_width_px","scale_factor","stimulus","key_press","learningType","presentedImage","presentedLabel","button_pressed","response"
"true","fullscreen","0","5841","0.0-0.0","LF","zt9mew4cym","1440","900","de","el06ng23","","","","","","","","","","","","","","",""
"","survey-html-form","1","16964","0.0-1.0","LF","zt9mew4cym","1440","900","de","el06ng23","11118","{""language"":""de""}","","","","","","","","","","","","",""
"","external-html","2","95887","0.0-2.0-0.0","LF","zt9mew4cym","1440","900","de","el06ng23","78868","","text/information.html","","","","","","","","","","","",""
"","external-html","3","119275","0.0-2.0-1.0","LF","zt9mew4cym","1440","900","de","el06ng23","23309","","text/consent.html","","","","","","","","","","","",""
"","survey-html-form","4","209595","0.0-2.0-2.0","LF","zt9mew4cym","1440","900","de","el06ng23","90315","{""codeword_enter"":""el06ng23""}","","","","","","","","","","","","",""
"","instructions","5","236285","0.0-4.0","LF","zt9mew4cym","1440","900","de","el06ng23","NA","","","[{""page_index"":0,""viewing_time"":5286},{""page_index"":1,""viewing_time"":19900}]","instructions","","","","","","","","","",""
"","resize","6","304790","0.0-5.0","LF","zt9mew4cym","1440","900","de","el06ng23","","","","","","","428","2.7174603174603176","","","","","","",""
"","html-keyboard-response","7","305794","0.0-6.0-0.0","LF","zt9mew4cym","1440","900","de","el06ng23","null","","","","learningBlock1","","","","This is a tob:","null","","","","",""
"","image-keyboard-response","8","306125","0.0-6.0-1.0","LF","zt9mew4cym","1440","900","de","el06ng23","null","","","","","","","","learning/Slide1.JPG","null","","","","",""
"","html-keyboard-response","9","307128","0.0-6.0-2.0","LF","zt9mew4cym","1440","900","de","el06ng23","null","","","","learningBlock1","","","","<div style=""font-size:60px;""> </div>","null","LF","learning/Slide1.JPG","This is a tob:","",""
"","html-keyboard-response","10","308130","0.0-6.0-0.1","LF","zt9mew4cym","1440","900","de","el06ng23","null","","","","learningBlock1","","","","This is a wug:","null","","","","",""
"","image-keyboard-response","11","308458","0.0-6.0-1.1","LF","zt9mew4cym","1440","900","de","el06ng23","null","","","","","","","","learning/Slide2.JPG","null","","","","",""
"","html-keyboard-response","12","309460","0.0-6.0-2.1","LF","zt9mew4cym","1440","900","de","el06ng23","null","","","","learningBlock1","","","","<div style=""font-size:60px;""> </div>","null","LF","learning/Slide2.JPG","This is a wug:","",""
"","html-keyboard-response","13","310460","0.0-6.0-0.2","LF","zt9mew4cym","1440","900","de","el06ng23","null","","","","learningBlock1","","","","This is a bim:","null","","","","",""
"","image-keyboard-response","14","310791","0.0-6.0-1.2","LF","zt9mew4cym","1440","900","de","el06ng23","null","","","","","","","","learning/Slide3.JPG","null","","","","",""
"","html-keyboard-response","15","311793","0.0-6.0-2.2","LF","zt9mew4cym","1440","900","de","el06ng23","null","","","","learningBlock1","","","","<div style=""font-size:60px;""> </div>","null","LF","learning/Slide3.JPG","This is a bim:","",""
"","html-keyboard-response","16","312795","0.0-6.0-0.3","LF","zt9mew4cym","1440","900","de","el06ng23","null","","","","learningBlock1","","","","This is a dep:","null","","","","",""
"","image-keyboard-response","17","313123","0.0-6.0-1.3","LF","zt9mew4cym","1440","900","de","el06ng23","null","","","","","","","","learning/Slide4.JPG","null","","","","",""
"","html-keyboard-response","18","314126","0.0-6.0-2.3","LF","zt9mew4cym","1440","900","de","el06ng23","null","","","","learningBlock1","","","","<div style=""font-size:60px;""> </div>","null","LF","learning/Slide4.JPG","This is a dep:","",""
"","html-keyboard-response","19","315126","0.0-6.0-0.4","LF","zt9mew4cym","1440","900","de","el06ng23","null","","","","learningBlock1","","","","This is a wug:","null","","","","",""
"","image-keyboard-response","20","315457","0.0-6.0-1.4","LF","zt9mew4cym","1440","900","de","el06ng23","null","","","","","","","","learning/Slide5.JPG","null","","","","",""
"","html-keyboard-response","21","316458","0.0-6.0-2.4","LF","zt9mew4cym","1440","900","de","el06ng23","null","","","","learningBlock1","","","","<div style=""font-size:60px;""> </div>","null","LF","learning/Slide5.JPG","This is a wug:","",""
"","html-keyboard-response","22","317463","0.0-6.0-0.5","LF","zt9mew4cym","1440","900","de","el06ng23","null","","","","learningBlock1","","","","This is a dep:","null","","","","",""
"","image-keyboard-response","23","317791","0.0-6.0-1.5","LF","zt9mew4cym","1440","900","de","el06ng23","null","","","","","","","","learning/Slide6.JPG","null","","","","",""
"","html-keyboard-response","24","318793","0.0-6.0-2.5","LF","zt9mew4cym","1440","900","de","el06ng23","null","","","","learningBlock1","","","","<div style=""font-size:60px;""> </div>","null","LF","learning/Slide6.JPG","This is a dep:","",""
"","html-keyboard-response","25","319796","0.0-6.0-0.6","LF","zt9mew4cym","1440","900","de","el06ng23","null","","","","learningBlock1","","","","This is a wug:","null","","","","",""
"","image-keyboard-response","26","320128","0.0-6.0-1.6","LF","zt9mew4cym","1440","900","de","el06ng23","null","","","","","","","","learning/Slide7.JPG","null","","","","",""
"","html-keyboard-response","27","321129","0.0-6.0-2.6","LF","zt9mew4cym","1440","900","de","el06ng23","null","","","","learningBlock1","","","","<div style=""font-size:60px;""> </div>","null","LF","learning/Slide7.JPG","This is a wug:","",""
"","html-keyboard-response","28","322133","0.0-6.0-0.7","LF","zt9mew4cym","1440","900","de","el06ng23","null","","","","learningBlock1","","","","This is a bim:","null","","","","",""
"","image-keyboard-response","29","322464","0.0-6.0-1.7","LF","zt9mew4cym","1440","900","de","el06ng23","null","","","","","","","","learning/Slide8.JPG","null","","","","",""
"","html-keyboard-response","30","323466","0.0-6.0-2.7","LF","zt9mew4cym","1440","900","de","el06ng23","null","","","","learningBlock1","","","","<div style=""font-size:60px;""> </div>","null","LF","learning/Slide8.JPG","This is a bim:","",""
"","html-keyboard-response","31","324470","0.0-6.0-0.8","LF","zt9mew4cym","1440","900","de","el06ng23","null","","","","learningBlock1","","","","This is a wug:","null","","","","",""
"","image-keyboard-response","32","324798","0.0-6.0-1.8","LF","zt9mew4cym","1440","900","de","el06ng23","null","","","","","","","","learning/Slide9.JPG","null","","","","",""
"","html-keyboard-response","33","325800","0.0-6.0-2.8","LF","zt9mew4cym","1440","900","de","el06ng23","null","","","","learningBlock1","","","","<div style=""font-size:60px;""> </div>","null","LF","learning/Slide9.JPG","This is a wug:","",""
"","html-keyboard-response","34","326801","0.0-6.0-0.9","LF","zt9mew4cym","1440","900","de","el06ng23","null","","","","learningBlock1","","","","This is a dep:","null","","","","",""
"","image-keyboard-response","35","327129","0.0-6.0-1.9","LF","zt9mew4cym","1440","900","de","el06ng23","null","","","","","","","","learning/Slide10.JPG","null","","","","",""
"","html-keyboard-response","36","328130","0.0-6.0-2.9","LF","zt9mew4cym","1440","900","de","el06ng23","null","","","","learningBlock1","","","","<div style=""font-size:60px;""> </div>","null","LF","learning/Slide10.JPG","This is a dep:","",""
"","html-keyboard-response","37","329132","0.0-6.0-0.10","LF","zt9mew4cym","1440","900","de","el06ng23","null","","","","learningBlock1","","","","This is a tob:","null","","","","",""
"","image-keyboard-response","38","329463","0.0-6.0-1.10","LF","zt9mew4cym","1440","900","de","el06ng23","null","","","","","","","","learning/Slide11.JPG","null","","","","",""
"","html-keyboard-response","39","330464","0.0-6.0-2.10","LF","zt9mew4cym","1440","900","de","el06ng23","null","","","","learningBlock1","","","","<div style=""font-size:60px;""> </div>","null","LF","learning/Slide11.JPG","This is a tob:","",""
"","html-keyboard-response","40","331465","0.0-6.0-0.11","LF","zt9mew4cym","1440","900","de","el06ng23","null","","","","learningBlock1","","","","This is a dep:","null","","","","",""
"","image-keyboard-response","41","331799","0.0-6.0-1.11","LF","zt9mew4cym","1440","900","de","el06ng23","null","","","","","","","","learning/Slide12.JPG","null","","","","",""
"","html-keyboard-response","42","332800","0.0-6.0-2.11","LF","zt9mew4cym","1440","900","de","el06ng23","null","","","","learningBlock1","","","","<div style=""font-size:60px;""> </div>","null","LF","learning/Slide12.JPG","This is a dep:","",""
"","html-keyboard-response","43","333801","0.0-6.0-0.12","LF","zt9mew4cym","1440","900","de","el06ng23","null","","","","learningBlock1","","","","This is a bim:","null","","","","",""
"","image-keyboard-response","44","334133","0.0-6.0-1.12","LF","zt9mew4cym","1440","900","de","el06ng23","null","","","","","","","","learning/Slide13.JPG","null","","","","",""
"","html-keyboard-response","45","335133","0.0-6.0-2.12","LF","zt9mew4cym","1440","900","de","el06ng23","null","","","","learningBlock1","","","","<div style=""font-size:60px;""> </div>","null","LF","learning/Slide13.JPG","This is a bim:","",""
"","html-keyboard-response","46","336135","0.0-6.0-0.13","LF","zt9mew4cym","1440","900","de","el06ng23","null","","","","learningBlock1","","","","This is a wug:","null","","","","",""
"","image-keyboard-response","47","336466","0.0-6.0-1.13","LF","zt9mew4cym","1440","900","de","el06ng23","null","","","","","","","","learning/Slide14.JPG","null","","","","",""
"","html-keyboard-response","48","337467","0.0-6.0-2.13","LF","zt9mew4cym","1440","900","de","el06ng23","null","","","","learningBlock1","","","","<div style=""font-size:60px;""> </div>","null","LF","learning/Slide14.JPG","This is a wug:","",""
"","html-keyboard-response","49","338469","0.0-6.0-0.14","LF","zt9mew4cym","1440","900","de","el06ng23","null","","","","learningBlock1","","","","This is a tob:","null","","","","",""
"","image-keyboard-response","50","338800","0.0-6.0-1.14","LF","zt9mew4cym","1440","900","de","el06ng23","null","","","","","","","","learning/Slide15.JPG","null","","","","",""
"","html-keyboard-response","51","339800","0.0-6.0-2.14","LF","zt9mew4cym","1440","900","de","el06ng23","null","","","","learningBlock1","","","","<div style=""font-size:60px;""> </div>","null","LF","learning/Slide15.JPG","This is a tob:","",""
"","html-keyboard-response","52","340802","0.0-6.0-0.15","LF","zt9mew4cym","1440","900","de","el06ng23","null","","","","learningBlock1","","","","This is a dep:","null","","","","",""
"","image-keyboard-response","53","341133","0.0-6.0-1.15","LF","zt9mew4cym","1440","900","de","el06ng23","null","","","","","","","","learning/Slide16.JPG","null","","","","",""
"","html-keyboard-response","54","342134","0.0-6.0-2.15","LF","zt9mew4cym","1440","900","de","el06ng23","null","","","","learningBlock1","","","","<div style=""font-size:60px;""> </div>","null","LF","learning/Slide16.JPG","This is a dep:","",""
"","html-keyboard-response","55","343136","0.0-6.0-0.16","LF","zt9mew4cym","1440","900","de","el06ng23","null","","","","learningBlock1","","","","This is a bim:","null","","","","",""
"","image-keyboard-response","56","343464","0.0-6.0-1.16","LF","zt9mew4cym","1440","900","de","el06ng23","null","","","","","","","","learning/Slide17.JPG","null","","","","",""
"","html-keyboard-response","57","344466","0.0-6.0-2.16","LF","zt9mew4cym","1440","900","de","el06ng23","null","","","","learningBlock1","","","","<div style=""font-size:60px;""> </div>","null","LF","learning/Slide17.JPG","This is a bim:","",""
"","html-keyboard-response","58","345467","0.0-6.0-0.17","LF","zt9mew4cym","1440","900","de","el06ng23","null","","","","learningBlock1","","","","This is a tob:","null","","","","",""
"","image-keyboard-response","59","345795","0.0-6.0-1.17","LF","zt9mew4cym","1440","900","de","el06ng23","null","","","","","","","","learning/Slide18.JPG","null","","","","",""
"","html-keyboard-response","60","346799","0.0-6.0-2.17","LF","zt9mew4cym","1440","900","de","el06ng23","null","","","","learningBlock1","","","","<div style=""font-size:60px;""> </div>","null","LF","learning/Slide18.JPG","This is a tob:","",""
"","html-keyboard-response","61","347800","0.0-6.0-0.18","LF","zt9mew4cym","1440","900","de","el06ng23","null","","","","learningBlock1","","","","This is a wug:","null","","","","",""
"","image-keyboard-response","62","348132","0.0-6.0-1.18","LF","zt9mew4cym","1440","900","de","el06ng23","null","","","","","","","","learning/Slide19.JPG","null","","","","",""
"","html-keyboard-response","63","349138","0.0-6.0-2.18","LF","zt9mew4cym","1440","900","de","el06ng23","null","","","","learningBlock1","","","","<div style=""font-size:60px;""> </div>","null","LF","learning/Slide19.JPG","This is a wug:","",""
"","html-keyboard-response","64","350143","0.0-6.0-0.19","LF","zt9mew4cym","1440","900","de","el06ng23","null","","","","learningBlock1","","","","This is a bim:","null","","","","",""
"","image-keyboard-response","65","350471","0.0-6.0-1.19","LF","zt9mew4cym","1440","900","de","el06ng23","null","","","","","","","","learning/Slide20.JPG","null","","","","",""
"","html-keyboard-response","66","351472","0.0-6.0-2.19","LF","zt9mew4cym","1440","900","de","el06ng23","null","","","","learningBlock1","","","","<div style=""font-size:60px;""> </div>","null","LF","learning/Slide20.JPG","This is a bim:","",""
"","html-keyboard-response","67","352476","0.0-6.0-0.20","LF","zt9mew4cym","1440","900","de","el06ng23","null","","","","learningBlock1","","","","This is a dep:","null","","","","",""
"","image-keyboard-response","68","352807","0.0-6.0-1.20","LF","zt9mew4cym","1440","900","de","el06ng23","null","","","","","","","","learning/Slide21.JPG","null","","","","",""
"","html-keyboard-response","69","353808","0.0-6.0-2.20","LF","zt9mew4cym","1440","900","de","el06ng23","null","","","","learningBlock1","","","","<div style=""font-size:60px;""> </div>","null","LF","learning/Slide21.JPG","This is a dep:","",""
"","html-keyboard-response","70","354810","0.0-6.0-0.21","LF","zt9mew4cym","1440","900","de","el06ng23","null","","","","learningBlock1","","","","This is a bim:","null","","","","",""
"","image-keyboard-response","71","355138","0.0-6.0-1.21","LF","zt9mew4cym","1440","900","de","el06ng23","null","","","","","","","","learning/Slide22.JPG","null","","","","",""
"","html-keyboard-response","72","356140","0.0-6.0-2.21","LF","zt9mew4cym","1440","900","de","el06ng23","null","","","","learningBlock1","","","","<div style=""font-size:60px;""> </div>","null","LF","learning/Slide22.JPG","This is a bim:","",""
"","html-keyboard-response","73","357141","0.0-6.0-0.22","LF","zt9mew4cym","1440","900","de","el06ng23","null","","","","learningBlock1","","","","This is a tob:","null","","","","",""
"","image-keyboard-response","74","357474","0.0-6.0-1.22","LF","zt9mew4cym","1440","900","de","el06ng23","null","","","","","","","","learning/Slide23.JPG","null","","","","",""
"","html-keyboard-response","75","358476","0.0-6.0-2.22","LF","zt9mew4cym","1440","900","de","el06ng23","null","","","","learningBlock1","","","","<div style=""font-size:60px;""> </div>","null","LF","learning/Slide23.JPG","This is a tob:","",""
"","html-keyboard-response","76","359478","0.0-6.0-0.23","LF","zt9mew4cym","1440","900","de","el06ng23","null","","","","learningBlock1","","","","This is a wug:","null","","","","",""
"","image-keyboard-response","77","359808","0.0-6.0-1.23","LF","zt9mew4cym","1440","900","de","el06ng23","null","","","","","","","","learning/Slide24.JPG","null","","","","",""
"","html-keyboard-response","78","360809","0.0-6.0-2.23","LF","zt9mew4cym","1440","900","de","el06ng23","null","","","","learningBlock1","","","","<div style=""font-size:60px;""> </div>","null","LF","learning/Slide24.JPG","This is a wug:","",""
"","html-keyboard-response","79","361811","0.0-6.0-0.24","LF","zt9mew4cym","1440","900","de","el06ng23","null","","","","learningBlock1","","","","This is a dep:","null","","","","",""
"","image-keyboard-response","80","362141","0.0-6.0-1.24","LF","zt9mew4cym","1440","900","de","el06ng23","null","","","","","","","","learning/Slide25.JPG","null","","","","",""
"","html-keyboard-response","81","363143","0.0-6.0-2.24","LF","zt9mew4cym","1440","900","de","el06ng23","null","","","","learningBlock1","","","","<div style=""font-size:60px;""> </div>","null","LF","learning/Slide25.JPG","This is a dep:","",""
"","html-keyboard-response","82","364146","0.0-6.0-0.25","LF","zt9mew4cym","1440","900","de","el06ng23","null","","","","learningBlock1","","","","This is a wug:","null","","","","",""
"","image-keyboard-response","83","364479","0.0-6.0-1.25","LF","zt9mew4cym","1440","900","de","el06ng23","null","","","","","","","","learning/Slide26.JPG","null","","","","",""
"","html-keyboard-response","84","365479","0.0-6.0-2.25","LF","zt9mew4cym","1440","900","de","el06ng23","null","","","","learningBlock1","","","","<div style=""font-size:60px;""> </div>","null","LF","learning/Slide26.JPG","This is a wug:","",""
"","html-keyboard-response","85","366482","0.0-6.0-0.26","LF","zt9mew4cym","1440","900","de","el06ng23","null","","","","learningBlock1","","","","This is a bim:","null","","","","",""
"","image-keyboard-response","86","366809","0.0-6.0-1.26","LF","zt9mew4cym","1440","900","de","el06ng23","null","","","","","","","","learning/Slide27.JPG","null","","","","",""
"","html-keyboard-response","87","367811","0.0-6.0-2.26","LF","zt9mew4cym","1440","900","de","el06ng23","null","","","","learningBlock1","","","","<div style=""font-size:60px;""> </div>","null","LF","learning/Slide27.JPG","This is a bim:","",""
"","html-keyboard-response","88","368812","0.0-6.0-0.27","LF","zt9mew4cym","1440","900","de","el06ng23","null","","","","learningBlock1","","","","This is a dep:","null","","","","",""
"","image-keyboard-response","89","369140","0.0-6.0-1.27","LF","zt9mew4cym","1440","900","de","el06ng23","null","","","","","","","","learning/Slide28.JPG","null","","","","",""
"","html-keyboard-response","90","370141","0.0-6.0-2.27","LF","zt9mew4cym","1440","900","de","el06ng23","null","","","","learningBlock1","","","","<div style=""font-size:60px;""> </div>","null","LF","learning/Slide28.JPG","This is a dep:","",""
"","html-keyboard-response","91","371142","0.0-6.0-0.28","LF","zt9mew4cym","1440","900","de","el06ng23","null","","","","learningBlock1","","","","This is a tob:","null","","","","",""
"","image-keyboard-response","92","371475","0.0-6.0-1.28","LF","zt9mew4cym","1440","900","de","el06ng23","null","","","","","","","","learning/Slide29.JPG","null","","","","",""
"","html-keyboard-response","93","372478","0.0-6.0-2.28","LF","zt9mew4cym","1440","900","de","el06ng23","null","","","","learningBlock1","","","","<div style=""font-size:60px;""> </div>","null","LF","learning/Slide29.JPG","This is a tob:","",""
"","html-keyboard-response","94","373482","0.0-6.0-0.29","LF","zt9mew4cym","1440","900","de","el06ng23","null","","","","learningBlock1","","","","This is a dep:","null","","","","",""
"","image-keyboard-response","95","373813","0.0-6.0-1.29","LF","zt9mew4cym","1440","900","de","el06ng23","null","","","","","","","","learning/Slide30.JPG","null","","","","",""
"","html-keyboard-response","96","374815","0.0-6.0-2.29","LF","zt9mew4cym","1440","900","de","el06ng23","null","","","","learningBlock1","","","","<div style=""font-size:60px;""> </div>","null","LF","learning/Slide30.JPG","This is a dep:","",""
"","html-keyboard-response","97","375818","0.0-6.0-0.30","LF","zt9mew4cym","1440","900","de","el06ng23","null","","","","learningBlock1","","","","This is a wug:","null","","","","",""
"","image-keyboard-response","98","376147","0.0-6.0-1.30","LF","zt9mew4cym","1440","900","de","el06ng23","null","","","","","","","","learning/Slide31.JPG","null","","","","",""
"","html-keyboard-response","99","377148","0.0-6.0-2.30","LF","zt9mew4cym","1440","900","de","el06ng23","null","","","","learningBlock1","","","","<div style=""font-size:60px;""> </div>","null","LF","learning/Slide31.JPG","This is a wug:","",""
"","html-keyboard-response","100","378151","0.0-6.0-0.31","LF","zt9mew4cym","1440","900","de","el06ng23","null","","","","learningBlock1","","","","This is a tob:","null","","","","",""
"","image-keyboard-response","101","378479","0.0-6.0-1.31","LF","zt9mew4cym","1440","900","de","el06ng23","null","","","","","","","","learning/Slide32.JPG","null","","","","",""
"","html-keyboard-response","102","379482","0.0-6.0-2.31","LF","zt9mew4cym","1440","900","de","el06ng23","null","","","","learningBlock1","","","","<div style=""font-size:60px;""> </div>","null","LF","learning/Slide32.JPG","This is a tob:","",""
"","html-keyboard-response","103","380483","0.0-6.0-0.32","LF","zt9mew4cym","1440","900","de","el06ng23","null","","","","learningBlock1","","","","This is a bim:","null","","","","",""
"","image-keyboard-response","104","380814","0.0-6.0-1.32","LF","zt9mew4cym","1440","900","de","el06ng23","null","","","","","","","","learning/Slide33.JPG","null","","","","",""
"","html-keyboard-response","105","381816","0.0-6.0-2.32","LF","zt9mew4cym","1440","900","de","el06ng23","null","","","","learningBlock1","","","","<div style=""font-size:60px;""> </div>","null","LF","learning/Slide33.JPG","This is a bim:","",""
"","html-keyboard-response","106","382818","0.0-6.0-0.33","LF","zt9mew4cym","1440","900","de","el06ng23","null","","","","learningBlock1","","","","This is a tob:","null","","","","",""
"","image-keyboard-response","107","383151","0.0-6.0-1.33","LF","zt9mew4cym","1440","900","de","el06ng23","null","","","","","","","","learning/Slide34.JPG","null","","","","",""
"","html-keyboard-response","108","384152","0.0-6.0-2.33","LF","zt9mew4cym","1440","900","de","el06ng23","null","","","","learningBlock1","","","","<div style=""font-size:60px;""> </div>","null","LF","learning/Slide34.JPG","This is a tob:","",""
"","html-keyboard-response","109","385156","0.0-6.0-0.34","LF","zt9mew4cym","1440","900","de","el06ng23","null","","","","learningBlock1","","","","This is a bim:","null","","","","",""
"","image-keyboard-response","110","385487","0.0-6.0-1.34","LF","zt9mew4cym","1440","900","de","el06ng23","null","","","","","","","","learning/Slide35.JPG","null","","","","",""
"","html-keyboard-response","111","386488","0.0-6.0-2.34","LF","zt9mew4cym","1440","900","de","el06ng23","null","","","","learningBlock1","","","","<div style=""font-size:60px;""> </div>","null","LF","learning/Slide35.JPG","This is a bim:","",""
"","html-keyboard-response","112","387490","0.0-6.0-0.35","LF","zt9mew4cym","1440","900","de","el06ng23","null","","","","learningBlock1","","","","This is a dep:","null","","","","",""
"","image-keyboard-response","113","387818","0.0-6.0-1.35","LF","zt9mew4cym","1440","900","de","el06ng23","null","","","","","","","","learning/Slide36.JPG","null","","","","",""
"","html-keyboard-response","114","388819","0.0-6.0-2.35","LF","zt9mew4cym","1440","900","de","el06ng23","null","","","","learningBlock1","","","","<div style=""font-size:60px;""> </div>","null","LF","learning/Slide36.JPG","This is a dep:","",""
"","html-keyboard-response","115","389824","0.0-6.0-0.36","LF","zt9mew4cym","1440","900","de","el06ng23","null","","","","learningBlock1","","","","This is a tob:","null","","","","",""
"","image-keyboard-response","116","390151","0.0-6.0-1.36","LF","zt9mew4cym","1440","900","de","el06ng23","null","","","","","","","","learning/Slide37.JPG","null","","","","",""
"","html-keyboard-response","117","391153","0.0-6.0-2.36","LF","zt9mew4cym","1440","900","de","el06ng23","null","","","","learningBlock1","","","","<div style=""font-size:60px;""> </div>","null","LF","learning/Slide37.JPG","This is a tob:","",""
"","html-keyboard-response","118","392157","0.0-6.0-0.37","LF","zt9mew4cym","1440","900","de","el06ng23","null","","","","learningBlock1","","","","This is a wug:","null","","","","",""
"","image-keyboard-response","119","392488","0.0-6.0-1.37","LF","zt9mew4cym","1440","900","de","el06ng23","null","","","","","","","","learning/Slide38.JPG","null","","","","",""
"","html-keyboard-response","120","393489","0.0-6.0-2.37","LF","zt9mew4cym","1440","900","de","el06ng23","null","","","","learningBlock1","","","","<div style=""font-size:60px;""> </div>","null","LF","learning/Slide38.JPG","This is a wug:","",""
"","html-keyboard-response","121","394491","0.0-6.0-0.38","LF","zt9mew4cym","1440","900","de","el06ng23","null","","","","learningBlock1","","","","This is a bim:","null","","","","",""
"","image-keyboard-response","122","394821","0.0-6.0-1.38","LF","zt9mew4cym","1440","900","de","el06ng23","null","","","","","","","","learning/Slide39.JPG","null","","","","",""
"","html-keyboard-response","123","395822","0.0-6.0-2.38","LF","zt9mew4cym","1440","900","de","el06ng23","null","","","","learningBlock1","","","","<div style=""font-size:60px;""> </div>","null","LF","learning/Slide39.JPG","This is a bim:","",""
"","html-keyboard-response","124","396825","0.0-6.0-0.39","LF","zt9mew4cym","1440","900","de","el06ng23","null","","","","learningBlock1","","","","This is a tob:","null","","","","",""
"","image-keyboard-response","125","397151","0.0-6.0-1.39","LF","zt9mew4cym","1440","900","de","el06ng23","null","","","","","","","","learning/Slide40.JPG","null","","","","",""
"","html-keyboard-response","126","398153","0.0-6.0-2.39","LF","zt9mew4cym","1440","900","de","el06ng23","null","","","","learningBlock1","","","","<div style=""font-size:60px;""> </div>","null","LF","learning/Slide40.JPG","This is a tob:","",""
"","html-keyboard-response","127","399155","0.0-6.0-0.40","LF","zt9mew4cym","1440","900","de","el06ng23","null","","","","learningBlock1","","","","This is a bim:","null","","","","",""
"","image-keyboard-response","128","399487","0.0-6.0-1.40","LF","zt9mew4cym","1440","900","de","el06ng23","null","","","","","","","","learning/Slide41.JPG","null","","","","",""
"","html-keyboard-response","129","400490","0.0-6.0-2.40","LF","zt9mew4cym","1440","900","de","el06ng23","null","","","","learningBlock1","","","","<div style=""font-size:60px;""> </div>","null","LF","learning/Slide41.JPG","This is a bim:","",""
"","html-keyboard-response","130","401494","0.0-6.0-0.41","LF","zt9mew4cym","1440","900","de","el06ng23","null","","","","learningBlock1","","","","This is a dep:","null","","","","",""
"","image-keyboard-response","131","401826","0.0-6.0-1.41","LF","zt9mew4cym","1440","900","de","el06ng23","null","","","","","","","","learning/Slide42.JPG","null","","","","",""
"","html-keyboard-response","132","402827","0.0-6.0-2.41","LF","zt9mew4cym","1440","900","de","el06ng23","null","","","","learningBlock1","","","","<div style=""font-size:60px;""> </div>","null","LF","learning/Slide42.JPG","This is a dep:","",""
"","html-keyboard-response","133","403828","0.0-6.0-0.42","LF","zt9mew4cym","1440","900","de","el06ng23","null","","","","learningBlock1","","","","This is a wug:","null","","","","",""
"","image-keyboard-response","134","404159","0.0-6.0-1.42","LF","zt9mew4cym","1440","900","de","el06ng23","null","","","","","","","","learning/Slide43.JPG","null","","","","",""
"","html-keyboard-response","135","405160","0.0-6.0-2.42","LF","zt9mew4cym","1440","900","de","el06ng23","null","","","","learningBlock1","","","","<div style=""font-size:60px;""> </div>","null","LF","learning/Slide43.JPG","This is a wug:","",""
"","html-keyboard-response","136","406161","0.0-6.0-0.43","LF","zt9mew4cym","1440","900","de","el06ng23","null","","","","learningBlock1","","","","This is a bim:","null","","","","",""
"","image-keyboard-response","137","406493","0.0-6.0-1.43","LF","zt9mew4cym","1440","900","de","el06ng23","null","","","","","","","","learning/Slide44.JPG","null","","","","",""
"","html-keyboard-response","138","407494","0.0-6.0-2.43","LF","zt9mew4cym","1440","900","de","el06ng23","null","","","","learningBlock1","","","","<div style=""font-size:60px;""> </div>","null","LF","learning/Slide44.JPG","This is a bim:","",""
"","html-keyboard-response","139","408499","0.0-6.0-0.44","LF","zt9mew4cym","1440","900","de","el06ng23","null","","","","learningBlock1","","","","This is a wug:","null","","","","",""
"","image-keyboard-response","140","408830","0.0-6.0-1.44","LF","zt9mew4cym","1440","900","de","el06ng23","null","","","","","","","","learning/Slide45.JPG","null","","","","",""
"","html-keyboard-response","141","409830","0.0-6.0-2.44","LF","zt9mew4cym","1440","900","de","el06ng23","null","","","","learningBlock1","","","","<div style=""font-size:60px;""> </div>","null","LF","learning/Slide45.JPG","This is a wug:","",""
"","html-keyboard-response","142","410833","0.0-6.0-0.45","LF","zt9mew4cym","1440","900","de","el06ng23","null","","","","learningBlock1","","","","This is a dep:","null","","","","",""
"","image-keyboard-response","143","411163","0.0-6.0-1.45","LF","zt9mew4cym","1440","900","de","el06ng23","null","","","","","","","","learning/Slide46.JPG","null","","","","",""
"","html-keyboard-response","144","412164","0.0-6.0-2.45","LF","zt9mew4cym","1440","900","de","el06ng23","null","","","","learningBlock1","","","","<div style=""font-size:60px;""> </div>","null","LF","learning/Slide46.JPG","This is a dep:","",""
"","html-keyboard-response","145","413167","0.0-6.0-0.46","LF","zt9mew4cym","1440","900","de","el06ng23","null","","","","learningBlock1","","","","This is a tob:","null","","","","",""
"","image-keyboard-response","146","413500","0.0-6.0-1.46","LF","zt9mew4cym","1440","900","de","el06ng23","null","","","","","","","","learning/Slide47.JPG","null","","","","",""
"","html-keyboard-response","147","414501","0.0-6.0-2.46","LF","zt9mew4cym","1440","900","de","el06ng23","null","","","","learningBlock1","","","","<div style=""font-size:60px;""> </div>","null","LF","learning/Slide47.JPG","This is a tob:","",""
"","html-keyboard-response","148","415502","0.0-6.0-0.47","LF","zt9mew4cym","1440","900","de","el06ng23","null","","","","learningBlock1","","","","This is a bim:","null","","","","",""
"","image-keyboard-response","149","415831","0.0-6.0-1.47","LF","zt9mew4cym","1440","900","de","el06ng23","null","","","","","","","","learning/Slide48.JPG","null","","","","",""
"","html-keyboard-response","150","416832","0.0-6.0-2.47","LF","zt9mew4cym","1440","900","de","el06ng23","null","","","","learningBlock1","","","","<div style=""font-size:60px;""> </div>","null","LF","learning/Slide48.JPG","This is a bim:","",""
"","html-keyboard-response","151","417833","0.0-6.0-0.48","LF","zt9mew4cym","1440","900","de","el06ng23","null","","","","learningBlock1","","","","This is a dep:","null","","","","",""
"","image-keyboard-response","152","418166","0.0-6.0-1.48","LF","zt9mew4cym","1440","900","de","el06ng23","null","","","","","","","","learning/Slide49.JPG","null","","","","",""
"","html-keyboard-response","153","419168","0.0-6.0-2.48","LF","zt9mew4cym","1440","900","de","el06ng23","null","","","","learningBlock1","","","","<div style=""font-size:60px;""> </div>","null","LF","learning/Slide49.JPG","This is a dep:","",""
"","html-keyboard-response","154","420169","0.0-6.0-0.49","LF","zt9mew4cym","1440","900","de","el06ng23","null","","","","learningBlock1","","","","This is a tob:","null","","","","",""
"","image-keyboard-response","155","420500","0.0-6.0-1.49","LF","zt9mew4cym","1440","900","de","el06ng23","null","","","","","","","","learning/Slide50.JPG","null","","","","",""
"","html-keyboard-response","156","421502","0.0-6.0-2.49","LF","zt9mew4cym","1440","900","de","el06ng23","null","","","","learningBlock1","","","","<div style=""font-size:60px;""> </div>","null","LF","learning/Slide50.JPG","This is a tob:","",""
"","html-keyboard-response","157","422503","0.0-6.0-0.50","LF","zt9mew4cym","1440","900","de","el06ng23","null","","","","learningBlock1","","","","This is a bim:","null","","","","",""
"","image-keyboard-response","158","422834","0.0-6.0-1.50","LF","zt9mew4cym","1440","900","de","el06ng23","null","","","","","","","","learning/Slide51.JPG","null","","","","",""
"","html-keyboard-response","159","423835","0.0-6.0-2.50","LF","zt9mew4cym","1440","900","de","el06ng23","null","","","","learningBlock1","","","","<div style=""font-size:60px;""> </div>","null","LF","learning/Slide51.JPG","This is a bim:","",""
"","html-keyboard-response","160","424837","0.0-6.0-0.51","LF","zt9mew4cym","1440","900","de","el06ng23","null","","","","learningBlock1","","","","This is a wug:","null","","","","",""
"","image-keyboard-response","161","425168","0.0-6.0-1.51","LF","zt9mew4cym","1440","900","de","el06ng23","null","","","","","","","","learning/Slide52.JPG","null","","","","",""
"","html-keyboard-response","162","426169","0.0-6.0-2.51","LF","zt9mew4cym","1440","900","de","el06ng23","null","","","","learningBlock1","","","","<div style=""font-size:60px;""> </div>","null","LF","learning/Slide52.JPG","This is a wug:","",""
"","html-keyboard-response","163","427173","0.0-6.0-0.52","LF","zt9mew4cym","1440","900","de","el06ng23","null","","","","learningBlock1","","","","This is a tob:","null","","","","",""
"","image-keyboard-response","164","427501","0.0-6.0-1.52","LF","zt9mew4cym","1440","900","de","el06ng23","null","","","","","","","","learning/Slide53.JPG","null","","","","",""
"","html-keyboard-response","165","428503","0.0-6.0-2.52","LF","zt9mew4cym","1440","900","de","el06ng23","null","","","","learningBlock1","","","","<div style=""font-size:60px;""> </div>","null","LF","learning/Slide53.JPG","This is a tob:","",""
"","html-keyboard-response","166","429507","0.0-6.0-0.53","LF","zt9mew4cym","1440","900","de","el06ng23","null","","","","learningBlock1","","","","This is a dep:","null","","","","",""
"","image-keyboard-response","167","429834","0.0-6.0-1.53","LF","zt9mew4cym","1440","900","de","el06ng23","null","","","","","","","","learning/Slide54.JPG","null","","","","",""
"","html-keyboard-response","168","430836","0.0-6.0-2.53","LF","zt9mew4cym","1440","900","de","el06ng23","null","","","","learningBlock1","","","","<div style=""font-size:60px;""> </div>","null","LF","learning/Slide54.JPG","This is a dep:","",""
"","html-keyboard-response","169","431838","0.0-6.0-0.54","LF","zt9mew4cym","1440","900","de","el06ng23","null","","","","learningBlock1","","","","This is a bim:","null","","","","",""
"","image-keyboard-response","170","432169","0.0-6.0-1.54","LF","zt9mew4cym","1440","900","de","el06ng23","null","","","","","","","","learning/Slide55.JPG","null","","","","",""
"","html-keyboard-response","171","433173","0.0-6.0-2.54","LF","zt9mew4cym","1440","900","de","el06ng23","null","","","","learningBlock1","","","","<div style=""font-size:60px;""> </div>","null","LF","learning/Slide55.JPG","This is a bim:","",""
"","html-keyboard-response","172","434178","0.0-6.0-0.55","LF","zt9mew4cym","1440","900","de","el06ng23","null","","","","learningBlock1","","","","This is a tob:","null","","","","",""
"","image-keyboard-response","173","434505","0.0-6.0-1.55","LF","zt9mew4cym","1440","900","de","el06ng23","null","","","","","","","","learning/Slide56.JPG","null","","","","",""
"","html-keyboard-response","174","435506","0.0-6.0-2.55","LF","zt9mew4cym","1440","900","de","el06ng23","null","","","","learningBlock1","","","","<div style=""font-size:60px;""> </div>","null","LF","learning/Slide56.JPG","This is a tob:","",""
"","html-keyboard-response","175","436508","0.0-6.0-0.56","LF","zt9mew4cym","1440","900","de","el06ng23","null","","","","learningBlock1","","","","This is a dep:","null","","","","",""
"","image-keyboard-response","176","436839","0.0-6.0-1.56","LF","zt9mew4cym","1440","900","de","el06ng23","null","","","","","","","","learning/Slide57.JPG","null","","","","",""
"","html-keyboard-response","177","437840","0.0-6.0-2.56","LF","zt9mew4cym","1440","900","de","el06ng23","null","","","","learningBlock1","","","","<div style=""font-size:60px;""> </div>","null","LF","learning/Slide57.JPG","This is a dep:","",""
"","html-keyboard-response","178","438844","0.0-6.0-0.57","LF","zt9mew4cym","1440","900","de","el06ng23","null","","","","learningBlock1","","","","This is a wug:","null","","","","",""
"","image-keyboard-response","179","439175","0.0-6.0-1.57","LF","zt9mew4cym","1440","900","de","el06ng23","null","","","","","","","","learning/Slide58.JPG","null","","","","",""
"","html-keyboard-response","180","440177","0.0-6.0-2.57","LF","zt9mew4cym","1440","900","de","el06ng23","null","","","","learningBlock1","","","","<div style=""font-size:60px;""> </div>","null","LF","learning/Slide58.JPG","This is a wug:","",""
"","html-keyboard-response","181","441180","0.0-6.0-0.58","LF","zt9mew4cym","1440","900","de","el06ng23","null","","","","learningBlock1","","","","This is a dep:","null","","","","",""
"","image-keyboard-response","182","441511","0.0-6.0-1.58","LF","zt9mew4cym","1440","900","de","el06ng23","null","","","","","","","","learning/Slide59.JPG","null","","","","",""
"","html-keyboard-response","183","442514","0.0-6.0-2.58","LF","zt9mew4cym","1440","900","de","el06ng23","null","","","","learningBlock1","","","","<div style=""font-size:60px;""> </div>","null","LF","learning/Slide59.JPG","This is a dep:","",""
"","html-keyboard-response","184","443515","0.0-6.0-0.59","LF","zt9mew4cym","1440","900","de","el06ng23","null","","","","learningBlock1","","","","This is a wug:","null","","","","",""
"","image-keyboard-response","185","443843","0.0-6.0-1.59","LF","zt9mew4cym","1440","900","de","el06ng23","null","","","","","","","","learning/Slide60.JPG","null","","","","",""
"","html-keyboard-response","186","444844","0.0-6.0-2.59","LF","zt9mew4cym","1440","900","de","el06ng23","null","","","","learningBlock1","","","","<div style=""font-size:60px;""> </div>","null","LF","learning/Slide60.JPG","This is a wug:","",""
"","html-keyboard-response","187","445845","0.0-6.0-0.60","LF","zt9mew4cym","1440","900","de","el06ng23","null","","","","learningBlock1","","","","This is a bim:","null","","","","",""
"","image-keyboard-response","188","446173","0.0-6.0-1.60","LF","zt9mew4cym","1440","900","de","el06ng23","null","","","","","","","","learning/Slide61.JPG","null","","","","",""
"","html-keyboard-response","189","447175","0.0-6.0-2.60","LF","zt9mew4cym","1440","900","de","el06ng23","null","","","","learningBlock1","","","","<div style=""font-size:60px;""> </div>","null","LF","learning/Slide61.JPG","This is a bim:","",""
"","html-keyboard-response","190","448180","0.0-6.0-0.61","LF","zt9mew4cym","1440","900","de","el06ng23","null","","","","learningBlock1","","","","This is a dep:","null","","","","",""
"","image-keyboard-response","191","448510","0.0-6.0-1.61","LF","zt9mew4cym","1440","900","de","el06ng23","null","","","","","","","","learning/Slide62.JPG","null","","","","",""
"","html-keyboard-response","192","449511","0.0-6.0-2.61","LF","zt9mew4cym","1440","900","de","el06ng23","null","","","","learningBlock1","","","","<div style=""font-size:60px;""> </div>","null","LF","learning/Slide62.JPG","This is a dep:","",""
"","html-keyboard-response","193","450513","0.0-6.0-0.62","LF","zt9mew4cym","1440","900","de","el06ng23","null","","","","learningBlock1","","","","This is a bim:","null","","","","",""
"","image-keyboard-response","194","450843","0.0-6.0-1.62","LF","zt9mew4cym","1440","900","de","el06ng23","null","","","","","","","","learning/Slide63.JPG","null","","","","",""
"","html-keyboard-response","195","451844","0.0-6.0-2.62","LF","zt9mew4cym","1440","900","de","el06ng23","null","","","","learningBlock1","","","","<div style=""font-size:60px;""> </div>","null","LF","learning/Slide63.JPG","This is a bim:","",""
"","html-keyboard-response","196","452846","0.0-6.0-0.63","LF","zt9mew4cym","1440","900","de","el06ng23","null","","","","learningBlock1","","","","This is a tob:","null","","","","",""
"","image-keyboard-response","197","453180","0.0-6.0-1.63","LF","zt9mew4cym","1440","900","de","el06ng23","null","","","","","","","","learning/Slide64.JPG","null","","","","",""
"","html-keyboard-response","198","454180","0.0-6.0-2.63","LF","zt9mew4cym","1440","900","de","el06ng23","null","","","","learningBlock1","","","","<div style=""font-size:60px;""> </div>","null","LF","learning/Slide64.JPG","This is a tob:","",""
"","html-keyboard-response","199","455182","0.0-6.0-0.64","LF","zt9mew4cym","1440","900","de","el06ng23","null","","","","learningBlock1","","","","This is a wug:","null","","","","",""
"","image-keyboard-response","200","455515","0.0-6.0-1.64","LF","zt9mew4cym","1440","900","de","el06ng23","null","","","","","","","","learning/Slide65.JPG","null","","","","",""
"","html-keyboard-response","201","456518","0.0-6.0-2.64","LF","zt9mew4cym","1440","900","de","el06ng23","null","","","","learningBlock1","","","","<div style=""font-size:60px;""> </div>","null","LF","learning/Slide65.JPG","This is a wug:","",""
"","html-keyboard-response","202","457519","0.0-6.0-0.65","LF","zt9mew4cym","1440","900","de","el06ng23","null","","","","learningBlock1","","","","This is a dep:","null","","","","",""
"","image-keyboard-response","203","457847","0.0-6.0-1.65","LF","zt9mew4cym","1440","900","de","el06ng23","null","","","","","","","","learning/Slide66.JPG","null","","","","",""
"","html-keyboard-response","204","458849","0.0-6.0-2.65","LF","zt9mew4cym","1440","900","de","el06ng23","null","","","","learningBlock1","","","","<div style=""font-size:60px;""> </div>","null","LF","learning/Slide66.JPG","This is a dep:","",""
"","html-keyboard-response","205","459852","0.0-6.0-0.66","LF","zt9mew4cym","1440","900","de","el06ng23","null","","","","learningBlock1","","","","This is a tob:","null","","","","",""
"","image-keyboard-response","206","460184","0.0-6.0-1.66","LF","zt9mew4cym","1440","900","de","el06ng23","null","","","","","","","","learning/Slide67.JPG","null","","","","",""
"","html-keyboard-response","207","461185","0.0-6.0-2.66","LF","zt9mew4cym","1440","900","de","el06ng23","null","","","","learningBlock1","","","","<div style=""font-size:60px;""> </div>","null","LF","learning/Slide67.JPG","This is a tob:","",""
"","html-keyboard-response","208","462186","0.0-6.0-0.67","LF","zt9mew4cym","1440","900","de","el06ng23","null","","","","learningBlock1","","","","This is a wug:","null","","","","",""
"","image-keyboard-response","209","462518","0.0-6.0-1.67","LF","zt9mew4cym","1440","900","de","el06ng23","null","","","","","","","","learning/Slide68.JPG","null","","","","",""
"","html-keyboard-response","210","463519","0.0-6.0-2.67","LF","zt9mew4cym","1440","900","de","el06ng23","null","","","","learningBlock1","","","","<div style=""font-size:60px;""> </div>","null","LF","learning/Slide68.JPG","This is a wug:","",""
"","html-keyboard-response","211","464520","0.0-6.0-0.68","LF","zt9mew4cym","1440","900","de","el06ng23","null","","","","learningBlock1","","","","This is a tob:","null","","","","",""
"","image-keyboard-response","212","464851","0.0-6.0-1.68","LF","zt9mew4cym","1440","900","de","el06ng23","null","","","","","","","","learning/Slide69.JPG","null","","","","",""
"","html-keyboard-response","213","465853","0.0-6.0-2.68","LF","zt9mew4cym","1440","900","de","el06ng23","null","","","","learningBlock1","","","","<div style=""font-size:60px;""> </div>","null","LF","learning/Slide69.JPG","This is a tob:","",""
"","html-keyboard-response","214","466856","0.0-6.0-0.69","LF","zt9mew4cym","1440","900","de","el06ng23","null","","","","learningBlock1","","","","This is a dep:","null","","","","",""
"","image-keyboard-response","215","467185","0.0-6.0-1.69","LF","zt9mew4cym","1440","900","de","el06ng23","null","","","","","","","","learning/Slide70.JPG","null","","","","",""
"","html-keyboard-response","216","468186","0.0-6.0-2.69","LF","zt9mew4cym","1440","900","de","el06ng23","null","","","","learningBlock1","","","","<div style=""font-size:60px;""> </div>","null","LF","learning/Slide70.JPG","This is a dep:","",""
"","html-keyboard-response","217","469191","0.0-6.0-0.70","LF","zt9mew4cym","1440","900","de","el06ng23","null","","","","learningBlock1","","","","This is a wug:","null","","","","",""
"","image-keyboard-response","218","469518","0.0-6.0-1.70","LF","zt9mew4cym","1440","900","de","el06ng23","null","","","","","","","","learning/Slide71.JPG","null","","","","",""
"","html-keyboard-response","219","470520","0.0-6.0-2.70","LF","zt9mew4cym","1440","900","de","el06ng23","null","","","","learningBlock1","","","","<div style=""font-size:60px;""> </div>","null","LF","learning/Slide71.JPG","This is a wug:","",""
"","html-keyboard-response","220","471522","0.0-6.0-0.71","LF","zt9mew4cym","1440","900","de","el06ng23","null","","","","learningBlock1","","","","This is a bim:","null","","","","",""
"","image-keyboard-response","221","471855","0.0-6.0-1.71","LF","zt9mew4cym","1440","900","de","el06ng23","null","","","","","","","","learning/Slide72.JPG","null","","","","",""
"","html-keyboard-response","222","472856","0.0-6.0-2.71","LF","zt9mew4cym","1440","900","de","el06ng23","null","","","","learningBlock1","","","","<div style=""font-size:60px;""> </div>","null","LF","learning/Slide72.JPG","This is a bim:","",""
"","html-keyboard-response","223","473861","0.0-6.0-0.72","LF","zt9mew4cym","1440","900","de","el06ng23","null","","","","learningBlock1","","","","This is a wug:","null","","","","",""
"","image-keyboard-response","224","474189","0.0-6.0-1.72","LF","zt9mew4cym","1440","900","de","el06ng23","null","","","","","","","","learning/Slide73.JPG","null","","","","",""
"","html-keyboard-response","225","475190","0.0-6.0-2.72","LF","zt9mew4cym","1440","900","de","el06ng23","null","","","","learningBlock1","","","","<div style=""font-size:60px;""> </div>","null","LF","learning/Slide73.JPG","This is a wug:","",""
"","html-keyboard-response","226","476191","0.0-6.0-0.73","LF","zt9mew4cym","1440","900","de","el06ng23","null","","","","learningBlock1","","","","This is a dep:","null","","","","",""
"","image-keyboard-response","227","476523","0.0-6.0-1.73","LF","zt9mew4cym","1440","900","de","el06ng23","null","","","","","","","","learning/Slide74.JPG","null","","","","",""
"","html-keyboard-response","228","477523","0.0-6.0-2.73","LF","zt9mew4cym","1440","900","de","el06ng23","null","","","","learningBlock1","","","","<div style=""font-size:60px;""> </div>","null","LF","learning/Slide74.JPG","This is a dep:","",""
"","html-keyboard-response","229","478526","0.0-6.0-0.74","LF","zt9mew4cym","1440","900","de","el06ng23","null","","","","learningBlock1","","","","This is a tob:","null","","","","",""
"","image-keyboard-response","230","478852","0.0-6.0-1.74","LF","zt9mew4cym","1440","900","de","el06ng23","null","","","","","","","","learning/Slide75.JPG","null","","","","",""
"","html-keyboard-response","231","479855","0.0-6.0-2.74","LF","zt9mew4cym","1440","900","de","el06ng23","null","","","","learningBlock1","","","","<div style=""font-size:60px;""> </div>","null","LF","learning/Slide75.JPG","This is a tob:","",""
"","html-keyboard-response","232","480856","0.0-6.0-0.75","LF","zt9mew4cym","1440","900","de","el06ng23","null","","","","learningBlock1","","","","This is a bim:","null","","","","",""
"","image-keyboard-response","233","481187","0.0-6.0-1.75","LF","zt9mew4cym","1440","900","de","el06ng23","null","","","","","","","","learning/Slide76.JPG","null","","","","",""
"","html-keyboard-response","234","482188","0.0-6.0-2.75","LF","zt9mew4cym","1440","900","de","el06ng23","null","","","","learningBlock1","","","","<div style=""font-size:60px;""> </div>","null","LF","learning/Slide76.JPG","This is a bim:","",""
"","html-keyboard-response","235","483189","0.0-6.0-0.76","LF","zt9mew4cym","1440","900","de","el06ng23","null","","","","learningBlock1","","","","This is a tob:","null","","","","",""
"","image-keyboard-response","236","483521","0.0-6.0-1.76","LF","zt9mew4cym","1440","900","de","el06ng23","null","","","","","","","","learning/Slide77.JPG","null","","","","",""
"","html-keyboard-response","237","484522","0.0-6.0-2.76","LF","zt9mew4cym","1440","900","de","el06ng23","null","","","","learningBlock1","","","","<div style=""font-size:60px;""> </div>","null","LF","learning/Slide77.JPG","This is a tob:","",""
"","html-keyboard-response","238","485523","0.0-6.0-0.77","LF","zt9mew4cym","1440","900","de","el06ng23","null","","","","learningBlock1","","","","This is a wug:","null","","","","",""
"","image-keyboard-response","239","485854","0.0-6.0-1.77","LF","zt9mew4cym","1440","900","de","el06ng23","null","","","","","","","","learning/Slide78.JPG","null","","","","",""
"","html-keyboard-response","240","486855","0.0-6.0-2.77","LF","zt9mew4cym","1440","900","de","el06ng23","null","","","","learningBlock1","","","","<div style=""font-size:60px;""> </div>","null","LF","learning/Slide78.JPG","This is a wug:","",""
"","html-keyboard-response","241","487857","0.0-6.0-0.78","LF","zt9mew4cym","1440","900","de","el06ng23","null","","","","learningBlock1","","","","This is a bim:","null","","","","",""
"","image-keyboard-response","242","488185","0.0-6.0-1.78","LF","zt9mew4cym","1440","900","de","el06ng23","null","","","","","","","","learning/Slide79.JPG","null","","","","",""
"","html-keyboard-response","243","489189","0.0-6.0-2.78","LF","zt9mew4cym","1440","900","de","el06ng23","null","","","","learningBlock1","","","","<div style=""font-size:60px;""> </div>","null","LF","learning/Slide79.JPG","This is a bim:","",""
"","html-keyboard-response","244","490193","0.0-6.0-0.79","LF","zt9mew4cym","1440","900","de","el06ng23","null","","","","learningBlock1","","","","This is a tob:","null","","","","",""
"","image-keyboard-response","245","490525","0.0-6.0-1.79","LF","zt9mew4cym","1440","900","de","el06ng23","null","","","","","","","","learning/Slide80.JPG","null","","","","",""
"","html-keyboard-response","246","491526","0.0-6.0-2.79","LF","zt9mew4cym","1440","900","de","el06ng23","null","","","","learningBlock1","","","","<div style=""font-size:60px;""> </div>","null","LF","learning/Slide80.JPG","This is a tob:","",""
"","instructions","247","500302","0.0-7.0","LF","zt9mew4cym","1440","900","de","el06ng23","NA","","","[{""page_index"":0,""viewing_time"":8774}]","instructions","","","","","","","","","",""
"","html-keyboard-response","248","501304","0.0-8.0-0.0","LF","zt9mew4cym","1440","900","de","el06ng23","null","","","","learningBlock2","","","","This is a wug:","null","","","","",""
"","image-keyboard-response","249","501632","0.0-8.0-1.0","LF","zt9mew4cym","1440","900","de","el06ng23","null","","","","","","","","learning/Slide81.JPG","null","","","","",""
"","html-keyboard-response","250","502633","0.0-8.0-2.0","LF","zt9mew4cym","1440","900","de","el06ng23","null","","","","learningBlock2","","","","<div style=""font-size:60px;""> </div>","null","LF","learning/Slide81.JPG","This is a wug:","",""
"","html-keyboard-response","251","503635","0.0-8.0-0.1","LF","zt9mew4cym","1440","900","de","el06ng23","null","","","","learningBlock2","","","","This is a bim:","null","","","","",""
"","image-keyboard-response","252","503968","0.0-8.0-1.1","LF","zt9mew4cym","1440","900","de","el06ng23","null","","","","","","","","learning/Slide82.JPG","null","","","","",""
"","html-keyboard-response","253","504970","0.0-8.0-2.1","LF","zt9mew4cym","1440","900","de","el06ng23","null","","","","learningBlock2","","","","<div style=""font-size:60px;""> </div>","null","LF","learning/Slide82.JPG","This is a bim:","",""
"","html-keyboard-response","254","505975","0.0-8.0-0.2","LF","zt9mew4cym","1440","900","de","el06ng23","null","","","","learningBlock2","","","","This is a wug:","null","","","","",""
"","image-keyboard-response","255","506309","0.0-8.0-1.2","LF","zt9mew4cym","1440","900","de","el06ng23","null","","","","","","","","learning/Slide83.JPG","null","","","","",""
"","html-keyboard-response","256","507310","0.0-8.0-2.2","LF","zt9mew4cym","1440","900","de","el06ng23","null","","","","learningBlock2","","","","<div style=""font-size:60px;""> </div>","null","LF","learning/Slide83.JPG","This is a wug:","",""
"","html-keyboard-response","257","508310","0.0-8.0-0.3","LF","zt9mew4cym","1440","900","de","el06ng23","null","","","","learningBlock2","","","","This is a dep:","null","","","","",""
"","image-keyboard-response","258","508641","0.0-8.0-1.3","LF","zt9mew4cym","1440","900","de","el06ng23","null","","","","","","","","learning/Slide84.JPG","null","","","","",""
"","html-keyboard-response","259","509643","0.0-8.0-2.3","LF","zt9mew4cym","1440","900","de","el06ng23","null","","","","learningBlock2","","","","<div style=""font-size:60px;""> </div>","null","LF","learning/Slide84.JPG","This is a dep:","",""
"","html-keyboard-response","260","510645","0.0-8.0-0.4","LF","zt9mew4cym","1440","900","de","el06ng23","null","","","","learningBlock2","","","","This is a bim:","null","","","","",""
"","image-keyboard-response","261","510972","0.0-8.0-1.4","LF","zt9mew4cym","1440","900","de","el06ng23","null","","","","","","","","learning/Slide85.JPG","null","","","","",""
"","html-keyboard-response","262","511974","0.0-8.0-2.4","LF","zt9mew4cym","1440","900","de","el06ng23","null","","","","learningBlock2","","","","<div style=""font-size:60px;""> </div>","null","LF","learning/Slide85.JPG","This is a bim:","",""
"","html-keyboard-response","263","512978","0.0-8.0-0.5","LF","zt9mew4cym","1440","900","de","el06ng23","null","","","","learningBlock2","","","","This is a tob:","null","","","","",""
"","image-keyboard-response","264","513309","0.0-8.0-1.5","LF","zt9mew4cym","1440","900","de","el06ng23","null","","","","","","","","learning/Slide86.JPG","null","","","","",""
"","html-keyboard-response","265","514310","0.0-8.0-2.5","LF","zt9mew4cym","1440","900","de","el06ng23","null","","","","learningBlock2","","","","<div style=""font-size:60px;""> </div>","null","LF","learning/Slide86.JPG","This is a tob:","",""
"","html-keyboard-response","266","515313","0.0-8.0-0.6","LF","zt9mew4cym","1440","900","de","el06ng23","null","","","","learningBlock2","","","","This is a wug:","null","","","","",""
"","image-keyboard-response","267","515649","0.0-8.0-1.6","LF","zt9mew4cym","1440","900","de","el06ng23","null","","","","","","","","learning/Slide87.JPG","null","","","","",""
"","html-keyboard-response","268","516650","0.0-8.0-2.6","LF","zt9mew4cym","1440","900","de","el06ng23","null","","","","learningBlock2","","","","<div style=""font-size:60px;""> </div>","null","LF","learning/Slide87.JPG","This is a wug:","",""
"","html-keyboard-response","269","517652","0.0-8.0-0.7","LF","zt9mew4cym","1440","900","de","el06ng23","null","","","","learningBlock2","","","","This is a tob:","null","","","","",""
"","image-keyboard-response","270","517982","0.0-8.0-1.7","LF","zt9mew4cym","1440","900","de","el06ng23","null","","","","","","","","learning/Slide88.JPG","null","","","","",""
"","html-keyboard-response","271","518983","0.0-8.0-2.7","LF","zt9mew4cym","1440","900","de","el06ng23","null","","","","learningBlock2","","","","<div style=""font-size:60px;""> </div>","null","LF","learning/Slide88.JPG","This is a tob:","",""
"","html-keyboard-response","272","519984","0.0-8.0-0.8","LF","zt9mew4cym","1440","900","de","el06ng23","null","","","","learningBlock2","","","","This is a bim:","null","","","","",""
"","image-keyboard-response","273","520318","0.0-8.0-1.8","LF","zt9mew4cym","1440","900","de","el06ng23","null","","","","","","","","learning/Slide89.JPG","null","","","","",""
"","html-keyboard-response","274","521320","0.0-8.0-2.8","LF","zt9mew4cym","1440","900","de","el06ng23","null","","","","learningBlock2","","","","<div style=""font-size:60px;""> </div>","null","LF","learning/Slide89.JPG","This is a bim:","",""
"","html-keyboard-response","275","522322","0.0-8.0-0.9","LF","zt9mew4cym","1440","900","de","el06ng23","null","","","","learningBlock2","","","","This is a dep:","null","","","","",""
"","image-keyboard-response","276","522652","0.0-8.0-1.9","LF","zt9mew4cym","1440","900","de","el06ng23","null","","","","","","","","learning/Slide90.JPG","null","","","","",""
"","html-keyboard-response","277","523654","0.0-8.0-2.9","LF","zt9mew4cym","1440","900","de","el06ng23","null","","","","learningBlock2","","","","<div style=""font-size:60px;""> </div>","null","LF","learning/Slide90.JPG","This is a dep:","",""
"","html-keyboard-response","278","524655","0.0-8.0-0.10","LF","zt9mew4cym","1440","900","de","el06ng23","null","","","","learningBlock2","","","","This is a wug:","null","","","","",""
"","image-keyboard-response","279","524986","0.0-8.0-1.10","LF","zt9mew4cym","1440","900","de","el06ng23","null","","","","","","","","learning/Slide91.JPG","null","","","","",""
"","html-keyboard-response","280","525988","0.0-8.0-2.10","LF","zt9mew4cym","1440","900","de","el06ng23","null","","","","learningBlock2","","","","<div style=""font-size:60px;""> </div>","null","LF","learning/Slide91.JPG","This is a wug:","",""
"","html-keyboard-response","281","526989","0.0-8.0-0.11","LF","zt9mew4cym","1440","900","de","el06ng23","null","","","","learningBlock2","","","","This is a tob:","null","","","","",""
"","image-keyboard-response","282","527320","0.0-8.0-1.11","LF","zt9mew4cym","1440","900","de","el06ng23","null","","","","","","","","learning/Slide92.JPG","null","","","","",""
"","html-keyboard-response","283","528324","0.0-8.0-2.11","LF","zt9mew4cym","1440","900","de","el06ng23","null","","","","learningBlock2","","","","<div style=""font-size:60px;""> </div>","null","LF","learning/Slide92.JPG","This is a tob:","",""
"","html-keyboard-response","284","529327","0.0-8.0-0.12","LF","zt9mew4cym","1440","900","de","el06ng23","null","","","","learningBlock2","","","","This is a bim:","null","","","","",""
"","image-keyboard-response","285","529657","0.0-8.0-1.12","LF","zt9mew4cym","1440","900","de","el06ng23","null","","","","","","","","learning/Slide93.JPG","null","","","","",""
"","html-keyboard-response","286","530658","0.0-8.0-2.12","LF","zt9mew4cym","1440","900","de","el06ng23","null","","","","learningBlock2","","","","<div style=""font-size:60px;""> </div>","null","LF","learning/Slide93.JPG","This is a bim:","",""
"","html-keyboard-response","287","531659","0.0-8.0-0.13","LF","zt9mew4cym","1440","900","de","el06ng23","null","","","","learningBlock2","","","","This is a tob:","null","","","","",""
"","image-keyboard-response","288","531987","0.0-8.0-1.13","LF","zt9mew4cym","1440","900","de","el06ng23","null","","","","","","","","learning/Slide94.JPG","null","","","","",""
"","html-keyboard-response","289","532988","0.0-8.0-2.13","LF","zt9mew4cym","1440","900","de","el06ng23","null","","","","learningBlock2","","","","<div style=""font-size:60px;""> </div>","null","LF","learning/Slide94.JPG","This is a tob:","",""
"","html-keyboard-response","290","533989","0.0-8.0-0.14","LF","zt9mew4cym","1440","900","de","el06ng23","null","","","","learningBlock2","","","","This is a wug:","null","","","","",""
"","image-keyboard-response","291","534318","0.0-8.0-1.14","LF","zt9mew4cym","1440","900","de","el06ng23","null","","","","","","","","learning/Slide95.JPG","null","","","","",""
"","html-keyboard-response","292","535319","0.0-8.0-2.14","LF","zt9mew4cym","1440","900","de","el06ng23","null","","","","learningBlock2","","","","<div style=""font-size:60px;""> </div>","null","LF","learning/Slide95.JPG","This is a wug:","",""
"","html-keyboard-response","293","536323","0.0-8.0-0.15","LF","zt9mew4cym","1440","900","de","el06ng23","null","","","","learningBlock2","","","","This is a tob:","null","","","","",""
"","image-keyboard-response","294","536655","0.0-8.0-1.15","LF","zt9mew4cym","1440","900","de","el06ng23","null","","","","","","","","learning/Slide96.JPG","null","","","","",""
"","html-keyboard-response","295","537656","0.0-8.0-2.15","LF","zt9mew4cym","1440","900","de","el06ng23","null","","","","learningBlock2","","","","<div style=""font-size:60px;""> </div>","null","LF","learning/Slide96.JPG","This is a tob:","",""
"","html-keyboard-response","296","538657","0.0-8.0-0.16","LF","zt9mew4cym","1440","900","de","el06ng23","null","","","","learningBlock2","","","","This is a dep:","null","","","","",""
"","image-keyboard-response","297","538988","0.0-8.0-1.16","LF","zt9mew4cym","1440","900","de","el06ng23","null","","","","","","","","learning/Slide97.JPG","null","","","","",""
"","html-keyboard-response","298","539989","0.0-8.0-2.16","LF","zt9mew4cym","1440","900","de","el06ng23","null","","","","learningBlock2","","","","<div style=""font-size:60px;""> </div>","null","LF","learning/Slide97.JPG","This is a dep:","",""
"","html-keyboard-response","299","540991","0.0-8.0-0.17","LF","zt9mew4cym","1440","900","de","el06ng23","null","","","","learningBlock2","","","","This is a bim:","null","","","","",""
"","image-keyboard-response","300","541322","0.0-8.0-1.17","LF","zt9mew4cym","1440","900","de","el06ng23","null","","","","","","","","learning/Slide98.JPG","null","","","","",""
"","html-keyboard-response","301","542323","0.0-8.0-2.17","LF","zt9mew4cym","1440","900","de","el06ng23","null","","","","learningBlock2","","","","<div style=""font-size:60px;""> </div>","null","LF","learning/Slide98.JPG","This is a bim:","",""
"","html-keyboard-response","302","543325","0.0-8.0-0.18","LF","zt9mew4cym","1440","900","de","el06ng23","null","","","","learningBlock2","","","","This is a dep:","null","","","","",""
"","image-keyboard-response","303","543656","0.0-8.0-1.18","LF","zt9mew4cym","1440","900","de","el06ng23","null","","","","","","","","learning/Slide99.JPG","null","","","","",""
"","html-keyboard-response","304","544656","0.0-8.0-2.18","LF","zt9mew4cym","1440","900","de","el06ng23","null","","","","learningBlock2","","","","<div style=""font-size:60px;""> </div>","null","LF","learning/Slide99.JPG","This is a dep:","",""
"","html-keyboard-response","305","545660","0.0-8.0-0.19","LF","zt9mew4cym","1440","900","de","el06ng23","null","","","","learningBlock2","","","","This is a bim:","null","","","","",""
"","image-keyboard-response","306","545989","0.0-8.0-1.19","LF","zt9mew4cym","1440","900","de","el06ng23","null","","","","","","","","learning/Slide100.JPG","null","","","","",""
"","html-keyboard-response","307","546990","0.0-8.0-2.19","LF","zt9mew4cym","1440","900","de","el06ng23","null","","","","learningBlock2","","","","<div style=""font-size:60px;""> </div>","null","LF","learning/Slide100.JPG","This is a bim:","",""
"","html-keyboard-response","308","547991","0.0-8.0-0.20","LF","zt9mew4cym","1440","900","de","el06ng23","null","","","","learningBlock2","","","","This is a tob:","null","","","","",""
"","image-keyboard-response","309","548322","0.0-8.0-1.20","LF","zt9mew4cym","1440","900","de","el06ng23","null","","","","","","","","learning/Slide101.JPG","null","","","","",""
"","html-keyboard-response","310","549324","0.0-8.0-2.20","LF","zt9mew4cym","1440","900","de","el06ng23","null","","","","learningBlock2","","","","<div style=""font-size:60px;""> </div>","null","LF","learning/Slide101.JPG","This is a tob:","",""
"","html-keyboard-response","311","550325","0.0-8.0-0.21","LF","zt9mew4cym","1440","900","de","el06ng23","null","","","","learningBlock2","","","","This is a bim:","null","","","","",""
"","image-keyboard-response","312","550653","0.0-8.0-1.21","LF","zt9mew4cym","1440","900","de","el06ng23","null","","","","","","","","learning/Slide102.JPG","null","","","","",""
"","html-keyboard-response","313","551658","0.0-8.0-2.21","LF","zt9mew4cym","1440","900","de","el06ng23","null","","","","learningBlock2","","","","<div style=""font-size:60px;""> </div>","null","LF","learning/Slide102.JPG","This is a bim:","",""
"","html-keyboard-response","314","552662","0.0-8.0-0.22","LF","zt9mew4cym","1440","900","de","el06ng23","null","","","","learningBlock2","","","","This is a dep:","null","","","","",""
"","image-keyboard-response","315","552996","0.0-8.0-1.22","LF","zt9mew4cym","1440","900","de","el06ng23","null","","","","","","","","learning/Slide103.JPG","null","","","","",""
"","html-keyboard-response","316","553997","0.0-8.0-2.22","LF","zt9mew4cym","1440","900","de","el06ng23","null","","","","learningBlock2","","","","<div style=""font-size:60px;""> </div>","null","LF","learning/Slide103.JPG","This is a dep:","",""
"","html-keyboard-response","317","554999","0.0-8.0-0.23","LF","zt9mew4cym","1440","900","de","el06ng23","null","","","","learningBlock2","","","","This is a tob:","null","","","","",""
"","image-keyboard-response","318","555330","0.0-8.0-1.23","LF","zt9mew4cym","1440","900","de","el06ng23","null","","","","","","","","learning/Slide104.JPG","null","","","","",""
"","html-keyboard-response","319","556330","0.0-8.0-2.23","LF","zt9mew4cym","1440","900","de","el06ng23","null","","","","learningBlock2","","","","<div style=""font-size:60px;""> </div>","null","LF","learning/Slide104.JPG","This is a tob:","",""
"","html-keyboard-response","320","557335","0.0-8.0-0.24","LF","zt9mew4cym","1440","900","de","el06ng23","null","","","","learningBlock2","","","","This is a dep:","null","","","","",""
"","image-keyboard-response","321","557665","0.0-8.0-1.24","LF","zt9mew4cym","1440","900","de","el06ng23","null","","","","","","","","learning/Slide105.JPG","null","","","","",""
"","html-keyboard-response","322","558667","0.0-8.0-2.24","LF","zt9mew4cym","1440","900","de","el06ng23","null","","","","learningBlock2","","","","<div style=""font-size:60px;""> </div>","null","LF","learning/Slide105.JPG","This is a dep:","",""
"","html-keyboard-response","323","559669","0.0-8.0-0.25","LF","zt9mew4cym","1440","900","de","el06ng23","null","","","","learningBlock2","","","","This is a wug:","null","","","","",""
"","image-keyboard-response","324","559997","0.0-8.0-1.25","LF","zt9mew4cym","1440","900","de","el06ng23","null","","","","","","","","learning/Slide106.JPG","null","","","","",""
"","html-keyboard-response","325","560998","0.0-8.0-2.25","LF","zt9mew4cym","1440","900","de","el06ng23","null","","","","learningBlock2","","","","<div style=""font-size:60px;""> </div>","null","LF","learning/Slide106.JPG","This is a wug:","",""
"","html-keyboard-response","326","561998","0.0-8.0-0.26","LF","zt9mew4cym","1440","900","de","el06ng23","null","","","","learningBlock2","","","","This is a bim:","null","","","","",""
"","image-keyboard-response","327","562327","0.0-8.0-1.26","LF","zt9mew4cym","1440","900","de","el06ng23","null","","","","","","","","learning/Slide107.JPG","null","","","","",""
"","html-keyboard-response","328","563329","0.0-8.0-2.26","LF","zt9mew4cym","1440","900","de","el06ng23","null","","","","learningBlock2","","","","<div style=""font-size:60px;""> </div>","null","LF","learning/Slide107.JPG","This is a bim:","",""
"","html-keyboard-response","329","564330","0.0-8.0-0.27","LF","zt9mew4cym","1440","900","de","el06ng23","null","","","","learningBlock2","","","","This is a dep:","null","","","","",""
"","image-keyboard-response","330","564658","0.0-8.0-1.27","LF","zt9mew4cym","1440","900","de","el06ng23","null","","","","","","","","learning/Slide108.JPG","null","","","","",""
"","html-keyboard-response","331","565659","0.0-8.0-2.27","LF","zt9mew4cym","1440","900","de","el06ng23","null","","","","learningBlock2","","","","<div style=""font-size:60px;""> </div>","null","LF","learning/Slide108.JPG","This is a dep:","",""
"","html-keyboard-response","332","566660","0.0-8.0-0.28","LF","zt9mew4cym","1440","900","de","el06ng23","null","","","","learningBlock2","","","","This is a wug:","null","","","","",""
"","image-keyboard-response","333","566993","0.0-8.0-1.28","LF","zt9mew4cym","1440","900","de","el06ng23","null","","","","","","","","learning/Slide109.JPG","null","","","","",""
"","html-keyboard-response","334","567994","0.0-8.0-2.28","LF","zt9mew4cym","1440","900","de","el06ng23","null","","","","learningBlock2","","","","<div style=""font-size:60px;""> </div>","null","LF","learning/Slide109.JPG","This is a wug:","",""
"","html-keyboard-response","335","569000","0.0-8.0-0.29","LF","zt9mew4cym","1440","900","de","el06ng23","null","","","","learningBlock2","","","","This is a bim:","null","","","","",""
"","image-keyboard-response","336","569331","0.0-8.0-1.29","LF","zt9mew4cym","1440","900","de","el06ng23","null","","","","","","","","learning/Slide110.JPG","null","","","","",""
"","html-keyboard-response","337","570332","0.0-8.0-2.29","LF","zt9mew4cym","1440","900","de","el06ng23","null","","","","learningBlock2","","","","<div style=""font-size:60px;""> </div>","null","LF","learning/Slide110.JPG","This is a bim:","",""
"","html-keyboard-response","338","571336","0.0-8.0-0.30","LF","zt9mew4cym","1440","900","de","el06ng23","null","","","","learningBlock2","","","","This is a tob:","null","","","","",""
"","image-keyboard-response","339","571664","0.0-8.0-1.30","LF","zt9mew4cym","1440","900","de","el06ng23","null","","","","","","","","learning/Slide111.JPG","null","","","","",""
"","html-keyboard-response","340","572666","0.0-8.0-2.30","LF","zt9mew4cym","1440","900","de","el06ng23","null","","","","learningBlock2","","","","<div style=""font-size:60px;""> </div>","null","LF","learning/Slide111.JPG","This is a tob:","",""
"","html-keyboard-response","341","573668","0.0-8.0-0.31","LF","zt9mew4cym","1440","900","de","el06ng23","null","","","","learningBlock2","","","","This is a wug:","null","","","","",""
"","image-keyboard-response","342","573995","0.0-8.0-1.31","LF","zt9mew4cym","1440","900","de","el06ng23","null","","","","","","","","learning/Slide112.JPG","null","","","","",""
"","html-keyboard-response","343","574997","0.0-8.0-2.31","LF","zt9mew4cym","1440","900","de","el06ng23","null","","","","learningBlock2","","","","<div style=""font-size:60px;""> </div>","null","LF","learning/Slide112.JPG","This is a wug:","",""
"","html-keyboard-response","344","576001","0.0-8.0-0.32","LF","zt9mew4cym","1440","900","de","el06ng23","null","","","","learningBlock2","","","","This is a tob:","null","","","","",""
"","image-keyboard-response","345","576328","0.0-8.0-1.32","LF","zt9mew4cym","1440","900","de","el06ng23","null","","","","","","","","learning/Slide113.JPG","null","","","","",""
"","html-keyboard-response","346","577330","0.0-8.0-2.32","LF","zt9mew4cym","1440","900","de","el06ng23","null","","","","learningBlock2","","","","<div style=""font-size:60px;""> </div>","null","LF","learning/Slide113.JPG","This is a tob:","",""
"","html-keyboard-response","347","578334","0.0-8.0-0.33","LF","zt9mew4cym","1440","900","de","el06ng23","null","","","","learningBlock2","","","","This is a wug:","null","","","","",""
"","image-keyboard-response","348","578666","0.0-8.0-1.33","LF","zt9mew4cym","1440","900","de","el06ng23","null","","","","","","","","learning/Slide114.JPG","null","","","","",""
"","html-keyboard-response","349","579667","0.0-8.0-2.33","LF","zt9mew4cym","1440","900","de","el06ng23","null","","","","learningBlock2","","","","<div style=""font-size:60px;""> </div>","null","LF","learning/Slide114.JPG","This is a wug:","",""
"","html-keyboard-response","350","580671","0.0-8.0-0.34","LF","zt9mew4cym","1440","900","de","el06ng23","null","","","","learningBlock2","","","","This is a bim:","null","","","","",""
"","image-keyboard-response","351","581002","0.0-8.0-1.34","LF","zt9mew4cym","1440","900","de","el06ng23","null","","","","","","","","learning/Slide115.JPG","null","","","","",""
"","html-keyboard-response","352","582004","0.0-8.0-2.34","LF","zt9mew4cym","1440","900","de","el06ng23","null","","","","learningBlock2","","","","<div style=""font-size:60px;""> </div>","null","LF","learning/Slide115.JPG","This is a bim:","",""
"","html-keyboard-response","353","583005","0.0-8.0-0.35","LF","zt9mew4cym","1440","900","de","el06ng23","null","","","","learningBlock2","","","","This is a dep:","null","","","","",""
"","image-keyboard-response","354","583336","0.0-8.0-1.35","LF","zt9mew4cym","1440","900","de","el06ng23","null","","","","","","","","learning/Slide116.JPG","null","","","","",""
"","html-keyboard-response","355","584337","0.0-8.0-2.35","LF","zt9mew4cym","1440","900","de","el06ng23","null","","","","learningBlock2","","","","<div style=""font-size:60px;""> </div>","null","LF","learning/Slide116.JPG","This is a dep:","",""
"","html-keyboard-response","356","585338","0.0-8.0-0.36","LF","zt9mew4cym","1440","900","de","el06ng23","null","","","","learningBlock2","","","","This is a tob:","null","","","","",""
"","image-keyboard-response","357","585665","0.0-8.0-1.36","LF","zt9mew4cym","1440","900","de","el06ng23","null","","","","","","","","learning/Slide117.JPG","null","","","","",""
"","html-keyboard-response","358","586668","0.0-8.0-2.36","LF","zt9mew4cym","1440","900","de","el06ng23","null","","","","learningBlock2","","","","<div style=""font-size:60px;""> </div>","null","LF","learning/Slide117.JPG","This is a tob:","",""
"","html-keyboard-response","359","587673","0.0-8.0-0.37","LF","zt9mew4cym","1440","900","de","el06ng23","null","","","","learningBlock2","","","","This is a dep:","null","","","","",""
"","image-keyboard-response","360","588003","0.0-8.0-1.37","LF","zt9mew4cym","1440","900","de","el06ng23","null","","","","","","","","learning/Slide118.JPG","null","","","","",""
"","html-keyboard-response","361","589005","0.0-8.0-2.37","LF","zt9mew4cym","1440","900","de","el06ng23","null","","","","learningBlock2","","","","<div style=""font-size:60px;""> </div>","null","LF","learning/Slide118.JPG","This is a dep:","",""
"","html-keyboard-response","362","590006","0.0-8.0-0.38","LF","zt9mew4cym","1440","900","de","el06ng23","null","","","","learningBlock2","","","","This is a wug:","null","","","","",""
"","image-keyboard-response","363","590337","0.0-8.0-1.38","LF","zt9mew4cym","1440","900","de","el06ng23","null","","","","","","","","learning/Slide119.JPG","null","","","","",""
"","html-keyboard-response","364","591337","0.0-8.0-2.38","LF","zt9mew4cym","1440","900","de","el06ng23","null","","","","learningBlock2","","","","<div style=""font-size:60px;""> </div>","null","LF","learning/Slide119.JPG","This is a wug:","",""
"","html-keyboard-response","365","592339","0.0-8.0-0.39","LF","zt9mew4cym","1440","900","de","el06ng23","null","","","","learningBlock2","","","","This is a dep:","null","","","","",""
"","image-keyboard-response","366","592671","0.0-8.0-1.39","LF","zt9mew4cym","1440","900","de","el06ng23","null","","","","","","","","learning/Slide120.JPG","null","","","","",""
"","html-keyboard-response","367","593672","0.0-8.0-2.39","LF","zt9mew4cym","1440","900","de","el06ng23","null","","","","learningBlock2","","","","<div style=""font-size:60px;""> </div>","null","LF","learning/Slide120.JPG","This is a dep:","",""
"","html-keyboard-response","368","594674","0.0-8.0-0.40","LF","zt9mew4cym","1440","900","de","el06ng23","null","","","","learningBlock2","","","","This is a bim:","null","","","","",""
"","image-keyboard-response","369","595005","0.0-8.0-1.40","LF","zt9mew4cym","1440","900","de","el06ng23","null","","","","","","","","learning/Slide121.JPG","null","","","","",""
"","html-keyboard-response","370","596007","0.0-8.0-2.40","LF","zt9mew4cym","1440","900","de","el06ng23","null","","","","learningBlock2","","","","<div style=""font-size:60px;""> </div>","null","LF","learning/Slide121.JPG","This is a bim:","",""
"","html-keyboard-response","371","597012","0.0-8.0-0.41","LF","zt9mew4cym","1440","900","de","el06ng23","null","","","","learningBlock2","","","","This is a wug:","null","","","","",""
"","image-keyboard-response","372","597343","0.0-8.0-1.41","LF","zt9mew4cym","1440","900","de","el06ng23","null","","","","","","","","learning/Slide122.JPG","null","","","","",""
"","html-keyboard-response","373","598345","0.0-8.0-2.41","LF","zt9mew4cym","1440","900","de","el06ng23","null","","","","learningBlock2","","","","<div style=""font-size:60px;""> </div>","null","LF","learning/Slide122.JPG","This is a wug:","",""
"","html-keyboard-response","374","599349","0.0-8.0-0.42","LF","zt9mew4cym","1440","900","de","el06ng23","null","","","","learningBlock2","","","","This is a bim:","null","","","","",""
"","image-keyboard-response","375","599677","0.0-8.0-1.42","LF","zt9mew4cym","1440","900","de","el06ng23","null","","","","","","","","learning/Slide123.JPG","null","","","","",""
"","html-keyboard-response","376","600678","0.0-8.0-2.42","LF","zt9mew4cym","1440","900","de","el06ng23","null","","","","learningBlock2","","","","<div style=""font-size:60px;""> </div>","null","LF","learning/Slide123.JPG","This is a bim:","",""
"","html-keyboard-response","377","601683","0.0-8.0-0.43","LF","zt9mew4cym","1440","900","de","el06ng23","null","","","","learningBlock2","","","","This is a tob:","null","","","","",""
"","image-keyboard-response","378","602014","0.0-8.0-1.43","LF","zt9mew4cym","1440","900","de","el06ng23","null","","","","","","","","learning/Slide124.JPG","null","","","","",""
"","html-keyboard-response","379","603014","0.0-8.0-2.43","LF","zt9mew4cym","1440","900","de","el06ng23","null","","","","learningBlock2","","","","<div style=""font-size:60px;""> </div>","null","LF","learning/Slide124.JPG","This is a tob:","",""
"","html-keyboard-response","380","604016","0.0-8.0-0.44","LF","zt9mew4cym","1440","900","de","el06ng23","null","","","","learningBlock2","","","","This is a bim:","null","","","","",""
"","image-keyboard-response","381","604347","0.0-8.0-1.44","LF","zt9mew4cym","1440","900","de","el06ng23","null","","","","","","","","learning/Slide125.JPG","null","","","","",""
"","html-keyboard-response","382","605348","0.0-8.0-2.44","LF","zt9mew4cym","1440","900","de","el06ng23","null","","","","learningBlock2","","","","<div style=""font-size:60px;""> </div>","null","LF","learning/Slide125.JPG","This is a bim:","",""
"","html-keyboard-response","383","606353","0.0-8.0-0.45","LF","zt9mew4cym","1440","900","de","el06ng23","null","","","","learningBlock2","","","","This is a tob:","null","","","","",""
"","image-keyboard-response","384","606681","0.0-8.0-1.45","LF","zt9mew4cym","1440","900","de","el06ng23","null","","","","","","","","learning/Slide126.JPG","null","","","","",""
"","html-keyboard-response","385","607682","0.0-8.0-2.45","LF","zt9mew4cym","1440","900","de","el06ng23","null","","","","learningBlock2","","","","<div style=""font-size:60px;""> </div>","null","LF","learning/Slide126.JPG","This is a tob:","",""
"","html-keyboard-response","386","608684","0.0-8.0-0.46","LF","zt9mew4cym","1440","900","de","el06ng23","null","","","","learningBlock2","","","","This is a dep:","null","","","","",""
"","image-keyboard-response","387","609015","0.0-8.0-1.46","LF","zt9mew4cym","1440","900","de","el06ng23","null","","","","","","","","learning/Slide127.JPG","null","","","","",""
"","html-keyboard-response","388","610016","0.0-8.0-2.46","LF","zt9mew4cym","1440","900","de","el06ng23","null","","","","learningBlock2","","","","<div style=""font-size:60px;""> </div>","null","LF","learning/Slide127.JPG","This is a dep:","",""
"","html-keyboard-response","389","611017","0.0-8.0-0.47","LF","zt9mew4cym","1440","900","de","el06ng23","null","","","","learningBlock2","","","","This is a wug:","null","","","","",""
"","image-keyboard-response","390","611351","0.0-8.0-1.47","LF","zt9mew4cym","1440","900","de","el06ng23","null","","","","","","","","learning/Slide128.JPG","null","","","","",""
"","html-keyboard-response","391","612352","0.0-8.0-2.47","LF","zt9mew4cym","1440","900","de","el06ng23","null","","","","learningBlock2","","","","<div style=""font-size:60px;""> </div>","null","LF","learning/Slide128.JPG","This is a wug:","",""
"","html-keyboard-response","392","613354","0.0-8.0-0.48","LF","zt9mew4cym","1440","900","de","el06ng23","null","","","","learningBlock2","","","","This is a tob:","null","","","","",""
"","image-keyboard-response","393","613685","0.0-8.0-1.48","LF","zt9mew4cym","1440","900","de","el06ng23","null","","","","","","","","learning/Slide129.JPG","null","","","","",""
"","html-keyboard-response","394","614686","0.0-8.0-2.48","LF","zt9mew4cym","1440","900","de","el06ng23","null","","","","learningBlock2","","","","<div style=""font-size:60px;""> </div>","null","LF","learning/Slide129.JPG","This is a tob:","",""
"","html-keyboard-response","395","615687","0.0-8.0-0.49","LF","zt9mew4cym","1440","900","de","el06ng23","null","","","","learningBlock2","","","","This is a wug:","null","","","","",""
"","image-keyboard-response","396","616018","0.0-8.0-1.49","LF","zt9mew4cym","1440","900","de","el06ng23","null","","","","","","","","learning/Slide130.JPG","null","","","","",""
"","html-keyboard-response","397","617020","0.0-8.0-2.49","LF","zt9mew4cym","1440","900","de","el06ng23","null","","","","learningBlock2","","","","<div style=""font-size:60px;""> </div>","null","LF","learning/Slide130.JPG","This is a wug:","",""
"","html-keyboard-response","398","618024","0.0-8.0-0.50","LF","zt9mew4cym","1440","900","de","el06ng23","null","","","","learningBlock2","","","","This is a bim:","null","","","","",""
"","image-keyboard-response","399","618355","0.0-8.0-1.50","LF","zt9mew4cym","1440","900","de","el06ng23","null","","","","","","","","learning/Slide131.JPG","null","","","","",""
"","html-keyboard-response","400","619357","0.0-8.0-2.50","LF","zt9mew4cym","1440","900","de","el06ng23","null","","","","learningBlock2","","","","<div style=""font-size:60px;""> </div>","null","LF","learning/Slide131.JPG","This is a bim:","",""
"","html-keyboard-response","401","620358","0.0-8.0-0.51","LF","zt9mew4cym","1440","900","de","el06ng23","null","","","","learningBlock2","","","","This is a dep:","null","","","","",""
"","image-keyboard-response","402","620688","0.0-8.0-1.51","LF","zt9mew4cym","1440","900","de","el06ng23","null","","","","","","","","learning/Slide132.JPG","null","","","","",""
"","html-keyboard-response","403","621689","0.0-8.0-2.51","LF","zt9mew4cym","1440","900","de","el06ng23","null","","","","learningBlock2","","","","<div style=""font-size:60px;""> </div>","null","LF","learning/Slide132.JPG","This is a dep:","",""
"","html-keyboard-response","404","622694","0.0-8.0-0.52","LF","zt9mew4cym","1440","900","de","el06ng23","null","","","","learningBlock2","","","","This is a tob:","null","","","","",""
"","image-keyboard-response","405","623026","0.0-8.0-1.52","LF","zt9mew4cym","1440","900","de","el06ng23","null","","","","","","","","learning/Slide133.JPG","null","","","","",""
"","html-keyboard-response","406","624027","0.0-8.0-2.52","LF","zt9mew4cym","1440","900","de","el06ng23","null","","","","learningBlock2","","","","<div style=""font-size:60px;""> </div>","null","LF","learning/Slide133.JPG","This is a tob:","",""
"","html-keyboard-response","407","625030","0.0-8.0-0.53","LF","zt9mew4cym","1440","900","de","el06ng23","null","","","","learningBlock2","","","","This is a dep:","null","","","","",""
"","image-keyboard-response","408","625359","0.0-8.0-1.53","LF","zt9mew4cym","1440","900","de","el06ng23","null","","","","","","","","learning/Slide134.JPG","null","","","","",""
"","html-keyboard-response","409","626360","0.0-8.0-2.53","LF","zt9mew4cym","1440","900","de","el06ng23","null","","","","learningBlock2","","","","<div style=""font-size:60px;""> </div>","null","LF","learning/Slide134.JPG","This is a dep:","",""
"","html-keyboard-response","410","627362","0.0-8.0-0.54","LF","zt9mew4cym","1440","900","de","el06ng23","null","","","","learningBlock2","","","","This is a tob:","null","","","","",""
"","image-keyboard-response","411","627692","0.0-8.0-1.54","LF","zt9mew4cym","1440","900","de","el06ng23","null","","","","","","","","learning/Slide135.JPG","null","","","","",""
"","html-keyboard-response","412","628694","0.0-8.0-2.54","LF","zt9mew4cym","1440","900","de","el06ng23","null","","","","learningBlock2","","","","<div style=""font-size:60px;""> </div>","null","LF","learning/Slide135.JPG","This is a tob:","",""
"","html-keyboard-response","413","629695","0.0-8.0-0.55","LF","zt9mew4cym","1440","900","de","el06ng23","null","","","","learningBlock2","","","","This is a wug:","null","","","","",""
"","image-keyboard-response","414","630024","0.0-8.0-1.55","LF","zt9mew4cym","1440","900","de","el06ng23","null","","","","","","","","learning/Slide136.JPG","null","","","","",""
"","html-keyboard-response","415","631024","0.0-8.0-2.55","LF","zt9mew4cym","1440","900","de","el06ng23","null","","","","learningBlock2","","","","<div style=""font-size:60px;""> </div>","null","LF","learning/Slide136.JPG","This is a wug:","",""
"","html-keyboard-response","416","632026","0.0-8.0-0.56","LF","zt9mew4cym","1440","900","de","el06ng23","null","","","","learningBlock2","","","","This is a tob:","null","","","","",""
"","image-keyboard-response","417","632354","0.0-8.0-1.56","LF","zt9mew4cym","1440","900","de","el06ng23","null","","","","","","","","learning/Slide137.JPG","null","","","","",""
"","html-keyboard-response","418","633356","0.0-8.0-2.56","LF","zt9mew4cym","1440","900","de","el06ng23","null","","","","learningBlock2","","","","<div style=""font-size:60px;""> </div>","null","LF","learning/Slide137.JPG","This is a tob:","",""
"","html-keyboard-response","419","634356","0.0-8.0-0.57","LF","zt9mew4cym","1440","900","de","el06ng23","null","","","","learningBlock2","","","","This is a bim:","null","","","","",""
"","image-keyboard-response","420","634684","0.0-8.0-1.57","LF","zt9mew4cym","1440","900","de","el06ng23","null","","","","","","","","learning/Slide138.JPG","null","","","","",""
"","html-keyboard-response","421","635686","0.0-8.0-2.57","LF","zt9mew4cym","1440","900","de","el06ng23","null","","","","learningBlock2","","","","<div style=""font-size:60px;""> </div>","null","LF","learning/Slide138.JPG","This is a bim:","",""
"","html-keyboard-response","422","636688","0.0-8.0-0.58","LF","zt9mew4cym","1440","900","de","el06ng23","null","","","","learningBlock2","","","","This is a wug:","null","","","","",""
"","image-keyboard-response","423","637015","0.0-8.0-1.58","LF","zt9mew4cym","1440","900","de","el06ng23","null","","","","","","","","learning/Slide139.JPG","null","","","","",""
"","html-keyboard-response","424","638017","0.0-8.0-2.58","LF","zt9mew4cym","1440","900","de","el06ng23","null","","","","learningBlock2","","","","<div style=""font-size:60px;""> </div>","null","LF","learning/Slide139.JPG","This is a wug:","",""
"","html-keyboard-response","425","639019","0.0-8.0-0.59","LF","zt9mew4cym","1440","900","de","el06ng23","null","","","","learningBlock2","","","","This is a dep:","null","","","","",""
"","image-keyboard-response","426","639349","0.0-8.0-1.59","LF","zt9mew4cym","1440","900","de","el06ng23","null","","","","","","","","learning/Slide140.JPG","null","","","","",""
"","html-keyboard-response","427","640351","0.0-8.0-2.59","LF","zt9mew4cym","1440","900","de","el06ng23","null","","","","learningBlock2","","","","<div style=""font-size:60px;""> </div>","null","LF","learning/Slide140.JPG","This is a dep:","",""
"","html-keyboard-response","428","641353","0.0-8.0-0.60","LF","zt9mew4cym","1440","900","de","el06ng23","null","","","","learningBlock2","","","","This is a tob:","null","","","","",""
"","image-keyboard-response","429","641683","0.0-8.0-1.60","LF","zt9mew4cym","1440","900","de","el06ng23","null","","","","","","","","learning/Slide141.JPG","null","","","","",""
"","html-keyboard-response","430","642684","0.0-8.0-2.60","LF","zt9mew4cym","1440","900","de","el06ng23","null","","","","learningBlock2","","","","<div style=""font-size:60px;""> </div>","null","LF","learning/Slide141.JPG","This is a tob:","",""
"","html-keyboard-response","431","643688","0.0-8.0-0.61","LF","zt9mew4cym","1440","900","de","el06ng23","null","","","","learningBlock2","","","","This is a wug:","null","","","","",""
"","image-keyboard-response","432","644015","0.0-8.0-1.61","LF","zt9mew4cym","1440","900","de","el06ng23","null","","","","","","","","learning/Slide142.JPG","null","","","","",""
"","html-keyboard-response","433","645017","0.0-8.0-2.61","LF","zt9mew4cym","1440","900","de","el06ng23","null","","","","learningBlock2","","","","<div style=""font-size:60px;""> </div>","null","LF","learning/Slide142.JPG","This is a wug:","",""
"","html-keyboard-response","434","646022","0.0-8.0-0.62","LF","zt9mew4cym","1440","900","de","el06ng23","null","","","","learningBlock2","","","","This is a bim:","null","","","","",""
"","image-keyboard-response","435","646349","0.0-8.0-1.62","LF","zt9mew4cym","1440","900","de","el06ng23","null","","","","","","","","learning/Slide143.JPG","null","","","","",""
"","html-keyboard-response","436","647351","0.0-8.0-2.62","LF","zt9mew4cym","1440","900","de","el06ng23","null","","","","learningBlock2","","","","<div style=""font-size:60px;""> </div>","null","LF","learning/Slide143.JPG","This is a bim:","",""
"","html-keyboard-response","437","648353","0.0-8.0-0.63","LF","zt9mew4cym","1440","900","de","el06ng23","null","","","","learningBlock2","","","","This is a dep:","null","","","","",""
"","image-keyboard-response","438","648684","0.0-8.0-1.63","LF","zt9mew4cym","1440","900","de","el06ng23","null","","","","","","","","learning/Slide144.JPG","null","","","","",""
"","html-keyboard-response","439","649685","0.0-8.0-2.63","LF","zt9mew4cym","1440","900","de","el06ng23","null","","","","learningBlock2","","","","<div style=""font-size:60px;""> </div>","null","LF","learning/Slide144.JPG","This is a dep:","",""
"","html-keyboard-response","440","650687","0.0-8.0-0.64","LF","zt9mew4cym","1440","900","de","el06ng23","null","","","","learningBlock2","","","","This is a bim:","null","","","","",""
"","image-keyboard-response","441","651014","0.0-8.0-1.64","LF","zt9mew4cym","1440","900","de","el06ng23","null","","","","","","","","learning/Slide145.JPG","null","","","","",""
"","html-keyboard-response","442","652016","0.0-8.0-2.64","LF","zt9mew4cym","1440","900","de","el06ng23","null","","","","learningBlock2","","","","<div style=""font-size:60px;""> </div>","null","LF","learning/Slide145.JPG","This is a bim:","",""
"","html-keyboard-response","443","653017","0.0-8.0-0.65","LF","zt9mew4cym","1440","900","de","el06ng23","null","","","","learningBlock2","","","","This is a tob:","null","","","","",""
"","image-keyboard-response","444","653345","0.0-8.0-1.65","LF","zt9mew4cym","1440","900","de","el06ng23","null","","","","","","","","learning/Slide146.JPG","null","","","","",""
"","html-keyboard-response","445","654347","0.0-8.0-2.65","LF","zt9mew4cym","1440","900","de","el06ng23","null","","","","learningBlock2","","","","<div style=""font-size:60px;""> </div>","null","LF","learning/Slide146.JPG","This is a tob:","",""
"","html-keyboard-response","446","655348","0.0-8.0-0.66","LF","zt9mew4cym","1440","900","de","el06ng23","null","","","","learningBlock2","","","","This is a wug:","null","","","","",""
"","image-keyboard-response","447","655676","0.0-8.0-1.66","LF","zt9mew4cym","1440","900","de","el06ng23","null","","","","","","","","learning/Slide147.JPG","null","","","","",""
"","html-keyboard-response","448","656677","0.0-8.0-2.66","LF","zt9mew4cym","1440","900","de","el06ng23","null","","","","learningBlock2","","","","<div style=""font-size:60px;""> </div>","null","LF","learning/Slide147.JPG","This is a wug:","",""
"","html-keyboard-response","449","657682","0.0-8.0-0.67","LF","zt9mew4cym","1440","900","de","el06ng23","null","","","","learningBlock2","","","","This is a bim:","null","","","","",""
"","image-keyboard-response","450","658015","0.0-8.0-1.67","LF","zt9mew4cym","1440","900","de","el06ng23","null","","","","","","","","learning/Slide148.JPG","null","","","","",""
"","html-keyboard-response","451","659017","0.0-8.0-2.67","LF","zt9mew4cym","1440","900","de","el06ng23","null","","","","learningBlock2","","","","<div style=""font-size:60px;""> </div>","null","LF","learning/Slide148.JPG","This is a bim:","",""
"","html-keyboard-response","452","660019","0.0-8.0-0.68","LF","zt9mew4cym","1440","900","de","el06ng23","null","","","","learningBlock2","","","","This is a dep:","null","","","","",""
"","image-keyboard-response","453","660346","0.0-8.0-1.68","LF","zt9mew4cym","1440","900","de","el06ng23","null","","","","","","","","learning/Slide149.JPG","null","","","","",""
"","html-keyboard-response","454","661347","0.0-8.0-2.68","LF","zt9mew4cym","1440","900","de","el06ng23","null","","","","learningBlock2","","","","<div style=""font-size:60px;""> </div>","null","LF","learning/Slide149.JPG","This is a dep:","",""
"","html-keyboard-response","455","662349","0.0-8.0-0.69","LF","zt9mew4cym","1440","900","de","el06ng23","null","","","","learningBlock2","","","","This is a wug:","null","","","","",""
"","image-keyboard-response","456","662676","0.0-8.0-1.69","LF","zt9mew4cym","1440","900","de","el06ng23","null","","","","","","","","learning/Slide150.JPG","null","","","","",""
"","html-keyboard-response","457","663678","0.0-8.0-2.69","LF","zt9mew4cym","1440","900","de","el06ng23","null","","","","learningBlock2","","","","<div style=""font-size:60px;""> </div>","null","LF","learning/Slide150.JPG","This is a wug:","",""
"","html-keyboard-response","458","664679","0.0-8.0-0.70","LF","zt9mew4cym","1440","900","de","el06ng23","null","","","","learningBlock2","","","","This is a dep:","null","","","","",""
"","image-keyboard-response","459","665011","0.0-8.0-1.70","LF","zt9mew4cym","1440","900","de","el06ng23","null","","","","","","","","learning/Slide151.JPG","null","","","","",""
"","html-keyboard-response","460","666012","0.0-8.0-2.70","LF","zt9mew4cym","1440","900","de","el06ng23","null","","","","learningBlock2","","","","<div style=""font-size:60px;""> </div>","null","LF","learning/Slide151.JPG","This is a dep:","",""
"","html-keyboard-response","461","667014","0.0-8.0-0.71","LF","zt9mew4cym","1440","900","de","el06ng23","null","","","","learningBlock2","","","","This is a wug:","null","","","","",""
"","image-keyboard-response","462","667349","0.0-8.0-1.71","LF","zt9mew4cym","1440","900","de","el06ng23","null","","","","","","","","learning/Slide152.JPG","null","","","","",""
"","html-keyboard-response","463","668351","0.0-8.0-2.71","LF","zt9mew4cym","1440","900","de","el06ng23","null","","","","learningBlock2","","","","<div style=""font-size:60px;""> </div>","null","LF","learning/Slide152.JPG","This is a wug:","",""
"","html-keyboard-response","464","669352","0.0-8.0-0.72","LF","zt9mew4cym","1440","900","de","el06ng23","null","","","","learningBlock2","","","","This is a bim:","null","","","","",""
"","image-keyboard-response","465","669680","0.0-8.0-1.72","LF","zt9mew4cym","1440","900","de","el06ng23","null","","","","","","","","learning/Slide153.JPG","null","","","","",""
"","html-keyboard-response","466","670682","0.0-8.0-2.72","LF","zt9mew4cym","1440","900","de","el06ng23","null","","","","learningBlock2","","","","<div style=""font-size:60px;""> </div>","null","LF","learning/Slide153.JPG","This is a bim:","",""
"","html-keyboard-response","467","671686","0.0-8.0-0.73","LF","zt9mew4cym","1440","900","de","el06ng23","null","","","","learningBlock2","","","","This is a tob:","null","","","","",""
"","image-keyboard-response","468","672018","0.0-8.0-1.73","LF","zt9mew4cym","1440","900","de","el06ng23","null","","","","","","","","learning/Slide154.JPG","null","","","","",""
"","html-keyboard-response","469","673019","0.0-8.0-2.73","LF","zt9mew4cym","1440","900","de","el06ng23","null","","","","learningBlock2","","","","<div style=""font-size:60px;""> </div>","null","LF","learning/Slide154.JPG","This is a tob:","",""
"","html-keyboard-response","470","674023","0.0-8.0-0.74","LF","zt9mew4cym","1440","900","de","el06ng23","null","","","","learningBlock2","","","","This is a dep:","null","","","","",""
"","image-keyboard-response","471","674351","0.0-8.0-1.74","LF","zt9mew4cym","1440","900","de","el06ng23","null","","","","","","","","learning/Slide155.JPG","null","","","","",""
"","html-keyboard-response","472","675352","0.0-8.0-2.74","LF","zt9mew4cym","1440","900","de","el06ng23","null","","","","learningBlock2","","","","<div style=""font-size:60px;""> </div>","null","LF","learning/Slide155.JPG","This is a dep:","",""
"","html-keyboard-response","473","676353","0.0-8.0-0.75","LF","zt9mew4cym","1440","900","de","el06ng23","null","","","","learningBlock2","","","","This is a bim:","null","","","","",""
"","image-keyboard-response","474","676682","0.0-8.0-1.75","LF","zt9mew4cym","1440","900","de","el06ng23","null","","","","","","","","learning/Slide156.JPG","null","","","","",""
"","html-keyboard-response","475","677682","0.0-8.0-2.75","LF","zt9mew4cym","1440","900","de","el06ng23","null","","","","learningBlock2","","","","<div style=""font-size:60px;""> </div>","null","LF","learning/Slide156.JPG","This is a bim:","",""
"","html-keyboard-response","476","678686","0.0-8.0-0.76","LF","zt9mew4cym","1440","900","de","el06ng23","null","","","","learningBlock2","","","","This is a dep:","null","","","","",""
"","image-keyboard-response","477","679015","0.0-8.0-1.76","LF","zt9mew4cym","1440","900","de","el06ng23","null","","","","","","","","learning/Slide157.JPG","null","","","","",""
"","html-keyboard-response","478","680016","0.0-8.0-2.76","LF","zt9mew4cym","1440","900","de","el06ng23","null","","","","learningBlock2","","","","<div style=""font-size:60px;""> </div>","null","LF","learning/Slide157.JPG","This is a dep:","",""
"","html-keyboard-response","479","681017","0.0-8.0-0.77","LF","zt9mew4cym","1440","900","de","el06ng23","null","","","","learningBlock2","","","","This is a tob:","null","","","","",""
"","image-keyboard-response","480","681349","0.0-8.0-1.77","LF","zt9mew4cym","1440","900","de","el06ng23","null","","","","","","","","learning/Slide158.JPG","null","","","","",""
"","html-keyboard-response","481","682352","0.0-8.0-2.77","LF","zt9mew4cym","1440","900","de","el06ng23","null","","","","learningBlock2","","","","<div style=""font-size:60px;""> </div>","null","LF","learning/Slide158.JPG","This is a tob:","",""
"","html-keyboard-response","482","683358","0.0-8.0-0.78","LF","zt9mew4cym","1440","900","de","el06ng23","null","","","","learningBlock2","","","","This is a dep:","null","","","","",""
"","image-keyboard-response","483","683688","0.0-8.0-1.78","LF","zt9mew4cym","1440","900","de","el06ng23","null","","","","","","","","learning/Slide159.JPG","null","","","","",""
"","html-keyboard-response","484","684690","0.0-8.0-2.78","LF","zt9mew4cym","1440","900","de","el06ng23","null","","","","learningBlock2","","","","<div style=""font-size:60px;""> </div>","null","LF","learning/Slide159.JPG","This is a dep:","",""
"","html-keyboard-response","485","685691","0.0-8.0-0.79","LF","zt9mew4cym","1440","900","de","el06ng23","null","","","","learningBlock2","","","","This is a wug:","null","","","","",""
"","image-keyboard-response","486","686019","0.0-8.0-1.79","LF","zt9mew4cym","1440","900","de","el06ng23","null","","","","","","","","learning/Slide160.JPG","null","","","","",""
"","html-keyboard-response","487","687020","0.0-8.0-2.79","LF","zt9mew4cym","1440","900","de","el06ng23","null","","","","learningBlock2","","","","<div style=""font-size:60px;""> </div>","null","LF","learning/Slide160.JPG","This is a wug:","",""
"","resize2","488","691143","0.0-9.0","LF","zt9mew4cym","1440","900","de","el06ng23","","","","","","","104","1.04","","","","","","",""
"","instructions","489","700498","0.0-10.0","LF","zt9mew4cym","1440","900","de","el06ng23","NA","","","[{""page_index"":0,""viewing_time"":9355}]","instructions","","","","","","","","","",""
"","html-keyboard-response","490","701501","0.0-11.0-0.0","LF","zt9mew4cym","1440","900","de","el06ng23","null","","","","","","","","<div style=""font-size:60px;"">+</div>","null","","","","",""
