"success","trial_type","trial_index","time_elapsed","internal_node_id","condition","subject","screen_width","screen_height","language","codeword","rt","responses","url","view_history","test_part","final_height_px","final_width_px","scale_factor","stimulus","key_press","learningType","presentedImage","presentedLabel","button_pressed","response"
"true","fullscreen","0","3295","0.0-0.0","LF","4xjqd36lab","414","896","en","un08ta23","","","","","","","","","","","","","","",""
"","survey-html-form","1","6108","0.0-1.0","LF","4xjqd36lab","414","896","en","un08ta23","2799","{""language"":""en""}","","","","","","","","","","","","",""
"","external-html","2","26838","0.0-3.0-0.0","LF","4xjqd36lab","414","896","en","un08ta23","20714","","text/information_english.html","","","","","","","","","","","",""
"","external-html","3","31786","0.0-3.0-1.0","LF","4xjqd36lab","414","896","en","un08ta23","4934","","text/consent_english.html","","","","","","","","","","","",""
"","survey-html-form","4","54963","0.0-3.0-2.0","LF","4xjqd36lab","414","896","en","un08ta23","23169","{""codeword_enter"":""un08ta23""}","","","","","","","","","","","","",""
"","instructions","5","79267","0.0-4.0","LF","4xjqd36lab","414","896","en","un08ta23","NA","","","[{""page_index"":0,""viewing_time"":1719.0000000000073},{""page_index"":1,""viewing_time"":21072.999999999993}]","instructions","","","","","","","","","",""
"","resize","6","87588","0.0-5.0","LF","4xjqd36lab","414","896","en","un08ta23","","","","","","","104","0.6603174603174603","","","","","","",""
"","html-keyboard-response","7","88600","0.0-6.0-0.0","LF","4xjqd36lab","414","896","en","un08ta23","null","","","","learningBlock1","","","","This is a tob:","null","","","","",""
"","image-keyboard-response","8","88934","0.0-6.0-1.0","LF","4xjqd36lab","414","896","en","un08ta23","null","","","","","","","","learning/Slide1.JPG","null","","","","",""
"","html-keyboard-response","9","89939","0.0-6.0-2.0","LF","4xjqd36lab","414","896","en","un08ta23","null","","","","learningBlock1","","","","<div style=""font-size:60px;""> </div>","null","LF","learning/Slide1.JPG","This is a tob:","",""
"","html-keyboard-response","10","90947","0.0-6.0-0.1","LF","4xjqd36lab","414","896","en","un08ta23","null","","","","learningBlock1","","","","This is a wug:","null","","","","",""
"","image-keyboard-response","11","91278","0.0-6.0-1.1","LF","4xjqd36lab","414","896","en","un08ta23","null","","","","","","","","learning/Slide2.JPG","null","","","","",""
"","html-keyboard-response","12","92282","0.0-6.0-2.1","LF","4xjqd36lab","414","896","en","un08ta23","null","","","","learningBlock1","","","","<div style=""font-size:60px;""> </div>","null","LF","learning/Slide2.JPG","This is a wug:","",""
"","html-keyboard-response","13","93291","0.0-6.0-0.2","LF","4xjqd36lab","414","896","en","un08ta23","null","","","","learningBlock1","","","","This is a bim:","null","","","","",""
"","image-keyboard-response","14","93623","0.0-6.0-1.2","LF","4xjqd36lab","414","896","en","un08ta23","null","","","","","","","","learning/Slide3.JPG","null","","","","",""
"","html-keyboard-response","15","94628","0.0-6.0-2.2","LF","4xjqd36lab","414","896","en","un08ta23","null","","","","learningBlock1","","","","<div style=""font-size:60px;""> </div>","null","LF","learning/Slide3.JPG","This is a bim:","",""
"","html-keyboard-response","16","95634","0.0-6.0-0.3","LF","4xjqd36lab","414","896","en","un08ta23","null","","","","learningBlock1","","","","This is a dep:","null","","","","",""
"","image-keyboard-response","17","95966","0.0-6.0-1.3","LF","4xjqd36lab","414","896","en","un08ta23","null","","","","","","","","learning/Slide4.JPG","null","","","","",""
"","html-keyboard-response","18","96970","0.0-6.0-2.3","LF","4xjqd36lab","414","896","en","un08ta23","null","","","","learningBlock1","","","","<div style=""font-size:60px;""> </div>","null","LF","learning/Slide4.JPG","This is a dep:","",""
"","html-keyboard-response","19","97977","0.0-6.0-0.4","LF","4xjqd36lab","414","896","en","un08ta23","null","","","","learningBlock1","","","","This is a wug:","null","","","","",""
"","image-keyboard-response","20","98309","0.0-6.0-1.4","LF","4xjqd36lab","414","896","en","un08ta23","null","","","","","","","","learning/Slide5.JPG","null","","","","",""
"","html-keyboard-response","21","99314","0.0-6.0-2.4","LF","4xjqd36lab","414","896","en","un08ta23","null","","","","learningBlock1","","","","<div style=""font-size:60px;""> </div>","null","LF","learning/Slide5.JPG","This is a wug:","",""
"","html-keyboard-response","22","100319","0.0-6.0-0.5","LF","4xjqd36lab","414","896","en","un08ta23","null","","","","learningBlock1","","","","This is a dep:","null","","","","",""
"","image-keyboard-response","23","100651","0.0-6.0-1.5","LF","4xjqd36lab","414","896","en","un08ta23","null","","","","","","","","learning/Slide6.JPG","null","","","","",""
"","html-keyboard-response","24","101655","0.0-6.0-2.5","LF","4xjqd36lab","414","896","en","un08ta23","null","","","","learningBlock1","","","","<div style=""font-size:60px;""> </div>","null","LF","learning/Slide6.JPG","This is a dep:","",""
"","html-keyboard-response","25","102662","0.0-6.0-0.6","LF","4xjqd36lab","414","896","en","un08ta23","null","","","","learningBlock1","","","","This is a wug:","null","","","","",""
"","image-keyboard-response","26","102994","0.0-6.0-1.6","LF","4xjqd36lab","414","896","en","un08ta23","null","","","","","","","","learning/Slide7.JPG","null","","","","",""
"","html-keyboard-response","27","103998","0.0-6.0-2.6","LF","4xjqd36lab","414","896","en","un08ta23","null","","","","learningBlock1","","","","<div style=""font-size:60px;""> </div>","null","LF","learning/Slide7.JPG","This is a wug:","",""
"","html-keyboard-response","28","105004","0.0-6.0-0.7","LF","4xjqd36lab","414","896","en","un08ta23","null","","","","learningBlock1","","","","This is a bim:","null","","","","",""
"","image-keyboard-response","29","105337","0.0-6.0-1.7","LF","4xjqd36lab","414","896","en","un08ta23","null","","","","","","","","learning/Slide8.JPG","null","","","","",""
"","html-keyboard-response","30","106341","0.0-6.0-2.7","LF","4xjqd36lab","414","896","en","un08ta23","null","","","","learningBlock1","","","","<div style=""font-size:60px;""> </div>","null","LF","learning/Slide8.JPG","This is a bim:","",""
"","html-keyboard-response","31","107348","0.0-6.0-0.8","LF","4xjqd36lab","414","896","en","un08ta23","null","","","","learningBlock1","","","","This is a wug:","null","","","","",""
"","image-keyboard-response","32","107679","0.0-6.0-1.8","LF","4xjqd36lab","414","896","en","un08ta23","null","","","","","","","","learning/Slide9.JPG","null","","","","",""
"","html-keyboard-response","33","108684","0.0-6.0-2.8","LF","4xjqd36lab","414","896","en","un08ta23","null","","","","learningBlock1","","","","<div style=""font-size:60px;""> </div>","null","LF","learning/Slide9.JPG","This is a wug:","",""
"","html-keyboard-response","34","109692","0.0-6.0-0.9","LF","4xjqd36lab","414","896","en","un08ta23","null","","","","learningBlock1","","","","This is a dep:","null","","","","",""
"","image-keyboard-response","35","110025","0.0-6.0-1.9","LF","4xjqd36lab","414","896","en","un08ta23","null","","","","","","","","learning/Slide10.JPG","null","","","","",""
"","html-keyboard-response","36","111029","0.0-6.0-2.9","LF","4xjqd36lab","414","896","en","un08ta23","null","","","","learningBlock1","","","","<div style=""font-size:60px;""> </div>","null","LF","learning/Slide10.JPG","This is a dep:","",""
"","html-keyboard-response","37","112036","0.0-6.0-0.10","LF","4xjqd36lab","414","896","en","un08ta23","null","","","","learningBlock1","","","","This is a tob:","null","","","","",""
"","image-keyboard-response","38","112369","0.0-6.0-1.10","LF","4xjqd36lab","414","896","en","un08ta23","null","","","","","","","","learning/Slide11.JPG","null","","","","",""
"","html-keyboard-response","39","113373","0.0-6.0-2.10","LF","4xjqd36lab","414","896","en","un08ta23","null","","","","learningBlock1","","","","<div style=""font-size:60px;""> </div>","null","LF","learning/Slide11.JPG","This is a tob:","",""
"","html-keyboard-response","40","114379","0.0-6.0-0.11","LF","4xjqd36lab","414","896","en","un08ta23","null","","","","learningBlock1","","","","This is a dep:","null","","","","",""
"","image-keyboard-response","41","114711","0.0-6.0-1.11","LF","4xjqd36lab","414","896","en","un08ta23","null","","","","","","","","learning/Slide12.JPG","null","","","","",""
"","html-keyboard-response","42","115715","0.0-6.0-2.11","LF","4xjqd36lab","414","896","en","un08ta23","null","","","","learningBlock1","","","","<div style=""font-size:60px;""> </div>","null","LF","learning/Slide12.JPG","This is a dep:","",""
"","html-keyboard-response","43","116722","0.0-6.0-0.12","LF","4xjqd36lab","414","896","en","un08ta23","null","","","","learningBlock1","","","","This is a bim:","null","","","","",""
"","image-keyboard-response","44","117054","0.0-6.0-1.12","LF","4xjqd36lab","414","896","en","un08ta23","null","","","","","","","","learning/Slide13.JPG","null","","","","",""
"","html-keyboard-response","45","118058","0.0-6.0-2.12","LF","4xjqd36lab","414","896","en","un08ta23","null","","","","learningBlock1","","","","<div style=""font-size:60px;""> </div>","null","LF","learning/Slide13.JPG","This is a bim:","",""
"","html-keyboard-response","46","119065","0.0-6.0-0.13","LF","4xjqd36lab","414","896","en","un08ta23","null","","","","learningBlock1","","","","This is a wug:","null","","","","",""
"","image-keyboard-response","47","119397","0.0-6.0-1.13","LF","4xjqd36lab","414","896","en","un08ta23","null","","","","","","","","learning/Slide14.JPG","null","","","","",""
"","html-keyboard-response","48","120401","0.0-6.0-2.13","LF","4xjqd36lab","414","896","en","un08ta23","null","","","","learningBlock1","","","","<div style=""font-size:60px;""> </div>","null","LF","learning/Slide14.JPG","This is a wug:","",""
"","html-keyboard-response","49","121408","0.0-6.0-0.14","LF","4xjqd36lab","414","896","en","un08ta23","null","","","","learningBlock1","","","","This is a tob:","null","","","","",""
"","image-keyboard-response","50","121740","0.0-6.0-1.14","LF","4xjqd36lab","414","896","en","un08ta23","null","","","","","","","","learning/Slide15.JPG","null","","","","",""
"","html-keyboard-response","51","122744","0.0-6.0-2.14","LF","4xjqd36lab","414","896","en","un08ta23","null","","","","learningBlock1","","","","<div style=""font-size:60px;""> </div>","null","LF","learning/Slide15.JPG","This is a tob:","",""
"","html-keyboard-response","52","123750","0.0-6.0-0.15","LF","4xjqd36lab","414","896","en","un08ta23","null","","","","learningBlock1","","","","This is a dep:","null","","","","",""
"","image-keyboard-response","53","124082","0.0-6.0-1.15","LF","4xjqd36lab","414","896","en","un08ta23","null","","","","","","","","learning/Slide16.JPG","null","","","","",""
"","html-keyboard-response","54","125086","0.0-6.0-2.15","LF","4xjqd36lab","414","896","en","un08ta23","null","","","","learningBlock1","","","","<div style=""font-size:60px;""> </div>","null","LF","learning/Slide16.JPG","This is a dep:","",""
"","html-keyboard-response","55","126093","0.0-6.0-0.16","LF","4xjqd36lab","414","896","en","un08ta23","null","","","","learningBlock1","","","","This is a bim:","null","","","","",""
"","image-keyboard-response","56","126425","0.0-6.0-1.16","LF","4xjqd36lab","414","896","en","un08ta23","null","","","","","","","","learning/Slide17.JPG","null","","","","",""
"","html-keyboard-response","57","127430","0.0-6.0-2.16","LF","4xjqd36lab","414","896","en","un08ta23","null","","","","learningBlock1","","","","<div style=""font-size:60px;""> </div>","null","LF","learning/Slide17.JPG","This is a bim:","",""
"","html-keyboard-response","58","128436","0.0-6.0-0.17","LF","4xjqd36lab","414","896","en","un08ta23","null","","","","learningBlock1","","","","This is a tob:","null","","","","",""
"","image-keyboard-response","59","128768","0.0-6.0-1.17","LF","4xjqd36lab","414","896","en","un08ta23","null","","","","","","","","learning/Slide18.JPG","null","","","","",""
"","html-keyboard-response","60","129772","0.0-6.0-2.17","LF","4xjqd36lab","414","896","en","un08ta23","null","","","","learningBlock1","","","","<div style=""font-size:60px;""> </div>","null","LF","learning/Slide18.JPG","This is a tob:","",""
"","html-keyboard-response","61","130778","0.0-6.0-0.18","LF","4xjqd36lab","414","896","en","un08ta23","null","","","","learningBlock1","","","","This is a wug:","null","","","","",""
"","image-keyboard-response","62","131109","0.0-6.0-1.18","LF","4xjqd36lab","414","896","en","un08ta23","null","","","","","","","","learning/Slide19.JPG","null","","","","",""
"","html-keyboard-response","63","132113","0.0-6.0-2.18","LF","4xjqd36lab","414","896","en","un08ta23","null","","","","learningBlock1","","","","<div style=""font-size:60px;""> </div>","null","LF","learning/Slide19.JPG","This is a wug:","",""
"","html-keyboard-response","64","133120","0.0-6.0-0.19","LF","4xjqd36lab","414","896","en","un08ta23","null","","","","learningBlock1","","","","This is a bim:","null","","","","",""
"","image-keyboard-response","65","133451","0.0-6.0-1.19","LF","4xjqd36lab","414","896","en","un08ta23","null","","","","","","","","learning/Slide20.JPG","null","","","","",""
"","html-keyboard-response","66","134455","0.0-6.0-2.19","LF","4xjqd36lab","414","896","en","un08ta23","null","","","","learningBlock1","","","","<div style=""font-size:60px;""> </div>","null","LF","learning/Slide20.JPG","This is a bim:","",""
"","html-keyboard-response","67","135462","0.0-6.0-0.20","LF","4xjqd36lab","414","896","en","un08ta23","null","","","","learningBlock1","","","","This is a dep:","null","","","","",""
"","image-keyboard-response","68","135794","0.0-6.0-1.20","LF","4xjqd36lab","414","896","en","un08ta23","null","","","","","","","","learning/Slide21.JPG","null","","","","",""
"","html-keyboard-response","69","136798","0.0-6.0-2.20","LF","4xjqd36lab","414","896","en","un08ta23","null","","","","learningBlock1","","","","<div style=""font-size:60px;""> </div>","null","LF","learning/Slide21.JPG","This is a dep:","",""
"","html-keyboard-response","70","137804","0.0-6.0-0.21","LF","4xjqd36lab","414","896","en","un08ta23","null","","","","learningBlock1","","","","This is a bim:","null","","","","",""
"","image-keyboard-response","71","138136","0.0-6.0-1.21","LF","4xjqd36lab","414","896","en","un08ta23","null","","","","","","","","learning/Slide22.JPG","null","","","","",""
"","html-keyboard-response","72","139140","0.0-6.0-2.21","LF","4xjqd36lab","414","896","en","un08ta23","null","","","","learningBlock1","","","","<div style=""font-size:60px;""> </div>","null","LF","learning/Slide22.JPG","This is a bim:","",""
"","html-keyboard-response","73","140146","0.0-6.0-0.22","LF","4xjqd36lab","414","896","en","un08ta23","null","","","","learningBlock1","","","","This is a tob:","null","","","","",""
"","image-keyboard-response","74","140478","0.0-6.0-1.22","LF","4xjqd36lab","414","896","en","un08ta23","null","","","","","","","","learning/Slide23.JPG","null","","","","",""
"","html-keyboard-response","75","141482","0.0-6.0-2.22","LF","4xjqd36lab","414","896","en","un08ta23","null","","","","learningBlock1","","","","<div style=""font-size:60px;""> </div>","null","LF","learning/Slide23.JPG","This is a tob:","",""
"","html-keyboard-response","76","142488","0.0-6.0-0.23","LF","4xjqd36lab","414","896","en","un08ta23","null","","","","learningBlock1","","","","This is a wug:","null","","","","",""
"","image-keyboard-response","77","142819","0.0-6.0-1.23","LF","4xjqd36lab","414","896","en","un08ta23","null","","","","","","","","learning/Slide24.JPG","null","","","","",""
"","html-keyboard-response","78","143822","0.0-6.0-2.23","LF","4xjqd36lab","414","896","en","un08ta23","null","","","","learningBlock1","","","","<div style=""font-size:60px;""> </div>","null","LF","learning/Slide24.JPG","This is a wug:","",""
"","html-keyboard-response","79","144827","0.0-6.0-0.24","LF","4xjqd36lab","414","896","en","un08ta23","null","","","","learningBlock1","","","","This is a dep:","null","","","","",""
"","image-keyboard-response","80","145159","0.0-6.0-1.24","LF","4xjqd36lab","414","896","en","un08ta23","null","","","","","","","","learning/Slide25.JPG","null","","","","",""
"","html-keyboard-response","81","146163","0.0-6.0-2.24","LF","4xjqd36lab","414","896","en","un08ta23","null","","","","learningBlock1","","","","<div style=""font-size:60px;""> </div>","null","LF","learning/Slide25.JPG","This is a dep:","",""
"","html-keyboard-response","82","147169","0.0-6.0-0.25","LF","4xjqd36lab","414","896","en","un08ta23","null","","","","learningBlock1","","","","This is a wug:","null","","","","",""
"","image-keyboard-response","83","147501","0.0-6.0-1.25","LF","4xjqd36lab","414","896","en","un08ta23","null","","","","","","","","learning/Slide26.JPG","null","","","","",""
"","html-keyboard-response","84","148505","0.0-6.0-2.25","LF","4xjqd36lab","414","896","en","un08ta23","null","","","","learningBlock1","","","","<div style=""font-size:60px;""> </div>","null","LF","learning/Slide26.JPG","This is a wug:","",""
"","html-keyboard-response","85","149512","0.0-6.0-0.26","LF","4xjqd36lab","414","896","en","un08ta23","null","","","","learningBlock1","","","","This is a bim:","null","","","","",""
"","image-keyboard-response","86","149844","0.0-6.0-1.26","LF","4xjqd36lab","414","896","en","un08ta23","null","","","","","","","","learning/Slide27.JPG","null","","","","",""
"","html-keyboard-response","87","150848","0.0-6.0-2.26","LF","4xjqd36lab","414","896","en","un08ta23","null","","","","learningBlock1","","","","<div style=""font-size:60px;""> </div>","null","LF","learning/Slide27.JPG","This is a bim:","",""
"","html-keyboard-response","88","151854","0.0-6.0-0.27","LF","4xjqd36lab","414","896","en","un08ta23","null","","","","learningBlock1","","","","This is a dep:","null","","","","",""
"","image-keyboard-response","89","152185","0.0-6.0-1.27","LF","4xjqd36lab","414","896","en","un08ta23","null","","","","","","","","learning/Slide28.JPG","null","","","","",""
"","html-keyboard-response","90","153189","0.0-6.0-2.27","LF","4xjqd36lab","414","896","en","un08ta23","null","","","","learningBlock1","","","","<div style=""font-size:60px;""> </div>","null","LF","learning/Slide28.JPG","This is a dep:","",""
"","html-keyboard-response","91","154197","0.0-6.0-0.28","LF","4xjqd36lab","414","896","en","un08ta23","null","","","","learningBlock1","","","","This is a tob:","null","","","","",""
"","image-keyboard-response","92","154529","0.0-6.0-1.28","LF","4xjqd36lab","414","896","en","un08ta23","null","","","","","","","","learning/Slide29.JPG","null","","","","",""
"","html-keyboard-response","93","155533","0.0-6.0-2.28","LF","4xjqd36lab","414","896","en","un08ta23","null","","","","learningBlock1","","","","<div style=""font-size:60px;""> </div>","null","LF","learning/Slide29.JPG","This is a tob:","",""
"","html-keyboard-response","94","156537","0.0-6.0-0.29","LF","4xjqd36lab","414","896","en","un08ta23","null","","","","learningBlock1","","","","This is a dep:","null","","","","",""
"","image-keyboard-response","95","156869","0.0-6.0-1.29","LF","4xjqd36lab","414","896","en","un08ta23","null","","","","","","","","learning/Slide30.JPG","null","","","","",""
"","html-keyboard-response","96","157872","0.0-6.0-2.29","LF","4xjqd36lab","414","896","en","un08ta23","null","","","","learningBlock1","","","","<div style=""font-size:60px;""> </div>","null","LF","learning/Slide30.JPG","This is a dep:","",""
"","html-keyboard-response","97","158878","0.0-6.0-0.30","LF","4xjqd36lab","414","896","en","un08ta23","null","","","","learningBlock1","","","","This is a wug:","null","","","","",""
"","image-keyboard-response","98","159210","0.0-6.0-1.30","LF","4xjqd36lab","414","896","en","un08ta23","null","","","","","","","","learning/Slide31.JPG","null","","","","",""
"","html-keyboard-response","99","160214","0.0-6.0-2.30","LF","4xjqd36lab","414","896","en","un08ta23","null","","","","learningBlock1","","","","<div style=""font-size:60px;""> </div>","null","LF","learning/Slide31.JPG","This is a wug:","",""
"","html-keyboard-response","100","161221","0.0-6.0-0.31","LF","4xjqd36lab","414","896","en","un08ta23","null","","","","learningBlock1","","","","This is a tob:","null","","","","",""
"","image-keyboard-response","101","161554","0.0-6.0-1.31","LF","4xjqd36lab","414","896","en","un08ta23","null","","","","","","","","learning/Slide32.JPG","null","","","","",""
"","html-keyboard-response","102","162558","0.0-6.0-2.31","LF","4xjqd36lab","414","896","en","un08ta23","null","","","","learningBlock1","","","","<div style=""font-size:60px;""> </div>","null","LF","learning/Slide32.JPG","This is a tob:","",""
"","html-keyboard-response","103","163564","0.0-6.0-0.32","LF","4xjqd36lab","414","896","en","un08ta23","null","","","","learningBlock1","","","","This is a bim:","null","","","","",""
"","image-keyboard-response","104","163896","0.0-6.0-1.32","LF","4xjqd36lab","414","896","en","un08ta23","null","","","","","","","","learning/Slide33.JPG","null","","","","",""
"","html-keyboard-response","105","164900","0.0-6.0-2.32","LF","4xjqd36lab","414","896","en","un08ta23","null","","","","learningBlock1","","","","<div style=""font-size:60px;""> </div>","null","LF","learning/Slide33.JPG","This is a bim:","",""
"","html-keyboard-response","106","165906","0.0-6.0-0.33","LF","4xjqd36lab","414","896","en","un08ta23","null","","","","learningBlock1","","","","This is a tob:","null","","","","",""
"","image-keyboard-response","107","166238","0.0-6.0-1.33","LF","4xjqd36lab","414","896","en","un08ta23","null","","","","","","","","learning/Slide34.JPG","null","","","","",""
"","html-keyboard-response","108","167242","0.0-6.0-2.33","LF","4xjqd36lab","414","896","en","un08ta23","null","","","","learningBlock1","","","","<div style=""font-size:60px;""> </div>","null","LF","learning/Slide34.JPG","This is a tob:","",""
"","html-keyboard-response","109","168248","0.0-6.0-0.34","LF","4xjqd36lab","414","896","en","un08ta23","null","","","","learningBlock1","","","","This is a bim:","null","","","","",""
"","image-keyboard-response","110","168579","0.0-6.0-1.34","LF","4xjqd36lab","414","896","en","un08ta23","null","","","","","","","","learning/Slide35.JPG","null","","","","",""
"","html-keyboard-response","111","169581","0.0-6.0-2.34","LF","4xjqd36lab","414","896","en","un08ta23","null","","","","learningBlock1","","","","<div style=""font-size:60px;""> </div>","null","LF","learning/Slide35.JPG","This is a bim:","",""
"","html-keyboard-response","112","170586","0.0-6.0-0.35","LF","4xjqd36lab","414","896","en","un08ta23","null","","","","learningBlock1","","","","This is a dep:","null","","","","",""
"","image-keyboard-response","113","170918","0.0-6.0-1.35","LF","4xjqd36lab","414","896","en","un08ta23","null","","","","","","","","learning/Slide36.JPG","null","","","","",""
"","html-keyboard-response","114","171922","0.0-6.0-2.35","LF","4xjqd36lab","414","896","en","un08ta23","null","","","","learningBlock1","","","","<div style=""font-size:60px;""> </div>","null","LF","learning/Slide36.JPG","This is a dep:","",""
"","html-keyboard-response","115","172928","0.0-6.0-0.36","LF","4xjqd36lab","414","896","en","un08ta23","null","","","","learningBlock1","","","","This is a tob:","null","","","","",""
"","image-keyboard-response","116","173259","0.0-6.0-1.36","LF","4xjqd36lab","414","896","en","un08ta23","null","","","","","","","","learning/Slide37.JPG","null","","","","",""
"","html-keyboard-response","117","174263","0.0-6.0-2.36","LF","4xjqd36lab","414","896","en","un08ta23","null","","","","learningBlock1","","","","<div style=""font-size:60px;""> </div>","null","LF","learning/Slide37.JPG","This is a tob:","",""
"","html-keyboard-response","118","175269","0.0-6.0-0.37","LF","4xjqd36lab","414","896","en","un08ta23","null","","","","learningBlock1","","","","This is a wug:","null","","","","",""
"","image-keyboard-response","119","175600","0.0-6.0-1.37","LF","4xjqd36lab","414","896","en","un08ta23","null","","","","","","","","learning/Slide38.JPG","null","","","","",""
"","html-keyboard-response","120","176604","0.0-6.0-2.37","LF","4xjqd36lab","414","896","en","un08ta23","null","","","","learningBlock1","","","","<div style=""font-size:60px;""> </div>","null","LF","learning/Slide38.JPG","This is a wug:","",""
"","html-keyboard-response","121","177610","0.0-6.0-0.38","LF","4xjqd36lab","414","896","en","un08ta23","null","","","","learningBlock1","","","","This is a bim:","null","","","","",""
"","image-keyboard-response","122","177941","0.0-6.0-1.38","LF","4xjqd36lab","414","896","en","un08ta23","null","","","","","","","","learning/Slide39.JPG","null","","","","",""
"","html-keyboard-response","123","178945","0.0-6.0-2.38","LF","4xjqd36lab","414","896","en","un08ta23","null","","","","learningBlock1","","","","<div style=""font-size:60px;""> </div>","null","LF","learning/Slide39.JPG","This is a bim:","",""
"","html-keyboard-response","124","179951","0.0-6.0-0.39","LF","4xjqd36lab","414","896","en","un08ta23","null","","","","learningBlock1","","","","This is a tob:","null","","","","",""
"","image-keyboard-response","125","180282","0.0-6.0-1.39","LF","4xjqd36lab","414","896","en","un08ta23","null","","","","","","","","learning/Slide40.JPG","null","","","","",""
"","html-keyboard-response","126","181286","0.0-6.0-2.39","LF","4xjqd36lab","414","896","en","un08ta23","null","","","","learningBlock1","","","","<div style=""font-size:60px;""> </div>","null","LF","learning/Slide40.JPG","This is a tob:","",""
"","html-keyboard-response","127","182293","0.0-6.0-0.40","LF","4xjqd36lab","414","896","en","un08ta23","null","","","","learningBlock1","","","","This is a bim:","null","","","","",""
"","image-keyboard-response","128","182624","0.0-6.0-1.40","LF","4xjqd36lab","414","896","en","un08ta23","null","","","","","","","","learning/Slide41.JPG","null","","","","",""
"","html-keyboard-response","129","183628","0.0-6.0-2.40","LF","4xjqd36lab","414","896","en","un08ta23","null","","","","learningBlock1","","","","<div style=""font-size:60px;""> </div>","null","LF","learning/Slide41.JPG","This is a bim:","",""
"","html-keyboard-response","130","184634","0.0-6.0-0.41","LF","4xjqd36lab","414","896","en","un08ta23","null","","","","learningBlock1","","","","This is a dep:","null","","","","",""
"","image-keyboard-response","131","184966","0.0-6.0-1.41","LF","4xjqd36lab","414","896","en","un08ta23","null","","","","","","","","learning/Slide42.JPG","null","","","","",""
"","html-keyboard-response","132","185970","0.0-6.0-2.41","LF","4xjqd36lab","414","896","en","un08ta23","null","","","","learningBlock1","","","","<div style=""font-size:60px;""> </div>","null","LF","learning/Slide42.JPG","This is a dep:","",""
"","html-keyboard-response","133","186975","0.0-6.0-0.42","LF","4xjqd36lab","414","896","en","un08ta23","null","","","","learningBlock1","","","","This is a wug:","null","","","","",""
"","image-keyboard-response","134","187306","0.0-6.0-1.42","LF","4xjqd36lab","414","896","en","un08ta23","null","","","","","","","","learning/Slide43.JPG","null","","","","",""
"","html-keyboard-response","135","188311","0.0-6.0-2.42","LF","4xjqd36lab","414","896","en","un08ta23","null","","","","learningBlock1","","","","<div style=""font-size:60px;""> </div>","null","LF","learning/Slide43.JPG","This is a wug:","",""
"","html-keyboard-response","136","189316","0.0-6.0-0.43","LF","4xjqd36lab","414","896","en","un08ta23","null","","","","learningBlock1","","","","This is a bim:","null","","","","",""
"","image-keyboard-response","137","189649","0.0-6.0-1.43","LF","4xjqd36lab","414","896","en","un08ta23","null","","","","","","","","learning/Slide44.JPG","null","","","","",""
"","html-keyboard-response","138","190652","0.0-6.0-2.43","LF","4xjqd36lab","414","896","en","un08ta23","null","","","","learningBlock1","","","","<div style=""font-size:60px;""> </div>","null","LF","learning/Slide44.JPG","This is a bim:","",""
"","html-keyboard-response","139","191658","0.0-6.0-0.44","LF","4xjqd36lab","414","896","en","un08ta23","null","","","","learningBlock1","","","","This is a wug:","null","","","","",""
"","image-keyboard-response","140","191989","0.0-6.0-1.44","LF","4xjqd36lab","414","896","en","un08ta23","null","","","","","","","","learning/Slide45.JPG","null","","","","",""
"","html-keyboard-response","141","192993","0.0-6.0-2.44","LF","4xjqd36lab","414","896","en","un08ta23","null","","","","learningBlock1","","","","<div style=""font-size:60px;""> </div>","null","LF","learning/Slide45.JPG","This is a wug:","",""
"","html-keyboard-response","142","193999","0.0-6.0-0.45","LF","4xjqd36lab","414","896","en","un08ta23","null","","","","learningBlock1","","","","This is a dep:","null","","","","",""
"","image-keyboard-response","143","194330","0.0-6.0-1.45","LF","4xjqd36lab","414","896","en","un08ta23","null","","","","","","","","learning/Slide46.JPG","null","","","","",""
"","html-keyboard-response","144","195334","0.0-6.0-2.45","LF","4xjqd36lab","414","896","en","un08ta23","null","","","","learningBlock1","","","","<div style=""font-size:60px;""> </div>","null","LF","learning/Slide46.JPG","This is a dep:","",""
"","html-keyboard-response","145","196341","0.0-6.0-0.46","LF","4xjqd36lab","414","896","en","un08ta23","null","","","","learningBlock1","","","","This is a tob:","null","","","","",""
"","image-keyboard-response","146","196672","0.0-6.0-1.46","LF","4xjqd36lab","414","896","en","un08ta23","null","","","","","","","","learning/Slide47.JPG","null","","","","",""
"","html-keyboard-response","147","197675","0.0-6.0-2.46","LF","4xjqd36lab","414","896","en","un08ta23","null","","","","learningBlock1","","","","<div style=""font-size:60px;""> </div>","null","LF","learning/Slide47.JPG","This is a tob:","",""
"","html-keyboard-response","148","198681","0.0-6.0-0.47","LF","4xjqd36lab","414","896","en","un08ta23","null","","","","learningBlock1","","","","This is a bim:","null","","","","",""
"","image-keyboard-response","149","199012","0.0-6.0-1.47","LF","4xjqd36lab","414","896","en","un08ta23","null","","","","","","","","learning/Slide48.JPG","null","","","","",""
"","html-keyboard-response","150","200015","0.0-6.0-2.47","LF","4xjqd36lab","414","896","en","un08ta23","null","","","","learningBlock1","","","","<div style=""font-size:60px;""> </div>","null","LF","learning/Slide48.JPG","This is a bim:","",""
"","html-keyboard-response","151","201019","0.0-6.0-0.48","LF","4xjqd36lab","414","896","en","un08ta23","null","","","","learningBlock1","","","","This is a dep:","null","","","","",""
"","image-keyboard-response","152","201350","0.0-6.0-1.48","LF","4xjqd36lab","414","896","en","un08ta23","null","","","","","","","","learning/Slide49.JPG","null","","","","",""
"","html-keyboard-response","153","202354","0.0-6.0-2.48","LF","4xjqd36lab","414","896","en","un08ta23","null","","","","learningBlock1","","","","<div style=""font-size:60px;""> </div>","null","LF","learning/Slide49.JPG","This is a dep:","",""
"","html-keyboard-response","154","203360","0.0-6.0-0.49","LF","4xjqd36lab","414","896","en","un08ta23","null","","","","learningBlock1","","","","This is a tob:","null","","","","",""
"","image-keyboard-response","155","203692","0.0-6.0-1.49","LF","4xjqd36lab","414","896","en","un08ta23","null","","","","","","","","learning/Slide50.JPG","null","","","","",""
"","html-keyboard-response","156","204695","0.0-6.0-2.49","LF","4xjqd36lab","414","896","en","un08ta23","null","","","","learningBlock1","","","","<div style=""font-size:60px;""> </div>","null","LF","learning/Slide50.JPG","This is a tob:","",""
"","html-keyboard-response","157","205703","0.0-6.0-0.50","LF","4xjqd36lab","414","896","en","un08ta23","null","","","","learningBlock1","","","","This is a bim:","null","","","","",""
"","image-keyboard-response","158","206034","0.0-6.0-1.50","LF","4xjqd36lab","414","896","en","un08ta23","null","","","","","","","","learning/Slide51.JPG","null","","","","",""
"","html-keyboard-response","159","207038","0.0-6.0-2.50","LF","4xjqd36lab","414","896","en","un08ta23","null","","","","learningBlock1","","","","<div style=""font-size:60px;""> </div>","null","LF","learning/Slide51.JPG","This is a bim:","",""
"","html-keyboard-response","160","208044","0.0-6.0-0.51","LF","4xjqd36lab","414","896","en","un08ta23","null","","","","learningBlock1","","","","This is a wug:","null","","","","",""
"","image-keyboard-response","161","208375","0.0-6.0-1.51","LF","4xjqd36lab","414","896","en","un08ta23","null","","","","","","","","learning/Slide52.JPG","null","","","","",""
"","html-keyboard-response","162","209379","0.0-6.0-2.51","LF","4xjqd36lab","414","896","en","un08ta23","null","","","","learningBlock1","","","","<div style=""font-size:60px;""> </div>","null","LF","learning/Slide52.JPG","This is a wug:","",""
"","html-keyboard-response","163","210385","0.0-6.0-0.52","LF","4xjqd36lab","414","896","en","un08ta23","null","","","","learningBlock1","","","","This is a tob:","null","","","","",""
"","image-keyboard-response","164","210716","0.0-6.0-1.52","LF","4xjqd36lab","414","896","en","un08ta23","null","","","","","","","","learning/Slide53.JPG","null","","","","",""
"","html-keyboard-response","165","211720","0.0-6.0-2.52","LF","4xjqd36lab","414","896","en","un08ta23","null","","","","learningBlock1","","","","<div style=""font-size:60px;""> </div>","null","LF","learning/Slide53.JPG","This is a tob:","",""
"","html-keyboard-response","166","212725","0.0-6.0-0.53","LF","4xjqd36lab","414","896","en","un08ta23","null","","","","learningBlock1","","","","This is a dep:","null","","","","",""
"","image-keyboard-response","167","213056","0.0-6.0-1.53","LF","4xjqd36lab","414","896","en","un08ta23","null","","","","","","","","learning/Slide54.JPG","null","","","","",""
"","html-keyboard-response","168","214060","0.0-6.0-2.53","LF","4xjqd36lab","414","896","en","un08ta23","null","","","","learningBlock1","","","","<div style=""font-size:60px;""> </div>","null","LF","learning/Slide54.JPG","This is a dep:","",""
"","html-keyboard-response","169","215066","0.0-6.0-0.54","LF","4xjqd36lab","414","896","en","un08ta23","null","","","","learningBlock1","","","","This is a bim:","null","","","","",""
"","image-keyboard-response","170","215397","0.0-6.0-1.54","LF","4xjqd36lab","414","896","en","un08ta23","null","","","","","","","","learning/Slide55.JPG","null","","","","",""
"","html-keyboard-response","171","216401","0.0-6.0-2.54","LF","4xjqd36lab","414","896","en","un08ta23","null","","","","learningBlock1","","","","<div style=""font-size:60px;""> </div>","null","LF","learning/Slide55.JPG","This is a bim:","",""
"","html-keyboard-response","172","217407","0.0-6.0-0.55","LF","4xjqd36lab","414","896","en","un08ta23","null","","","","learningBlock1","","","","This is a tob:","null","","","","",""
"","image-keyboard-response","173","217739","0.0-6.0-1.55","LF","4xjqd36lab","414","896","en","un08ta23","null","","","","","","","","learning/Slide56.JPG","null","","","","",""
"","html-keyboard-response","174","218743","0.0-6.0-2.55","LF","4xjqd36lab","414","896","en","un08ta23","null","","","","learningBlock1","","","","<div style=""font-size:60px;""> </div>","null","LF","learning/Slide56.JPG","This is a tob:","",""
"","html-keyboard-response","175","219749","0.0-6.0-0.56","LF","4xjqd36lab","414","896","en","un08ta23","null","","","","learningBlock1","","","","This is a dep:","null","","","","",""
"","image-keyboard-response","176","220080","0.0-6.0-1.56","LF","4xjqd36lab","414","896","en","un08ta23","null","","","","","","","","learning/Slide57.JPG","null","","","","",""
"","html-keyboard-response","177","221083","0.0-6.0-2.56","LF","4xjqd36lab","414","896","en","un08ta23","null","","","","learningBlock1","","","","<div style=""font-size:60px;""> </div>","null","LF","learning/Slide57.JPG","This is a dep:","",""
"","html-keyboard-response","178","222089","0.0-6.0-0.57","LF","4xjqd36lab","414","896","en","un08ta23","null","","","","learningBlock1","","","","This is a wug:","null","","","","",""
"","image-keyboard-response","179","222420","0.0-6.0-1.57","LF","4xjqd36lab","414","896","en","un08ta23","null","","","","","","","","learning/Slide58.JPG","null","","","","",""
"","html-keyboard-response","180","223424","0.0-6.0-2.57","LF","4xjqd36lab","414","896","en","un08ta23","null","","","","learningBlock1","","","","<div style=""font-size:60px;""> </div>","null","LF","learning/Slide58.JPG","This is a wug:","",""
"","html-keyboard-response","181","224429","0.0-6.0-0.58","LF","4xjqd36lab","414","896","en","un08ta23","null","","","","learningBlock1","","","","This is a dep:","null","","","","",""
"","image-keyboard-response","182","224761","0.0-6.0-1.58","LF","4xjqd36lab","414","896","en","un08ta23","null","","","","","","","","learning/Slide59.JPG","null","","","","",""
"","html-keyboard-response","183","225764","0.0-6.0-2.58","LF","4xjqd36lab","414","896","en","un08ta23","null","","","","learningBlock1","","","","<div style=""font-size:60px;""> </div>","null","LF","learning/Slide59.JPG","This is a dep:","",""
"","html-keyboard-response","184","226770","0.0-6.0-0.59","LF","4xjqd36lab","414","896","en","un08ta23","null","","","","learningBlock1","","","","This is a wug:","null","","","","",""
"","image-keyboard-response","185","227101","0.0-6.0-1.59","LF","4xjqd36lab","414","896","en","un08ta23","null","","","","","","","","learning/Slide60.JPG","null","","","","",""
"","html-keyboard-response","186","228105","0.0-6.0-2.59","LF","4xjqd36lab","414","896","en","un08ta23","null","","","","learningBlock1","","","","<div style=""font-size:60px;""> </div>","null","LF","learning/Slide60.JPG","This is a wug:","",""
"","html-keyboard-response","187","229110","0.0-6.0-0.60","LF","4xjqd36lab","414","896","en","un08ta23","null","","","","learningBlock1","","","","This is a bim:","null","","","","",""
"","image-keyboard-response","188","229441","0.0-6.0-1.60","LF","4xjqd36lab","414","896","en","un08ta23","null","","","","","","","","learning/Slide61.JPG","null","","","","",""
"","html-keyboard-response","189","230445","0.0-6.0-2.60","LF","4xjqd36lab","414","896","en","un08ta23","null","","","","learningBlock1","","","","<div style=""font-size:60px;""> </div>","null","LF","learning/Slide61.JPG","This is a bim:","",""
"","html-keyboard-response","190","231451","0.0-6.0-0.61","LF","4xjqd36lab","414","896","en","un08ta23","null","","","","learningBlock1","","","","This is a dep:","null","","","","",""
"","image-keyboard-response","191","231782","0.0-6.0-1.61","LF","4xjqd36lab","414","896","en","un08ta23","null","","","","","","","","learning/Slide62.JPG","null","","","","",""
"","html-keyboard-response","192","232786","0.0-6.0-2.61","LF","4xjqd36lab","414","896","en","un08ta23","null","","","","learningBlock1","","","","<div style=""font-size:60px;""> </div>","null","LF","learning/Slide62.JPG","This is a dep:","",""
"","html-keyboard-response","193","233791","0.0-6.0-0.62","LF","4xjqd36lab","414","896","en","un08ta23","null","","","","learningBlock1","","","","This is a bim:","null","","","","",""
"","image-keyboard-response","194","234123","0.0-6.0-1.62","LF","4xjqd36lab","414","896","en","un08ta23","null","","","","","","","","learning/Slide63.JPG","null","","","","",""
"","html-keyboard-response","195","235126","0.0-6.0-2.62","LF","4xjqd36lab","414","896","en","un08ta23","null","","","","learningBlock1","","","","<div style=""font-size:60px;""> </div>","null","LF","learning/Slide63.JPG","This is a bim:","",""
"","html-keyboard-response","196","236132","0.0-6.0-0.63","LF","4xjqd36lab","414","896","en","un08ta23","null","","","","learningBlock1","","","","This is a tob:","null","","","","",""
"","image-keyboard-response","197","236464","0.0-6.0-1.63","LF","4xjqd36lab","414","896","en","un08ta23","null","","","","","","","","learning/Slide64.JPG","null","","","","",""
"","html-keyboard-response","198","237467","0.0-6.0-2.63","LF","4xjqd36lab","414","896","en","un08ta23","null","","","","learningBlock1","","","","<div style=""font-size:60px;""> </div>","null","LF","learning/Slide64.JPG","This is a tob:","",""
"","html-keyboard-response","199","238473","0.0-6.0-0.64","LF","4xjqd36lab","414","896","en","un08ta23","null","","","","learningBlock1","","","","This is a wug:","null","","","","",""
"","image-keyboard-response","200","238803","0.0-6.0-1.64","LF","4xjqd36lab","414","896","en","un08ta23","null","","","","","","","","learning/Slide65.JPG","null","","","","",""
"","html-keyboard-response","201","239807","0.0-6.0-2.64","LF","4xjqd36lab","414","896","en","un08ta23","null","","","","learningBlock1","","","","<div style=""font-size:60px;""> </div>","null","LF","learning/Slide65.JPG","This is a wug:","",""
"","html-keyboard-response","202","240812","0.0-6.0-0.65","LF","4xjqd36lab","414","896","en","un08ta23","null","","","","learningBlock1","","","","This is a dep:","null","","","","",""
"","image-keyboard-response","203","241143","0.0-6.0-1.65","LF","4xjqd36lab","414","896","en","un08ta23","null","","","","","","","","learning/Slide66.JPG","null","","","","",""
"","html-keyboard-response","204","242146","0.0-6.0-2.65","LF","4xjqd36lab","414","896","en","un08ta23","null","","","","learningBlock1","","","","<div style=""font-size:60px;""> </div>","null","LF","learning/Slide66.JPG","This is a dep:","",""
"","html-keyboard-response","205","243152","0.0-6.0-0.66","LF","4xjqd36lab","414","896","en","un08ta23","null","","","","learningBlock1","","","","This is a tob:","null","","","","",""
"","image-keyboard-response","206","243483","0.0-6.0-1.66","LF","4xjqd36lab","414","896","en","un08ta23","null","","","","","","","","learning/Slide67.JPG","null","","","","",""
"","html-keyboard-response","207","244486","0.0-6.0-2.66","LF","4xjqd36lab","414","896","en","un08ta23","null","","","","learningBlock1","","","","<div style=""font-size:60px;""> </div>","null","LF","learning/Slide67.JPG","This is a tob:","",""
"","html-keyboard-response","208","245492","0.0-6.0-0.67","LF","4xjqd36lab","414","896","en","un08ta23","null","","","","learningBlock1","","","","This is a wug:","null","","","","",""
"","image-keyboard-response","209","245824","0.0-6.0-1.67","LF","4xjqd36lab","414","896","en","un08ta23","null","","","","","","","","learning/Slide68.JPG","null","","","","",""
"","html-keyboard-response","210","246827","0.0-6.0-2.67","LF","4xjqd36lab","414","896","en","un08ta23","null","","","","learningBlock1","","","","<div style=""font-size:60px;""> </div>","null","LF","learning/Slide68.JPG","This is a wug:","",""
"","html-keyboard-response","211","247833","0.0-6.0-0.68","LF","4xjqd36lab","414","896","en","un08ta23","null","","","","learningBlock1","","","","This is a tob:","null","","","","",""
"","image-keyboard-response","212","248164","0.0-6.0-1.68","LF","4xjqd36lab","414","896","en","un08ta23","null","","","","","","","","learning/Slide69.JPG","null","","","","",""
"","html-keyboard-response","213","249168","0.0-6.0-2.68","LF","4xjqd36lab","414","896","en","un08ta23","null","","","","learningBlock1","","","","<div style=""font-size:60px;""> </div>","null","LF","learning/Slide69.JPG","This is a tob:","",""
"","html-keyboard-response","214","250174","0.0-6.0-0.69","LF","4xjqd36lab","414","896","en","un08ta23","null","","","","learningBlock1","","","","This is a dep:","null","","","","",""
"","image-keyboard-response","215","250505","0.0-6.0-1.69","LF","4xjqd36lab","414","896","en","un08ta23","null","","","","","","","","learning/Slide70.JPG","null","","","","",""
"","html-keyboard-response","216","251508","0.0-6.0-2.69","LF","4xjqd36lab","414","896","en","un08ta23","null","","","","learningBlock1","","","","<div style=""font-size:60px;""> </div>","null","LF","learning/Slide70.JPG","This is a dep:","",""
"","html-keyboard-response","217","252514","0.0-6.0-0.70","LF","4xjqd36lab","414","896","en","un08ta23","null","","","","learningBlock1","","","","This is a wug:","null","","","","",""
"","image-keyboard-response","218","252845","0.0-6.0-1.70","LF","4xjqd36lab","414","896","en","un08ta23","null","","","","","","","","learning/Slide71.JPG","null","","","","",""
"","html-keyboard-response","219","253848","0.0-6.0-2.70","LF","4xjqd36lab","414","896","en","un08ta23","null","","","","learningBlock1","","","","<div style=""font-size:60px;""> </div>","null","LF","learning/Slide71.JPG","This is a wug:","",""
"","html-keyboard-response","220","254854","0.0-6.0-0.71","LF","4xjqd36lab","414","896","en","un08ta23","null","","","","learningBlock1","","","","This is a bim:","null","","","","",""
"","image-keyboard-response","221","255185","0.0-6.0-1.71","LF","4xjqd36lab","414","896","en","un08ta23","null","","","","","","","","learning/Slide72.JPG","null","","","","",""
"","html-keyboard-response","222","256189","0.0-6.0-2.71","LF","4xjqd36lab","414","896","en","un08ta23","null","","","","learningBlock1","","","","<div style=""font-size:60px;""> </div>","null","LF","learning/Slide72.JPG","This is a bim:","",""
"","html-keyboard-response","223","257195","0.0-6.0-0.72","LF","4xjqd36lab","414","896","en","un08ta23","null","","","","learningBlock1","","","","This is a wug:","null","","","","",""
"","image-keyboard-response","224","257525","0.0-6.0-1.72","LF","4xjqd36lab","414","896","en","un08ta23","null","","","","","","","","learning/Slide73.JPG","null","","","","",""
"","html-keyboard-response","225","258529","0.0-6.0-2.72","LF","4xjqd36lab","414","896","en","un08ta23","null","","","","learningBlock1","","","","<div style=""font-size:60px;""> </div>","null","LF","learning/Slide73.JPG","This is a wug:","",""
"","html-keyboard-response","226","259532","0.0-6.0-0.73","LF","4xjqd36lab","414","896","en","un08ta23","null","","","","learningBlock1","","","","This is a dep:","null","","","","",""
"","image-keyboard-response","227","259863","0.0-6.0-1.73","LF","4xjqd36lab","414","896","en","un08ta23","null","","","","","","","","learning/Slide74.JPG","null","","","","",""
"","html-keyboard-response","228","260866","0.0-6.0-2.73","LF","4xjqd36lab","414","896","en","un08ta23","null","","","","learningBlock1","","","","<div style=""font-size:60px;""> </div>","null","LF","learning/Slide74.JPG","This is a dep:","",""
"","html-keyboard-response","229","261870","0.0-6.0-0.74","LF","4xjqd36lab","414","896","en","un08ta23","null","","","","learningBlock1","","","","This is a tob:","null","","","","",""
"","image-keyboard-response","230","262199","0.0-6.0-1.74","LF","4xjqd36lab","414","896","en","un08ta23","null","","","","","","","","learning/Slide75.JPG","null","","","","",""
"","html-keyboard-response","231","263201","0.0-6.0-2.74","LF","4xjqd36lab","414","896","en","un08ta23","null","","","","learningBlock1","","","","<div style=""font-size:60px;""> </div>","null","LF","learning/Slide75.JPG","This is a tob:","",""
"","html-keyboard-response","232","264207","0.0-6.0-0.75","LF","4xjqd36lab","414","896","en","un08ta23","null","","","","learningBlock1","","","","This is a bim:","null","","","","",""
"","image-keyboard-response","233","264537","0.0-6.0-1.75","LF","4xjqd36lab","414","896","en","un08ta23","null","","","","","","","","learning/Slide76.JPG","null","","","","",""
"","html-keyboard-response","234","265540","0.0-6.0-2.75","LF","4xjqd36lab","414","896","en","un08ta23","null","","","","learningBlock1","","","","<div style=""font-size:60px;""> </div>","null","LF","learning/Slide76.JPG","This is a bim:","",""
"","html-keyboard-response","235","266546","0.0-6.0-0.76","LF","4xjqd36lab","414","896","en","un08ta23","null","","","","learningBlock1","","","","This is a tob:","null","","","","",""
"","image-keyboard-response","236","266877","0.0-6.0-1.76","LF","4xjqd36lab","414","896","en","un08ta23","null","","","","","","","","learning/Slide77.JPG","null","","","","",""
"","html-keyboard-response","237","267881","0.0-6.0-2.76","LF","4xjqd36lab","414","896","en","un08ta23","null","","","","learningBlock1","","","","<div style=""font-size:60px;""> </div>","null","LF","learning/Slide77.JPG","This is a tob:","",""
"","html-keyboard-response","238","268886","0.0-6.0-0.77","LF","4xjqd36lab","414","896","en","un08ta23","null","","","","learningBlock1","","","","This is a wug:","null","","","","",""
"","image-keyboard-response","239","269218","0.0-6.0-1.77","LF","4xjqd36lab","414","896","en","un08ta23","null","","","","","","","","learning/Slide78.JPG","null","","","","",""
"","html-keyboard-response","240","270221","0.0-6.0-2.77","LF","4xjqd36lab","414","896","en","un08ta23","null","","","","learningBlock1","","","","<div style=""font-size:60px;""> </div>","null","LF","learning/Slide78.JPG","This is a wug:","",""
"","html-keyboard-response","241","271227","0.0-6.0-0.78","LF","4xjqd36lab","414","896","en","un08ta23","null","","","","learningBlock1","","","","This is a bim:","null","","","","",""
"","image-keyboard-response","242","271559","0.0-6.0-1.78","LF","4xjqd36lab","414","896","en","un08ta23","null","","","","","","","","learning/Slide79.JPG","null","","","","",""
"","html-keyboard-response","243","272562","0.0-6.0-2.78","LF","4xjqd36lab","414","896","en","un08ta23","null","","","","learningBlock1","","","","<div style=""font-size:60px;""> </div>","null","LF","learning/Slide79.JPG","This is a bim:","",""
"","html-keyboard-response","244","273568","0.0-6.0-0.79","LF","4xjqd36lab","414","896","en","un08ta23","null","","","","learningBlock1","","","","This is a tob:","null","","","","",""
"","image-keyboard-response","245","273900","0.0-6.0-1.79","LF","4xjqd36lab","414","896","en","un08ta23","null","","","","","","","","learning/Slide80.JPG","null","","","","",""
"","html-keyboard-response","246","274904","0.0-6.0-2.79","LF","4xjqd36lab","414","896","en","un08ta23","null","","","","learningBlock1","","","","<div style=""font-size:60px;""> </div>","null","LF","learning/Slide80.JPG","This is a tob:","",""
"","instructions","247","282540","0.0-7.0","LF","4xjqd36lab","414","896","en","un08ta23","NA","","","[{""page_index"":0,""viewing_time"":7632}]","instructions","","","","","","","","","",""
"","html-keyboard-response","248","283546","0.0-8.0-0.0","LF","4xjqd36lab","414","896","en","un08ta23","null","","","","learningBlock2","","","","This is a wug:","null","","","","",""
"","image-keyboard-response","249","283875","0.0-8.0-1.0","LF","4xjqd36lab","414","896","en","un08ta23","null","","","","","","","","learning/Slide81.JPG","null","","","","",""
"","html-keyboard-response","250","284878","0.0-8.0-2.0","LF","4xjqd36lab","414","896","en","un08ta23","null","","","","learningBlock2","","","","<div style=""font-size:60px;""> </div>","null","LF","learning/Slide81.JPG","This is a wug:","",""
"","html-keyboard-response","251","285885","0.0-8.0-0.1","LF","4xjqd36lab","414","896","en","un08ta23","null","","","","learningBlock2","","","","This is a bim:","null","","","","",""
"","image-keyboard-response","252","286216","0.0-8.0-1.1","LF","4xjqd36lab","414","896","en","un08ta23","null","","","","","","","","learning/Slide82.JPG","null","","","","",""
"","html-keyboard-response","253","287220","0.0-8.0-2.1","LF","4xjqd36lab","414","896","en","un08ta23","null","","","","learningBlock2","","","","<div style=""font-size:60px;""> </div>","null","LF","learning/Slide82.JPG","This is a bim:","",""
"","html-keyboard-response","254","288226","0.0-8.0-0.2","LF","4xjqd36lab","414","896","en","un08ta23","null","","","","learningBlock2","","","","This is a wug:","null","","","","",""
"","image-keyboard-response","255","288557","0.0-8.0-1.2","LF","4xjqd36lab","414","896","en","un08ta23","null","","","","","","","","learning/Slide83.JPG","null","","","","",""
"","html-keyboard-response","256","289561","0.0-8.0-2.2","LF","4xjqd36lab","414","896","en","un08ta23","null","","","","learningBlock2","","","","<div style=""font-size:60px;""> </div>","null","LF","learning/Slide83.JPG","This is a wug:","",""
"","html-keyboard-response","257","290567","0.0-8.0-0.3","LF","4xjqd36lab","414","896","en","un08ta23","null","","","","learningBlock2","","","","This is a dep:","null","","","","",""
"","image-keyboard-response","258","290898","0.0-8.0-1.3","LF","4xjqd36lab","414","896","en","un08ta23","null","","","","","","","","learning/Slide84.JPG","null","","","","",""
"","html-keyboard-response","259","291902","0.0-8.0-2.3","LF","4xjqd36lab","414","896","en","un08ta23","null","","","","learningBlock2","","","","<div style=""font-size:60px;""> </div>","null","LF","learning/Slide84.JPG","This is a dep:","",""
"","html-keyboard-response","260","292909","0.0-8.0-0.4","LF","4xjqd36lab","414","896","en","un08ta23","null","","","","learningBlock2","","","","This is a bim:","null","","","","",""
"","image-keyboard-response","261","293240","0.0-8.0-1.4","LF","4xjqd36lab","414","896","en","un08ta23","null","","","","","","","","learning/Slide85.JPG","null","","","","",""
"","html-keyboard-response","262","294244","0.0-8.0-2.4","LF","4xjqd36lab","414","896","en","un08ta23","null","","","","learningBlock2","","","","<div style=""font-size:60px;""> </div>","null","LF","learning/Slide85.JPG","This is a bim:","",""
"","html-keyboard-response","263","295250","0.0-8.0-0.5","LF","4xjqd36lab","414","896","en","un08ta23","null","","","","learningBlock2","","","","This is a tob:","null","","","","",""
"","image-keyboard-response","264","295582","0.0-8.0-1.5","LF","4xjqd36lab","414","896","en","un08ta23","null","","","","","","","","learning/Slide86.JPG","null","","","","",""
"","html-keyboard-response","265","296586","0.0-8.0-2.5","LF","4xjqd36lab","414","896","en","un08ta23","null","","","","learningBlock2","","","","<div style=""font-size:60px;""> </div>","null","LF","learning/Slide86.JPG","This is a tob:","",""
"","html-keyboard-response","266","297591","0.0-8.0-0.6","LF","4xjqd36lab","414","896","en","un08ta23","null","","","","learningBlock2","","","","This is a wug:","null","","","","",""
"","image-keyboard-response","267","297923","0.0-8.0-1.6","LF","4xjqd36lab","414","896","en","un08ta23","null","","","","","","","","learning/Slide87.JPG","null","","","","",""
"","html-keyboard-response","268","298927","0.0-8.0-2.6","LF","4xjqd36lab","414","896","en","un08ta23","null","","","","learningBlock2","","","","<div style=""font-size:60px;""> </div>","null","LF","learning/Slide87.JPG","This is a wug:","",""
"","html-keyboard-response","269","299933","0.0-8.0-0.7","LF","4xjqd36lab","414","896","en","un08ta23","null","","","","learningBlock2","","","","This is a tob:","null","","","","",""
"","image-keyboard-response","270","300264","0.0-8.0-1.7","LF","4xjqd36lab","414","896","en","un08ta23","null","","","","","","","","learning/Slide88.JPG","null","","","","",""
"","html-keyboard-response","271","301268","0.0-8.0-2.7","LF","4xjqd36lab","414","896","en","un08ta23","null","","","","learningBlock2","","","","<div style=""font-size:60px;""> </div>","null","LF","learning/Slide88.JPG","This is a tob:","",""
"","html-keyboard-response","272","302274","0.0-8.0-0.8","LF","4xjqd36lab","414","896","en","un08ta23","null","","","","learningBlock2","","","","This is a bim:","null","","","","",""
"","image-keyboard-response","273","302605","0.0-8.0-1.8","LF","4xjqd36lab","414","896","en","un08ta23","null","","","","","","","","learning/Slide89.JPG","null","","","","",""
"","html-keyboard-response","274","303609","0.0-8.0-2.8","LF","4xjqd36lab","414","896","en","un08ta23","null","","","","learningBlock2","","","","<div style=""font-size:60px;""> </div>","null","LF","learning/Slide89.JPG","This is a bim:","",""
"","html-keyboard-response","275","304614","0.0-8.0-0.9","LF","4xjqd36lab","414","896","en","un08ta23","null","","","","learningBlock2","","","","This is a dep:","null","","","","",""
"","image-keyboard-response","276","304946","0.0-8.0-1.9","LF","4xjqd36lab","414","896","en","un08ta23","null","","","","","","","","learning/Slide90.JPG","null","","","","",""
"","html-keyboard-response","277","305949","0.0-8.0-2.9","LF","4xjqd36lab","414","896","en","un08ta23","null","","","","learningBlock2","","","","<div style=""font-size:60px;""> </div>","null","LF","learning/Slide90.JPG","This is a dep:","",""
"","html-keyboard-response","278","306955","0.0-8.0-0.10","LF","4xjqd36lab","414","896","en","un08ta23","null","","","","learningBlock2","","","","This is a wug:","null","","","","",""
"","image-keyboard-response","279","307287","0.0-8.0-1.10","LF","4xjqd36lab","414","896","en","un08ta23","null","","","","","","","","learning/Slide91.JPG","null","","","","",""
"","html-keyboard-response","280","308291","0.0-8.0-2.10","LF","4xjqd36lab","414","896","en","un08ta23","null","","","","learningBlock2","","","","<div style=""font-size:60px;""> </div>","null","LF","learning/Slide91.JPG","This is a wug:","",""
"","html-keyboard-response","281","309297","0.0-8.0-0.11","LF","4xjqd36lab","414","896","en","un08ta23","null","","","","learningBlock2","","","","This is a tob:","null","","","","",""
"","image-keyboard-response","282","309628","0.0-8.0-1.11","LF","4xjqd36lab","414","896","en","un08ta23","null","","","","","","","","learning/Slide92.JPG","null","","","","",""
"","html-keyboard-response","283","310632","0.0-8.0-2.11","LF","4xjqd36lab","414","896","en","un08ta23","null","","","","learningBlock2","","","","<div style=""font-size:60px;""> </div>","null","LF","learning/Slide92.JPG","This is a tob:","",""
"","html-keyboard-response","284","311638","0.0-8.0-0.12","LF","4xjqd36lab","414","896","en","un08ta23","null","","","","learningBlock2","","","","This is a bim:","null","","","","",""
"","image-keyboard-response","285","311970","0.0-8.0-1.12","LF","4xjqd36lab","414","896","en","un08ta23","null","","","","","","","","learning/Slide93.JPG","null","","","","",""
"","html-keyboard-response","286","312974","0.0-8.0-2.12","LF","4xjqd36lab","414","896","en","un08ta23","null","","","","learningBlock2","","","","<div style=""font-size:60px;""> </div>","null","LF","learning/Slide93.JPG","This is a bim:","",""
"","html-keyboard-response","287","313980","0.0-8.0-0.13","LF","4xjqd36lab","414","896","en","un08ta23","null","","","","learningBlock2","","","","This is a tob:","null","","","","",""
"","image-keyboard-response","288","314310","0.0-8.0-1.13","LF","4xjqd36lab","414","896","en","un08ta23","null","","","","","","","","learning/Slide94.JPG","null","","","","",""
"","html-keyboard-response","289","315314","0.0-8.0-2.13","LF","4xjqd36lab","414","896","en","un08ta23","null","","","","learningBlock2","","","","<div style=""font-size:60px;""> </div>","null","LF","learning/Slide94.JPG","This is a tob:","",""
"","html-keyboard-response","290","316320","0.0-8.0-0.14","LF","4xjqd36lab","414","896","en","un08ta23","null","","","","learningBlock2","","","","This is a wug:","null","","","","",""
"","image-keyboard-response","291","316651","0.0-8.0-1.14","LF","4xjqd36lab","414","896","en","un08ta23","null","","","","","","","","learning/Slide95.JPG","null","","","","",""
"","html-keyboard-response","292","317655","0.0-8.0-2.14","LF","4xjqd36lab","414","896","en","un08ta23","null","","","","learningBlock2","","","","<div style=""font-size:60px;""> </div>","null","LF","learning/Slide95.JPG","This is a wug:","",""
"","html-keyboard-response","293","318660","0.0-8.0-0.15","LF","4xjqd36lab","414","896","en","un08ta23","null","","","","learningBlock2","","","","This is a tob:","null","","","","",""
"","image-keyboard-response","294","318991","0.0-8.0-1.15","LF","4xjqd36lab","414","896","en","un08ta23","null","","","","","","","","learning/Slide96.JPG","null","","","","",""
"","html-keyboard-response","295","319995","0.0-8.0-2.15","LF","4xjqd36lab","414","896","en","un08ta23","null","","","","learningBlock2","","","","<div style=""font-size:60px;""> </div>","null","LF","learning/Slide96.JPG","This is a tob:","",""
"","html-keyboard-response","296","321001","0.0-8.0-0.16","LF","4xjqd36lab","414","896","en","un08ta23","null","","","","learningBlock2","","","","This is a dep:","null","","","","",""
"","image-keyboard-response","297","321332","0.0-8.0-1.16","LF","4xjqd36lab","414","896","en","un08ta23","null","","","","","","","","learning/Slide97.JPG","null","","","","",""
"","html-keyboard-response","298","322336","0.0-8.0-2.16","LF","4xjqd36lab","414","896","en","un08ta23","null","","","","learningBlock2","","","","<div style=""font-size:60px;""> </div>","null","LF","learning/Slide97.JPG","This is a dep:","",""
"","html-keyboard-response","299","323342","0.0-8.0-0.17","LF","4xjqd36lab","414","896","en","un08ta23","null","","","","learningBlock2","","","","This is a bim:","null","","","","",""
"","image-keyboard-response","300","323671","0.0-8.0-1.17","LF","4xjqd36lab","414","896","en","un08ta23","null","","","","","","","","learning/Slide98.JPG","null","","","","",""
"","html-keyboard-response","301","324674","0.0-8.0-2.17","LF","4xjqd36lab","414","896","en","un08ta23","null","","","","learningBlock2","","","","<div style=""font-size:60px;""> </div>","null","LF","learning/Slide98.JPG","This is a bim:","",""
"","html-keyboard-response","302","325680","0.0-8.0-0.18","LF","4xjqd36lab","414","896","en","un08ta23","null","","","","learningBlock2","","","","This is a dep:","null","","","","",""
"","image-keyboard-response","303","326012","0.0-8.0-1.18","LF","4xjqd36lab","414","896","en","un08ta23","null","","","","","","","","learning/Slide99.JPG","null","","","","",""
"","html-keyboard-response","304","327015","0.0-8.0-2.18","LF","4xjqd36lab","414","896","en","un08ta23","null","","","","learningBlock2","","","","<div style=""font-size:60px;""> </div>","null","LF","learning/Slide99.JPG","This is a dep:","",""
"","html-keyboard-response","305","328022","0.0-8.0-0.19","LF","4xjqd36lab","414","896","en","un08ta23","null","","","","learningBlock2","","","","This is a bim:","null","","","","",""
"","image-keyboard-response","306","328353","0.0-8.0-1.19","LF","4xjqd36lab","414","896","en","un08ta23","null","","","","","","","","learning/Slide100.JPG","null","","","","",""
"","html-keyboard-response","307","329357","0.0-8.0-2.19","LF","4xjqd36lab","414","896","en","un08ta23","null","","","","learningBlock2","","","","<div style=""font-size:60px;""> </div>","null","LF","learning/Slide100.JPG","This is a bim:","",""
"","html-keyboard-response","308","330363","0.0-8.0-0.20","LF","4xjqd36lab","414","896","en","un08ta23","null","","","","learningBlock2","","","","This is a tob:","null","","","","",""
"","image-keyboard-response","309","330694","0.0-8.0-1.20","LF","4xjqd36lab","414","896","en","un08ta23","null","","","","","","","","learning/Slide101.JPG","null","","","","",""
"","html-keyboard-response","310","331698","0.0-8.0-2.20","LF","4xjqd36lab","414","896","en","un08ta23","null","","","","learningBlock2","","","","<div style=""font-size:60px;""> </div>","null","LF","learning/Slide101.JPG","This is a tob:","",""
"","html-keyboard-response","311","332704","0.0-8.0-0.21","LF","4xjqd36lab","414","896","en","un08ta23","null","","","","learningBlock2","","","","This is a bim:","null","","","","",""
"","image-keyboard-response","312","333033","0.0-8.0-1.21","LF","4xjqd36lab","414","896","en","un08ta23","null","","","","","","","","learning/Slide102.JPG","null","","","","",""
"","html-keyboard-response","313","334037","0.0-8.0-2.21","LF","4xjqd36lab","414","896","en","un08ta23","null","","","","learningBlock2","","","","<div style=""font-size:60px;""> </div>","null","LF","learning/Slide102.JPG","This is a bim:","",""
"","html-keyboard-response","314","335043","0.0-8.0-0.22","LF","4xjqd36lab","414","896","en","un08ta23","null","","","","learningBlock2","","","","This is a dep:","null","","","","",""
"","image-keyboard-response","315","335376","0.0-8.0-1.22","LF","4xjqd36lab","414","896","en","un08ta23","null","","","","","","","","learning/Slide103.JPG","null","","","","",""
"","html-keyboard-response","316","336379","0.0-8.0-2.22","LF","4xjqd36lab","414","896","en","un08ta23","null","","","","learningBlock2","","","","<div style=""font-size:60px;""> </div>","null","LF","learning/Slide103.JPG","This is a dep:","",""
"","html-keyboard-response","317","337385","0.0-8.0-0.23","LF","4xjqd36lab","414","896","en","un08ta23","null","","","","learningBlock2","","","","This is a tob:","null","","","","",""
"","image-keyboard-response","318","337717","0.0-8.0-1.23","LF","4xjqd36lab","414","896","en","un08ta23","null","","","","","","","","learning/Slide104.JPG","null","","","","",""
"","html-keyboard-response","319","338721","0.0-8.0-2.23","LF","4xjqd36lab","414","896","en","un08ta23","null","","","","learningBlock2","","","","<div style=""font-size:60px;""> </div>","null","LF","learning/Slide104.JPG","This is a tob:","",""
"","html-keyboard-response","320","339727","0.0-8.0-0.24","LF","4xjqd36lab","414","896","en","un08ta23","null","","","","learningBlock2","","","","This is a dep:","null","","","","",""
"","image-keyboard-response","321","340059","0.0-8.0-1.24","LF","4xjqd36lab","414","896","en","un08ta23","null","","","","","","","","learning/Slide105.JPG","null","","","","",""
"","html-keyboard-response","322","341063","0.0-8.0-2.24","LF","4xjqd36lab","414","896","en","un08ta23","null","","","","learningBlock2","","","","<div style=""font-size:60px;""> </div>","null","LF","learning/Slide105.JPG","This is a dep:","",""
"","html-keyboard-response","323","342069","0.0-8.0-0.25","LF","4xjqd36lab","414","896","en","un08ta23","null","","","","learningBlock2","","","","This is a wug:","null","","","","",""
"","image-keyboard-response","324","342399","0.0-8.0-1.25","LF","4xjqd36lab","414","896","en","un08ta23","null","","","","","","","","learning/Slide106.JPG","null","","","","",""
"","html-keyboard-response","325","343403","0.0-8.0-2.25","LF","4xjqd36lab","414","896","en","un08ta23","null","","","","learningBlock2","","","","<div style=""font-size:60px;""> </div>","null","LF","learning/Slide106.JPG","This is a wug:","",""
"","html-keyboard-response","326","344409","0.0-8.0-0.26","LF","4xjqd36lab","414","896","en","un08ta23","null","","","","learningBlock2","","","","This is a bim:","null","","","","",""
"","image-keyboard-response","327","344742","0.0-8.0-1.26","LF","4xjqd36lab","414","896","en","un08ta23","null","","","","","","","","learning/Slide107.JPG","null","","","","",""
"","html-keyboard-response","328","345745","0.0-8.0-2.26","LF","4xjqd36lab","414","896","en","un08ta23","null","","","","learningBlock2","","","","<div style=""font-size:60px;""> </div>","null","LF","learning/Slide107.JPG","This is a bim:","",""
"","html-keyboard-response","329","346751","0.0-8.0-0.27","LF","4xjqd36lab","414","896","en","un08ta23","null","","","","learningBlock2","","","","This is a dep:","null","","","","",""
"","image-keyboard-response","330","347083","0.0-8.0-1.27","LF","4xjqd36lab","414","896","en","un08ta23","null","","","","","","","","learning/Slide108.JPG","null","","","","",""
"","html-keyboard-response","331","348087","0.0-8.0-2.27","LF","4xjqd36lab","414","896","en","un08ta23","null","","","","learningBlock2","","","","<div style=""font-size:60px;""> </div>","null","LF","learning/Slide108.JPG","This is a dep:","",""
"","html-keyboard-response","332","349093","0.0-8.0-0.28","LF","4xjqd36lab","414","896","en","un08ta23","null","","","","learningBlock2","","","","This is a wug:","null","","","","",""
"","image-keyboard-response","333","349425","0.0-8.0-1.28","LF","4xjqd36lab","414","896","en","un08ta23","null","","","","","","","","learning/Slide109.JPG","null","","","","",""
"","html-keyboard-response","334","350429","0.0-8.0-2.28","LF","4xjqd36lab","414","896","en","un08ta23","null","","","","learningBlock2","","","","<div style=""font-size:60px;""> </div>","null","LF","learning/Slide109.JPG","This is a wug:","",""
"","html-keyboard-response","335","351434","0.0-8.0-0.29","LF","4xjqd36lab","414","896","en","un08ta23","null","","","","learningBlock2","","","","This is a bim:","null","","","","",""
"","image-keyboard-response","336","351766","0.0-8.0-1.29","LF","4xjqd36lab","414","896","en","un08ta23","null","","","","","","","","learning/Slide110.JPG","null","","","","",""
"","html-keyboard-response","337","352770","0.0-8.0-2.29","LF","4xjqd36lab","414","896","en","un08ta23","null","","","","learningBlock2","","","","<div style=""font-size:60px;""> </div>","null","LF","learning/Slide110.JPG","This is a bim:","",""
"","html-keyboard-response","338","353776","0.0-8.0-0.30","LF","4xjqd36lab","414","896","en","un08ta23","null","","","","learningBlock2","","","","This is a tob:","null","","","","",""
"","image-keyboard-response","339","354108","0.0-8.0-1.30","LF","4xjqd36lab","414","896","en","un08ta23","null","","","","","","","","learning/Slide111.JPG","null","","","","",""
"","html-keyboard-response","340","355112","0.0-8.0-2.30","LF","4xjqd36lab","414","896","en","un08ta23","null","","","","learningBlock2","","","","<div style=""font-size:60px;""> </div>","null","LF","learning/Slide111.JPG","This is a tob:","",""
"","html-keyboard-response","341","356118","0.0-8.0-0.31","LF","4xjqd36lab","414","896","en","un08ta23","null","","","","learningBlock2","","","","This is a wug:","null","","","","",""
"","image-keyboard-response","342","356450","0.0-8.0-1.31","LF","4xjqd36lab","414","896","en","un08ta23","null","","","","","","","","learning/Slide112.JPG","null","","","","",""
"","html-keyboard-response","343","357453","0.0-8.0-2.31","LF","4xjqd36lab","414","896","en","un08ta23","null","","","","learningBlock2","","","","<div style=""font-size:60px;""> </div>","null","LF","learning/Slide112.JPG","This is a wug:","",""
"","html-keyboard-response","344","358459","0.0-8.0-0.32","LF","4xjqd36lab","414","896","en","un08ta23","null","","","","learningBlock2","","","","This is a tob:","null","","","","",""
"","image-keyboard-response","345","358790","0.0-8.0-1.32","LF","4xjqd36lab","414","896","en","un08ta23","null","","","","","","","","learning/Slide113.JPG","null","","","","",""
"","html-keyboard-response","346","359794","0.0-8.0-2.32","LF","4xjqd36lab","414","896","en","un08ta23","null","","","","learningBlock2","","","","<div style=""font-size:60px;""> </div>","null","LF","learning/Slide113.JPG","This is a tob:","",""
"","html-keyboard-response","347","360800","0.0-8.0-0.33","LF","4xjqd36lab","414","896","en","un08ta23","null","","","","learningBlock2","","","","This is a wug:","null","","","","",""
"","image-keyboard-response","348","361132","0.0-8.0-1.33","LF","4xjqd36lab","414","896","en","un08ta23","null","","","","","","","","learning/Slide114.JPG","null","","","","",""
"","html-keyboard-response","349","362136","0.0-8.0-2.33","LF","4xjqd36lab","414","896","en","un08ta23","null","","","","learningBlock2","","","","<div style=""font-size:60px;""> </div>","null","LF","learning/Slide114.JPG","This is a wug:","",""
"","html-keyboard-response","350","363142","0.0-8.0-0.34","LF","4xjqd36lab","414","896","en","un08ta23","null","","","","learningBlock2","","","","This is a bim:","null","","","","",""
"","image-keyboard-response","351","363474","0.0-8.0-1.34","LF","4xjqd36lab","414","896","en","un08ta23","null","","","","","","","","learning/Slide115.JPG","null","","","","",""
"","html-keyboard-response","352","364478","0.0-8.0-2.34","LF","4xjqd36lab","414","896","en","un08ta23","null","","","","learningBlock2","","","","<div style=""font-size:60px;""> </div>","null","LF","learning/Slide115.JPG","This is a bim:","",""
"","html-keyboard-response","353","365483","0.0-8.0-0.35","LF","4xjqd36lab","414","896","en","un08ta23","null","","","","learningBlock2","","","","This is a dep:","null","","","","",""
"","image-keyboard-response","354","365815","0.0-8.0-1.35","LF","4xjqd36lab","414","896","en","un08ta23","null","","","","","","","","learning/Slide116.JPG","null","","","","",""
"","html-keyboard-response","355","366819","0.0-8.0-2.35","LF","4xjqd36lab","414","896","en","un08ta23","null","","","","learningBlock2","","","","<div style=""font-size:60px;""> </div>","null","LF","learning/Slide116.JPG","This is a dep:","",""
"","html-keyboard-response","356","367825","0.0-8.0-0.36","LF","4xjqd36lab","414","896","en","un08ta23","null","","","","learningBlock2","","","","This is a tob:","null","","","","",""
"","image-keyboard-response","357","368157","0.0-8.0-1.36","LF","4xjqd36lab","414","896","en","un08ta23","null","","","","","","","","learning/Slide117.JPG","null","","","","",""
"","html-keyboard-response","358","369161","0.0-8.0-2.36","LF","4xjqd36lab","414","896","en","un08ta23","null","","","","learningBlock2","","","","<div style=""font-size:60px;""> </div>","null","LF","learning/Slide117.JPG","This is a tob:","",""
"","html-keyboard-response","359","370166","0.0-8.0-0.37","LF","4xjqd36lab","414","896","en","un08ta23","null","","","","learningBlock2","","","","This is a dep:","null","","","","",""
"","image-keyboard-response","360","370498","0.0-8.0-1.37","LF","4xjqd36lab","414","896","en","un08ta23","null","","","","","","","","learning/Slide118.JPG","null","","","","",""
"","html-keyboard-response","361","371502","0.0-8.0-2.37","LF","4xjqd36lab","414","896","en","un08ta23","null","","","","learningBlock2","","","","<div style=""font-size:60px;""> </div>","null","LF","learning/Slide118.JPG","This is a dep:","",""
"","html-keyboard-response","362","372508","0.0-8.0-0.38","LF","4xjqd36lab","414","896","en","un08ta23","null","","","","learningBlock2","","","","This is a wug:","null","","","","",""
"","image-keyboard-response","363","372841","0.0-8.0-1.38","LF","4xjqd36lab","414","896","en","un08ta23","null","","","","","","","","learning/Slide119.JPG","null","","","","",""
"","html-keyboard-response","364","373845","0.0-8.0-2.38","LF","4xjqd36lab","414","896","en","un08ta23","null","","","","learningBlock2","","","","<div style=""font-size:60px;""> </div>","null","LF","learning/Slide119.JPG","This is a wug:","",""
"","html-keyboard-response","365","374851","0.0-8.0-0.39","LF","4xjqd36lab","414","896","en","un08ta23","null","","","","learningBlock2","","","","This is a dep:","null","","","","",""
"","image-keyboard-response","366","375182","0.0-8.0-1.39","LF","4xjqd36lab","414","896","en","un08ta23","null","","","","","","","","learning/Slide120.JPG","null","","","","",""
"","html-keyboard-response","367","376186","0.0-8.0-2.39","LF","4xjqd36lab","414","896","en","un08ta23","null","","","","learningBlock2","","","","<div style=""font-size:60px;""> </div>","null","LF","learning/Slide120.JPG","This is a dep:","",""
"","html-keyboard-response","368","377192","0.0-8.0-0.40","LF","4xjqd36lab","414","896","en","un08ta23","null","","","","learningBlock2","","","","This is a bim:","null","","","","",""
"","image-keyboard-response","369","377524","0.0-8.0-1.40","LF","4xjqd36lab","414","896","en","un08ta23","null","","","","","","","","learning/Slide121.JPG","null","","","","",""
"","html-keyboard-response","370","378528","0.0-8.0-2.40","LF","4xjqd36lab","414","896","en","un08ta23","null","","","","learningBlock2","","","","<div style=""font-size:60px;""> </div>","null","LF","learning/Slide121.JPG","This is a bim:","",""
"","html-keyboard-response","371","379534","0.0-8.0-0.41","LF","4xjqd36lab","414","896","en","un08ta23","null","","","","learningBlock2","","","","This is a wug:","null","","","","",""
"","image-keyboard-response","372","379866","0.0-8.0-1.41","LF","4xjqd36lab","414","896","en","un08ta23","null","","","","","","","","learning/Slide122.JPG","null","","","","",""
"","html-keyboard-response","373","380870","0.0-8.0-2.41","LF","4xjqd36lab","414","896","en","un08ta23","null","","","","learningBlock2","","","","<div style=""font-size:60px;""> </div>","null","LF","learning/Slide122.JPG","This is a wug:","",""
"","html-keyboard-response","374","381876","0.0-8.0-0.42","LF","4xjqd36lab","414","896","en","un08ta23","null","","","","learningBlock2","","","","This is a bim:","null","","","","",""
"","image-keyboard-response","375","382208","0.0-8.0-1.42","LF","4xjqd36lab","414","896","en","un08ta23","null","","","","","","","","learning/Slide123.JPG","null","","","","",""
"","html-keyboard-response","376","383212","0.0-8.0-2.42","LF","4xjqd36lab","414","896","en","un08ta23","null","","","","learningBlock2","","","","<div style=""font-size:60px;""> </div>","null","LF","learning/Slide123.JPG","This is a bim:","",""
"","html-keyboard-response","377","384218","0.0-8.0-0.43","LF","4xjqd36lab","414","896","en","un08ta23","null","","","","learningBlock2","","","","This is a tob:","null","","","","",""
"","image-keyboard-response","378","384550","0.0-8.0-1.43","LF","4xjqd36lab","414","896","en","un08ta23","null","","","","","","","","learning/Slide124.JPG","null","","","","",""
"","html-keyboard-response","379","385554","0.0-8.0-2.43","LF","4xjqd36lab","414","896","en","un08ta23","null","","","","learningBlock2","","","","<div style=""font-size:60px;""> </div>","null","LF","learning/Slide124.JPG","This is a tob:","",""
"","html-keyboard-response","380","386560","0.0-8.0-0.44","LF","4xjqd36lab","414","896","en","un08ta23","null","","","","learningBlock2","","","","This is a bim:","null","","","","",""
"","image-keyboard-response","381","386891","0.0-8.0-1.44","LF","4xjqd36lab","414","896","en","un08ta23","null","","","","","","","","learning/Slide125.JPG","null","","","","",""
"","html-keyboard-response","382","387895","0.0-8.0-2.44","LF","4xjqd36lab","414","896","en","un08ta23","null","","","","learningBlock2","","","","<div style=""font-size:60px;""> </div>","null","LF","learning/Slide125.JPG","This is a bim:","",""
"","html-keyboard-response","383","388901","0.0-8.0-0.45","LF","4xjqd36lab","414","896","en","un08ta23","null","","","","learningBlock2","","","","This is a tob:","null","","","","",""
"","image-keyboard-response","384","389233","0.0-8.0-1.45","LF","4xjqd36lab","414","896","en","un08ta23","null","","","","","","","","learning/Slide126.JPG","null","","","","",""
"","html-keyboard-response","385","390237","0.0-8.0-2.45","LF","4xjqd36lab","414","896","en","un08ta23","null","","","","learningBlock2","","","","<div style=""font-size:60px;""> </div>","null","LF","learning/Slide126.JPG","This is a tob:","",""
"","html-keyboard-response","386","391244","0.0-8.0-0.46","LF","4xjqd36lab","414","896","en","un08ta23","null","","","","learningBlock2","","","","This is a dep:","null","","","","",""
"","image-keyboard-response","387","391575","0.0-8.0-1.46","LF","4xjqd36lab","414","896","en","un08ta23","null","","","","","","","","learning/Slide127.JPG","null","","","","",""
"","html-keyboard-response","388","392579","0.0-8.0-2.46","LF","4xjqd36lab","414","896","en","un08ta23","null","","","","learningBlock2","","","","<div style=""font-size:60px;""> </div>","null","LF","learning/Slide127.JPG","This is a dep:","",""
"","html-keyboard-response","389","393584","0.0-8.0-0.47","LF","4xjqd36lab","414","896","en","un08ta23","null","","","","learningBlock2","","","","This is a wug:","null","","","","",""
"","image-keyboard-response","390","393916","0.0-8.0-1.47","LF","4xjqd36lab","414","896","en","un08ta23","null","","","","","","","","learning/Slide128.JPG","null","","","","",""
"","html-keyboard-response","391","394920","0.0-8.0-2.47","LF","4xjqd36lab","414","896","en","un08ta23","null","","","","learningBlock2","","","","<div style=""font-size:60px;""> </div>","null","LF","learning/Slide128.JPG","This is a wug:","",""
"","html-keyboard-response","392","395926","0.0-8.0-0.48","LF","4xjqd36lab","414","896","en","un08ta23","null","","","","learningBlock2","","","","This is a tob:","null","","","","",""
"","image-keyboard-response","393","396257","0.0-8.0-1.48","LF","4xjqd36lab","414","896","en","un08ta23","null","","","","","","","","learning/Slide129.JPG","null","","","","",""
"","html-keyboard-response","394","397261","0.0-8.0-2.48","LF","4xjqd36lab","414","896","en","un08ta23","null","","","","learningBlock2","","","","<div style=""font-size:60px;""> </div>","null","LF","learning/Slide129.JPG","This is a tob:","",""
"","html-keyboard-response","395","398266","0.0-8.0-0.49","LF","4xjqd36lab","414","896","en","un08ta23","null","","","","learningBlock2","","","","This is a wug:","null","","","","",""
"","image-keyboard-response","396","398598","0.0-8.0-1.49","LF","4xjqd36lab","414","896","en","un08ta23","null","","","","","","","","learning/Slide130.JPG","null","","","","",""
"","html-keyboard-response","397","399602","0.0-8.0-2.49","LF","4xjqd36lab","414","896","en","un08ta23","null","","","","learningBlock2","","","","<div style=""font-size:60px;""> </div>","null","LF","learning/Slide130.JPG","This is a wug:","",""
"","html-keyboard-response","398","400608","0.0-8.0-0.50","LF","4xjqd36lab","414","896","en","un08ta23","null","","","","learningBlock2","","","","This is a bim:","null","","","","",""
"","image-keyboard-response","399","400939","0.0-8.0-1.50","LF","4xjqd36lab","414","896","en","un08ta23","null","","","","","","","","learning/Slide131.JPG","null","","","","",""
"","html-keyboard-response","400","401942","0.0-8.0-2.50","LF","4xjqd36lab","414","896","en","un08ta23","null","","","","learningBlock2","","","","<div style=""font-size:60px;""> </div>","null","LF","learning/Slide131.JPG","This is a bim:","",""
"","html-keyboard-response","401","402948","0.0-8.0-0.51","LF","4xjqd36lab","414","896","en","un08ta23","null","","","","learningBlock2","","","","This is a dep:","null","","","","",""
"","image-keyboard-response","402","403279","0.0-8.0-1.51","LF","4xjqd36lab","414","896","en","un08ta23","null","","","","","","","","learning/Slide132.JPG","null","","","","",""
"","html-keyboard-response","403","404283","0.0-8.0-2.51","LF","4xjqd36lab","414","896","en","un08ta23","null","","","","learningBlock2","","","","<div style=""font-size:60px;""> </div>","null","LF","learning/Slide132.JPG","This is a dep:","",""
"","html-keyboard-response","404","405289","0.0-8.0-0.52","LF","4xjqd36lab","414","896","en","un08ta23","null","","","","learningBlock2","","","","This is a tob:","null","","","","",""
"","image-keyboard-response","405","405620","0.0-8.0-1.52","LF","4xjqd36lab","414","896","en","un08ta23","null","","","","","","","","learning/Slide133.JPG","null","","","","",""
"","html-keyboard-response","406","406624","0.0-8.0-2.52","LF","4xjqd36lab","414","896","en","un08ta23","null","","","","learningBlock2","","","","<div style=""font-size:60px;""> </div>","null","LF","learning/Slide133.JPG","This is a tob:","",""
"","html-keyboard-response","407","407630","0.0-8.0-0.53","LF","4xjqd36lab","414","896","en","un08ta23","null","","","","learningBlock2","","","","This is a dep:","null","","","","",""
"","image-keyboard-response","408","407962","0.0-8.0-1.53","LF","4xjqd36lab","414","896","en","un08ta23","null","","","","","","","","learning/Slide134.JPG","null","","","","",""
"","html-keyboard-response","409","408966","0.0-8.0-2.53","LF","4xjqd36lab","414","896","en","un08ta23","null","","","","learningBlock2","","","","<div style=""font-size:60px;""> </div>","null","LF","learning/Slide134.JPG","This is a dep:","",""
"","html-keyboard-response","410","409972","0.0-8.0-0.54","LF","4xjqd36lab","414","896","en","un08ta23","null","","","","learningBlock2","","","","This is a tob:","null","","","","",""
"","image-keyboard-response","411","410303","0.0-8.0-1.54","LF","4xjqd36lab","414","896","en","un08ta23","null","","","","","","","","learning/Slide135.JPG","null","","","","",""
"","html-keyboard-response","412","411307","0.0-8.0-2.54","LF","4xjqd36lab","414","896","en","un08ta23","null","","","","learningBlock2","","","","<div style=""font-size:60px;""> </div>","null","LF","learning/Slide135.JPG","This is a tob:","",""
"","html-keyboard-response","413","412314","0.0-8.0-0.55","LF","4xjqd36lab","414","896","en","un08ta23","null","","","","learningBlock2","","","","This is a wug:","null","","","","",""
"","image-keyboard-response","414","412645","0.0-8.0-1.55","LF","4xjqd36lab","414","896","en","un08ta23","null","","","","","","","","learning/Slide136.JPG","null","","","","",""
"","html-keyboard-response","415","413649","0.0-8.0-2.55","LF","4xjqd36lab","414","896","en","un08ta23","null","","","","learningBlock2","","","","<div style=""font-size:60px;""> </div>","null","LF","learning/Slide136.JPG","This is a wug:","",""
"","html-keyboard-response","416","414655","0.0-8.0-0.56","LF","4xjqd36lab","414","896","en","un08ta23","null","","","","learningBlock2","","","","This is a tob:","null","","","","",""
"","image-keyboard-response","417","414987","0.0-8.0-1.56","LF","4xjqd36lab","414","896","en","un08ta23","null","","","","","","","","learning/Slide137.JPG","null","","","","",""
"","html-keyboard-response","418","415990","0.0-8.0-2.56","LF","4xjqd36lab","414","896","en","un08ta23","null","","","","learningBlock2","","","","<div style=""font-size:60px;""> </div>","null","LF","learning/Slide137.JPG","This is a tob:","",""
"","html-keyboard-response","419","416997","0.0-8.0-0.57","LF","4xjqd36lab","414","896","en","un08ta23","null","","","","learningBlock2","","","","This is a bim:","null","","","","",""
"","image-keyboard-response","420","417328","0.0-8.0-1.57","LF","4xjqd36lab","414","896","en","un08ta23","null","","","","","","","","learning/Slide138.JPG","null","","","","",""
"","html-keyboard-response","421","418332","0.0-8.0-2.57","LF","4xjqd36lab","414","896","en","un08ta23","null","","","","learningBlock2","","","","<div style=""font-size:60px;""> </div>","null","LF","learning/Slide138.JPG","This is a bim:","",""
"","html-keyboard-response","422","419338","0.0-8.0-0.58","LF","4xjqd36lab","414","896","en","un08ta23","null","","","","learningBlock2","","","","This is a wug:","null","","","","",""
"","image-keyboard-response","423","419670","0.0-8.0-1.58","LF","4xjqd36lab","414","896","en","un08ta23","null","","","","","","","","learning/Slide139.JPG","null","","","","",""
"","html-keyboard-response","424","420674","0.0-8.0-2.58","LF","4xjqd36lab","414","896","en","un08ta23","null","","","","learningBlock2","","","","<div style=""font-size:60px;""> </div>","null","LF","learning/Slide139.JPG","This is a wug:","",""
"","html-keyboard-response","425","421680","0.0-8.0-0.59","LF","4xjqd36lab","414","896","en","un08ta23","null","","","","learningBlock2","","","","This is a dep:","null","","","","",""
"","image-keyboard-response","426","422011","0.0-8.0-1.59","LF","4xjqd36lab","414","896","en","un08ta23","null","","","","","","","","learning/Slide140.JPG","null","","","","",""
"","html-keyboard-response","427","423015","0.0-8.0-2.59","LF","4xjqd36lab","414","896","en","un08ta23","null","","","","learningBlock2","","","","<div style=""font-size:60px;""> </div>","null","LF","learning/Slide140.JPG","This is a dep:","",""
"","html-keyboard-response","428","424021","0.0-8.0-0.60","LF","4xjqd36lab","414","896","en","un08ta23","null","","","","learningBlock2","","","","This is a tob:","null","","","","",""
"","image-keyboard-response","429","424353","0.0-8.0-1.60","LF","4xjqd36lab","414","896","en","un08ta23","null","","","","","","","","learning/Slide141.JPG","null","","","","",""
"","html-keyboard-response","430","425357","0.0-8.0-2.60","LF","4xjqd36lab","414","896","en","un08ta23","null","","","","learningBlock2","","","","<div style=""font-size:60px;""> </div>","null","LF","learning/Slide141.JPG","This is a tob:","",""
"","html-keyboard-response","431","426363","0.0-8.0-0.61","LF","4xjqd36lab","414","896","en","un08ta23","null","","","","learningBlock2","","","","This is a wug:","null","","","","",""
"","image-keyboard-response","432","426694","0.0-8.0-1.61","LF","4xjqd36lab","414","896","en","un08ta23","null","","","","","","","","learning/Slide142.JPG","null","","","","",""
"","html-keyboard-response","433","427698","0.0-8.0-2.61","LF","4xjqd36lab","414","896","en","un08ta23","null","","","","learningBlock2","","","","<div style=""font-size:60px;""> </div>","null","LF","learning/Slide142.JPG","This is a wug:","",""
"","html-keyboard-response","434","428704","0.0-8.0-0.62","LF","4xjqd36lab","414","896","en","un08ta23","null","","","","learningBlock2","","","","This is a bim:","null","","","","",""
"","image-keyboard-response","435","429036","0.0-8.0-1.62","LF","4xjqd36lab","414","896","en","un08ta23","null","","","","","","","","learning/Slide143.JPG","null","","","","",""
"","html-keyboard-response","436","430040","0.0-8.0-2.62","LF","4xjqd36lab","414","896","en","un08ta23","null","","","","learningBlock2","","","","<div style=""font-size:60px;""> </div>","null","LF","learning/Slide143.JPG","This is a bim:","",""
"","html-keyboard-response","437","431045","0.0-8.0-0.63","LF","4xjqd36lab","414","896","en","un08ta23","null","","","","learningBlock2","","","","This is a dep:","null","","","","",""
"","image-keyboard-response","438","431374","0.0-8.0-1.63","LF","4xjqd36lab","414","896","en","un08ta23","null","","","","","","","","learning/Slide144.JPG","null","","","","",""
"","html-keyboard-response","439","432377","0.0-8.0-2.63","LF","4xjqd36lab","414","896","en","un08ta23","null","","","","learningBlock2","","","","<div style=""font-size:60px;""> </div>","null","LF","learning/Slide144.JPG","This is a dep:","",""
"","html-keyboard-response","440","433383","0.0-8.0-0.64","LF","4xjqd36lab","414","896","en","un08ta23","null","","","","learningBlock2","","","","This is a bim:","null","","","","",""
"","image-keyboard-response","441","433714","0.0-8.0-1.64","LF","4xjqd36lab","414","896","en","un08ta23","null","","","","","","","","learning/Slide145.JPG","null","","","","",""
"","html-keyboard-response","442","434717","0.0-8.0-2.64","LF","4xjqd36lab","414","896","en","un08ta23","null","","","","learningBlock2","","","","<div style=""font-size:60px;""> </div>","null","LF","learning/Slide145.JPG","This is a bim:","",""
"","html-keyboard-response","443","435722","0.0-8.0-0.65","LF","4xjqd36lab","414","896","en","un08ta23","null","","","","learningBlock2","","","","This is a tob:","null","","","","",""
"","image-keyboard-response","444","436054","0.0-8.0-1.65","LF","4xjqd36lab","414","896","en","un08ta23","null","","","","","","","","learning/Slide146.JPG","null","","","","",""
"","html-keyboard-response","445","437057","0.0-8.0-2.65","LF","4xjqd36lab","414","896","en","un08ta23","null","","","","learningBlock2","","","","<div style=""font-size:60px;""> </div>","null","LF","learning/Slide146.JPG","This is a tob:","",""
"","html-keyboard-response","446","438063","0.0-8.0-0.66","LF","4xjqd36lab","414","896","en","un08ta23","null","","","","learningBlock2","","","","This is a wug:","null","","","","",""
"","image-keyboard-response","447","438394","0.0-8.0-1.66","LF","4xjqd36lab","414","896","en","un08ta23","null","","","","","","","","learning/Slide147.JPG","null","","","","",""
"","html-keyboard-response","448","439398","0.0-8.0-2.66","LF","4xjqd36lab","414","896","en","un08ta23","null","","","","learningBlock2","","","","<div style=""font-size:60px;""> </div>","null","LF","learning/Slide147.JPG","This is a wug:","",""
"","html-keyboard-response","449","440404","0.0-8.0-0.67","LF","4xjqd36lab","414","896","en","un08ta23","null","","","","learningBlock2","","","","This is a bim:","null","","","","",""
"","image-keyboard-response","450","440735","0.0-8.0-1.67","LF","4xjqd36lab","414","896","en","un08ta23","null","","","","","","","","learning/Slide148.JPG","null","","","","",""
"","html-keyboard-response","451","441738","0.0-8.0-2.67","LF","4xjqd36lab","414","896","en","un08ta23","null","","","","learningBlock2","","","","<div style=""font-size:60px;""> </div>","null","LF","learning/Slide148.JPG","This is a bim:","",""
"","html-keyboard-response","452","442744","0.0-8.0-0.68","LF","4xjqd36lab","414","896","en","un08ta23","null","","","","learningBlock2","","","","This is a dep:","null","","","","",""
"","image-keyboard-response","453","443076","0.0-8.0-1.68","LF","4xjqd36lab","414","896","en","un08ta23","null","","","","","","","","learning/Slide149.JPG","null","","","","",""
"","html-keyboard-response","454","444080","0.0-8.0-2.68","LF","4xjqd36lab","414","896","en","un08ta23","null","","","","learningBlock2","","","","<div style=""font-size:60px;""> </div>","null","LF","learning/Slide149.JPG","This is a dep:","",""
"","html-keyboard-response","455","445085","0.0-8.0-0.69","LF","4xjqd36lab","414","896","en","un08ta23","null","","","","learningBlock2","","","","This is a wug:","null","","","","",""
"","image-keyboard-response","456","445417","0.0-8.0-1.69","LF","4xjqd36lab","414","896","en","un08ta23","null","","","","","","","","learning/Slide150.JPG","null","","","","",""
"","html-keyboard-response","457","446420","0.0-8.0-2.69","LF","4xjqd36lab","414","896","en","un08ta23","null","","","","learningBlock2","","","","<div style=""font-size:60px;""> </div>","null","LF","learning/Slide150.JPG","This is a wug:","",""
"","html-keyboard-response","458","447425","0.0-8.0-0.70","LF","4xjqd36lab","414","896","en","un08ta23","null","","","","learningBlock2","","","","This is a dep:","null","","","","",""
"","image-keyboard-response","459","447757","0.0-8.0-1.70","LF","4xjqd36lab","414","896","en","un08ta23","null","","","","","","","","learning/Slide151.JPG","null","","","","",""
"","html-keyboard-response","460","448761","0.0-8.0-2.70","LF","4xjqd36lab","414","896","en","un08ta23","null","","","","learningBlock2","","","","<div style=""font-size:60px;""> </div>","null","LF","learning/Slide151.JPG","This is a dep:","",""
"","html-keyboard-response","461","449766","0.0-8.0-0.71","LF","4xjqd36lab","414","896","en","un08ta23","null","","","","learningBlock2","","","","This is a wug:","null","","","","",""
"","image-keyboard-response","462","450098","0.0-8.0-1.71","LF","4xjqd36lab","414","896","en","un08ta23","null","","","","","","","","learning/Slide152.JPG","null","","","","",""
"","html-keyboard-response","463","451101","0.0-8.0-2.71","LF","4xjqd36lab","414","896","en","un08ta23","null","","","","learningBlock2","","","","<div style=""font-size:60px;""> </div>","null","LF","learning/Slide152.JPG","This is a wug:","",""
"","html-keyboard-response","464","452107","0.0-8.0-0.72","LF","4xjqd36lab","414","896","en","un08ta23","null","","","","learningBlock2","","","","This is a bim:","null","","","","",""
"","image-keyboard-response","465","452438","0.0-8.0-1.72","LF","4xjqd36lab","414","896","en","un08ta23","null","","","","","","","","learning/Slide153.JPG","null","","","","",""
"","html-keyboard-response","466","453442","0.0-8.0-2.72","LF","4xjqd36lab","414","896","en","un08ta23","null","","","","learningBlock2","","","","<div style=""font-size:60px;""> </div>","null","LF","learning/Slide153.JPG","This is a bim:","",""
"","html-keyboard-response","467","454447","0.0-8.0-0.73","LF","4xjqd36lab","414","896","en","un08ta23","null","","","","learningBlock2","","","","This is a tob:","null","","","","",""
"","image-keyboard-response","468","454779","0.0-8.0-1.73","LF","4xjqd36lab","414","896","en","un08ta23","null","","","","","","","","learning/Slide154.JPG","null","","","","",""
"","html-keyboard-response","469","455782","0.0-8.0-2.73","LF","4xjqd36lab","414","896","en","un08ta23","null","","","","learningBlock2","","","","<div style=""font-size:60px;""> </div>","null","LF","learning/Slide154.JPG","This is a tob:","",""
"","html-keyboard-response","470","456788","0.0-8.0-0.74","LF","4xjqd36lab","414","896","en","un08ta23","null","","","","learningBlock2","","","","This is a dep:","null","","","","",""
"","image-keyboard-response","471","457120","0.0-8.0-1.74","LF","4xjqd36lab","414","896","en","un08ta23","null","","","","","","","","learning/Slide155.JPG","null","","","","",""
"","html-keyboard-response","472","458124","0.0-8.0-2.74","LF","4xjqd36lab","414","896","en","un08ta23","null","","","","learningBlock2","","","","<div style=""font-size:60px;""> </div>","null","LF","learning/Slide155.JPG","This is a dep:","",""
"","html-keyboard-response","473","459129","0.0-8.0-0.75","LF","4xjqd36lab","414","896","en","un08ta23","null","","","","learningBlock2","","","","This is a bim:","null","","","","",""
"","image-keyboard-response","474","459460","0.0-8.0-1.75","LF","4xjqd36lab","414","896","en","un08ta23","null","","","","","","","","learning/Slide156.JPG","null","","","","",""
"","html-keyboard-response","475","460464","0.0-8.0-2.75","LF","4xjqd36lab","414","896","en","un08ta23","null","","","","learningBlock2","","","","<div style=""font-size:60px;""> </div>","null","LF","learning/Slide156.JPG","This is a bim:","",""
"","html-keyboard-response","476","461469","0.0-8.0-0.76","LF","4xjqd36lab","414","896","en","un08ta23","null","","","","learningBlock2","","","","This is a dep:","null","","","","",""
"","image-keyboard-response","477","461801","0.0-8.0-1.76","LF","4xjqd36lab","414","896","en","un08ta23","null","","","","","","","","learning/Slide157.JPG","null","","","","",""
"","html-keyboard-response","478","462804","0.0-8.0-2.76","LF","4xjqd36lab","414","896","en","un08ta23","null","","","","learningBlock2","","","","<div style=""font-size:60px;""> </div>","null","LF","learning/Slide157.JPG","This is a dep:","",""
"","html-keyboard-response","479","463810","0.0-8.0-0.77","LF","4xjqd36lab","414","896","en","un08ta23","null","","","","learningBlock2","","","","This is a tob:","null","","","","",""
"","image-keyboard-response","480","464142","0.0-8.0-1.77","LF","4xjqd36lab","414","896","en","un08ta23","null","","","","","","","","learning/Slide158.JPG","null","","","","",""
"","html-keyboard-response","481","465145","0.0-8.0-2.77","LF","4xjqd36lab","414","896","en","un08ta23","null","","","","learningBlock2","","","","<div style=""font-size:60px;""> </div>","null","LF","learning/Slide158.JPG","This is a tob:","",""
"","html-keyboard-response","482","466151","0.0-8.0-0.78","LF","4xjqd36lab","414","896","en","un08ta23","null","","","","learningBlock2","","","","This is a dep:","null","","","","",""
"","image-keyboard-response","483","466483","0.0-8.0-1.78","LF","4xjqd36lab","414","896","en","un08ta23","null","","","","","","","","learning/Slide159.JPG","null","","","","",""
"","html-keyboard-response","484","467486","0.0-8.0-2.78","LF","4xjqd36lab","414","896","en","un08ta23","null","","","","learningBlock2","","","","<div style=""font-size:60px;""> </div>","null","LF","learning/Slide159.JPG","This is a dep:","",""
"","html-keyboard-response","485","468492","0.0-8.0-0.79","LF","4xjqd36lab","414","896","en","un08ta23","null","","","","learningBlock2","","","","This is a wug:","null","","","","",""
"","image-keyboard-response","486","468823","0.0-8.0-1.79","LF","4xjqd36lab","414","896","en","un08ta23","null","","","","","","","","learning/Slide160.JPG","null","","","","",""
"","html-keyboard-response","487","469827","0.0-8.0-2.79","LF","4xjqd36lab","414","896","en","un08ta23","null","","","","learningBlock2","","","","<div style=""font-size:60px;""> </div>","null","LF","learning/Slide160.JPG","This is a wug:","",""
"","resize2","488","474035","0.0-9.0","LF","4xjqd36lab","414","896","en","un08ta23","","","","","","","104","1.04","","","","","","",""
"","instructions","489","485909","0.0-10.0","LF","4xjqd36lab","414","896","en","un08ta23","NA","","","[{""page_index"":0,""viewing_time"":11872}]","instructions","","","","","","","","","",""
"","html-keyboard-response","490","486913","0.0-11.0-0.0","LF","4xjqd36lab","414","896","en","un08ta23","null","","","","","","","","<div style=""font-size:60px;"">+</div>","null","","","","",""
"","image-button-response","491","490424","0.0-11.0-1.0","LF","4xjqd36lab","414","896","en","un08ta23","null","","","","pictureLabels","","","","test/1.JPG","NA","LF","test/1.JPG","tob,dep,wug,bim","null",""
"","html-keyboard-response","492","491429","0.0-11.0-0.1","LF","4xjqd36lab","414","896","en","un08ta23","null","","","","","","","","<div style=""font-size:60px;"">+</div>","null","","","","",""
