"success","trial_type","trial_index","time_elapsed","internal_node_id","condition","subject","screen_width","screen_height","language","codeword","rt","responses","url","view_history","test_part","final_height_px","final_width_px","scale_factor","stimulus","key_press","learningType","presentedImage","presentedLabel","button_pressed","response"
"true","fullscreen","0","3361","0.0-0.0","LF","u9vce3hluj","1536","864","de","ne05ar22","","","","","","","","","","","","","","",""
"","survey-html-form","1","12965","0.0-1.0","LF","u9vce3hluj","1536","864","de","ne05ar22","9601","{""language"":""de""}","","","","","","","","","","","","",""
"","external-html","2","186433","0.0-2.0-0.0","LF","u9vce3hluj","1536","864","de","ne05ar22","173346","","text/information.html","","","","","","","","","","","",""
"","external-html","3","216704","0.0-2.0-1.0","LF","u9vce3hluj","1536","864","de","ne05ar22","30168","","text/consent.html","","","","","","","","","","","",""
"","survey-html-form","4","310897","0.0-2.0-2.0","LF","u9vce3hluj","1536","864","de","ne05ar22","94183","{""codeword_enter"":""ne05ar22""}","","","","","","","","","","","","",""
"","instructions","5","402248","0.0-4.0","LF","u9vce3hluj","1536","864","de","ne05ar22","NA","","","[{""page_index"":0,""viewing_time"":49253},{""page_index"":1,""viewing_time"":40584}]","instructions","","","","","","","","","",""
"","resize","6","528680","0.0-5.0","LF","u9vce3hluj","1536","864","de","ne05ar22","","","","","","","387","2.4571428571428573","","","","","","",""
"","html-keyboard-response","7","529712","0.0-6.0-0.0","LF","u9vce3hluj","1536","864","de","ne05ar22","null","","","","learningBlock1","","","","This is a tob:","null","","","","",""
"","image-keyboard-response","8","530062","0.0-6.0-1.0","LF","u9vce3hluj","1536","864","de","ne05ar22","null","","","","","","","","learning/Slide1.JPG","null","","","","",""
"","html-keyboard-response","9","531075","0.0-6.0-2.0","LF","u9vce3hluj","1536","864","de","ne05ar22","null","","","","learningBlock1","","","","<div style=""font-size:60px;""> </div>","null","LF","learning/Slide1.JPG","This is a tob:","",""
"","html-keyboard-response","10","532079","0.0-6.0-0.1","LF","u9vce3hluj","1536","864","de","ne05ar22","null","","","","learningBlock1","","","","This is a wug:","null","","","","",""
"","image-keyboard-response","11","532423","0.0-6.0-1.1","LF","u9vce3hluj","1536","864","de","ne05ar22","null","","","","","","","","learning/Slide2.JPG","null","","","","",""
"","html-keyboard-response","12","533439","0.0-6.0-2.1","LF","u9vce3hluj","1536","864","de","ne05ar22","null","","","","learningBlock1","","","","<div style=""font-size:60px;""> </div>","null","LF","learning/Slide2.JPG","This is a wug:","",""
"","html-keyboard-response","13","534440","0.0-6.0-0.2","LF","u9vce3hluj","1536","864","de","ne05ar22","null","","","","learningBlock1","","","","This is a bim:","null","","","","",""
"","image-keyboard-response","14","534784","0.0-6.0-1.2","LF","u9vce3hluj","1536","864","de","ne05ar22","null","","","","","","","","learning/Slide3.JPG","null","","","","",""
"","html-keyboard-response","15","535794","0.0-6.0-2.2","LF","u9vce3hluj","1536","864","de","ne05ar22","null","","","","learningBlock1","","","","<div style=""font-size:60px;""> </div>","null","LF","learning/Slide3.JPG","This is a bim:","",""
"","html-keyboard-response","16","536799","0.0-6.0-0.3","LF","u9vce3hluj","1536","864","de","ne05ar22","null","","","","learningBlock1","","","","This is a dep:","null","","","","",""
"","image-keyboard-response","17","537144","0.0-6.0-1.3","LF","u9vce3hluj","1536","864","de","ne05ar22","null","","","","","","","","learning/Slide4.JPG","null","","","","",""
"","html-keyboard-response","18","538150","0.0-6.0-2.3","LF","u9vce3hluj","1536","864","de","ne05ar22","null","","","","learningBlock1","","","","<div style=""font-size:60px;""> </div>","null","LF","learning/Slide4.JPG","This is a dep:","",""
"","html-keyboard-response","19","539153","0.0-6.0-0.4","LF","u9vce3hluj","1536","864","de","ne05ar22","null","","","","learningBlock1","","","","This is a wug:","null","","","","",""
"","image-keyboard-response","20","539499","0.0-6.0-1.4","LF","u9vce3hluj","1536","864","de","ne05ar22","null","","","","","","","","learning/Slide5.JPG","null","","","","",""
"","html-keyboard-response","21","540501","0.0-6.0-2.4","LF","u9vce3hluj","1536","864","de","ne05ar22","null","","","","learningBlock1","","","","<div style=""font-size:60px;""> </div>","null","LF","learning/Slide5.JPG","This is a wug:","",""
"","html-keyboard-response","22","541503","0.0-6.0-0.5","LF","u9vce3hluj","1536","864","de","ne05ar22","null","","","","learningBlock1","","","","This is a dep:","null","","","","",""
"","image-keyboard-response","23","541843","0.0-6.0-1.5","LF","u9vce3hluj","1536","864","de","ne05ar22","null","","","","","","","","learning/Slide6.JPG","null","","","","",""
"","html-keyboard-response","24","542858","0.0-6.0-2.5","LF","u9vce3hluj","1536","864","de","ne05ar22","null","","","","learningBlock1","","","","<div style=""font-size:60px;""> </div>","null","LF","learning/Slide6.JPG","This is a dep:","",""
"","html-keyboard-response","25","543859","0.0-6.0-0.6","LF","u9vce3hluj","1536","864","de","ne05ar22","null","","","","learningBlock1","","","","This is a wug:","null","","","","",""
"","image-keyboard-response","26","544204","0.0-6.0-1.6","LF","u9vce3hluj","1536","864","de","ne05ar22","null","","","","","","","","learning/Slide7.JPG","null","","","","",""
"","html-keyboard-response","27","545208","0.0-6.0-2.6","LF","u9vce3hluj","1536","864","de","ne05ar22","null","","","","learningBlock1","","","","<div style=""font-size:60px;""> </div>","null","LF","learning/Slide7.JPG","This is a wug:","",""
"","html-keyboard-response","28","546223","0.0-6.0-0.7","LF","u9vce3hluj","1536","864","de","ne05ar22","null","","","","learningBlock1","","","","This is a bim:","null","","","","",""
"","image-keyboard-response","29","546563","0.0-6.0-1.7","LF","u9vce3hluj","1536","864","de","ne05ar22","null","","","","","","","","learning/Slide8.JPG","null","","","","",""
"","html-keyboard-response","30","547565","0.0-6.0-2.7","LF","u9vce3hluj","1536","864","de","ne05ar22","null","","","","learningBlock1","","","","<div style=""font-size:60px;""> </div>","null","LF","learning/Slide8.JPG","This is a bim:","",""
"","html-keyboard-response","31","548569","0.0-6.0-0.8","LF","u9vce3hluj","1536","864","de","ne05ar22","null","","","","learningBlock1","","","","This is a wug:","null","","","","",""
"","image-keyboard-response","32","548914","0.0-6.0-1.8","LF","u9vce3hluj","1536","864","de","ne05ar22","null","","","","","","","","learning/Slide9.JPG","null","","","","",""
"","html-keyboard-response","33","549921","0.0-6.0-2.8","LF","u9vce3hluj","1536","864","de","ne05ar22","null","","","","learningBlock1","","","","<div style=""font-size:60px;""> </div>","null","LF","learning/Slide9.JPG","This is a wug:","",""
"","html-keyboard-response","34","550934","0.0-6.0-0.9","LF","u9vce3hluj","1536","864","de","ne05ar22","null","","","","learningBlock1","","","","This is a dep:","null","","","","",""
"","image-keyboard-response","35","551276","0.0-6.0-1.9","LF","u9vce3hluj","1536","864","de","ne05ar22","null","","","","","","","","learning/Slide10.JPG","null","","","","",""
"","html-keyboard-response","36","552280","0.0-6.0-2.9","LF","u9vce3hluj","1536","864","de","ne05ar22","null","","","","learningBlock1","","","","<div style=""font-size:60px;""> </div>","null","LF","learning/Slide10.JPG","This is a dep:","",""
"","html-keyboard-response","37","553287","0.0-6.0-0.10","LF","u9vce3hluj","1536","864","de","ne05ar22","null","","","","learningBlock1","","","","This is a tob:","null","","","","",""
"","image-keyboard-response","38","553627","0.0-6.0-1.10","LF","u9vce3hluj","1536","864","de","ne05ar22","null","","","","","","","","learning/Slide11.JPG","null","","","","",""
"","html-keyboard-response","39","554634","0.0-6.0-2.10","LF","u9vce3hluj","1536","864","de","ne05ar22","null","","","","learningBlock1","","","","<div style=""font-size:60px;""> </div>","null","LF","learning/Slide11.JPG","This is a tob:","",""
"","html-keyboard-response","40","555639","0.0-6.0-0.11","LF","u9vce3hluj","1536","864","de","ne05ar22","null","","","","learningBlock1","","","","This is a dep:","null","","","","",""
"","image-keyboard-response","41","555986","0.0-6.0-1.11","LF","u9vce3hluj","1536","864","de","ne05ar22","null","","","","","","","","learning/Slide12.JPG","null","","","","",""
"","html-keyboard-response","42","557001","0.0-6.0-2.11","LF","u9vce3hluj","1536","864","de","ne05ar22","null","","","","learningBlock1","","","","<div style=""font-size:60px;""> </div>","null","LF","learning/Slide12.JPG","This is a dep:","",""
"","html-keyboard-response","43","558003","0.0-6.0-0.12","LF","u9vce3hluj","1536","864","de","ne05ar22","null","","","","learningBlock1","","","","This is a bim:","null","","","","",""
"","image-keyboard-response","44","558346","0.0-6.0-1.12","LF","u9vce3hluj","1536","864","de","ne05ar22","null","","","","","","","","learning/Slide13.JPG","null","","","","",""
"","html-keyboard-response","45","559353","0.0-6.0-2.12","LF","u9vce3hluj","1536","864","de","ne05ar22","null","","","","learningBlock1","","","","<div style=""font-size:60px;""> </div>","null","LF","learning/Slide13.JPG","This is a bim:","",""
"","html-keyboard-response","46","560358","0.0-6.0-0.13","LF","u9vce3hluj","1536","864","de","ne05ar22","null","","","","learningBlock1","","","","This is a wug:","null","","","","",""
"","image-keyboard-response","47","560700","0.0-6.0-1.13","LF","u9vce3hluj","1536","864","de","ne05ar22","null","","","","","","","","learning/Slide14.JPG","null","","","","",""
"","html-keyboard-response","48","561705","0.0-6.0-2.13","LF","u9vce3hluj","1536","864","de","ne05ar22","null","","","","learningBlock1","","","","<div style=""font-size:60px;""> </div>","null","LF","learning/Slide14.JPG","This is a wug:","",""
"","html-keyboard-response","49","562707","0.0-6.0-0.14","LF","u9vce3hluj","1536","864","de","ne05ar22","null","","","","learningBlock1","","","","This is a tob:","null","","","","",""
"","image-keyboard-response","50","563055","0.0-6.0-1.14","LF","u9vce3hluj","1536","864","de","ne05ar22","null","","","","","","","","learning/Slide15.JPG","null","","","","",""
"","html-keyboard-response","51","564061","0.0-6.0-2.14","LF","u9vce3hluj","1536","864","de","ne05ar22","null","","","","learningBlock1","","","","<div style=""font-size:60px;""> </div>","null","LF","learning/Slide15.JPG","This is a tob:","",""
"","html-keyboard-response","52","565077","0.0-6.0-0.15","LF","u9vce3hluj","1536","864","de","ne05ar22","null","","","","learningBlock1","","","","This is a dep:","null","","","","",""
"","image-keyboard-response","53","565423","0.0-6.0-1.15","LF","u9vce3hluj","1536","864","de","ne05ar22","null","","","","","","","","learning/Slide16.JPG","null","","","","",""
"","html-keyboard-response","54","566426","0.0-6.0-2.15","LF","u9vce3hluj","1536","864","de","ne05ar22","null","","","","learningBlock1","","","","<div style=""font-size:60px;""> </div>","null","LF","learning/Slide16.JPG","This is a dep:","",""
"","html-keyboard-response","55","567427","0.0-6.0-0.16","LF","u9vce3hluj","1536","864","de","ne05ar22","null","","","","learningBlock1","","","","This is a bim:","null","","","","",""
"","image-keyboard-response","56","567774","0.0-6.0-1.16","LF","u9vce3hluj","1536","864","de","ne05ar22","null","","","","","","","","learning/Slide17.JPG","null","","","","",""
"","html-keyboard-response","57","568781","0.0-6.0-2.16","LF","u9vce3hluj","1536","864","de","ne05ar22","null","","","","learningBlock1","","","","<div style=""font-size:60px;""> </div>","null","LF","learning/Slide17.JPG","This is a bim:","",""
"","html-keyboard-response","58","569787","0.0-6.0-0.17","LF","u9vce3hluj","1536","864","de","ne05ar22","null","","","","learningBlock1","","","","This is a tob:","null","","","","",""
"","image-keyboard-response","59","570133","0.0-6.0-1.17","LF","u9vce3hluj","1536","864","de","ne05ar22","null","","","","","","","","learning/Slide18.JPG","null","","","","",""
"","html-keyboard-response","60","571138","0.0-6.0-2.17","LF","u9vce3hluj","1536","864","de","ne05ar22","null","","","","learningBlock1","","","","<div style=""font-size:60px;""> </div>","null","LF","learning/Slide18.JPG","This is a tob:","",""
"","html-keyboard-response","61","572141","0.0-6.0-0.18","LF","u9vce3hluj","1536","864","de","ne05ar22","null","","","","learningBlock1","","","","This is a wug:","null","","","","",""
"","image-keyboard-response","62","572484","0.0-6.0-1.18","LF","u9vce3hluj","1536","864","de","ne05ar22","null","","","","","","","","learning/Slide19.JPG","null","","","","",""
"","html-keyboard-response","63","573489","0.0-6.0-2.18","LF","u9vce3hluj","1536","864","de","ne05ar22","null","","","","learningBlock1","","","","<div style=""font-size:60px;""> </div>","null","LF","learning/Slide19.JPG","This is a wug:","",""
"","html-keyboard-response","64","574494","0.0-6.0-0.19","LF","u9vce3hluj","1536","864","de","ne05ar22","null","","","","learningBlock1","","","","This is a bim:","null","","","","",""
"","image-keyboard-response","65","574842","0.0-6.0-1.19","LF","u9vce3hluj","1536","864","de","ne05ar22","null","","","","","","","","learning/Slide20.JPG","null","","","","",""
"","html-keyboard-response","66","575846","0.0-6.0-2.19","LF","u9vce3hluj","1536","864","de","ne05ar22","null","","","","learningBlock1","","","","<div style=""font-size:60px;""> </div>","null","LF","learning/Slide20.JPG","This is a bim:","",""
"","html-keyboard-response","67","576850","0.0-6.0-0.20","LF","u9vce3hluj","1536","864","de","ne05ar22","null","","","","learningBlock1","","","","This is a dep:","null","","","","",""
"","image-keyboard-response","68","577191","0.0-6.0-1.20","LF","u9vce3hluj","1536","864","de","ne05ar22","null","","","","","","","","learning/Slide21.JPG","null","","","","",""
"","html-keyboard-response","69","578207","0.0-6.0-2.20","LF","u9vce3hluj","1536","864","de","ne05ar22","null","","","","learningBlock1","","","","<div style=""font-size:60px;""> </div>","null","LF","learning/Slide21.JPG","This is a dep:","",""
"","html-keyboard-response","70","579212","0.0-6.0-0.21","LF","u9vce3hluj","1536","864","de","ne05ar22","null","","","","learningBlock1","","","","This is a bim:","null","","","","",""
"","image-keyboard-response","71","579558","0.0-6.0-1.21","LF","u9vce3hluj","1536","864","de","ne05ar22","null","","","","","","","","learning/Slide22.JPG","null","","","","",""
"","html-keyboard-response","72","580564","0.0-6.0-2.21","LF","u9vce3hluj","1536","864","de","ne05ar22","null","","","","learningBlock1","","","","<div style=""font-size:60px;""> </div>","null","LF","learning/Slide22.JPG","This is a bim:","",""
"","html-keyboard-response","73","581571","0.0-6.0-0.22","LF","u9vce3hluj","1536","864","de","ne05ar22","null","","","","learningBlock1","","","","This is a tob:","null","","","","",""
"","image-keyboard-response","74","581916","0.0-6.0-1.22","LF","u9vce3hluj","1536","864","de","ne05ar22","null","","","","","","","","learning/Slide23.JPG","null","","","","",""
"","html-keyboard-response","75","582928","0.0-6.0-2.22","LF","u9vce3hluj","1536","864","de","ne05ar22","null","","","","learningBlock1","","","","<div style=""font-size:60px;""> </div>","null","LF","learning/Slide23.JPG","This is a tob:","",""
"","html-keyboard-response","76","583934","0.0-6.0-0.23","LF","u9vce3hluj","1536","864","de","ne05ar22","null","","","","learningBlock1","","","","This is a wug:","null","","","","",""
"","image-keyboard-response","77","584278","0.0-6.0-1.23","LF","u9vce3hluj","1536","864","de","ne05ar22","null","","","","","","","","learning/Slide24.JPG","null","","","","",""
"","html-keyboard-response","78","585283","0.0-6.0-2.23","LF","u9vce3hluj","1536","864","de","ne05ar22","null","","","","learningBlock1","","","","<div style=""font-size:60px;""> </div>","null","LF","learning/Slide24.JPG","This is a wug:","",""
"","html-keyboard-response","79","586290","0.0-6.0-0.24","LF","u9vce3hluj","1536","864","de","ne05ar22","null","","","","learningBlock1","","","","This is a dep:","null","","","","",""
"","image-keyboard-response","80","586634","0.0-6.0-1.24","LF","u9vce3hluj","1536","864","de","ne05ar22","null","","","","","","","","learning/Slide25.JPG","null","","","","",""
"","html-keyboard-response","81","587649","0.0-6.0-2.24","LF","u9vce3hluj","1536","864","de","ne05ar22","null","","","","learningBlock1","","","","<div style=""font-size:60px;""> </div>","null","LF","learning/Slide25.JPG","This is a dep:","",""
"","html-keyboard-response","82","588654","0.0-6.0-0.25","LF","u9vce3hluj","1536","864","de","ne05ar22","null","","","","learningBlock1","","","","This is a wug:","null","","","","",""
"","image-keyboard-response","83","589000","0.0-6.0-1.25","LF","u9vce3hluj","1536","864","de","ne05ar22","null","","","","","","","","learning/Slide26.JPG","null","","","","",""
"","html-keyboard-response","84","590015","0.0-6.0-2.25","LF","u9vce3hluj","1536","864","de","ne05ar22","null","","","","learningBlock1","","","","<div style=""font-size:60px;""> </div>","null","LF","learning/Slide26.JPG","This is a wug:","",""
"","html-keyboard-response","85","591019","0.0-6.0-0.26","LF","u9vce3hluj","1536","864","de","ne05ar22","null","","","","learningBlock1","","","","This is a bim:","null","","","","",""
"","image-keyboard-response","86","591361","0.0-6.0-1.26","LF","u9vce3hluj","1536","864","de","ne05ar22","null","","","","","","","","learning/Slide27.JPG","null","","","","",""
"","html-keyboard-response","87","592367","0.0-6.0-2.26","LF","u9vce3hluj","1536","864","de","ne05ar22","null","","","","learningBlock1","","","","<div style=""font-size:60px;""> </div>","null","LF","learning/Slide27.JPG","This is a bim:","",""
"","html-keyboard-response","88","593368","0.0-6.0-0.27","LF","u9vce3hluj","1536","864","de","ne05ar22","null","","","","learningBlock1","","","","This is a dep:","null","","","","",""
"","image-keyboard-response","89","593712","0.0-6.0-1.27","LF","u9vce3hluj","1536","864","de","ne05ar22","null","","","","","","","","learning/Slide28.JPG","null","","","","",""
"","html-keyboard-response","90","594716","0.0-6.0-2.27","LF","u9vce3hluj","1536","864","de","ne05ar22","null","","","","learningBlock1","","","","<div style=""font-size:60px;""> </div>","null","LF","learning/Slide28.JPG","This is a dep:","",""
"","html-keyboard-response","91","595718","0.0-6.0-0.28","LF","u9vce3hluj","1536","864","de","ne05ar22","null","","","","learningBlock1","","","","This is a tob:","null","","","","",""
"","image-keyboard-response","92","596064","0.0-6.0-1.28","LF","u9vce3hluj","1536","864","de","ne05ar22","null","","","","","","","","learning/Slide29.JPG","null","","","","",""
"","html-keyboard-response","93","597073","0.0-6.0-2.28","LF","u9vce3hluj","1536","864","de","ne05ar22","null","","","","learningBlock1","","","","<div style=""font-size:60px;""> </div>","null","LF","learning/Slide29.JPG","This is a tob:","",""
"","html-keyboard-response","94","598079","0.0-6.0-0.29","LF","u9vce3hluj","1536","864","de","ne05ar22","null","","","","learningBlock1","","","","This is a dep:","null","","","","",""
"","image-keyboard-response","95","598423","0.0-6.0-1.29","LF","u9vce3hluj","1536","864","de","ne05ar22","null","","","","","","","","learning/Slide30.JPG","null","","","","",""
"","html-keyboard-response","96","599427","0.0-6.0-2.29","LF","u9vce3hluj","1536","864","de","ne05ar22","null","","","","learningBlock1","","","","<div style=""font-size:60px;""> </div>","null","LF","learning/Slide30.JPG","This is a dep:","",""
"","html-keyboard-response","97","600430","0.0-6.0-0.30","LF","u9vce3hluj","1536","864","de","ne05ar22","null","","","","learningBlock1","","","","This is a wug:","null","","","","",""
"","image-keyboard-response","98","600776","0.0-6.0-1.30","LF","u9vce3hluj","1536","864","de","ne05ar22","null","","","","","","","","learning/Slide31.JPG","null","","","","",""
"","html-keyboard-response","99","601783","0.0-6.0-2.30","LF","u9vce3hluj","1536","864","de","ne05ar22","null","","","","learningBlock1","","","","<div style=""font-size:60px;""> </div>","null","LF","learning/Slide31.JPG","This is a wug:","",""
"","html-keyboard-response","100","602786","0.0-6.0-0.31","LF","u9vce3hluj","1536","864","de","ne05ar22","null","","","","learningBlock1","","","","This is a tob:","null","","","","",""
"","image-keyboard-response","101","603128","0.0-6.0-1.31","LF","u9vce3hluj","1536","864","de","ne05ar22","null","","","","","","","","learning/Slide32.JPG","null","","","","",""
"","html-keyboard-response","102","604143","0.0-6.0-2.31","LF","u9vce3hluj","1536","864","de","ne05ar22","null","","","","learningBlock1","","","","<div style=""font-size:60px;""> </div>","null","LF","learning/Slide32.JPG","This is a tob:","",""
"","html-keyboard-response","103","605150","0.0-6.0-0.32","LF","u9vce3hluj","1536","864","de","ne05ar22","null","","","","learningBlock1","","","","This is a bim:","null","","","","",""
"","image-keyboard-response","104","605497","0.0-6.0-1.32","LF","u9vce3hluj","1536","864","de","ne05ar22","null","","","","","","","","learning/Slide33.JPG","null","","","","",""
"","html-keyboard-response","105","606501","0.0-6.0-2.32","LF","u9vce3hluj","1536","864","de","ne05ar22","null","","","","learningBlock1","","","","<div style=""font-size:60px;""> </div>","null","LF","learning/Slide33.JPG","This is a bim:","",""
"","html-keyboard-response","106","607515","0.0-6.0-0.33","LF","u9vce3hluj","1536","864","de","ne05ar22","null","","","","learningBlock1","","","","This is a tob:","null","","","","",""
"","image-keyboard-response","107","607863","0.0-6.0-1.33","LF","u9vce3hluj","1536","864","de","ne05ar22","null","","","","","","","","learning/Slide34.JPG","null","","","","",""
"","html-keyboard-response","108","608865","0.0-6.0-2.33","LF","u9vce3hluj","1536","864","de","ne05ar22","null","","","","learningBlock1","","","","<div style=""font-size:60px;""> </div>","null","LF","learning/Slide34.JPG","This is a tob:","",""
"","html-keyboard-response","109","609866","0.0-6.0-0.34","LF","u9vce3hluj","1536","864","de","ne05ar22","null","","","","learningBlock1","","","","This is a bim:","null","","","","",""
"","image-keyboard-response","110","610208","0.0-6.0-1.34","LF","u9vce3hluj","1536","864","de","ne05ar22","null","","","","","","","","learning/Slide35.JPG","null","","","","",""
"","html-keyboard-response","111","611213","0.0-6.0-2.34","LF","u9vce3hluj","1536","864","de","ne05ar22","null","","","","learningBlock1","","","","<div style=""font-size:60px;""> </div>","null","LF","learning/Slide35.JPG","This is a bim:","",""
"","html-keyboard-response","112","612224","0.0-6.0-0.35","LF","u9vce3hluj","1536","864","de","ne05ar22","null","","","","learningBlock1","","","","This is a dep:","null","","","","",""
"","image-keyboard-response","113","612568","0.0-6.0-1.35","LF","u9vce3hluj","1536","864","de","ne05ar22","null","","","","","","","","learning/Slide36.JPG","null","","","","",""
"","html-keyboard-response","114","613575","0.0-6.0-2.35","LF","u9vce3hluj","1536","864","de","ne05ar22","null","","","","learningBlock1","","","","<div style=""font-size:60px;""> </div>","null","LF","learning/Slide36.JPG","This is a dep:","",""
"","html-keyboard-response","115","614579","0.0-6.0-0.36","LF","u9vce3hluj","1536","864","de","ne05ar22","null","","","","learningBlock1","","","","This is a tob:","null","","","","",""
"","image-keyboard-response","116","614923","0.0-6.0-1.36","LF","u9vce3hluj","1536","864","de","ne05ar22","null","","","","","","","","learning/Slide37.JPG","null","","","","",""
"","html-keyboard-response","117","615932","0.0-6.0-2.36","LF","u9vce3hluj","1536","864","de","ne05ar22","null","","","","learningBlock1","","","","<div style=""font-size:60px;""> </div>","null","LF","learning/Slide37.JPG","This is a tob:","",""
"","html-keyboard-response","118","616941","0.0-6.0-0.37","LF","u9vce3hluj","1536","864","de","ne05ar22","null","","","","learningBlock1","","","","This is a wug:","null","","","","",""
"","image-keyboard-response","119","617287","0.0-6.0-1.37","LF","u9vce3hluj","1536","864","de","ne05ar22","null","","","","","","","","learning/Slide38.JPG","null","","","","",""
"","html-keyboard-response","120","618298","0.0-6.0-2.37","LF","u9vce3hluj","1536","864","de","ne05ar22","null","","","","learningBlock1","","","","<div style=""font-size:60px;""> </div>","null","LF","learning/Slide38.JPG","This is a wug:","",""
"","html-keyboard-response","121","619307","0.0-6.0-0.38","LF","u9vce3hluj","1536","864","de","ne05ar22","null","","","","learningBlock1","","","","This is a bim:","null","","","","",""
"","image-keyboard-response","122","619652","0.0-6.0-1.38","LF","u9vce3hluj","1536","864","de","ne05ar22","null","","","","","","","","learning/Slide39.JPG","null","","","","",""
"","html-keyboard-response","123","620659","0.0-6.0-2.38","LF","u9vce3hluj","1536","864","de","ne05ar22","null","","","","learningBlock1","","","","<div style=""font-size:60px;""> </div>","null","LF","learning/Slide39.JPG","This is a bim:","",""
"","html-keyboard-response","124","621663","0.0-6.0-0.39","LF","u9vce3hluj","1536","864","de","ne05ar22","null","","","","learningBlock1","","","","This is a tob:","null","","","","",""
"","image-keyboard-response","125","622010","0.0-6.0-1.39","LF","u9vce3hluj","1536","864","de","ne05ar22","null","","","","","","","","learning/Slide40.JPG","null","","","","",""
"","html-keyboard-response","126","623024","0.0-6.0-2.39","LF","u9vce3hluj","1536","864","de","ne05ar22","null","","","","learningBlock1","","","","<div style=""font-size:60px;""> </div>","null","LF","learning/Slide40.JPG","This is a tob:","",""
"","html-keyboard-response","127","624031","0.0-6.0-0.40","LF","u9vce3hluj","1536","864","de","ne05ar22","null","","","","learningBlock1","","","","This is a bim:","null","","","","",""
"","image-keyboard-response","128","624376","0.0-6.0-1.40","LF","u9vce3hluj","1536","864","de","ne05ar22","null","","","","","","","","learning/Slide41.JPG","null","","","","",""
"","html-keyboard-response","129","625379","0.0-6.0-2.40","LF","u9vce3hluj","1536","864","de","ne05ar22","null","","","","learningBlock1","","","","<div style=""font-size:60px;""> </div>","null","LF","learning/Slide41.JPG","This is a bim:","",""
"","html-keyboard-response","130","626381","0.0-6.0-0.41","LF","u9vce3hluj","1536","864","de","ne05ar22","null","","","","learningBlock1","","","","This is a dep:","null","","","","",""
"","image-keyboard-response","131","626726","0.0-6.0-1.41","LF","u9vce3hluj","1536","864","de","ne05ar22","null","","","","","","","","learning/Slide42.JPG","null","","","","",""
"","html-keyboard-response","132","627728","0.0-6.0-2.41","LF","u9vce3hluj","1536","864","de","ne05ar22","null","","","","learningBlock1","","","","<div style=""font-size:60px;""> </div>","null","LF","learning/Slide42.JPG","This is a dep:","",""
"","html-keyboard-response","133","628730","0.0-6.0-0.42","LF","u9vce3hluj","1536","864","de","ne05ar22","null","","","","learningBlock1","","","","This is a wug:","null","","","","",""
"","image-keyboard-response","134","629073","0.0-6.0-1.42","LF","u9vce3hluj","1536","864","de","ne05ar22","null","","","","","","","","learning/Slide43.JPG","null","","","","",""
"","html-keyboard-response","135","630077","0.0-6.0-2.42","LF","u9vce3hluj","1536","864","de","ne05ar22","null","","","","learningBlock1","","","","<div style=""font-size:60px;""> </div>","null","LF","learning/Slide43.JPG","This is a wug:","",""
"","html-keyboard-response","136","631083","0.0-6.0-0.43","LF","u9vce3hluj","1536","864","de","ne05ar22","null","","","","learningBlock1","","","","This is a bim:","null","","","","",""
"","image-keyboard-response","137","631429","0.0-6.0-1.43","LF","u9vce3hluj","1536","864","de","ne05ar22","null","","","","","","","","learning/Slide44.JPG","null","","","","",""
"","html-keyboard-response","138","632430","0.0-6.0-2.43","LF","u9vce3hluj","1536","864","de","ne05ar22","null","","","","learningBlock1","","","","<div style=""font-size:60px;""> </div>","null","LF","learning/Slide44.JPG","This is a bim:","",""
"","html-keyboard-response","139","633445","0.0-6.0-0.44","LF","u9vce3hluj","1536","864","de","ne05ar22","null","","","","learningBlock1","","","","This is a wug:","null","","","","",""
"","image-keyboard-response","140","633790","0.0-6.0-1.44","LF","u9vce3hluj","1536","864","de","ne05ar22","null","","","","","","","","learning/Slide45.JPG","null","","","","",""
"","html-keyboard-response","141","634793","0.0-6.0-2.44","LF","u9vce3hluj","1536","864","de","ne05ar22","null","","","","learningBlock1","","","","<div style=""font-size:60px;""> </div>","null","LF","learning/Slide45.JPG","This is a wug:","",""
"","html-keyboard-response","142","635797","0.0-6.0-0.45","LF","u9vce3hluj","1536","864","de","ne05ar22","null","","","","learningBlock1","","","","This is a dep:","null","","","","",""
"","image-keyboard-response","143","636143","0.0-6.0-1.45","LF","u9vce3hluj","1536","864","de","ne05ar22","null","","","","","","","","learning/Slide46.JPG","null","","","","",""
"","html-keyboard-response","144","637159","0.0-6.0-2.45","LF","u9vce3hluj","1536","864","de","ne05ar22","null","","","","learningBlock1","","","","<div style=""font-size:60px;""> </div>","null","LF","learning/Slide46.JPG","This is a dep:","",""
"","html-keyboard-response","145","638169","0.0-6.0-0.46","LF","u9vce3hluj","1536","864","de","ne05ar22","null","","","","learningBlock1","","","","This is a tob:","null","","","","",""
"","image-keyboard-response","146","638514","0.0-6.0-1.46","LF","u9vce3hluj","1536","864","de","ne05ar22","null","","","","","","","","learning/Slide47.JPG","null","","","","",""
"","html-keyboard-response","147","639520","0.0-6.0-2.46","LF","u9vce3hluj","1536","864","de","ne05ar22","null","","","","learningBlock1","","","","<div style=""font-size:60px;""> </div>","null","LF","learning/Slide47.JPG","This is a tob:","",""
"","html-keyboard-response","148","640523","0.0-6.0-0.47","LF","u9vce3hluj","1536","864","de","ne05ar22","null","","","","learningBlock1","","","","This is a bim:","null","","","","",""
"","image-keyboard-response","149","640866","0.0-6.0-1.47","LF","u9vce3hluj","1536","864","de","ne05ar22","null","","","","","","","","learning/Slide48.JPG","null","","","","",""
"","html-keyboard-response","150","641869","0.0-6.0-2.47","LF","u9vce3hluj","1536","864","de","ne05ar22","null","","","","learningBlock1","","","","<div style=""font-size:60px;""> </div>","null","LF","learning/Slide48.JPG","This is a bim:","",""
"","html-keyboard-response","151","642874","0.0-6.0-0.48","LF","u9vce3hluj","1536","864","de","ne05ar22","null","","","","learningBlock1","","","","This is a dep:","null","","","","",""
"","image-keyboard-response","152","643217","0.0-6.0-1.48","LF","u9vce3hluj","1536","864","de","ne05ar22","null","","","","","","","","learning/Slide49.JPG","null","","","","",""
"","html-keyboard-response","153","644225","0.0-6.0-2.48","LF","u9vce3hluj","1536","864","de","ne05ar22","null","","","","learningBlock1","","","","<div style=""font-size:60px;""> </div>","null","LF","learning/Slide49.JPG","This is a dep:","",""
"","html-keyboard-response","154","645243","0.0-6.0-0.49","LF","u9vce3hluj","1536","864","de","ne05ar22","null","","","","learningBlock1","","","","This is a tob:","null","","","","",""
"","image-keyboard-response","155","645577","0.0-6.0-1.49","LF","u9vce3hluj","1536","864","de","ne05ar22","null","","","","","","","","learning/Slide50.JPG","null","","","","",""
"","html-keyboard-response","156","646580","0.0-6.0-2.49","LF","u9vce3hluj","1536","864","de","ne05ar22","null","","","","learningBlock1","","","","<div style=""font-size:60px;""> </div>","null","LF","learning/Slide50.JPG","This is a tob:","",""
"","html-keyboard-response","157","647581","0.0-6.0-0.50","LF","u9vce3hluj","1536","864","de","ne05ar22","null","","","","learningBlock1","","","","This is a bim:","null","","","","",""
"","image-keyboard-response","158","647929","0.0-6.0-1.50","LF","u9vce3hluj","1536","864","de","ne05ar22","null","","","","","","","","learning/Slide51.JPG","null","","","","",""
"","html-keyboard-response","159","648938","0.0-6.0-2.50","LF","u9vce3hluj","1536","864","de","ne05ar22","null","","","","learningBlock1","","","","<div style=""font-size:60px;""> </div>","null","LF","learning/Slide51.JPG","This is a bim:","",""
"","html-keyboard-response","160","649941","0.0-6.0-0.51","LF","u9vce3hluj","1536","864","de","ne05ar22","null","","","","learningBlock1","","","","This is a wug:","null","","","","",""
"","image-keyboard-response","161","650286","0.0-6.0-1.51","LF","u9vce3hluj","1536","864","de","ne05ar22","null","","","","","","","","learning/Slide52.JPG","null","","","","",""
"","html-keyboard-response","162","651294","0.0-6.0-2.51","LF","u9vce3hluj","1536","864","de","ne05ar22","null","","","","learningBlock1","","","","<div style=""font-size:60px;""> </div>","null","LF","learning/Slide52.JPG","This is a wug:","",""
"","html-keyboard-response","163","652300","0.0-6.0-0.52","LF","u9vce3hluj","1536","864","de","ne05ar22","null","","","","learningBlock1","","","","This is a tob:","null","","","","",""
"","image-keyboard-response","164","652645","0.0-6.0-1.52","LF","u9vce3hluj","1536","864","de","ne05ar22","null","","","","","","","","learning/Slide53.JPG","null","","","","",""
"","html-keyboard-response","165","653659","0.0-6.0-2.52","LF","u9vce3hluj","1536","864","de","ne05ar22","null","","","","learningBlock1","","","","<div style=""font-size:60px;""> </div>","null","LF","learning/Slide53.JPG","This is a tob:","",""
"","html-keyboard-response","166","654660","0.0-6.0-0.53","LF","u9vce3hluj","1536","864","de","ne05ar22","null","","","","learningBlock1","","","","This is a dep:","null","","","","",""
"","image-keyboard-response","167","655009","0.0-6.0-1.53","LF","u9vce3hluj","1536","864","de","ne05ar22","null","","","","","","","","learning/Slide54.JPG","null","","","","",""
"","html-keyboard-response","168","656019","0.0-6.0-2.53","LF","u9vce3hluj","1536","864","de","ne05ar22","null","","","","learningBlock1","","","","<div style=""font-size:60px;""> </div>","null","LF","learning/Slide54.JPG","This is a dep:","",""
"","html-keyboard-response","169","657023","0.0-6.0-0.54","LF","u9vce3hluj","1536","864","de","ne05ar22","null","","","","learningBlock1","","","","This is a bim:","null","","","","",""
"","image-keyboard-response","170","657367","0.0-6.0-1.54","LF","u9vce3hluj","1536","864","de","ne05ar22","null","","","","","","","","learning/Slide55.JPG","null","","","","",""
"","html-keyboard-response","171","658369","0.0-6.0-2.54","LF","u9vce3hluj","1536","864","de","ne05ar22","null","","","","learningBlock1","","","","<div style=""font-size:60px;""> </div>","null","LF","learning/Slide55.JPG","This is a bim:","",""
"","html-keyboard-response","172","659373","0.0-6.0-0.55","LF","u9vce3hluj","1536","864","de","ne05ar22","null","","","","learningBlock1","","","","This is a tob:","null","","","","",""
"","image-keyboard-response","173","659717","0.0-6.0-1.55","LF","u9vce3hluj","1536","864","de","ne05ar22","null","","","","","","","","learning/Slide56.JPG","null","","","","",""
"","html-keyboard-response","174","660723","0.0-6.0-2.55","LF","u9vce3hluj","1536","864","de","ne05ar22","null","","","","learningBlock1","","","","<div style=""font-size:60px;""> </div>","null","LF","learning/Slide56.JPG","This is a tob:","",""
"","html-keyboard-response","175","661731","0.0-6.0-0.56","LF","u9vce3hluj","1536","864","de","ne05ar22","null","","","","learningBlock1","","","","This is a dep:","null","","","","",""
"","image-keyboard-response","176","662080","0.0-6.0-1.56","LF","u9vce3hluj","1536","864","de","ne05ar22","null","","","","","","","","learning/Slide57.JPG","null","","","","",""
"","html-keyboard-response","177","663096","0.0-6.0-2.56","LF","u9vce3hluj","1536","864","de","ne05ar22","null","","","","learningBlock1","","","","<div style=""font-size:60px;""> </div>","null","LF","learning/Slide57.JPG","This is a dep:","",""
"","html-keyboard-response","178","664101","0.0-6.0-0.57","LF","u9vce3hluj","1536","864","de","ne05ar22","null","","","","learningBlock1","","","","This is a wug:","null","","","","",""
"","image-keyboard-response","179","664447","0.0-6.0-1.57","LF","u9vce3hluj","1536","864","de","ne05ar22","null","","","","","","","","learning/Slide58.JPG","null","","","","",""
"","html-keyboard-response","180","665457","0.0-6.0-2.57","LF","u9vce3hluj","1536","864","de","ne05ar22","null","","","","learningBlock1","","","","<div style=""font-size:60px;""> </div>","null","LF","learning/Slide58.JPG","This is a wug:","",""
"","html-keyboard-response","181","666458","0.0-6.0-0.58","LF","u9vce3hluj","1536","864","de","ne05ar22","null","","","","learningBlock1","","","","This is a dep:","null","","","","",""
"","image-keyboard-response","182","666803","0.0-6.0-1.58","LF","u9vce3hluj","1536","864","de","ne05ar22","null","","","","","","","","learning/Slide59.JPG","null","","","","",""
"","html-keyboard-response","183","667805","0.0-6.0-2.58","LF","u9vce3hluj","1536","864","de","ne05ar22","null","","","","learningBlock1","","","","<div style=""font-size:60px;""> </div>","null","LF","learning/Slide59.JPG","This is a dep:","",""
"","html-keyboard-response","184","668818","0.0-6.0-0.59","LF","u9vce3hluj","1536","864","de","ne05ar22","null","","","","learningBlock1","","","","This is a wug:","null","","","","",""
"","image-keyboard-response","185","669162","0.0-6.0-1.59","LF","u9vce3hluj","1536","864","de","ne05ar22","null","","","","","","","","learning/Slide60.JPG","null","","","","",""
"","html-keyboard-response","186","670164","0.0-6.0-2.59","LF","u9vce3hluj","1536","864","de","ne05ar22","null","","","","learningBlock1","","","","<div style=""font-size:60px;""> </div>","null","LF","learning/Slide60.JPG","This is a wug:","",""
"","html-keyboard-response","187","671175","0.0-6.0-0.60","LF","u9vce3hluj","1536","864","de","ne05ar22","null","","","","learningBlock1","","","","This is a bim:","null","","","","",""
"","image-keyboard-response","188","671518","0.0-6.0-1.60","LF","u9vce3hluj","1536","864","de","ne05ar22","null","","","","","","","","learning/Slide61.JPG","null","","","","",""
"","html-keyboard-response","189","672534","0.0-6.0-2.60","LF","u9vce3hluj","1536","864","de","ne05ar22","null","","","","learningBlock1","","","","<div style=""font-size:60px;""> </div>","null","LF","learning/Slide61.JPG","This is a bim:","",""
"","html-keyboard-response","190","673536","0.0-6.0-0.61","LF","u9vce3hluj","1536","864","de","ne05ar22","null","","","","learningBlock1","","","","This is a dep:","null","","","","",""
"","image-keyboard-response","191","673884","0.0-6.0-1.61","LF","u9vce3hluj","1536","864","de","ne05ar22","null","","","","","","","","learning/Slide62.JPG","null","","","","",""
"","html-keyboard-response","192","674898","0.0-6.0-2.61","LF","u9vce3hluj","1536","864","de","ne05ar22","null","","","","learningBlock1","","","","<div style=""font-size:60px;""> </div>","null","LF","learning/Slide62.JPG","This is a dep:","",""
"","html-keyboard-response","193","675899","0.0-6.0-0.62","LF","u9vce3hluj","1536","864","de","ne05ar22","null","","","","learningBlock1","","","","This is a bim:","null","","","","",""
"","image-keyboard-response","194","676243","0.0-6.0-1.62","LF","u9vce3hluj","1536","864","de","ne05ar22","null","","","","","","","","learning/Slide63.JPG","null","","","","",""
"","html-keyboard-response","195","677255","0.0-6.0-2.62","LF","u9vce3hluj","1536","864","de","ne05ar22","null","","","","learningBlock1","","","","<div style=""font-size:60px;""> </div>","null","LF","learning/Slide63.JPG","This is a bim:","",""
"","html-keyboard-response","196","678259","0.0-6.0-0.63","LF","u9vce3hluj","1536","864","de","ne05ar22","null","","","","learningBlock1","","","","This is a tob:","null","","","","",""
"","image-keyboard-response","197","678608","0.0-6.0-1.63","LF","u9vce3hluj","1536","864","de","ne05ar22","null","","","","","","","","learning/Slide64.JPG","null","","","","",""
"","html-keyboard-response","198","679609","0.0-6.0-2.63","LF","u9vce3hluj","1536","864","de","ne05ar22","null","","","","learningBlock1","","","","<div style=""font-size:60px;""> </div>","null","LF","learning/Slide64.JPG","This is a tob:","",""
"","html-keyboard-response","199","680617","0.0-6.0-0.64","LF","u9vce3hluj","1536","864","de","ne05ar22","null","","","","learningBlock1","","","","This is a wug:","null","","","","",""
"","image-keyboard-response","200","680949","0.0-6.0-1.64","LF","u9vce3hluj","1536","864","de","ne05ar22","null","","","","","","","","learning/Slide65.JPG","null","","","","",""
"","html-keyboard-response","201","681953","0.0-6.0-2.64","LF","u9vce3hluj","1536","864","de","ne05ar22","null","","","","learningBlock1","","","","<div style=""font-size:60px;""> </div>","null","LF","learning/Slide65.JPG","This is a wug:","",""
"","html-keyboard-response","202","682960","0.0-6.0-0.65","LF","u9vce3hluj","1536","864","de","ne05ar22","null","","","","learningBlock1","","","","This is a dep:","null","","","","",""
"","image-keyboard-response","203","683307","0.0-6.0-1.65","LF","u9vce3hluj","1536","864","de","ne05ar22","null","","","","","","","","learning/Slide66.JPG","null","","","","",""
"","html-keyboard-response","204","684315","0.0-6.0-2.65","LF","u9vce3hluj","1536","864","de","ne05ar22","null","","","","learningBlock1","","","","<div style=""font-size:60px;""> </div>","null","LF","learning/Slide66.JPG","This is a dep:","",""
"","html-keyboard-response","205","685320","0.0-6.0-0.66","LF","u9vce3hluj","1536","864","de","ne05ar22","null","","","","learningBlock1","","","","This is a tob:","null","","","","",""
"","image-keyboard-response","206","685666","0.0-6.0-1.66","LF","u9vce3hluj","1536","864","de","ne05ar22","null","","","","","","","","learning/Slide67.JPG","null","","","","",""
"","html-keyboard-response","207","686673","0.0-6.0-2.66","LF","u9vce3hluj","1536","864","de","ne05ar22","null","","","","learningBlock1","","","","<div style=""font-size:60px;""> </div>","null","LF","learning/Slide67.JPG","This is a tob:","",""
"","html-keyboard-response","208","687679","0.0-6.0-0.67","LF","u9vce3hluj","1536","864","de","ne05ar22","null","","","","learningBlock1","","","","This is a wug:","null","","","","",""
"","image-keyboard-response","209","688026","0.0-6.0-1.67","LF","u9vce3hluj","1536","864","de","ne05ar22","null","","","","","","","","learning/Slide68.JPG","null","","","","",""
"","html-keyboard-response","210","689035","0.0-6.0-2.67","LF","u9vce3hluj","1536","864","de","ne05ar22","null","","","","learningBlock1","","","","<div style=""font-size:60px;""> </div>","null","LF","learning/Slide68.JPG","This is a wug:","",""
"","html-keyboard-response","211","690042","0.0-6.0-0.68","LF","u9vce3hluj","1536","864","de","ne05ar22","null","","","","learningBlock1","","","","This is a tob:","null","","","","",""
"","image-keyboard-response","212","690382","0.0-6.0-1.68","LF","u9vce3hluj","1536","864","de","ne05ar22","null","","","","","","","","learning/Slide69.JPG","null","","","","",""
"","html-keyboard-response","213","691388","0.0-6.0-2.68","LF","u9vce3hluj","1536","864","de","ne05ar22","null","","","","learningBlock1","","","","<div style=""font-size:60px;""> </div>","null","LF","learning/Slide69.JPG","This is a tob:","",""
"","html-keyboard-response","214","692394","0.0-6.0-0.69","LF","u9vce3hluj","1536","864","de","ne05ar22","null","","","","learningBlock1","","","","This is a dep:","null","","","","",""
"","image-keyboard-response","215","692739","0.0-6.0-1.69","LF","u9vce3hluj","1536","864","de","ne05ar22","null","","","","","","","","learning/Slide70.JPG","null","","","","",""
"","html-keyboard-response","216","693754","0.0-6.0-2.69","LF","u9vce3hluj","1536","864","de","ne05ar22","null","","","","learningBlock1","","","","<div style=""font-size:60px;""> </div>","null","LF","learning/Slide70.JPG","This is a dep:","",""
"","html-keyboard-response","217","694756","0.0-6.0-0.70","LF","u9vce3hluj","1536","864","de","ne05ar22","null","","","","learningBlock1","","","","This is a wug:","null","","","","",""
"","image-keyboard-response","218","695099","0.0-6.0-1.70","LF","u9vce3hluj","1536","864","de","ne05ar22","null","","","","","","","","learning/Slide71.JPG","null","","","","",""
"","html-keyboard-response","219","696106","0.0-6.0-2.70","LF","u9vce3hluj","1536","864","de","ne05ar22","null","","","","learningBlock1","","","","<div style=""font-size:60px;""> </div>","null","LF","learning/Slide71.JPG","This is a wug:","",""
"","html-keyboard-response","220","697118","0.0-6.0-0.71","LF","u9vce3hluj","1536","864","de","ne05ar22","null","","","","learningBlock1","","","","This is a bim:","null","","","","",""
"","image-keyboard-response","221","697462","0.0-6.0-1.71","LF","u9vce3hluj","1536","864","de","ne05ar22","null","","","","","","","","learning/Slide72.JPG","null","","","","",""
"","html-keyboard-response","222","698466","0.0-6.0-2.71","LF","u9vce3hluj","1536","864","de","ne05ar22","null","","","","learningBlock1","","","","<div style=""font-size:60px;""> </div>","null","LF","learning/Slide72.JPG","This is a bim:","",""
"","html-keyboard-response","223","699471","0.0-6.0-0.72","LF","u9vce3hluj","1536","864","de","ne05ar22","null","","","","learningBlock1","","","","This is a wug:","null","","","","",""
"","image-keyboard-response","224","699819","0.0-6.0-1.72","LF","u9vce3hluj","1536","864","de","ne05ar22","null","","","","","","","","learning/Slide73.JPG","null","","","","",""
"","html-keyboard-response","225","700821","0.0-6.0-2.72","LF","u9vce3hluj","1536","864","de","ne05ar22","null","","","","learningBlock1","","","","<div style=""font-size:60px;""> </div>","null","LF","learning/Slide73.JPG","This is a wug:","",""
"","html-keyboard-response","226","701828","0.0-6.0-0.73","LF","u9vce3hluj","1536","864","de","ne05ar22","null","","","","learningBlock1","","","","This is a dep:","null","","","","",""
"","image-keyboard-response","227","702175","0.0-6.0-1.73","LF","u9vce3hluj","1536","864","de","ne05ar22","null","","","","","","","","learning/Slide74.JPG","null","","","","",""
"","html-keyboard-response","228","703178","0.0-6.0-2.73","LF","u9vce3hluj","1536","864","de","ne05ar22","null","","","","learningBlock1","","","","<div style=""font-size:60px;""> </div>","null","LF","learning/Slide74.JPG","This is a dep:","",""
"","html-keyboard-response","229","704181","0.0-6.0-0.74","LF","u9vce3hluj","1536","864","de","ne05ar22","null","","","","learningBlock1","","","","This is a tob:","null","","","","",""
"","image-keyboard-response","230","704525","0.0-6.0-1.74","LF","u9vce3hluj","1536","864","de","ne05ar22","null","","","","","","","","learning/Slide75.JPG","null","","","","",""
"","html-keyboard-response","231","705532","0.0-6.0-2.74","LF","u9vce3hluj","1536","864","de","ne05ar22","null","","","","learningBlock1","","","","<div style=""font-size:60px;""> </div>","null","LF","learning/Slide75.JPG","This is a tob:","",""
"","html-keyboard-response","232","706540","0.0-6.0-0.75","LF","u9vce3hluj","1536","864","de","ne05ar22","null","","","","learningBlock1","","","","This is a bim:","null","","","","",""
"","image-keyboard-response","233","706885","0.0-6.0-1.75","LF","u9vce3hluj","1536","864","de","ne05ar22","null","","","","","","","","learning/Slide76.JPG","null","","","","",""
"","html-keyboard-response","234","707891","0.0-6.0-2.75","LF","u9vce3hluj","1536","864","de","ne05ar22","null","","","","learningBlock1","","","","<div style=""font-size:60px;""> </div>","null","LF","learning/Slide76.JPG","This is a bim:","",""
"","html-keyboard-response","235","708895","0.0-6.0-0.76","LF","u9vce3hluj","1536","864","de","ne05ar22","null","","","","learningBlock1","","","","This is a tob:","null","","","","",""
"","image-keyboard-response","236","709239","0.0-6.0-1.76","LF","u9vce3hluj","1536","864","de","ne05ar22","null","","","","","","","","learning/Slide77.JPG","null","","","","",""
"","html-keyboard-response","237","710243","0.0-6.0-2.76","LF","u9vce3hluj","1536","864","de","ne05ar22","null","","","","learningBlock1","","","","<div style=""font-size:60px;""> </div>","null","LF","learning/Slide77.JPG","This is a tob:","",""
"","html-keyboard-response","238","711248","0.0-6.0-0.77","LF","u9vce3hluj","1536","864","de","ne05ar22","null","","","","learningBlock1","","","","This is a wug:","null","","","","",""
"","image-keyboard-response","239","711590","0.0-6.0-1.77","LF","u9vce3hluj","1536","864","de","ne05ar22","null","","","","","","","","learning/Slide78.JPG","null","","","","",""
"","html-keyboard-response","240","712592","0.0-6.0-2.77","LF","u9vce3hluj","1536","864","de","ne05ar22","null","","","","learningBlock1","","","","<div style=""font-size:60px;""> </div>","null","LF","learning/Slide78.JPG","This is a wug:","",""
"","html-keyboard-response","241","713593","0.0-6.0-0.78","LF","u9vce3hluj","1536","864","de","ne05ar22","null","","","","learningBlock1","","","","This is a bim:","null","","","","",""
"","image-keyboard-response","242","713939","0.0-6.0-1.78","LF","u9vce3hluj","1536","864","de","ne05ar22","null","","","","","","","","learning/Slide79.JPG","null","","","","",""
"","html-keyboard-response","243","714945","0.0-6.0-2.78","LF","u9vce3hluj","1536","864","de","ne05ar22","null","","","","learningBlock1","","","","<div style=""font-size:60px;""> </div>","null","LF","learning/Slide79.JPG","This is a bim:","",""
"","html-keyboard-response","244","715950","0.0-6.0-0.79","LF","u9vce3hluj","1536","864","de","ne05ar22","null","","","","learningBlock1","","","","This is a tob:","null","","","","",""
"","image-keyboard-response","245","716296","0.0-6.0-1.79","LF","u9vce3hluj","1536","864","de","ne05ar22","null","","","","","","","","learning/Slide80.JPG","null","","","","",""
"","html-keyboard-response","246","717303","0.0-6.0-2.79","LF","u9vce3hluj","1536","864","de","ne05ar22","null","","","","learningBlock1","","","","<div style=""font-size:60px;""> </div>","null","LF","learning/Slide80.JPG","This is a tob:","",""
"","instructions","247","1489871","0.0-7.0","LF","u9vce3hluj","1536","864","de","ne05ar22","NA","","","[{""page_index"":0,""viewing_time"":772566}]","instructions","","","","","","","","","",""
"","html-keyboard-response","248","1490878","0.0-8.0-0.0","LF","u9vce3hluj","1536","864","de","ne05ar22","null","","","","learningBlock2","","","","This is a wug:","null","","","","",""
"","image-keyboard-response","249","1491217","0.0-8.0-1.0","LF","u9vce3hluj","1536","864","de","ne05ar22","null","","","","","","","","learning/Slide81.JPG","null","","","","",""
"","html-keyboard-response","250","1492223","0.0-8.0-2.0","LF","u9vce3hluj","1536","864","de","ne05ar22","null","","","","learningBlock2","","","","<div style=""font-size:60px;""> </div>","null","LF","learning/Slide81.JPG","This is a wug:","",""
"","html-keyboard-response","251","1493225","0.0-8.0-0.1","LF","u9vce3hluj","1536","864","de","ne05ar22","null","","","","learningBlock2","","","","This is a bim:","null","","","","",""
"","image-keyboard-response","252","1493570","0.0-8.0-1.1","LF","u9vce3hluj","1536","864","de","ne05ar22","null","","","","","","","","learning/Slide82.JPG","null","","","","",""
"","html-keyboard-response","253","1494577","0.0-8.0-2.1","LF","u9vce3hluj","1536","864","de","ne05ar22","null","","","","learningBlock2","","","","<div style=""font-size:60px;""> </div>","null","LF","learning/Slide82.JPG","This is a bim:","",""
"","html-keyboard-response","254","1495578","0.0-8.0-0.2","LF","u9vce3hluj","1536","864","de","ne05ar22","null","","","","learningBlock2","","","","This is a wug:","null","","","","",""
"","image-keyboard-response","255","1495924","0.0-8.0-1.2","LF","u9vce3hluj","1536","864","de","ne05ar22","null","","","","","","","","learning/Slide83.JPG","null","","","","",""
"","html-keyboard-response","256","1496927","0.0-8.0-2.2","LF","u9vce3hluj","1536","864","de","ne05ar22","null","","","","learningBlock2","","","","<div style=""font-size:60px;""> </div>","null","LF","learning/Slide83.JPG","This is a wug:","",""
"","html-keyboard-response","257","1497931","0.0-8.0-0.3","LF","u9vce3hluj","1536","864","de","ne05ar22","null","","","","learningBlock2","","","","This is a dep:","null","","","","",""
"","image-keyboard-response","258","1498276","0.0-8.0-1.3","LF","u9vce3hluj","1536","864","de","ne05ar22","null","","","","","","","","learning/Slide84.JPG","null","","","","",""
"","html-keyboard-response","259","1499280","0.0-8.0-2.3","LF","u9vce3hluj","1536","864","de","ne05ar22","null","","","","learningBlock2","","","","<div style=""font-size:60px;""> </div>","null","LF","learning/Slide84.JPG","This is a dep:","",""
"","html-keyboard-response","260","1500288","0.0-8.0-0.4","LF","u9vce3hluj","1536","864","de","ne05ar22","null","","","","learningBlock2","","","","This is a bim:","null","","","","",""
"","image-keyboard-response","261","1500632","0.0-8.0-1.4","LF","u9vce3hluj","1536","864","de","ne05ar22","null","","","","","","","","learning/Slide85.JPG","null","","","","",""
"","html-keyboard-response","262","1501636","0.0-8.0-2.4","LF","u9vce3hluj","1536","864","de","ne05ar22","null","","","","learningBlock2","","","","<div style=""font-size:60px;""> </div>","null","LF","learning/Slide85.JPG","This is a bim:","",""
"","html-keyboard-response","263","1502638","0.0-8.0-0.5","LF","u9vce3hluj","1536","864","de","ne05ar22","null","","","","learningBlock2","","","","This is a tob:","null","","","","",""
"","image-keyboard-response","264","1502983","0.0-8.0-1.5","LF","u9vce3hluj","1536","864","de","ne05ar22","null","","","","","","","","learning/Slide86.JPG","null","","","","",""
"","html-keyboard-response","265","1503992","0.0-8.0-2.5","LF","u9vce3hluj","1536","864","de","ne05ar22","null","","","","learningBlock2","","","","<div style=""font-size:60px;""> </div>","null","LF","learning/Slide86.JPG","This is a tob:","",""
"","html-keyboard-response","266","1504995","0.0-8.0-0.6","LF","u9vce3hluj","1536","864","de","ne05ar22","null","","","","learningBlock2","","","","This is a wug:","null","","","","",""
"","image-keyboard-response","267","1505339","0.0-8.0-1.6","LF","u9vce3hluj","1536","864","de","ne05ar22","null","","","","","","","","learning/Slide87.JPG","null","","","","",""
"","html-keyboard-response","268","1506340","0.0-8.0-2.6","LF","u9vce3hluj","1536","864","de","ne05ar22","null","","","","learningBlock2","","","","<div style=""font-size:60px;""> </div>","null","LF","learning/Slide87.JPG","This is a wug:","",""
"","html-keyboard-response","269","1507346","0.0-8.0-0.7","LF","u9vce3hluj","1536","864","de","ne05ar22","null","","","","learningBlock2","","","","This is a tob:","null","","","","",""
"","image-keyboard-response","270","1507692","0.0-8.0-1.7","LF","u9vce3hluj","1536","864","de","ne05ar22","null","","","","","","","","learning/Slide88.JPG","null","","","","",""
"","html-keyboard-response","271","1508698","0.0-8.0-2.7","LF","u9vce3hluj","1536","864","de","ne05ar22","null","","","","learningBlock2","","","","<div style=""font-size:60px;""> </div>","null","LF","learning/Slide88.JPG","This is a tob:","",""
"","html-keyboard-response","272","1509702","0.0-8.0-0.8","LF","u9vce3hluj","1536","864","de","ne05ar22","null","","","","learningBlock2","","","","This is a bim:","null","","","","",""
"","image-keyboard-response","273","1510047","0.0-8.0-1.8","LF","u9vce3hluj","1536","864","de","ne05ar22","null","","","","","","","","learning/Slide89.JPG","null","","","","",""
"","html-keyboard-response","274","1511056","0.0-8.0-2.8","LF","u9vce3hluj","1536","864","de","ne05ar22","null","","","","learningBlock2","","","","<div style=""font-size:60px;""> </div>","null","LF","learning/Slide89.JPG","This is a bim:","",""
"","html-keyboard-response","275","1512069","0.0-8.0-0.9","LF","u9vce3hluj","1536","864","de","ne05ar22","null","","","","learningBlock2","","","","This is a dep:","null","","","","",""
"","image-keyboard-response","276","1512413","0.0-8.0-1.9","LF","u9vce3hluj","1536","864","de","ne05ar22","null","","","","","","","","learning/Slide90.JPG","null","","","","",""
"","html-keyboard-response","277","1513418","0.0-8.0-2.9","LF","u9vce3hluj","1536","864","de","ne05ar22","null","","","","learningBlock2","","","","<div style=""font-size:60px;""> </div>","null","LF","learning/Slide90.JPG","This is a dep:","",""
"","html-keyboard-response","278","1514421","0.0-8.0-0.10","LF","u9vce3hluj","1536","864","de","ne05ar22","null","","","","learningBlock2","","","","This is a wug:","null","","","","",""
"","image-keyboard-response","279","1514764","0.0-8.0-1.10","LF","u9vce3hluj","1536","864","de","ne05ar22","null","","","","","","","","learning/Slide91.JPG","null","","","","",""
"","html-keyboard-response","280","1515767","0.0-8.0-2.10","LF","u9vce3hluj","1536","864","de","ne05ar22","null","","","","learningBlock2","","","","<div style=""font-size:60px;""> </div>","null","LF","learning/Slide91.JPG","This is a wug:","",""
"","html-keyboard-response","281","1516778","0.0-8.0-0.11","LF","u9vce3hluj","1536","864","de","ne05ar22","null","","","","learningBlock2","","","","This is a tob:","null","","","","",""
"","image-keyboard-response","282","1517122","0.0-8.0-1.11","LF","u9vce3hluj","1536","864","de","ne05ar22","null","","","","","","","","learning/Slide92.JPG","null","","","","",""
"","html-keyboard-response","283","1518123","0.0-8.0-2.11","LF","u9vce3hluj","1536","864","de","ne05ar22","null","","","","learningBlock2","","","","<div style=""font-size:60px;""> </div>","null","LF","learning/Slide92.JPG","This is a tob:","",""
"","html-keyboard-response","284","1519127","0.0-8.0-0.12","LF","u9vce3hluj","1536","864","de","ne05ar22","null","","","","learningBlock2","","","","This is a bim:","null","","","","",""
"","image-keyboard-response","285","1519468","0.0-8.0-1.12","LF","u9vce3hluj","1536","864","de","ne05ar22","null","","","","","","","","learning/Slide93.JPG","null","","","","",""
"","html-keyboard-response","286","1520471","0.0-8.0-2.12","LF","u9vce3hluj","1536","864","de","ne05ar22","null","","","","learningBlock2","","","","<div style=""font-size:60px;""> </div>","null","LF","learning/Slide93.JPG","This is a bim:","",""
"","html-keyboard-response","287","1521475","0.0-8.0-0.13","LF","u9vce3hluj","1536","864","de","ne05ar22","null","","","","learningBlock2","","","","This is a tob:","null","","","","",""
"","image-keyboard-response","288","1521820","0.0-8.0-1.13","LF","u9vce3hluj","1536","864","de","ne05ar22","null","","","","","","","","learning/Slide94.JPG","null","","","","",""
"","html-keyboard-response","289","1522835","0.0-8.0-2.13","LF","u9vce3hluj","1536","864","de","ne05ar22","null","","","","learningBlock2","","","","<div style=""font-size:60px;""> </div>","null","LF","learning/Slide94.JPG","This is a tob:","",""
"","html-keyboard-response","290","1523849","0.0-8.0-0.14","LF","u9vce3hluj","1536","864","de","ne05ar22","null","","","","learningBlock2","","","","This is a wug:","null","","","","",""
"","image-keyboard-response","291","1524190","0.0-8.0-1.14","LF","u9vce3hluj","1536","864","de","ne05ar22","null","","","","","","","","learning/Slide95.JPG","null","","","","",""
"","html-keyboard-response","292","1525204","0.0-8.0-2.14","LF","u9vce3hluj","1536","864","de","ne05ar22","null","","","","learningBlock2","","","","<div style=""font-size:60px;""> </div>","null","LF","learning/Slide95.JPG","This is a wug:","",""
"","html-keyboard-response","293","1526207","0.0-8.0-0.15","LF","u9vce3hluj","1536","864","de","ne05ar22","null","","","","learningBlock2","","","","This is a tob:","null","","","","",""
"","image-keyboard-response","294","1526540","0.0-8.0-1.15","LF","u9vce3hluj","1536","864","de","ne05ar22","null","","","","","","","","learning/Slide96.JPG","null","","","","",""
"","html-keyboard-response","295","1527543","0.0-8.0-2.15","LF","u9vce3hluj","1536","864","de","ne05ar22","null","","","","learningBlock2","","","","<div style=""font-size:60px;""> </div>","null","LF","learning/Slide96.JPG","This is a tob:","",""
"","html-keyboard-response","296","1528550","0.0-8.0-0.16","LF","u9vce3hluj","1536","864","de","ne05ar22","null","","","","learningBlock2","","","","This is a dep:","null","","","","",""
"","image-keyboard-response","297","1528893","0.0-8.0-1.16","LF","u9vce3hluj","1536","864","de","ne05ar22","null","","","","","","","","learning/Slide97.JPG","null","","","","",""
"","html-keyboard-response","298","1529897","0.0-8.0-2.16","LF","u9vce3hluj","1536","864","de","ne05ar22","null","","","","learningBlock2","","","","<div style=""font-size:60px;""> </div>","null","LF","learning/Slide97.JPG","This is a dep:","",""
"","html-keyboard-response","299","1530899","0.0-8.0-0.17","LF","u9vce3hluj","1536","864","de","ne05ar22","null","","","","learningBlock2","","","","This is a bim:","null","","","","",""
"","image-keyboard-response","300","1531243","0.0-8.0-1.17","LF","u9vce3hluj","1536","864","de","ne05ar22","null","","","","","","","","learning/Slide98.JPG","null","","","","",""
"","html-keyboard-response","301","1532247","0.0-8.0-2.17","LF","u9vce3hluj","1536","864","de","ne05ar22","null","","","","learningBlock2","","","","<div style=""font-size:60px;""> </div>","null","LF","learning/Slide98.JPG","This is a bim:","",""
"","html-keyboard-response","302","1533253","0.0-8.0-0.18","LF","u9vce3hluj","1536","864","de","ne05ar22","null","","","","learningBlock2","","","","This is a dep:","null","","","","",""
"","image-keyboard-response","303","1533592","0.0-8.0-1.18","LF","u9vce3hluj","1536","864","de","ne05ar22","null","","","","","","","","learning/Slide99.JPG","null","","","","",""
"","html-keyboard-response","304","1534597","0.0-8.0-2.18","LF","u9vce3hluj","1536","864","de","ne05ar22","null","","","","learningBlock2","","","","<div style=""font-size:60px;""> </div>","null","LF","learning/Slide99.JPG","This is a dep:","",""
"","html-keyboard-response","305","1535597","0.0-8.0-0.19","LF","u9vce3hluj","1536","864","de","ne05ar22","null","","","","learningBlock2","","","","This is a bim:","null","","","","",""
"","image-keyboard-response","306","1535942","0.0-8.0-1.19","LF","u9vce3hluj","1536","864","de","ne05ar22","null","","","","","","","","learning/Slide100.JPG","null","","","","",""
"","html-keyboard-response","307","1536952","0.0-8.0-2.19","LF","u9vce3hluj","1536","864","de","ne05ar22","null","","","","learningBlock2","","","","<div style=""font-size:60px;""> </div>","null","LF","learning/Slide100.JPG","This is a bim:","",""
"","html-keyboard-response","308","1537966","0.0-8.0-0.20","LF","u9vce3hluj","1536","864","de","ne05ar22","null","","","","learningBlock2","","","","This is a tob:","null","","","","",""
"","image-keyboard-response","309","1538304","0.0-8.0-1.20","LF","u9vce3hluj","1536","864","de","ne05ar22","null","","","","","","","","learning/Slide101.JPG","null","","","","",""
"","html-keyboard-response","310","1539319","0.0-8.0-2.20","LF","u9vce3hluj","1536","864","de","ne05ar22","null","","","","learningBlock2","","","","<div style=""font-size:60px;""> </div>","null","LF","learning/Slide101.JPG","This is a tob:","",""
"","html-keyboard-response","311","1540324","0.0-8.0-0.21","LF","u9vce3hluj","1536","864","de","ne05ar22","null","","","","learningBlock2","","","","This is a bim:","null","","","","",""
"","image-keyboard-response","312","1540668","0.0-8.0-1.21","LF","u9vce3hluj","1536","864","de","ne05ar22","null","","","","","","","","learning/Slide102.JPG","null","","","","",""
"","html-keyboard-response","313","1541673","0.0-8.0-2.21","LF","u9vce3hluj","1536","864","de","ne05ar22","null","","","","learningBlock2","","","","<div style=""font-size:60px;""> </div>","null","LF","learning/Slide102.JPG","This is a bim:","",""
"","html-keyboard-response","314","1542676","0.0-8.0-0.22","LF","u9vce3hluj","1536","864","de","ne05ar22","null","","","","learningBlock2","","","","This is a dep:","null","","","","",""
"","image-keyboard-response","315","1543024","0.0-8.0-1.22","LF","u9vce3hluj","1536","864","de","ne05ar22","null","","","","","","","","learning/Slide103.JPG","null","","","","",""
"","html-keyboard-response","316","1544026","0.0-8.0-2.22","LF","u9vce3hluj","1536","864","de","ne05ar22","null","","","","learningBlock2","","","","<div style=""font-size:60px;""> </div>","null","LF","learning/Slide103.JPG","This is a dep:","",""
"","html-keyboard-response","317","1545042","0.0-8.0-0.23","LF","u9vce3hluj","1536","864","de","ne05ar22","null","","","","learningBlock2","","","","This is a tob:","null","","","","",""
"","image-keyboard-response","318","1545387","0.0-8.0-1.23","LF","u9vce3hluj","1536","864","de","ne05ar22","null","","","","","","","","learning/Slide104.JPG","null","","","","",""
"","html-keyboard-response","319","1546391","0.0-8.0-2.23","LF","u9vce3hluj","1536","864","de","ne05ar22","null","","","","learningBlock2","","","","<div style=""font-size:60px;""> </div>","null","LF","learning/Slide104.JPG","This is a tob:","",""
"","html-keyboard-response","320","1547405","0.0-8.0-0.24","LF","u9vce3hluj","1536","864","de","ne05ar22","null","","","","learningBlock2","","","","This is a dep:","null","","","","",""
"","image-keyboard-response","321","1547748","0.0-8.0-1.24","LF","u9vce3hluj","1536","864","de","ne05ar22","null","","","","","","","","learning/Slide105.JPG","null","","","","",""
"","html-keyboard-response","322","1548751","0.0-8.0-2.24","LF","u9vce3hluj","1536","864","de","ne05ar22","null","","","","learningBlock2","","","","<div style=""font-size:60px;""> </div>","null","LF","learning/Slide105.JPG","This is a dep:","",""
"","html-keyboard-response","323","1549759","0.0-8.0-0.25","LF","u9vce3hluj","1536","864","de","ne05ar22","null","","","","learningBlock2","","","","This is a wug:","null","","","","",""
"","image-keyboard-response","324","1550099","0.0-8.0-1.25","LF","u9vce3hluj","1536","864","de","ne05ar22","null","","","","","","","","learning/Slide106.JPG","null","","","","",""
"","html-keyboard-response","325","1551101","0.0-8.0-2.25","LF","u9vce3hluj","1536","864","de","ne05ar22","null","","","","learningBlock2","","","","<div style=""font-size:60px;""> </div>","null","LF","learning/Slide106.JPG","This is a wug:","",""
"","html-keyboard-response","326","1552111","0.0-8.0-0.26","LF","u9vce3hluj","1536","864","de","ne05ar22","null","","","","learningBlock2","","","","This is a bim:","null","","","","",""
"","image-keyboard-response","327","1552456","0.0-8.0-1.26","LF","u9vce3hluj","1536","864","de","ne05ar22","null","","","","","","","","learning/Slide107.JPG","null","","","","",""
"","html-keyboard-response","328","1553459","0.0-8.0-2.26","LF","u9vce3hluj","1536","864","de","ne05ar22","null","","","","learningBlock2","","","","<div style=""font-size:60px;""> </div>","null","LF","learning/Slide107.JPG","This is a bim:","",""
"","html-keyboard-response","329","1554464","0.0-8.0-0.27","LF","u9vce3hluj","1536","864","de","ne05ar22","null","","","","learningBlock2","","","","This is a dep:","null","","","","",""
"","image-keyboard-response","330","1554809","0.0-8.0-1.27","LF","u9vce3hluj","1536","864","de","ne05ar22","null","","","","","","","","learning/Slide108.JPG","null","","","","",""
"","html-keyboard-response","331","1555815","0.0-8.0-2.27","LF","u9vce3hluj","1536","864","de","ne05ar22","null","","","","learningBlock2","","","","<div style=""font-size:60px;""> </div>","null","LF","learning/Slide108.JPG","This is a dep:","",""
"","html-keyboard-response","332","1556819","0.0-8.0-0.28","LF","u9vce3hluj","1536","864","de","ne05ar22","null","","","","learningBlock2","","","","This is a wug:","null","","","","",""
"","image-keyboard-response","333","1557161","0.0-8.0-1.28","LF","u9vce3hluj","1536","864","de","ne05ar22","null","","","","","","","","learning/Slide109.JPG","null","","","","",""
"","html-keyboard-response","334","1558170","0.0-8.0-2.28","LF","u9vce3hluj","1536","864","de","ne05ar22","null","","","","learningBlock2","","","","<div style=""font-size:60px;""> </div>","null","LF","learning/Slide109.JPG","This is a wug:","",""
"","html-keyboard-response","335","1559176","0.0-8.0-0.29","LF","u9vce3hluj","1536","864","de","ne05ar22","null","","","","learningBlock2","","","","This is a bim:","null","","","","",""
"","image-keyboard-response","336","1559520","0.0-8.0-1.29","LF","u9vce3hluj","1536","864","de","ne05ar22","null","","","","","","","","learning/Slide110.JPG","null","","","","",""
"","html-keyboard-response","337","1560526","0.0-8.0-2.29","LF","u9vce3hluj","1536","864","de","ne05ar22","null","","","","learningBlock2","","","","<div style=""font-size:60px;""> </div>","null","LF","learning/Slide110.JPG","This is a bim:","",""
"","html-keyboard-response","338","1561531","0.0-8.0-0.30","LF","u9vce3hluj","1536","864","de","ne05ar22","null","","","","learningBlock2","","","","This is a tob:","null","","","","",""
"","image-keyboard-response","339","1561875","0.0-8.0-1.30","LF","u9vce3hluj","1536","864","de","ne05ar22","null","","","","","","","","learning/Slide111.JPG","null","","","","",""
"","html-keyboard-response","340","1562878","0.0-8.0-2.30","LF","u9vce3hluj","1536","864","de","ne05ar22","null","","","","learningBlock2","","","","<div style=""font-size:60px;""> </div>","null","LF","learning/Slide111.JPG","This is a tob:","",""
"","html-keyboard-response","341","1563883","0.0-8.0-0.31","LF","u9vce3hluj","1536","864","de","ne05ar22","null","","","","learningBlock2","","","","This is a wug:","null","","","","",""
"","image-keyboard-response","342","1564225","0.0-8.0-1.31","LF","u9vce3hluj","1536","864","de","ne05ar22","null","","","","","","","","learning/Slide112.JPG","null","","","","",""
"","html-keyboard-response","343","1565241","0.0-8.0-2.31","LF","u9vce3hluj","1536","864","de","ne05ar22","null","","","","learningBlock2","","","","<div style=""font-size:60px;""> </div>","null","LF","learning/Slide112.JPG","This is a wug:","",""
"","html-keyboard-response","344","1566251","0.0-8.0-0.32","LF","u9vce3hluj","1536","864","de","ne05ar22","null","","","","learningBlock2","","","","This is a tob:","null","","","","",""
"","image-keyboard-response","345","1566595","0.0-8.0-1.32","LF","u9vce3hluj","1536","864","de","ne05ar22","null","","","","","","","","learning/Slide113.JPG","null","","","","",""
"","html-keyboard-response","346","1567599","0.0-8.0-2.32","LF","u9vce3hluj","1536","864","de","ne05ar22","null","","","","learningBlock2","","","","<div style=""font-size:60px;""> </div>","null","LF","learning/Slide113.JPG","This is a tob:","",""
"","html-keyboard-response","347","1568608","0.0-8.0-0.33","LF","u9vce3hluj","1536","864","de","ne05ar22","null","","","","learningBlock2","","","","This is a wug:","null","","","","",""
"","image-keyboard-response","348","1568953","0.0-8.0-1.33","LF","u9vce3hluj","1536","864","de","ne05ar22","null","","","","","","","","learning/Slide114.JPG","null","","","","",""
"","html-keyboard-response","349","1569961","0.0-8.0-2.33","LF","u9vce3hluj","1536","864","de","ne05ar22","null","","","","learningBlock2","","","","<div style=""font-size:60px;""> </div>","null","LF","learning/Slide114.JPG","This is a wug:","",""
"","html-keyboard-response","350","1570962","0.0-8.0-0.34","LF","u9vce3hluj","1536","864","de","ne05ar22","null","","","","learningBlock2","","","","This is a bim:","null","","","","",""
"","image-keyboard-response","351","1571307","0.0-8.0-1.34","LF","u9vce3hluj","1536","864","de","ne05ar22","null","","","","","","","","learning/Slide115.JPG","null","","","","",""
"","html-keyboard-response","352","1572308","0.0-8.0-2.34","LF","u9vce3hluj","1536","864","de","ne05ar22","null","","","","learningBlock2","","","","<div style=""font-size:60px;""> </div>","null","LF","learning/Slide115.JPG","This is a bim:","",""
"","html-keyboard-response","353","1573316","0.0-8.0-0.35","LF","u9vce3hluj","1536","864","de","ne05ar22","null","","","","learningBlock2","","","","This is a dep:","null","","","","",""
"","image-keyboard-response","354","1573662","0.0-8.0-1.35","LF","u9vce3hluj","1536","864","de","ne05ar22","null","","","","","","","","learning/Slide116.JPG","null","","","","",""
"","html-keyboard-response","355","1574678","0.0-8.0-2.35","LF","u9vce3hluj","1536","864","de","ne05ar22","null","","","","learningBlock2","","","","<div style=""font-size:60px;""> </div>","null","LF","learning/Slide116.JPG","This is a dep:","",""
"","html-keyboard-response","356","1575692","0.0-8.0-0.36","LF","u9vce3hluj","1536","864","de","ne05ar22","null","","","","learningBlock2","","","","This is a tob:","null","","","","",""
"","image-keyboard-response","357","1576037","0.0-8.0-1.36","LF","u9vce3hluj","1536","864","de","ne05ar22","null","","","","","","","","learning/Slide117.JPG","null","","","","",""
"","html-keyboard-response","358","1577053","0.0-8.0-2.36","LF","u9vce3hluj","1536","864","de","ne05ar22","null","","","","learningBlock2","","","","<div style=""font-size:60px;""> </div>","null","LF","learning/Slide117.JPG","This is a tob:","",""
"","html-keyboard-response","359","1578058","0.0-8.0-0.37","LF","u9vce3hluj","1536","864","de","ne05ar22","null","","","","learningBlock2","","","","This is a dep:","null","","","","",""
"","image-keyboard-response","360","1578402","0.0-8.0-1.37","LF","u9vce3hluj","1536","864","de","ne05ar22","null","","","","","","","","learning/Slide118.JPG","null","","","","",""
"","html-keyboard-response","361","1579404","0.0-8.0-2.37","LF","u9vce3hluj","1536","864","de","ne05ar22","null","","","","learningBlock2","","","","<div style=""font-size:60px;""> </div>","null","LF","learning/Slide118.JPG","This is a dep:","",""
"","html-keyboard-response","362","1580413","0.0-8.0-0.38","LF","u9vce3hluj","1536","864","de","ne05ar22","null","","","","learningBlock2","","","","This is a wug:","null","","","","",""
"","image-keyboard-response","363","1580755","0.0-8.0-1.38","LF","u9vce3hluj","1536","864","de","ne05ar22","null","","","","","","","","learning/Slide119.JPG","null","","","","",""
"","html-keyboard-response","364","1581760","0.0-8.0-2.38","LF","u9vce3hluj","1536","864","de","ne05ar22","null","","","","learningBlock2","","","","<div style=""font-size:60px;""> </div>","null","LF","learning/Slide119.JPG","This is a wug:","",""
"","html-keyboard-response","365","1582769","0.0-8.0-0.39","LF","u9vce3hluj","1536","864","de","ne05ar22","null","","","","learningBlock2","","","","This is a dep:","null","","","","",""
"","image-keyboard-response","366","1583115","0.0-8.0-1.39","LF","u9vce3hluj","1536","864","de","ne05ar22","null","","","","","","","","learning/Slide120.JPG","null","","","","",""
"","html-keyboard-response","367","1584118","0.0-8.0-2.39","LF","u9vce3hluj","1536","864","de","ne05ar22","null","","","","learningBlock2","","","","<div style=""font-size:60px;""> </div>","null","LF","learning/Slide120.JPG","This is a dep:","",""
"","html-keyboard-response","368","1585122","0.0-8.0-0.40","LF","u9vce3hluj","1536","864","de","ne05ar22","null","","","","learningBlock2","","","","This is a bim:","null","","","","",""
"","image-keyboard-response","369","1585464","0.0-8.0-1.40","LF","u9vce3hluj","1536","864","de","ne05ar22","null","","","","","","","","learning/Slide121.JPG","null","","","","",""
"","html-keyboard-response","370","1586470","0.0-8.0-2.40","LF","u9vce3hluj","1536","864","de","ne05ar22","null","","","","learningBlock2","","","","<div style=""font-size:60px;""> </div>","null","LF","learning/Slide121.JPG","This is a bim:","",""
"","html-keyboard-response","371","1587472","0.0-8.0-0.41","LF","u9vce3hluj","1536","864","de","ne05ar22","null","","","","learningBlock2","","","","This is a wug:","null","","","","",""
"","image-keyboard-response","372","1587821","0.0-8.0-1.41","LF","u9vce3hluj","1536","864","de","ne05ar22","null","","","","","","","","learning/Slide122.JPG","null","","","","",""
"","html-keyboard-response","373","1588823","0.0-8.0-2.41","LF","u9vce3hluj","1536","864","de","ne05ar22","null","","","","learningBlock2","","","","<div style=""font-size:60px;""> </div>","null","LF","learning/Slide122.JPG","This is a wug:","",""
"","html-keyboard-response","374","1589831","0.0-8.0-0.42","LF","u9vce3hluj","1536","864","de","ne05ar22","null","","","","learningBlock2","","","","This is a bim:","null","","","","",""
"","image-keyboard-response","375","1590175","0.0-8.0-1.42","LF","u9vce3hluj","1536","864","de","ne05ar22","null","","","","","","","","learning/Slide123.JPG","null","","","","",""
"","html-keyboard-response","376","1591177","0.0-8.0-2.42","LF","u9vce3hluj","1536","864","de","ne05ar22","null","","","","learningBlock2","","","","<div style=""font-size:60px;""> </div>","null","LF","learning/Slide123.JPG","This is a bim:","",""
"","html-keyboard-response","377","1592181","0.0-8.0-0.43","LF","u9vce3hluj","1536","864","de","ne05ar22","null","","","","learningBlock2","","","","This is a tob:","null","","","","",""
"","image-keyboard-response","378","1592526","0.0-8.0-1.43","LF","u9vce3hluj","1536","864","de","ne05ar22","null","","","","","","","","learning/Slide124.JPG","null","","","","",""
"","html-keyboard-response","379","1593543","0.0-8.0-2.43","LF","u9vce3hluj","1536","864","de","ne05ar22","null","","","","learningBlock2","","","","<div style=""font-size:60px;""> </div>","null","LF","learning/Slide124.JPG","This is a tob:","",""
"","html-keyboard-response","380","1594551","0.0-8.0-0.44","LF","u9vce3hluj","1536","864","de","ne05ar22","null","","","","learningBlock2","","","","This is a bim:","null","","","","",""
"","image-keyboard-response","381","1594894","0.0-8.0-1.44","LF","u9vce3hluj","1536","864","de","ne05ar22","null","","","","","","","","learning/Slide125.JPG","null","","","","",""
"","html-keyboard-response","382","1595908","0.0-8.0-2.44","LF","u9vce3hluj","1536","864","de","ne05ar22","null","","","","learningBlock2","","","","<div style=""font-size:60px;""> </div>","null","LF","learning/Slide125.JPG","This is a bim:","",""
"","html-keyboard-response","383","1596912","0.0-8.0-0.45","LF","u9vce3hluj","1536","864","de","ne05ar22","null","","","","learningBlock2","","","","This is a tob:","null","","","","",""
"","image-keyboard-response","384","1597255","0.0-8.0-1.45","LF","u9vce3hluj","1536","864","de","ne05ar22","null","","","","","","","","learning/Slide126.JPG","null","","","","",""
"","html-keyboard-response","385","1598268","0.0-8.0-2.45","LF","u9vce3hluj","1536","864","de","ne05ar22","null","","","","learningBlock2","","","","<div style=""font-size:60px;""> </div>","null","LF","learning/Slide126.JPG","This is a tob:","",""
"","html-keyboard-response","386","1599276","0.0-8.0-0.46","LF","u9vce3hluj","1536","864","de","ne05ar22","null","","","","learningBlock2","","","","This is a dep:","null","","","","",""
"","image-keyboard-response","387","1599627","0.0-8.0-1.46","LF","u9vce3hluj","1536","864","de","ne05ar22","null","","","","","","","","learning/Slide127.JPG","null","","","","",""
"","html-keyboard-response","388","1600632","0.0-8.0-2.46","LF","u9vce3hluj","1536","864","de","ne05ar22","null","","","","learningBlock2","","","","<div style=""font-size:60px;""> </div>","null","LF","learning/Slide127.JPG","This is a dep:","",""
"","html-keyboard-response","389","1601645","0.0-8.0-0.47","LF","u9vce3hluj","1536","864","de","ne05ar22","null","","","","learningBlock2","","","","This is a wug:","null","","","","",""
"","image-keyboard-response","390","1601991","0.0-8.0-1.47","LF","u9vce3hluj","1536","864","de","ne05ar22","null","","","","","","","","learning/Slide128.JPG","null","","","","",""
"","html-keyboard-response","391","1602995","0.0-8.0-2.47","LF","u9vce3hluj","1536","864","de","ne05ar22","null","","","","learningBlock2","","","","<div style=""font-size:60px;""> </div>","null","LF","learning/Slide128.JPG","This is a wug:","",""
"","html-keyboard-response","392","1604003","0.0-8.0-0.48","LF","u9vce3hluj","1536","864","de","ne05ar22","null","","","","learningBlock2","","","","This is a tob:","null","","","","",""
"","image-keyboard-response","393","1604347","0.0-8.0-1.48","LF","u9vce3hluj","1536","864","de","ne05ar22","null","","","","","","","","learning/Slide129.JPG","null","","","","",""
"","html-keyboard-response","394","1605358","0.0-8.0-2.48","LF","u9vce3hluj","1536","864","de","ne05ar22","null","","","","learningBlock2","","","","<div style=""font-size:60px;""> </div>","null","LF","learning/Slide129.JPG","This is a tob:","",""
"","html-keyboard-response","395","1606363","0.0-8.0-0.49","LF","u9vce3hluj","1536","864","de","ne05ar22","null","","","","learningBlock2","","","","This is a wug:","null","","","","",""
"","image-keyboard-response","396","1606709","0.0-8.0-1.49","LF","u9vce3hluj","1536","864","de","ne05ar22","null","","","","","","","","learning/Slide130.JPG","null","","","","",""
"","html-keyboard-response","397","1607712","0.0-8.0-2.49","LF","u9vce3hluj","1536","864","de","ne05ar22","null","","","","learningBlock2","","","","<div style=""font-size:60px;""> </div>","null","LF","learning/Slide130.JPG","This is a wug:","",""
"","html-keyboard-response","398","1608728","0.0-8.0-0.50","LF","u9vce3hluj","1536","864","de","ne05ar22","null","","","","learningBlock2","","","","This is a bim:","null","","","","",""
"","image-keyboard-response","399","1609073","0.0-8.0-1.50","LF","u9vce3hluj","1536","864","de","ne05ar22","null","","","","","","","","learning/Slide131.JPG","null","","","","",""
"","html-keyboard-response","400","1610080","0.0-8.0-2.50","LF","u9vce3hluj","1536","864","de","ne05ar22","null","","","","learningBlock2","","","","<div style=""font-size:60px;""> </div>","null","LF","learning/Slide131.JPG","This is a bim:","",""
"","html-keyboard-response","401","1611083","0.0-8.0-0.51","LF","u9vce3hluj","1536","864","de","ne05ar22","null","","","","learningBlock2","","","","This is a dep:","null","","","","",""
"","image-keyboard-response","402","1611428","0.0-8.0-1.51","LF","u9vce3hluj","1536","864","de","ne05ar22","null","","","","","","","","learning/Slide132.JPG","null","","","","",""
"","html-keyboard-response","403","1612436","0.0-8.0-2.51","LF","u9vce3hluj","1536","864","de","ne05ar22","null","","","","learningBlock2","","","","<div style=""font-size:60px;""> </div>","null","LF","learning/Slide132.JPG","This is a dep:","",""
"","html-keyboard-response","404","1613438","0.0-8.0-0.52","LF","u9vce3hluj","1536","864","de","ne05ar22","null","","","","learningBlock2","","","","This is a tob:","null","","","","",""
"","image-keyboard-response","405","1613783","0.0-8.0-1.52","LF","u9vce3hluj","1536","864","de","ne05ar22","null","","","","","","","","learning/Slide133.JPG","null","","","","",""
"","html-keyboard-response","406","1614785","0.0-8.0-2.52","LF","u9vce3hluj","1536","864","de","ne05ar22","null","","","","learningBlock2","","","","<div style=""font-size:60px;""> </div>","null","LF","learning/Slide133.JPG","This is a tob:","",""
"","html-keyboard-response","407","1615786","0.0-8.0-0.53","LF","u9vce3hluj","1536","864","de","ne05ar22","null","","","","learningBlock2","","","","This is a dep:","null","","","","",""
"","image-keyboard-response","408","1616132","0.0-8.0-1.53","LF","u9vce3hluj","1536","864","de","ne05ar22","null","","","","","","","","learning/Slide134.JPG","null","","","","",""
"","html-keyboard-response","409","1617139","0.0-8.0-2.53","LF","u9vce3hluj","1536","864","de","ne05ar22","null","","","","learningBlock2","","","","<div style=""font-size:60px;""> </div>","null","LF","learning/Slide134.JPG","This is a dep:","",""
"","html-keyboard-response","410","1618141","0.0-8.0-0.54","LF","u9vce3hluj","1536","864","de","ne05ar22","null","","","","learningBlock2","","","","This is a tob:","null","","","","",""
"","image-keyboard-response","411","1618489","0.0-8.0-1.54","LF","u9vce3hluj","1536","864","de","ne05ar22","null","","","","","","","","learning/Slide135.JPG","null","","","","",""
"","html-keyboard-response","412","1619494","0.0-8.0-2.54","LF","u9vce3hluj","1536","864","de","ne05ar22","null","","","","learningBlock2","","","","<div style=""font-size:60px;""> </div>","null","LF","learning/Slide135.JPG","This is a tob:","",""
"","html-keyboard-response","413","1620501","0.0-8.0-0.55","LF","u9vce3hluj","1536","864","de","ne05ar22","null","","","","learningBlock2","","","","This is a wug:","null","","","","",""
"","image-keyboard-response","414","1620849","0.0-8.0-1.55","LF","u9vce3hluj","1536","864","de","ne05ar22","null","","","","","","","","learning/Slide136.JPG","null","","","","",""
"","html-keyboard-response","415","1621852","0.0-8.0-2.55","LF","u9vce3hluj","1536","864","de","ne05ar22","null","","","","learningBlock2","","","","<div style=""font-size:60px;""> </div>","null","LF","learning/Slide136.JPG","This is a wug:","",""
"","html-keyboard-response","416","1622859","0.0-8.0-0.56","LF","u9vce3hluj","1536","864","de","ne05ar22","null","","","","learningBlock2","","","","This is a tob:","null","","","","",""
"","image-keyboard-response","417","1623203","0.0-8.0-1.56","LF","u9vce3hluj","1536","864","de","ne05ar22","null","","","","","","","","learning/Slide137.JPG","null","","","","",""
"","html-keyboard-response","418","1624217","0.0-8.0-2.56","LF","u9vce3hluj","1536","864","de","ne05ar22","null","","","","learningBlock2","","","","<div style=""font-size:60px;""> </div>","null","LF","learning/Slide137.JPG","This is a tob:","",""
"","html-keyboard-response","419","1625217","0.0-8.0-0.57","LF","u9vce3hluj","1536","864","de","ne05ar22","null","","","","learningBlock2","","","","This is a bim:","null","","","","",""
"","image-keyboard-response","420","1625561","0.0-8.0-1.57","LF","u9vce3hluj","1536","864","de","ne05ar22","null","","","","","","","","learning/Slide138.JPG","null","","","","",""
"","html-keyboard-response","421","1626562","0.0-8.0-2.57","LF","u9vce3hluj","1536","864","de","ne05ar22","null","","","","learningBlock2","","","","<div style=""font-size:60px;""> </div>","null","LF","learning/Slide138.JPG","This is a bim:","",""
"","html-keyboard-response","422","1627563","0.0-8.0-0.58","LF","u9vce3hluj","1536","864","de","ne05ar22","null","","","","learningBlock2","","","","This is a wug:","null","","","","",""
"","image-keyboard-response","423","1627909","0.0-8.0-1.58","LF","u9vce3hluj","1536","864","de","ne05ar22","null","","","","","","","","learning/Slide139.JPG","null","","","","",""
"","html-keyboard-response","424","1628924","0.0-8.0-2.58","LF","u9vce3hluj","1536","864","de","ne05ar22","null","","","","learningBlock2","","","","<div style=""font-size:60px;""> </div>","null","LF","learning/Slide139.JPG","This is a wug:","",""
"","html-keyboard-response","425","1629931","0.0-8.0-0.59","LF","u9vce3hluj","1536","864","de","ne05ar22","null","","","","learningBlock2","","","","This is a dep:","null","","","","",""
"","image-keyboard-response","426","1630278","0.0-8.0-1.59","LF","u9vce3hluj","1536","864","de","ne05ar22","null","","","","","","","","learning/Slide140.JPG","null","","","","",""
"","html-keyboard-response","427","1631287","0.0-8.0-2.59","LF","u9vce3hluj","1536","864","de","ne05ar22","null","","","","learningBlock2","","","","<div style=""font-size:60px;""> </div>","null","LF","learning/Slide140.JPG","This is a dep:","",""
"","html-keyboard-response","428","1632300","0.0-8.0-0.60","LF","u9vce3hluj","1536","864","de","ne05ar22","null","","","","learningBlock2","","","","This is a tob:","null","","","","",""
"","image-keyboard-response","429","1632644","0.0-8.0-1.60","LF","u9vce3hluj","1536","864","de","ne05ar22","null","","","","","","","","learning/Slide141.JPG","null","","","","",""
"","html-keyboard-response","430","1633657","0.0-8.0-2.60","LF","u9vce3hluj","1536","864","de","ne05ar22","null","","","","learningBlock2","","","","<div style=""font-size:60px;""> </div>","null","LF","learning/Slide141.JPG","This is a tob:","",""
"","html-keyboard-response","431","1634672","0.0-8.0-0.61","LF","u9vce3hluj","1536","864","de","ne05ar22","null","","","","learningBlock2","","","","This is a wug:","null","","","","",""
"","image-keyboard-response","432","1635014","0.0-8.0-1.61","LF","u9vce3hluj","1536","864","de","ne05ar22","null","","","","","","","","learning/Slide142.JPG","null","","","","",""
"","html-keyboard-response","433","1636027","0.0-8.0-2.61","LF","u9vce3hluj","1536","864","de","ne05ar22","null","","","","learningBlock2","","","","<div style=""font-size:60px;""> </div>","null","LF","learning/Slide142.JPG","This is a wug:","",""
"","html-keyboard-response","434","1637042","0.0-8.0-0.62","LF","u9vce3hluj","1536","864","de","ne05ar22","null","","","","learningBlock2","","","","This is a bim:","null","","","","",""
"","image-keyboard-response","435","1637385","0.0-8.0-1.62","LF","u9vce3hluj","1536","864","de","ne05ar22","null","","","","","","","","learning/Slide143.JPG","null","","","","",""
"","html-keyboard-response","436","1638388","0.0-8.0-2.62","LF","u9vce3hluj","1536","864","de","ne05ar22","null","","","","learningBlock2","","","","<div style=""font-size:60px;""> </div>","null","LF","learning/Slide143.JPG","This is a bim:","",""
"","html-keyboard-response","437","1639392","0.0-8.0-0.63","LF","u9vce3hluj","1536","864","de","ne05ar22","null","","","","learningBlock2","","","","This is a dep:","null","","","","",""
"","image-keyboard-response","438","1639738","0.0-8.0-1.63","LF","u9vce3hluj","1536","864","de","ne05ar22","null","","","","","","","","learning/Slide144.JPG","null","","","","",""
"","html-keyboard-response","439","1640741","0.0-8.0-2.63","LF","u9vce3hluj","1536","864","de","ne05ar22","null","","","","learningBlock2","","","","<div style=""font-size:60px;""> </div>","null","LF","learning/Slide144.JPG","This is a dep:","",""
"","html-keyboard-response","440","1641754","0.0-8.0-0.64","LF","u9vce3hluj","1536","864","de","ne05ar22","null","","","","learningBlock2","","","","This is a bim:","null","","","","",""
"","image-keyboard-response","441","1642098","0.0-8.0-1.64","LF","u9vce3hluj","1536","864","de","ne05ar22","null","","","","","","","","learning/Slide145.JPG","null","","","","",""
"","html-keyboard-response","442","1643098","0.0-8.0-2.64","LF","u9vce3hluj","1536","864","de","ne05ar22","null","","","","learningBlock2","","","","<div style=""font-size:60px;""> </div>","null","LF","learning/Slide145.JPG","This is a bim:","",""
"","html-keyboard-response","443","1644110","0.0-8.0-0.65","LF","u9vce3hluj","1536","864","de","ne05ar22","null","","","","learningBlock2","","","","This is a tob:","null","","","","",""
"","image-keyboard-response","444","1644456","0.0-8.0-1.65","LF","u9vce3hluj","1536","864","de","ne05ar22","null","","","","","","","","learning/Slide146.JPG","null","","","","",""
"","html-keyboard-response","445","1645461","0.0-8.0-2.65","LF","u9vce3hluj","1536","864","de","ne05ar22","null","","","","learningBlock2","","","","<div style=""font-size:60px;""> </div>","null","LF","learning/Slide146.JPG","This is a tob:","",""
"","html-keyboard-response","446","1646476","0.0-8.0-0.66","LF","u9vce3hluj","1536","864","de","ne05ar22","null","","","","learningBlock2","","","","This is a wug:","null","","","","",""
"","image-keyboard-response","447","1646825","0.0-8.0-1.66","LF","u9vce3hluj","1536","864","de","ne05ar22","null","","","","","","","","learning/Slide147.JPG","null","","","","",""
"","html-keyboard-response","448","1647829","0.0-8.0-2.66","LF","u9vce3hluj","1536","864","de","ne05ar22","null","","","","learningBlock2","","","","<div style=""font-size:60px;""> </div>","null","LF","learning/Slide147.JPG","This is a wug:","",""
"","html-keyboard-response","449","1648832","0.0-8.0-0.67","LF","u9vce3hluj","1536","864","de","ne05ar22","null","","","","learningBlock2","","","","This is a bim:","null","","","","",""
"","image-keyboard-response","450","1649181","0.0-8.0-1.67","LF","u9vce3hluj","1536","864","de","ne05ar22","null","","","","","","","","learning/Slide148.JPG","null","","","","",""
"","html-keyboard-response","451","1650183","0.0-8.0-2.67","LF","u9vce3hluj","1536","864","de","ne05ar22","null","","","","learningBlock2","","","","<div style=""font-size:60px;""> </div>","null","LF","learning/Slide148.JPG","This is a bim:","",""
"","html-keyboard-response","452","1651197","0.0-8.0-0.68","LF","u9vce3hluj","1536","864","de","ne05ar22","null","","","","learningBlock2","","","","This is a dep:","null","","","","",""
"","image-keyboard-response","453","1651543","0.0-8.0-1.68","LF","u9vce3hluj","1536","864","de","ne05ar22","null","","","","","","","","learning/Slide149.JPG","null","","","","",""
"","html-keyboard-response","454","1652547","0.0-8.0-2.68","LF","u9vce3hluj","1536","864","de","ne05ar22","null","","","","learningBlock2","","","","<div style=""font-size:60px;""> </div>","null","LF","learning/Slide149.JPG","This is a dep:","",""
"","html-keyboard-response","455","1653557","0.0-8.0-0.69","LF","u9vce3hluj","1536","864","de","ne05ar22","null","","","","learningBlock2","","","","This is a wug:","null","","","","",""
"","image-keyboard-response","456","1653899","0.0-8.0-1.69","LF","u9vce3hluj","1536","864","de","ne05ar22","null","","","","","","","","learning/Slide150.JPG","null","","","","",""
"","html-keyboard-response","457","1654908","0.0-8.0-2.69","LF","u9vce3hluj","1536","864","de","ne05ar22","null","","","","learningBlock2","","","","<div style=""font-size:60px;""> </div>","null","LF","learning/Slide150.JPG","This is a wug:","",""
"","html-keyboard-response","458","1655908","0.0-8.0-0.70","LF","u9vce3hluj","1536","864","de","ne05ar22","null","","","","learningBlock2","","","","This is a dep:","null","","","","",""
"","image-keyboard-response","459","1656239","0.0-8.0-1.70","LF","u9vce3hluj","1536","864","de","ne05ar22","null","","","","","","","","learning/Slide151.JPG","null","","","","",""
"","html-keyboard-response","460","1657246","0.0-8.0-2.70","LF","u9vce3hluj","1536","864","de","ne05ar22","null","","","","learningBlock2","","","","<div style=""font-size:60px;""> </div>","null","LF","learning/Slide151.JPG","This is a dep:","",""
"","html-keyboard-response","461","1658258","0.0-8.0-0.71","LF","u9vce3hluj","1536","864","de","ne05ar22","null","","","","learningBlock2","","","","This is a wug:","null","","","","",""
"","image-keyboard-response","462","1658601","0.0-8.0-1.71","LF","u9vce3hluj","1536","864","de","ne05ar22","null","","","","","","","","learning/Slide152.JPG","null","","","","",""
"","html-keyboard-response","463","1659605","0.0-8.0-2.71","LF","u9vce3hluj","1536","864","de","ne05ar22","null","","","","learningBlock2","","","","<div style=""font-size:60px;""> </div>","null","LF","learning/Slide152.JPG","This is a wug:","",""
"","html-keyboard-response","464","1660608","0.0-8.0-0.72","LF","u9vce3hluj","1536","864","de","ne05ar22","null","","","","learningBlock2","","","","This is a bim:","null","","","","",""
"","image-keyboard-response","465","1660951","0.0-8.0-1.72","LF","u9vce3hluj","1536","864","de","ne05ar22","null","","","","","","","","learning/Slide153.JPG","null","","","","",""
"","html-keyboard-response","466","1661959","0.0-8.0-2.72","LF","u9vce3hluj","1536","864","de","ne05ar22","null","","","","learningBlock2","","","","<div style=""font-size:60px;""> </div>","null","LF","learning/Slide153.JPG","This is a bim:","",""
"","html-keyboard-response","467","1662964","0.0-8.0-0.73","LF","u9vce3hluj","1536","864","de","ne05ar22","null","","","","learningBlock2","","","","This is a tob:","null","","","","",""
"","image-keyboard-response","468","1663309","0.0-8.0-1.73","LF","u9vce3hluj","1536","864","de","ne05ar22","null","","","","","","","","learning/Slide154.JPG","null","","","","",""
"","html-keyboard-response","469","1664314","0.0-8.0-2.73","LF","u9vce3hluj","1536","864","de","ne05ar22","null","","","","learningBlock2","","","","<div style=""font-size:60px;""> </div>","null","LF","learning/Slide154.JPG","This is a tob:","",""
"","html-keyboard-response","470","1665319","0.0-8.0-0.74","LF","u9vce3hluj","1536","864","de","ne05ar22","null","","","","learningBlock2","","","","This is a dep:","null","","","","",""
"","image-keyboard-response","471","1665663","0.0-8.0-1.74","LF","u9vce3hluj","1536","864","de","ne05ar22","null","","","","","","","","learning/Slide155.JPG","null","","","","",""
"","html-keyboard-response","472","1666679","0.0-8.0-2.74","LF","u9vce3hluj","1536","864","de","ne05ar22","null","","","","learningBlock2","","","","<div style=""font-size:60px;""> </div>","null","LF","learning/Slide155.JPG","This is a dep:","",""
"","html-keyboard-response","473","1667681","0.0-8.0-0.75","LF","u9vce3hluj","1536","864","de","ne05ar22","null","","","","learningBlock2","","","","This is a bim:","null","","","","",""
"","image-keyboard-response","474","1668023","0.0-8.0-1.75","LF","u9vce3hluj","1536","864","de","ne05ar22","null","","","","","","","","learning/Slide156.JPG","null","","","","",""
"","html-keyboard-response","475","1669039","0.0-8.0-2.75","LF","u9vce3hluj","1536","864","de","ne05ar22","null","","","","learningBlock2","","","","<div style=""font-size:60px;""> </div>","null","LF","learning/Slide156.JPG","This is a bim:","",""
"","html-keyboard-response","476","1670043","0.0-8.0-0.76","LF","u9vce3hluj","1536","864","de","ne05ar22","null","","","","learningBlock2","","","","This is a dep:","null","","","","",""
"","image-keyboard-response","477","1670388","0.0-8.0-1.76","LF","u9vce3hluj","1536","864","de","ne05ar22","null","","","","","","","","learning/Slide157.JPG","null","","","","",""
"","html-keyboard-response","478","1671393","0.0-8.0-2.76","LF","u9vce3hluj","1536","864","de","ne05ar22","null","","","","learningBlock2","","","","<div style=""font-size:60px;""> </div>","null","LF","learning/Slide157.JPG","This is a dep:","",""
"","html-keyboard-response","479","1672408","0.0-8.0-0.77","LF","u9vce3hluj","1536","864","de","ne05ar22","null","","","","learningBlock2","","","","This is a tob:","null","","","","",""
"","image-keyboard-response","480","1672753","0.0-8.0-1.77","LF","u9vce3hluj","1536","864","de","ne05ar22","null","","","","","","","","learning/Slide158.JPG","null","","","","",""
"","html-keyboard-response","481","1673759","0.0-8.0-2.77","LF","u9vce3hluj","1536","864","de","ne05ar22","null","","","","learningBlock2","","","","<div style=""font-size:60px;""> </div>","null","LF","learning/Slide158.JPG","This is a tob:","",""
"","html-keyboard-response","482","1674764","0.0-8.0-0.78","LF","u9vce3hluj","1536","864","de","ne05ar22","null","","","","learningBlock2","","","","This is a dep:","null","","","","",""
"","image-keyboard-response","483","1675111","0.0-8.0-1.78","LF","u9vce3hluj","1536","864","de","ne05ar22","null","","","","","","","","learning/Slide159.JPG","null","","","","",""
"","html-keyboard-response","484","1676114","0.0-8.0-2.78","LF","u9vce3hluj","1536","864","de","ne05ar22","null","","","","learningBlock2","","","","<div style=""font-size:60px;""> </div>","null","LF","learning/Slide159.JPG","This is a dep:","",""
"","html-keyboard-response","485","1677119","0.0-8.0-0.79","LF","u9vce3hluj","1536","864","de","ne05ar22","null","","","","learningBlock2","","","","This is a wug:","null","","","","",""
"","image-keyboard-response","486","1677462","0.0-8.0-1.79","LF","u9vce3hluj","1536","864","de","ne05ar22","null","","","","","","","","learning/Slide160.JPG","null","","","","",""
"","html-keyboard-response","487","1678463","0.0-8.0-2.79","LF","u9vce3hluj","1536","864","de","ne05ar22","null","","","","learningBlock2","","","","<div style=""font-size:60px;""> </div>","null","LF","learning/Slide160.JPG","This is a wug:","",""
"","resize2","488","1932438","0.0-9.0","LF","u9vce3hluj","1536","864","de","ne05ar22","","","","","","","103","1.03","","","","","","",""
"","instructions","489","2034622","0.0-10.0","LF","u9vce3hluj","1536","864","de","ne05ar22","NA","","","[{""page_index"":0,""viewing_time"":102183}]","instructions","","","","","","","","","",""
