"success","trial_type","trial_index","time_elapsed","internal_node_id","condition","subject","screen_width","screen_height","language","codeword","rt","responses","url","view_history","test_part","final_height_px","final_width_px","scale_factor","stimulus","key_press","learningType","presentedImage","presentedLabel","button_pressed","response"
"true","fullscreen","0","324218","0.0-0.0","LF","ulvf1nlewe","1536","864","de","ia04an16","","","","","","","","","","","","","","",""
"","survey-html-form","1","336769","0.0-1.0","LF","ulvf1nlewe","1536","864","de","ia04an16","12545.32999987714","{""language"":""de""}","","","","","","","","","","","","",""
"","external-html","2","435220","0.0-2.0-0.0","LF","ulvf1nlewe","1536","864","de","ia04an16","98365.49999983981","","text/information.html","","","","","","","","","","","",""
"","external-html","3","529226","0.0-2.0-1.0","LF","ulvf1nlewe","1536","864","de","ia04an16","93932.53500014544","","text/consent.html","","","","","","","","","","","",""
"","survey-html-form","4","638826","0.0-2.0-2.0","LF","ulvf1nlewe","1536","864","de","ia04an16","109595.0549999252","{""codeword_enter"":""ia04an16""}","","","","","","","","","","","","",""
"","instructions","5","685527","0.0-4.0","LF","ulvf1nlewe","1536","864","de","ia04an16","NA","","","[{""page_index"":0,""viewing_time"":6146.7499998398125},{""page_index"":1,""viewing_time"":39048.875000094995}]","instructions","","","","","","","","","",""
"","resize","6","770846","0.0-5.0","LF","ulvf1nlewe","1536","864","de","ia04an16","","","","","","","384","2.438095238095238","","","","","","",""
"","html-keyboard-response","7","771851","0.0-6.0-0.0","LF","ulvf1nlewe","1536","864","de","ia04an16","null","","","","learningBlock1","","","","This is a tob:","null","","","","",""
"","image-keyboard-response","8","772190","0.0-6.0-1.0","LF","ulvf1nlewe","1536","864","de","ia04an16","null","","","","","","","","learning/Slide1.JPG","null","","","","",""
"","html-keyboard-response","9","773193","0.0-6.0-2.0","LF","ulvf1nlewe","1536","864","de","ia04an16","null","","","","learningBlock1","","","","<div style=""font-size:60px;""> </div>","null","LF","learning/Slide1.JPG","This is a tob:","",""
"","html-keyboard-response","10","774194","0.0-6.0-0.1","LF","ulvf1nlewe","1536","864","de","ia04an16","null","","","","learningBlock1","","","","This is a wug:","null","","","","",""
"","image-keyboard-response","11","774523","0.0-6.0-1.1","LF","ulvf1nlewe","1536","864","de","ia04an16","null","","","","","","","","learning/Slide2.JPG","null","","","","",""
"","html-keyboard-response","12","775524","0.0-6.0-2.1","LF","ulvf1nlewe","1536","864","de","ia04an16","null","","","","learningBlock1","","","","<div style=""font-size:60px;""> </div>","null","LF","learning/Slide2.JPG","This is a wug:","",""
"","html-keyboard-response","13","776526","0.0-6.0-0.2","LF","ulvf1nlewe","1536","864","de","ia04an16","null","","","","learningBlock1","","","","This is a bim:","null","","","","",""
"","image-keyboard-response","14","776854","0.0-6.0-1.2","LF","ulvf1nlewe","1536","864","de","ia04an16","null","","","","","","","","learning/Slide3.JPG","null","","","","",""
"","html-keyboard-response","15","777856","0.0-6.0-2.2","LF","ulvf1nlewe","1536","864","de","ia04an16","null","","","","learningBlock1","","","","<div style=""font-size:60px;""> </div>","null","LF","learning/Slide3.JPG","This is a bim:","",""
"","html-keyboard-response","16","778858","0.0-6.0-0.3","LF","ulvf1nlewe","1536","864","de","ia04an16","null","","","","learningBlock1","","","","This is a dep:","null","","","","",""
"","image-keyboard-response","17","779187","0.0-6.0-1.3","LF","ulvf1nlewe","1536","864","de","ia04an16","null","","","","","","","","learning/Slide4.JPG","null","","","","",""
"","html-keyboard-response","18","780191","0.0-6.0-2.3","LF","ulvf1nlewe","1536","864","de","ia04an16","null","","","","learningBlock1","","","","<div style=""font-size:60px;""> </div>","null","LF","learning/Slide4.JPG","This is a dep:","",""
"","html-keyboard-response","19","781194","0.0-6.0-0.4","LF","ulvf1nlewe","1536","864","de","ia04an16","null","","","","learningBlock1","","","","This is a wug:","null","","","","",""
"","image-keyboard-response","20","781522","0.0-6.0-1.4","LF","ulvf1nlewe","1536","864","de","ia04an16","null","","","","","","","","learning/Slide5.JPG","null","","","","",""
"","html-keyboard-response","21","782523","0.0-6.0-2.4","LF","ulvf1nlewe","1536","864","de","ia04an16","null","","","","learningBlock1","","","","<div style=""font-size:60px;""> </div>","null","LF","learning/Slide5.JPG","This is a wug:","",""
"","html-keyboard-response","22","783525","0.0-6.0-0.5","LF","ulvf1nlewe","1536","864","de","ia04an16","null","","","","learningBlock1","","","","This is a dep:","null","","","","",""
"","image-keyboard-response","23","783856","0.0-6.0-1.5","LF","ulvf1nlewe","1536","864","de","ia04an16","null","","","","","","","","learning/Slide6.JPG","null","","","","",""
"","html-keyboard-response","24","784860","0.0-6.0-2.5","LF","ulvf1nlewe","1536","864","de","ia04an16","null","","","","learningBlock1","","","","<div style=""font-size:60px;""> </div>","null","LF","learning/Slide6.JPG","This is a dep:","",""
"","html-keyboard-response","25","785864","0.0-6.0-0.6","LF","ulvf1nlewe","1536","864","de","ia04an16","null","","","","learningBlock1","","","","This is a wug:","null","","","","",""
"","image-keyboard-response","26","786194","0.0-6.0-1.6","LF","ulvf1nlewe","1536","864","de","ia04an16","null","","","","","","","","learning/Slide7.JPG","null","","","","",""
"","html-keyboard-response","27","787197","0.0-6.0-2.6","LF","ulvf1nlewe","1536","864","de","ia04an16","null","","","","learningBlock1","","","","<div style=""font-size:60px;""> </div>","null","LF","learning/Slide7.JPG","This is a wug:","",""
"","html-keyboard-response","28","788201","0.0-6.0-0.7","LF","ulvf1nlewe","1536","864","de","ia04an16","null","","","","learningBlock1","","","","This is a bim:","null","","","","",""
"","image-keyboard-response","29","788531","0.0-6.0-1.7","LF","ulvf1nlewe","1536","864","de","ia04an16","null","","","","","","","","learning/Slide8.JPG","null","","","","",""
"","html-keyboard-response","30","789533","0.0-6.0-2.7","LF","ulvf1nlewe","1536","864","de","ia04an16","null","","","","learningBlock1","","","","<div style=""font-size:60px;""> </div>","null","LF","learning/Slide8.JPG","This is a bim:","",""
"","html-keyboard-response","31","790535","0.0-6.0-0.8","LF","ulvf1nlewe","1536","864","de","ia04an16","null","","","","learningBlock1","","","","This is a wug:","null","","","","",""
"","image-keyboard-response","32","790864","0.0-6.0-1.8","LF","ulvf1nlewe","1536","864","de","ia04an16","null","","","","","","","","learning/Slide9.JPG","null","","","","",""
"","html-keyboard-response","33","791870","0.0-6.0-2.8","LF","ulvf1nlewe","1536","864","de","ia04an16","null","","","","learningBlock1","","","","<div style=""font-size:60px;""> </div>","null","LF","learning/Slide9.JPG","This is a wug:","",""
"","html-keyboard-response","34","792874","0.0-6.0-0.9","LF","ulvf1nlewe","1536","864","de","ia04an16","null","","","","learningBlock1","","","","This is a dep:","null","","","","",""
"","image-keyboard-response","35","793201","0.0-6.0-1.9","LF","ulvf1nlewe","1536","864","de","ia04an16","null","","","","","","","","learning/Slide10.JPG","null","","","","",""
"","html-keyboard-response","36","794206","0.0-6.0-2.9","LF","ulvf1nlewe","1536","864","de","ia04an16","null","","","","learningBlock1","","","","<div style=""font-size:60px;""> </div>","null","LF","learning/Slide10.JPG","This is a dep:","",""
"","html-keyboard-response","37","795209","0.0-6.0-0.10","LF","ulvf1nlewe","1536","864","de","ia04an16","null","","","","learningBlock1","","","","This is a tob:","null","","","","",""
"","image-keyboard-response","38","795537","0.0-6.0-1.10","LF","ulvf1nlewe","1536","864","de","ia04an16","null","","","","","","","","learning/Slide11.JPG","null","","","","",""
"","html-keyboard-response","39","796539","0.0-6.0-2.10","LF","ulvf1nlewe","1536","864","de","ia04an16","null","","","","learningBlock1","","","","<div style=""font-size:60px;""> </div>","null","LF","learning/Slide11.JPG","This is a tob:","",""
"","html-keyboard-response","40","797540","0.0-6.0-0.11","LF","ulvf1nlewe","1536","864","de","ia04an16","null","","","","learningBlock1","","","","This is a dep:","null","","","","",""
"","image-keyboard-response","41","797869","0.0-6.0-1.11","LF","ulvf1nlewe","1536","864","de","ia04an16","null","","","","","","","","learning/Slide12.JPG","null","","","","",""
"","html-keyboard-response","42","798878","0.0-6.0-2.11","LF","ulvf1nlewe","1536","864","de","ia04an16","null","","","","learningBlock1","","","","<div style=""font-size:60px;""> </div>","null","LF","learning/Slide12.JPG","This is a dep:","",""
"","html-keyboard-response","43","799881","0.0-6.0-0.12","LF","ulvf1nlewe","1536","864","de","ia04an16","null","","","","learningBlock1","","","","This is a bim:","null","","","","",""
"","image-keyboard-response","44","800210","0.0-6.0-1.12","LF","ulvf1nlewe","1536","864","de","ia04an16","null","","","","","","","","learning/Slide13.JPG","null","","","","",""
"","html-keyboard-response","45","801214","0.0-6.0-2.12","LF","ulvf1nlewe","1536","864","de","ia04an16","null","","","","learningBlock1","","","","<div style=""font-size:60px;""> </div>","null","LF","learning/Slide13.JPG","This is a bim:","",""
"","html-keyboard-response","46","802216","0.0-6.0-0.13","LF","ulvf1nlewe","1536","864","de","ia04an16","null","","","","learningBlock1","","","","This is a wug:","null","","","","",""
"","image-keyboard-response","47","802545","0.0-6.0-1.13","LF","ulvf1nlewe","1536","864","de","ia04an16","null","","","","","","","","learning/Slide14.JPG","null","","","","",""
"","html-keyboard-response","48","803547","0.0-6.0-2.13","LF","ulvf1nlewe","1536","864","de","ia04an16","null","","","","learningBlock1","","","","<div style=""font-size:60px;""> </div>","null","LF","learning/Slide14.JPG","This is a wug:","",""
"","html-keyboard-response","49","804548","0.0-6.0-0.14","LF","ulvf1nlewe","1536","864","de","ia04an16","null","","","","learningBlock1","","","","This is a tob:","null","","","","",""
"","image-keyboard-response","50","804876","0.0-6.0-1.14","LF","ulvf1nlewe","1536","864","de","ia04an16","null","","","","","","","","learning/Slide15.JPG","null","","","","",""
"","html-keyboard-response","51","805878","0.0-6.0-2.14","LF","ulvf1nlewe","1536","864","de","ia04an16","null","","","","learningBlock1","","","","<div style=""font-size:60px;""> </div>","null","LF","learning/Slide15.JPG","This is a tob:","",""
"","html-keyboard-response","52","806881","0.0-6.0-0.15","LF","ulvf1nlewe","1536","864","de","ia04an16","null","","","","learningBlock1","","","","This is a dep:","null","","","","",""
"","image-keyboard-response","53","807208","0.0-6.0-1.15","LF","ulvf1nlewe","1536","864","de","ia04an16","null","","","","","","","","learning/Slide16.JPG","null","","","","",""
"","html-keyboard-response","54","808211","0.0-6.0-2.15","LF","ulvf1nlewe","1536","864","de","ia04an16","null","","","","learningBlock1","","","","<div style=""font-size:60px;""> </div>","null","LF","learning/Slide16.JPG","This is a dep:","",""
"","html-keyboard-response","55","809213","0.0-6.0-0.16","LF","ulvf1nlewe","1536","864","de","ia04an16","null","","","","learningBlock1","","","","This is a bim:","null","","","","",""
"","image-keyboard-response","56","809541","0.0-6.0-1.16","LF","ulvf1nlewe","1536","864","de","ia04an16","null","","","","","","","","learning/Slide17.JPG","null","","","","",""
"","html-keyboard-response","57","810543","0.0-6.0-2.16","LF","ulvf1nlewe","1536","864","de","ia04an16","null","","","","learningBlock1","","","","<div style=""font-size:60px;""> </div>","null","LF","learning/Slide17.JPG","This is a bim:","",""
"","html-keyboard-response","58","811545","0.0-6.0-0.17","LF","ulvf1nlewe","1536","864","de","ia04an16","null","","","","learningBlock1","","","","This is a tob:","null","","","","",""
"","image-keyboard-response","59","811873","0.0-6.0-1.17","LF","ulvf1nlewe","1536","864","de","ia04an16","null","","","","","","","","learning/Slide18.JPG","null","","","","",""
"","html-keyboard-response","60","812877","0.0-6.0-2.17","LF","ulvf1nlewe","1536","864","de","ia04an16","null","","","","learningBlock1","","","","<div style=""font-size:60px;""> </div>","null","LF","learning/Slide18.JPG","This is a tob:","",""
"","html-keyboard-response","61","813881","0.0-6.0-0.18","LF","ulvf1nlewe","1536","864","de","ia04an16","null","","","","learningBlock1","","","","This is a wug:","null","","","","",""
"","image-keyboard-response","62","814210","0.0-6.0-1.18","LF","ulvf1nlewe","1536","864","de","ia04an16","null","","","","","","","","learning/Slide19.JPG","null","","","","",""
"","html-keyboard-response","63","815212","0.0-6.0-2.18","LF","ulvf1nlewe","1536","864","de","ia04an16","null","","","","learningBlock1","","","","<div style=""font-size:60px;""> </div>","null","LF","learning/Slide19.JPG","This is a wug:","",""
"","html-keyboard-response","64","816215","0.0-6.0-0.19","LF","ulvf1nlewe","1536","864","de","ia04an16","null","","","","learningBlock1","","","","This is a bim:","null","","","","",""
"","image-keyboard-response","65","816543","0.0-6.0-1.19","LF","ulvf1nlewe","1536","864","de","ia04an16","null","","","","","","","","learning/Slide20.JPG","null","","","","",""
"","html-keyboard-response","66","817545","0.0-6.0-2.19","LF","ulvf1nlewe","1536","864","de","ia04an16","null","","","","learningBlock1","","","","<div style=""font-size:60px;""> </div>","null","LF","learning/Slide20.JPG","This is a bim:","",""
"","html-keyboard-response","67","818547","0.0-6.0-0.20","LF","ulvf1nlewe","1536","864","de","ia04an16","null","","","","learningBlock1","","","","This is a dep:","null","","","","",""
"","image-keyboard-response","68","818875","0.0-6.0-1.20","LF","ulvf1nlewe","1536","864","de","ia04an16","null","","","","","","","","learning/Slide21.JPG","null","","","","",""
"","html-keyboard-response","69","819882","0.0-6.0-2.20","LF","ulvf1nlewe","1536","864","de","ia04an16","null","","","","learningBlock1","","","","<div style=""font-size:60px;""> </div>","null","LF","learning/Slide21.JPG","This is a dep:","",""
"","html-keyboard-response","70","820886","0.0-6.0-0.21","LF","ulvf1nlewe","1536","864","de","ia04an16","null","","","","learningBlock1","","","","This is a bim:","null","","","","",""
"","image-keyboard-response","71","821214","0.0-6.0-1.21","LF","ulvf1nlewe","1536","864","de","ia04an16","null","","","","","","","","learning/Slide22.JPG","null","","","","",""
"","html-keyboard-response","72","822218","0.0-6.0-2.21","LF","ulvf1nlewe","1536","864","de","ia04an16","null","","","","learningBlock1","","","","<div style=""font-size:60px;""> </div>","null","LF","learning/Slide22.JPG","This is a bim:","",""
"","html-keyboard-response","73","823221","0.0-6.0-0.22","LF","ulvf1nlewe","1536","864","de","ia04an16","null","","","","learningBlock1","","","","This is a tob:","null","","","","",""
"","image-keyboard-response","74","823547","0.0-6.0-1.22","LF","ulvf1nlewe","1536","864","de","ia04an16","null","","","","","","","","learning/Slide23.JPG","null","","","","",""
"","html-keyboard-response","75","824550","0.0-6.0-2.22","LF","ulvf1nlewe","1536","864","de","ia04an16","null","","","","learningBlock1","","","","<div style=""font-size:60px;""> </div>","null","LF","learning/Slide23.JPG","This is a tob:","",""
"","html-keyboard-response","76","825551","0.0-6.0-0.23","LF","ulvf1nlewe","1536","864","de","ia04an16","null","","","","learningBlock1","","","","This is a wug:","null","","","","",""
"","image-keyboard-response","77","825877","0.0-6.0-1.23","LF","ulvf1nlewe","1536","864","de","ia04an16","null","","","","","","","","learning/Slide24.JPG","null","","","","",""
"","html-keyboard-response","78","826883","0.0-6.0-2.23","LF","ulvf1nlewe","1536","864","de","ia04an16","null","","","","learningBlock1","","","","<div style=""font-size:60px;""> </div>","null","LF","learning/Slide24.JPG","This is a wug:","",""
"","html-keyboard-response","79","827887","0.0-6.0-0.24","LF","ulvf1nlewe","1536","864","de","ia04an16","null","","","","learningBlock1","","","","This is a dep:","null","","","","",""
"","image-keyboard-response","80","828215","0.0-6.0-1.24","LF","ulvf1nlewe","1536","864","de","ia04an16","null","","","","","","","","learning/Slide25.JPG","null","","","","",""
"","html-keyboard-response","81","829217","0.0-6.0-2.24","LF","ulvf1nlewe","1536","864","de","ia04an16","null","","","","learningBlock1","","","","<div style=""font-size:60px;""> </div>","null","LF","learning/Slide25.JPG","This is a dep:","",""
"","html-keyboard-response","82","830220","0.0-6.0-0.25","LF","ulvf1nlewe","1536","864","de","ia04an16","null","","","","learningBlock1","","","","This is a wug:","null","","","","",""
"","image-keyboard-response","83","830551","0.0-6.0-1.25","LF","ulvf1nlewe","1536","864","de","ia04an16","null","","","","","","","","learning/Slide26.JPG","null","","","","",""
"","html-keyboard-response","84","831552","0.0-6.0-2.25","LF","ulvf1nlewe","1536","864","de","ia04an16","null","","","","learningBlock1","","","","<div style=""font-size:60px;""> </div>","null","LF","learning/Slide26.JPG","This is a wug:","",""
"","html-keyboard-response","85","832555","0.0-6.0-0.26","LF","ulvf1nlewe","1536","864","de","ia04an16","null","","","","learningBlock1","","","","This is a bim:","null","","","","",""
"","image-keyboard-response","86","832884","0.0-6.0-1.26","LF","ulvf1nlewe","1536","864","de","ia04an16","null","","","","","","","","learning/Slide27.JPG","null","","","","",""
"","html-keyboard-response","87","833886","0.0-6.0-2.26","LF","ulvf1nlewe","1536","864","de","ia04an16","null","","","","learningBlock1","","","","<div style=""font-size:60px;""> </div>","null","LF","learning/Slide27.JPG","This is a bim:","",""
"","html-keyboard-response","88","834887","0.0-6.0-0.27","LF","ulvf1nlewe","1536","864","de","ia04an16","null","","","","learningBlock1","","","","This is a dep:","null","","","","",""
"","image-keyboard-response","89","835216","0.0-6.0-1.27","LF","ulvf1nlewe","1536","864","de","ia04an16","null","","","","","","","","learning/Slide28.JPG","null","","","","",""
"","html-keyboard-response","90","836219","0.0-6.0-2.27","LF","ulvf1nlewe","1536","864","de","ia04an16","null","","","","learningBlock1","","","","<div style=""font-size:60px;""> </div>","null","LF","learning/Slide28.JPG","This is a dep:","",""
"","html-keyboard-response","91","837220","0.0-6.0-0.28","LF","ulvf1nlewe","1536","864","de","ia04an16","null","","","","learningBlock1","","","","This is a tob:","null","","","","",""
"","image-keyboard-response","92","837546","0.0-6.0-1.28","LF","ulvf1nlewe","1536","864","de","ia04an16","null","","","","","","","","learning/Slide29.JPG","null","","","","",""
"","html-keyboard-response","93","838548","0.0-6.0-2.28","LF","ulvf1nlewe","1536","864","de","ia04an16","null","","","","learningBlock1","","","","<div style=""font-size:60px;""> </div>","null","LF","learning/Slide29.JPG","This is a tob:","",""
"","html-keyboard-response","94","839549","0.0-6.0-0.29","LF","ulvf1nlewe","1536","864","de","ia04an16","null","","","","learningBlock1","","","","This is a dep:","null","","","","",""
"","image-keyboard-response","95","839876","0.0-6.0-1.29","LF","ulvf1nlewe","1536","864","de","ia04an16","null","","","","","","","","learning/Slide30.JPG","null","","","","",""
"","html-keyboard-response","96","840879","0.0-6.0-2.29","LF","ulvf1nlewe","1536","864","de","ia04an16","null","","","","learningBlock1","","","","<div style=""font-size:60px;""> </div>","null","LF","learning/Slide30.JPG","This is a dep:","",""
"","html-keyboard-response","97","841883","0.0-6.0-0.30","LF","ulvf1nlewe","1536","864","de","ia04an16","null","","","","learningBlock1","","","","This is a wug:","null","","","","",""
"","image-keyboard-response","98","842212","0.0-6.0-1.30","LF","ulvf1nlewe","1536","864","de","ia04an16","null","","","","","","","","learning/Slide31.JPG","null","","","","",""
"","html-keyboard-response","99","843216","0.0-6.0-2.30","LF","ulvf1nlewe","1536","864","de","ia04an16","null","","","","learningBlock1","","","","<div style=""font-size:60px;""> </div>","null","LF","learning/Slide31.JPG","This is a wug:","",""
"","html-keyboard-response","100","844219","0.0-6.0-0.31","LF","ulvf1nlewe","1536","864","de","ia04an16","null","","","","learningBlock1","","","","This is a tob:","null","","","","",""
"","image-keyboard-response","101","844547","0.0-6.0-1.31","LF","ulvf1nlewe","1536","864","de","ia04an16","null","","","","","","","","learning/Slide32.JPG","null","","","","",""
"","html-keyboard-response","102","845548","0.0-6.0-2.31","LF","ulvf1nlewe","1536","864","de","ia04an16","null","","","","learningBlock1","","","","<div style=""font-size:60px;""> </div>","null","LF","learning/Slide32.JPG","This is a tob:","",""
"","html-keyboard-response","103","846552","0.0-6.0-0.32","LF","ulvf1nlewe","1536","864","de","ia04an16","null","","","","learningBlock1","","","","This is a bim:","null","","","","",""
"","image-keyboard-response","104","846880","0.0-6.0-1.32","LF","ulvf1nlewe","1536","864","de","ia04an16","null","","","","","","","","learning/Slide33.JPG","null","","","","",""
"","html-keyboard-response","105","847883","0.0-6.0-2.32","LF","ulvf1nlewe","1536","864","de","ia04an16","null","","","","learningBlock1","","","","<div style=""font-size:60px;""> </div>","null","LF","learning/Slide33.JPG","This is a bim:","",""
"","html-keyboard-response","106","848886","0.0-6.0-0.33","LF","ulvf1nlewe","1536","864","de","ia04an16","null","","","","learningBlock1","","","","This is a tob:","null","","","","",""
"","image-keyboard-response","107","849214","0.0-6.0-1.33","LF","ulvf1nlewe","1536","864","de","ia04an16","null","","","","","","","","learning/Slide34.JPG","null","","","","",""
"","html-keyboard-response","108","850218","0.0-6.0-2.33","LF","ulvf1nlewe","1536","864","de","ia04an16","null","","","","learningBlock1","","","","<div style=""font-size:60px;""> </div>","null","LF","learning/Slide34.JPG","This is a tob:","",""
"","html-keyboard-response","109","851221","0.0-6.0-0.34","LF","ulvf1nlewe","1536","864","de","ia04an16","null","","","","learningBlock1","","","","This is a bim:","null","","","","",""
"","image-keyboard-response","110","851550","0.0-6.0-1.34","LF","ulvf1nlewe","1536","864","de","ia04an16","null","","","","","","","","learning/Slide35.JPG","null","","","","",""
"","html-keyboard-response","111","852552","0.0-6.0-2.34","LF","ulvf1nlewe","1536","864","de","ia04an16","null","","","","learningBlock1","","","","<div style=""font-size:60px;""> </div>","null","LF","learning/Slide35.JPG","This is a bim:","",""
"","html-keyboard-response","112","853554","0.0-6.0-0.35","LF","ulvf1nlewe","1536","864","de","ia04an16","null","","","","learningBlock1","","","","This is a dep:","null","","","","",""
"","image-keyboard-response","113","853883","0.0-6.0-1.35","LF","ulvf1nlewe","1536","864","de","ia04an16","null","","","","","","","","learning/Slide36.JPG","null","","","","",""
"","html-keyboard-response","114","854887","0.0-6.0-2.35","LF","ulvf1nlewe","1536","864","de","ia04an16","null","","","","learningBlock1","","","","<div style=""font-size:60px;""> </div>","null","LF","learning/Slide36.JPG","This is a dep:","",""
"","html-keyboard-response","115","855889","0.0-6.0-0.36","LF","ulvf1nlewe","1536","864","de","ia04an16","null","","","","learningBlock1","","","","This is a tob:","null","","","","",""
"","image-keyboard-response","116","856217","0.0-6.0-1.36","LF","ulvf1nlewe","1536","864","de","ia04an16","null","","","","","","","","learning/Slide37.JPG","null","","","","",""
"","html-keyboard-response","117","857219","0.0-6.0-2.36","LF","ulvf1nlewe","1536","864","de","ia04an16","null","","","","learningBlock1","","","","<div style=""font-size:60px;""> </div>","null","LF","learning/Slide37.JPG","This is a tob:","",""
"","html-keyboard-response","118","858222","0.0-6.0-0.37","LF","ulvf1nlewe","1536","864","de","ia04an16","null","","","","learningBlock1","","","","This is a wug:","null","","","","",""
"","image-keyboard-response","119","858550","0.0-6.0-1.37","LF","ulvf1nlewe","1536","864","de","ia04an16","null","","","","","","","","learning/Slide38.JPG","null","","","","",""
"","html-keyboard-response","120","859552","0.0-6.0-2.37","LF","ulvf1nlewe","1536","864","de","ia04an16","null","","","","learningBlock1","","","","<div style=""font-size:60px;""> </div>","null","LF","learning/Slide38.JPG","This is a wug:","",""
"","html-keyboard-response","121","860555","0.0-6.0-0.38","LF","ulvf1nlewe","1536","864","de","ia04an16","null","","","","learningBlock1","","","","This is a bim:","null","","","","",""
"","image-keyboard-response","122","860883","0.0-6.0-1.38","LF","ulvf1nlewe","1536","864","de","ia04an16","null","","","","","","","","learning/Slide39.JPG","null","","","","",""
"","html-keyboard-response","123","861885","0.0-6.0-2.38","LF","ulvf1nlewe","1536","864","de","ia04an16","null","","","","learningBlock1","","","","<div style=""font-size:60px;""> </div>","null","LF","learning/Slide39.JPG","This is a bim:","",""
"","html-keyboard-response","124","862887","0.0-6.0-0.39","LF","ulvf1nlewe","1536","864","de","ia04an16","null","","","","learningBlock1","","","","This is a tob:","null","","","","",""
"","image-keyboard-response","125","863216","0.0-6.0-1.39","LF","ulvf1nlewe","1536","864","de","ia04an16","null","","","","","","","","learning/Slide40.JPG","null","","","","",""
"","html-keyboard-response","126","864219","0.0-6.0-2.39","LF","ulvf1nlewe","1536","864","de","ia04an16","null","","","","learningBlock1","","","","<div style=""font-size:60px;""> </div>","null","LF","learning/Slide40.JPG","This is a tob:","",""
"","html-keyboard-response","127","865222","0.0-6.0-0.40","LF","ulvf1nlewe","1536","864","de","ia04an16","null","","","","learningBlock1","","","","This is a bim:","null","","","","",""
"","image-keyboard-response","128","865550","0.0-6.0-1.40","LF","ulvf1nlewe","1536","864","de","ia04an16","null","","","","","","","","learning/Slide41.JPG","null","","","","",""
"","html-keyboard-response","129","866554","0.0-6.0-2.40","LF","ulvf1nlewe","1536","864","de","ia04an16","null","","","","learningBlock1","","","","<div style=""font-size:60px;""> </div>","null","LF","learning/Slide41.JPG","This is a bim:","",""
"","html-keyboard-response","130","867558","0.0-6.0-0.41","LF","ulvf1nlewe","1536","864","de","ia04an16","null","","","","learningBlock1","","","","This is a dep:","null","","","","",""
"","image-keyboard-response","131","867886","0.0-6.0-1.41","LF","ulvf1nlewe","1536","864","de","ia04an16","null","","","","","","","","learning/Slide42.JPG","null","","","","",""
"","html-keyboard-response","132","868889","0.0-6.0-2.41","LF","ulvf1nlewe","1536","864","de","ia04an16","null","","","","learningBlock1","","","","<div style=""font-size:60px;""> </div>","null","LF","learning/Slide42.JPG","This is a dep:","",""
"","html-keyboard-response","133","869895","0.0-6.0-0.42","LF","ulvf1nlewe","1536","864","de","ia04an16","null","","","","learningBlock1","","","","This is a wug:","null","","","","",""
"","image-keyboard-response","134","870225","0.0-6.0-1.42","LF","ulvf1nlewe","1536","864","de","ia04an16","null","","","","","","","","learning/Slide43.JPG","null","","","","",""
"","html-keyboard-response","135","871228","0.0-6.0-2.42","LF","ulvf1nlewe","1536","864","de","ia04an16","null","","","","learningBlock1","","","","<div style=""font-size:60px;""> </div>","null","LF","learning/Slide43.JPG","This is a wug:","",""
"","html-keyboard-response","136","872229","0.0-6.0-0.43","LF","ulvf1nlewe","1536","864","de","ia04an16","null","","","","learningBlock1","","","","This is a bim:","null","","","","",""
"","image-keyboard-response","137","872558","0.0-6.0-1.43","LF","ulvf1nlewe","1536","864","de","ia04an16","null","","","","","","","","learning/Slide44.JPG","null","","","","",""
"","html-keyboard-response","138","873562","0.0-6.0-2.43","LF","ulvf1nlewe","1536","864","de","ia04an16","null","","","","learningBlock1","","","","<div style=""font-size:60px;""> </div>","null","LF","learning/Slide44.JPG","This is a bim:","",""
"","html-keyboard-response","139","874565","0.0-6.0-0.44","LF","ulvf1nlewe","1536","864","de","ia04an16","null","","","","learningBlock1","","","","This is a wug:","null","","","","",""
"","image-keyboard-response","140","874893","0.0-6.0-1.44","LF","ulvf1nlewe","1536","864","de","ia04an16","null","","","","","","","","learning/Slide45.JPG","null","","","","",""
"","html-keyboard-response","141","875897","0.0-6.0-2.44","LF","ulvf1nlewe","1536","864","de","ia04an16","null","","","","learningBlock1","","","","<div style=""font-size:60px;""> </div>","null","LF","learning/Slide45.JPG","This is a wug:","",""
"","html-keyboard-response","142","876900","0.0-6.0-0.45","LF","ulvf1nlewe","1536","864","de","ia04an16","null","","","","learningBlock1","","","","This is a dep:","null","","","","",""
"","image-keyboard-response","143","877243","0.0-6.0-1.45","LF","ulvf1nlewe","1536","864","de","ia04an16","null","","","","","","","","learning/Slide46.JPG","null","","","","",""
"","html-keyboard-response","144","878246","0.0-6.0-2.45","LF","ulvf1nlewe","1536","864","de","ia04an16","null","","","","learningBlock1","","","","<div style=""font-size:60px;""> </div>","null","LF","learning/Slide46.JPG","This is a dep:","",""
"","html-keyboard-response","145","879249","0.0-6.0-0.46","LF","ulvf1nlewe","1536","864","de","ia04an16","null","","","","learningBlock1","","","","This is a tob:","null","","","","",""
"","image-keyboard-response","146","879577","0.0-6.0-1.46","LF","ulvf1nlewe","1536","864","de","ia04an16","null","","","","","","","","learning/Slide47.JPG","null","","","","",""
"","html-keyboard-response","147","880581","0.0-6.0-2.46","LF","ulvf1nlewe","1536","864","de","ia04an16","null","","","","learningBlock1","","","","<div style=""font-size:60px;""> </div>","null","LF","learning/Slide47.JPG","This is a tob:","",""
"","html-keyboard-response","148","881584","0.0-6.0-0.47","LF","ulvf1nlewe","1536","864","de","ia04an16","null","","","","learningBlock1","","","","This is a bim:","null","","","","",""
"","image-keyboard-response","149","881911","0.0-6.0-1.47","LF","ulvf1nlewe","1536","864","de","ia04an16","null","","","","","","","","learning/Slide48.JPG","null","","","","",""
"","html-keyboard-response","150","882914","0.0-6.0-2.47","LF","ulvf1nlewe","1536","864","de","ia04an16","null","","","","learningBlock1","","","","<div style=""font-size:60px;""> </div>","null","LF","learning/Slide48.JPG","This is a bim:","",""
"","html-keyboard-response","151","883918","0.0-6.0-0.48","LF","ulvf1nlewe","1536","864","de","ia04an16","null","","","","learningBlock1","","","","This is a dep:","null","","","","",""
"","image-keyboard-response","152","884246","0.0-6.0-1.48","LF","ulvf1nlewe","1536","864","de","ia04an16","null","","","","","","","","learning/Slide49.JPG","null","","","","",""
"","html-keyboard-response","153","885250","0.0-6.0-2.48","LF","ulvf1nlewe","1536","864","de","ia04an16","null","","","","learningBlock1","","","","<div style=""font-size:60px;""> </div>","null","LF","learning/Slide49.JPG","This is a dep:","",""
"","html-keyboard-response","154","886253","0.0-6.0-0.49","LF","ulvf1nlewe","1536","864","de","ia04an16","null","","","","learningBlock1","","","","This is a tob:","null","","","","",""
"","image-keyboard-response","155","886581","0.0-6.0-1.49","LF","ulvf1nlewe","1536","864","de","ia04an16","null","","","","","","","","learning/Slide50.JPG","null","","","","",""
"","html-keyboard-response","156","887583","0.0-6.0-2.49","LF","ulvf1nlewe","1536","864","de","ia04an16","null","","","","learningBlock1","","","","<div style=""font-size:60px;""> </div>","null","LF","learning/Slide50.JPG","This is a tob:","",""
"","html-keyboard-response","157","888586","0.0-6.0-0.50","LF","ulvf1nlewe","1536","864","de","ia04an16","null","","","","learningBlock1","","","","This is a bim:","null","","","","",""
"","image-keyboard-response","158","888918","0.0-6.0-1.50","LF","ulvf1nlewe","1536","864","de","ia04an16","null","","","","","","","","learning/Slide51.JPG","null","","","","",""
"","html-keyboard-response","159","889920","0.0-6.0-2.50","LF","ulvf1nlewe","1536","864","de","ia04an16","null","","","","learningBlock1","","","","<div style=""font-size:60px;""> </div>","null","LF","learning/Slide51.JPG","This is a bim:","",""
"","html-keyboard-response","160","890923","0.0-6.0-0.51","LF","ulvf1nlewe","1536","864","de","ia04an16","null","","","","learningBlock1","","","","This is a wug:","null","","","","",""
"","image-keyboard-response","161","891251","0.0-6.0-1.51","LF","ulvf1nlewe","1536","864","de","ia04an16","null","","","","","","","","learning/Slide52.JPG","null","","","","",""
"","html-keyboard-response","162","892254","0.0-6.0-2.51","LF","ulvf1nlewe","1536","864","de","ia04an16","null","","","","learningBlock1","","","","<div style=""font-size:60px;""> </div>","null","LF","learning/Slide52.JPG","This is a wug:","",""
"","html-keyboard-response","163","893258","0.0-6.0-0.52","LF","ulvf1nlewe","1536","864","de","ia04an16","null","","","","learningBlock1","","","","This is a tob:","null","","","","",""
"","image-keyboard-response","164","893586","0.0-6.0-1.52","LF","ulvf1nlewe","1536","864","de","ia04an16","null","","","","","","","","learning/Slide53.JPG","null","","","","",""
"","html-keyboard-response","165","894592","0.0-6.0-2.52","LF","ulvf1nlewe","1536","864","de","ia04an16","null","","","","learningBlock1","","","","<div style=""font-size:60px;""> </div>","null","LF","learning/Slide53.JPG","This is a tob:","",""
"","html-keyboard-response","166","895595","0.0-6.0-0.53","LF","ulvf1nlewe","1536","864","de","ia04an16","null","","","","learningBlock1","","","","This is a dep:","null","","","","",""
"","image-keyboard-response","167","895923","0.0-6.0-1.53","LF","ulvf1nlewe","1536","864","de","ia04an16","null","","","","","","","","learning/Slide54.JPG","null","","","","",""
"","html-keyboard-response","168","896927","0.0-6.0-2.53","LF","ulvf1nlewe","1536","864","de","ia04an16","null","","","","learningBlock1","","","","<div style=""font-size:60px;""> </div>","null","LF","learning/Slide54.JPG","This is a dep:","",""
"","html-keyboard-response","169","897930","0.0-6.0-0.54","LF","ulvf1nlewe","1536","864","de","ia04an16","null","","","","learningBlock1","","","","This is a bim:","null","","","","",""
"","image-keyboard-response","170","898260","0.0-6.0-1.54","LF","ulvf1nlewe","1536","864","de","ia04an16","null","","","","","","","","learning/Slide55.JPG","null","","","","",""
"","html-keyboard-response","171","899264","0.0-6.0-2.54","LF","ulvf1nlewe","1536","864","de","ia04an16","null","","","","learningBlock1","","","","<div style=""font-size:60px;""> </div>","null","LF","learning/Slide55.JPG","This is a bim:","",""
"","html-keyboard-response","172","900267","0.0-6.0-0.55","LF","ulvf1nlewe","1536","864","de","ia04an16","null","","","","learningBlock1","","","","This is a tob:","null","","","","",""
"","image-keyboard-response","173","900595","0.0-6.0-1.55","LF","ulvf1nlewe","1536","864","de","ia04an16","null","","","","","","","","learning/Slide56.JPG","null","","","","",""
"","html-keyboard-response","174","901599","0.0-6.0-2.55","LF","ulvf1nlewe","1536","864","de","ia04an16","null","","","","learningBlock1","","","","<div style=""font-size:60px;""> </div>","null","LF","learning/Slide56.JPG","This is a tob:","",""
"","html-keyboard-response","175","902603","0.0-6.0-0.56","LF","ulvf1nlewe","1536","864","de","ia04an16","null","","","","learningBlock1","","","","This is a dep:","null","","","","",""
"","image-keyboard-response","176","902929","0.0-6.0-1.56","LF","ulvf1nlewe","1536","864","de","ia04an16","null","","","","","","","","learning/Slide57.JPG","null","","","","",""
"","html-keyboard-response","177","903934","0.0-6.0-2.56","LF","ulvf1nlewe","1536","864","de","ia04an16","null","","","","learningBlock1","","","","<div style=""font-size:60px;""> </div>","null","LF","learning/Slide57.JPG","This is a dep:","",""
"","html-keyboard-response","178","904938","0.0-6.0-0.57","LF","ulvf1nlewe","1536","864","de","ia04an16","null","","","","learningBlock1","","","","This is a wug:","null","","","","",""
"","image-keyboard-response","179","905266","0.0-6.0-1.57","LF","ulvf1nlewe","1536","864","de","ia04an16","null","","","","","","","","learning/Slide58.JPG","null","","","","",""
"","html-keyboard-response","180","906269","0.0-6.0-2.57","LF","ulvf1nlewe","1536","864","de","ia04an16","null","","","","learningBlock1","","","","<div style=""font-size:60px;""> </div>","null","LF","learning/Slide58.JPG","This is a wug:","",""
"","html-keyboard-response","181","907272","0.0-6.0-0.58","LF","ulvf1nlewe","1536","864","de","ia04an16","null","","","","learningBlock1","","","","This is a dep:","null","","","","",""
"","image-keyboard-response","182","907606","0.0-6.0-1.58","LF","ulvf1nlewe","1536","864","de","ia04an16","null","","","","","","","","learning/Slide59.JPG","null","","","","",""
"","html-keyboard-response","183","908610","0.0-6.0-2.58","LF","ulvf1nlewe","1536","864","de","ia04an16","null","","","","learningBlock1","","","","<div style=""font-size:60px;""> </div>","null","LF","learning/Slide59.JPG","This is a dep:","",""
"","html-keyboard-response","184","909612","0.0-6.0-0.59","LF","ulvf1nlewe","1536","864","de","ia04an16","null","","","","learningBlock1","","","","This is a wug:","null","","","","",""
"","image-keyboard-response","185","909939","0.0-6.0-1.59","LF","ulvf1nlewe","1536","864","de","ia04an16","null","","","","","","","","learning/Slide60.JPG","null","","","","",""
"","html-keyboard-response","186","910941","0.0-6.0-2.59","LF","ulvf1nlewe","1536","864","de","ia04an16","null","","","","learningBlock1","","","","<div style=""font-size:60px;""> </div>","null","LF","learning/Slide60.JPG","This is a wug:","",""
"","html-keyboard-response","187","911945","0.0-6.0-0.60","LF","ulvf1nlewe","1536","864","de","ia04an16","null","","","","learningBlock1","","","","This is a bim:","null","","","","",""
"","image-keyboard-response","188","912274","0.0-6.0-1.60","LF","ulvf1nlewe","1536","864","de","ia04an16","null","","","","","","","","learning/Slide61.JPG","null","","","","",""
"","html-keyboard-response","189","913277","0.0-6.0-2.60","LF","ulvf1nlewe","1536","864","de","ia04an16","null","","","","learningBlock1","","","","<div style=""font-size:60px;""> </div>","null","LF","learning/Slide61.JPG","This is a bim:","",""
"","html-keyboard-response","190","914280","0.0-6.0-0.61","LF","ulvf1nlewe","1536","864","de","ia04an16","null","","","","learningBlock1","","","","This is a dep:","null","","","","",""
"","image-keyboard-response","191","914609","0.0-6.0-1.61","LF","ulvf1nlewe","1536","864","de","ia04an16","null","","","","","","","","learning/Slide62.JPG","null","","","","",""
"","html-keyboard-response","192","915614","0.0-6.0-2.61","LF","ulvf1nlewe","1536","864","de","ia04an16","null","","","","learningBlock1","","","","<div style=""font-size:60px;""> </div>","null","LF","learning/Slide62.JPG","This is a dep:","",""
"","html-keyboard-response","193","916616","0.0-6.0-0.62","LF","ulvf1nlewe","1536","864","de","ia04an16","null","","","","learningBlock1","","","","This is a bim:","null","","","","",""
"","image-keyboard-response","194","916944","0.0-6.0-1.62","LF","ulvf1nlewe","1536","864","de","ia04an16","null","","","","","","","","learning/Slide63.JPG","null","","","","",""
"","html-keyboard-response","195","917946","0.0-6.0-2.62","LF","ulvf1nlewe","1536","864","de","ia04an16","null","","","","learningBlock1","","","","<div style=""font-size:60px;""> </div>","null","LF","learning/Slide63.JPG","This is a bim:","",""
"","html-keyboard-response","196","918948","0.0-6.0-0.63","LF","ulvf1nlewe","1536","864","de","ia04an16","null","","","","learningBlock1","","","","This is a tob:","null","","","","",""
"","image-keyboard-response","197","919276","0.0-6.0-1.63","LF","ulvf1nlewe","1536","864","de","ia04an16","null","","","","","","","","learning/Slide64.JPG","null","","","","",""
"","html-keyboard-response","198","920278","0.0-6.0-2.63","LF","ulvf1nlewe","1536","864","de","ia04an16","null","","","","learningBlock1","","","","<div style=""font-size:60px;""> </div>","null","LF","learning/Slide64.JPG","This is a tob:","",""
"","html-keyboard-response","199","921280","0.0-6.0-0.64","LF","ulvf1nlewe","1536","864","de","ia04an16","null","","","","learningBlock1","","","","This is a wug:","null","","","","",""
"","image-keyboard-response","200","921609","0.0-6.0-1.64","LF","ulvf1nlewe","1536","864","de","ia04an16","null","","","","","","","","learning/Slide65.JPG","null","","","","",""
"","html-keyboard-response","201","922611","0.0-6.0-2.64","LF","ulvf1nlewe","1536","864","de","ia04an16","null","","","","learningBlock1","","","","<div style=""font-size:60px;""> </div>","null","LF","learning/Slide65.JPG","This is a wug:","",""
"","html-keyboard-response","202","923613","0.0-6.0-0.65","LF","ulvf1nlewe","1536","864","de","ia04an16","null","","","","learningBlock1","","","","This is a dep:","null","","","","",""
"","image-keyboard-response","203","923941","0.0-6.0-1.65","LF","ulvf1nlewe","1536","864","de","ia04an16","null","","","","","","","","learning/Slide66.JPG","null","","","","",""
"","html-keyboard-response","204","924942","0.0-6.0-2.65","LF","ulvf1nlewe","1536","864","de","ia04an16","null","","","","learningBlock1","","","","<div style=""font-size:60px;""> </div>","null","LF","learning/Slide66.JPG","This is a dep:","",""
"","html-keyboard-response","205","925944","0.0-6.0-0.66","LF","ulvf1nlewe","1536","864","de","ia04an16","null","","","","learningBlock1","","","","This is a tob:","null","","","","",""
"","image-keyboard-response","206","926273","0.0-6.0-1.66","LF","ulvf1nlewe","1536","864","de","ia04an16","null","","","","","","","","learning/Slide67.JPG","null","","","","",""
"","html-keyboard-response","207","927276","0.0-6.0-2.66","LF","ulvf1nlewe","1536","864","de","ia04an16","null","","","","learningBlock1","","","","<div style=""font-size:60px;""> </div>","null","LF","learning/Slide67.JPG","This is a tob:","",""
"","html-keyboard-response","208","928280","0.0-6.0-0.67","LF","ulvf1nlewe","1536","864","de","ia04an16","null","","","","learningBlock1","","","","This is a wug:","null","","","","",""
"","image-keyboard-response","209","928608","0.0-6.0-1.67","LF","ulvf1nlewe","1536","864","de","ia04an16","null","","","","","","","","learning/Slide68.JPG","null","","","","",""
"","html-keyboard-response","210","929618","0.0-6.0-2.67","LF","ulvf1nlewe","1536","864","de","ia04an16","null","","","","learningBlock1","","","","<div style=""font-size:60px;""> </div>","null","LF","learning/Slide68.JPG","This is a wug:","",""
"","html-keyboard-response","211","930620","0.0-6.0-0.68","LF","ulvf1nlewe","1536","864","de","ia04an16","null","","","","learningBlock1","","","","This is a tob:","null","","","","",""
"","image-keyboard-response","212","930948","0.0-6.0-1.68","LF","ulvf1nlewe","1536","864","de","ia04an16","null","","","","","","","","learning/Slide69.JPG","null","","","","",""
"","html-keyboard-response","213","931953","0.0-6.0-2.68","LF","ulvf1nlewe","1536","864","de","ia04an16","null","","","","learningBlock1","","","","<div style=""font-size:60px;""> </div>","null","LF","learning/Slide69.JPG","This is a tob:","",""
"","html-keyboard-response","214","932956","0.0-6.0-0.69","LF","ulvf1nlewe","1536","864","de","ia04an16","null","","","","learningBlock1","","","","This is a dep:","null","","","","",""
"","image-keyboard-response","215","933284","0.0-6.0-1.69","LF","ulvf1nlewe","1536","864","de","ia04an16","null","","","","","","","","learning/Slide70.JPG","null","","","","",""
"","html-keyboard-response","216","934287","0.0-6.0-2.69","LF","ulvf1nlewe","1536","864","de","ia04an16","null","","","","learningBlock1","","","","<div style=""font-size:60px;""> </div>","null","LF","learning/Slide70.JPG","This is a dep:","",""
"","html-keyboard-response","217","935290","0.0-6.0-0.70","LF","ulvf1nlewe","1536","864","de","ia04an16","null","","","","learningBlock1","","","","This is a wug:","null","","","","",""
"","image-keyboard-response","218","935619","0.0-6.0-1.70","LF","ulvf1nlewe","1536","864","de","ia04an16","null","","","","","","","","learning/Slide71.JPG","null","","","","",""
"","html-keyboard-response","219","936620","0.0-6.0-2.70","LF","ulvf1nlewe","1536","864","de","ia04an16","null","","","","learningBlock1","","","","<div style=""font-size:60px;""> </div>","null","LF","learning/Slide71.JPG","This is a wug:","",""
"","html-keyboard-response","220","937622","0.0-6.0-0.71","LF","ulvf1nlewe","1536","864","de","ia04an16","null","","","","learningBlock1","","","","This is a bim:","null","","","","",""
"","image-keyboard-response","221","937953","0.0-6.0-1.71","LF","ulvf1nlewe","1536","864","de","ia04an16","null","","","","","","","","learning/Slide72.JPG","null","","","","",""
"","html-keyboard-response","222","938955","0.0-6.0-2.71","LF","ulvf1nlewe","1536","864","de","ia04an16","null","","","","learningBlock1","","","","<div style=""font-size:60px;""> </div>","null","LF","learning/Slide72.JPG","This is a bim:","",""
"","html-keyboard-response","223","939958","0.0-6.0-0.72","LF","ulvf1nlewe","1536","864","de","ia04an16","null","","","","learningBlock1","","","","This is a wug:","null","","","","",""
"","image-keyboard-response","224","940287","0.0-6.0-1.72","LF","ulvf1nlewe","1536","864","de","ia04an16","null","","","","","","","","learning/Slide73.JPG","null","","","","",""
"","html-keyboard-response","225","941290","0.0-6.0-2.72","LF","ulvf1nlewe","1536","864","de","ia04an16","null","","","","learningBlock1","","","","<div style=""font-size:60px;""> </div>","null","LF","learning/Slide73.JPG","This is a wug:","",""
"","html-keyboard-response","226","942294","0.0-6.0-0.73","LF","ulvf1nlewe","1536","864","de","ia04an16","null","","","","learningBlock1","","","","This is a dep:","null","","","","",""
"","image-keyboard-response","227","942623","0.0-6.0-1.73","LF","ulvf1nlewe","1536","864","de","ia04an16","null","","","","","","","","learning/Slide74.JPG","null","","","","",""
"","html-keyboard-response","228","943626","0.0-6.0-2.73","LF","ulvf1nlewe","1536","864","de","ia04an16","null","","","","learningBlock1","","","","<div style=""font-size:60px;""> </div>","null","LF","learning/Slide74.JPG","This is a dep:","",""
"","html-keyboard-response","229","944629","0.0-6.0-0.74","LF","ulvf1nlewe","1536","864","de","ia04an16","null","","","","learningBlock1","","","","This is a tob:","null","","","","",""
"","image-keyboard-response","230","944959","0.0-6.0-1.74","LF","ulvf1nlewe","1536","864","de","ia04an16","null","","","","","","","","learning/Slide75.JPG","null","","","","",""
"","html-keyboard-response","231","945963","0.0-6.0-2.74","LF","ulvf1nlewe","1536","864","de","ia04an16","null","","","","learningBlock1","","","","<div style=""font-size:60px;""> </div>","null","LF","learning/Slide75.JPG","This is a tob:","",""
"","html-keyboard-response","232","946967","0.0-6.0-0.75","LF","ulvf1nlewe","1536","864","de","ia04an16","null","","","","learningBlock1","","","","This is a bim:","null","","","","",""
"","image-keyboard-response","233","947295","0.0-6.0-1.75","LF","ulvf1nlewe","1536","864","de","ia04an16","null","","","","","","","","learning/Slide76.JPG","null","","","","",""
"","html-keyboard-response","234","948297","0.0-6.0-2.75","LF","ulvf1nlewe","1536","864","de","ia04an16","null","","","","learningBlock1","","","","<div style=""font-size:60px;""> </div>","null","LF","learning/Slide76.JPG","This is a bim:","",""
"","html-keyboard-response","235","949298","0.0-6.0-0.76","LF","ulvf1nlewe","1536","864","de","ia04an16","null","","","","learningBlock1","","","","This is a tob:","null","","","","",""
"","image-keyboard-response","236","949628","0.0-6.0-1.76","LF","ulvf1nlewe","1536","864","de","ia04an16","null","","","","","","","","learning/Slide77.JPG","null","","","","",""
"","html-keyboard-response","237","950630","0.0-6.0-2.76","LF","ulvf1nlewe","1536","864","de","ia04an16","null","","","","learningBlock1","","","","<div style=""font-size:60px;""> </div>","null","LF","learning/Slide77.JPG","This is a tob:","",""
"","html-keyboard-response","238","951632","0.0-6.0-0.77","LF","ulvf1nlewe","1536","864","de","ia04an16","null","","","","learningBlock1","","","","This is a wug:","null","","","","",""
"","image-keyboard-response","239","951959","0.0-6.0-1.77","LF","ulvf1nlewe","1536","864","de","ia04an16","null","","","","","","","","learning/Slide78.JPG","null","","","","",""
"","html-keyboard-response","240","952960","0.0-6.0-2.77","LF","ulvf1nlewe","1536","864","de","ia04an16","null","","","","learningBlock1","","","","<div style=""font-size:60px;""> </div>","null","LF","learning/Slide78.JPG","This is a wug:","",""
"","html-keyboard-response","241","953963","0.0-6.0-0.78","LF","ulvf1nlewe","1536","864","de","ia04an16","null","","","","learningBlock1","","","","This is a bim:","null","","","","",""
"","image-keyboard-response","242","954291","0.0-6.0-1.78","LF","ulvf1nlewe","1536","864","de","ia04an16","null","","","","","","","","learning/Slide79.JPG","null","","","","",""
"","html-keyboard-response","243","955292","0.0-6.0-2.78","LF","ulvf1nlewe","1536","864","de","ia04an16","null","","","","learningBlock1","","","","<div style=""font-size:60px;""> </div>","null","LF","learning/Slide79.JPG","This is a bim:","",""
"","html-keyboard-response","244","956294","0.0-6.0-0.79","LF","ulvf1nlewe","1536","864","de","ia04an16","null","","","","learningBlock1","","","","This is a tob:","null","","","","",""
"","image-keyboard-response","245","956623","0.0-6.0-1.79","LF","ulvf1nlewe","1536","864","de","ia04an16","null","","","","","","","","learning/Slide80.JPG","null","","","","",""
"","html-keyboard-response","246","957624","0.0-6.0-2.79","LF","ulvf1nlewe","1536","864","de","ia04an16","null","","","","learningBlock1","","","","<div style=""font-size:60px;""> </div>","null","LF","learning/Slide80.JPG","This is a tob:","",""
"","instructions","247","985558","0.0-7.0","LF","ulvf1nlewe","1536","864","de","ia04an16","NA","","","[{""page_index"":0,""viewing_time"":27931.865000166}]","instructions","","","","","","","","","",""
"","html-keyboard-response","248","986561","0.0-8.0-0.0","LF","ulvf1nlewe","1536","864","de","ia04an16","null","","","","learningBlock2","","","","This is a wug:","null","","","","",""
"","image-keyboard-response","249","986890","0.0-8.0-1.0","LF","ulvf1nlewe","1536","864","de","ia04an16","null","","","","","","","","learning/Slide81.JPG","null","","","","",""
"","html-keyboard-response","250","987891","0.0-8.0-2.0","LF","ulvf1nlewe","1536","864","de","ia04an16","null","","","","learningBlock2","","","","<div style=""font-size:60px;""> </div>","null","LF","learning/Slide81.JPG","This is a wug:","",""
"","html-keyboard-response","251","988894","0.0-8.0-0.1","LF","ulvf1nlewe","1536","864","de","ia04an16","null","","","","learningBlock2","","","","This is a bim:","null","","","","",""
"","image-keyboard-response","252","989223","0.0-8.0-1.1","LF","ulvf1nlewe","1536","864","de","ia04an16","null","","","","","","","","learning/Slide82.JPG","null","","","","",""
"","html-keyboard-response","253","990226","0.0-8.0-2.1","LF","ulvf1nlewe","1536","864","de","ia04an16","null","","","","learningBlock2","","","","<div style=""font-size:60px;""> </div>","null","LF","learning/Slide82.JPG","This is a bim:","",""
"","html-keyboard-response","254","991228","0.0-8.0-0.2","LF","ulvf1nlewe","1536","864","de","ia04an16","null","","","","learningBlock2","","","","This is a wug:","null","","","","",""
"","image-keyboard-response","255","991556","0.0-8.0-1.2","LF","ulvf1nlewe","1536","864","de","ia04an16","null","","","","","","","","learning/Slide83.JPG","null","","","","",""
"","html-keyboard-response","256","992558","0.0-8.0-2.2","LF","ulvf1nlewe","1536","864","de","ia04an16","null","","","","learningBlock2","","","","<div style=""font-size:60px;""> </div>","null","LF","learning/Slide83.JPG","This is a wug:","",""
"","html-keyboard-response","257","993561","0.0-8.0-0.3","LF","ulvf1nlewe","1536","864","de","ia04an16","null","","","","learningBlock2","","","","This is a dep:","null","","","","",""
"","image-keyboard-response","258","993895","0.0-8.0-1.3","LF","ulvf1nlewe","1536","864","de","ia04an16","null","","","","","","","","learning/Slide84.JPG","null","","","","",""
"","html-keyboard-response","259","994899","0.0-8.0-2.3","LF","ulvf1nlewe","1536","864","de","ia04an16","null","","","","learningBlock2","","","","<div style=""font-size:60px;""> </div>","null","LF","learning/Slide84.JPG","This is a dep:","",""
"","html-keyboard-response","260","995904","0.0-8.0-0.4","LF","ulvf1nlewe","1536","864","de","ia04an16","null","","","","learningBlock2","","","","This is a bim:","null","","","","",""
"","image-keyboard-response","261","996234","0.0-8.0-1.4","LF","ulvf1nlewe","1536","864","de","ia04an16","null","","","","","","","","learning/Slide85.JPG","null","","","","",""
"","html-keyboard-response","262","997238","0.0-8.0-2.4","LF","ulvf1nlewe","1536","864","de","ia04an16","null","","","","learningBlock2","","","","<div style=""font-size:60px;""> </div>","null","LF","learning/Slide85.JPG","This is a bim:","",""
"","html-keyboard-response","263","998241","0.0-8.0-0.5","LF","ulvf1nlewe","1536","864","de","ia04an16","null","","","","learningBlock2","","","","This is a tob:","null","","","","",""
"","image-keyboard-response","264","998571","0.0-8.0-1.5","LF","ulvf1nlewe","1536","864","de","ia04an16","null","","","","","","","","learning/Slide86.JPG","null","","","","",""
"","html-keyboard-response","265","999574","0.0-8.0-2.5","LF","ulvf1nlewe","1536","864","de","ia04an16","null","","","","learningBlock2","","","","<div style=""font-size:60px;""> </div>","null","LF","learning/Slide86.JPG","This is a tob:","",""
"","html-keyboard-response","266","1000577","0.0-8.0-0.6","LF","ulvf1nlewe","1536","864","de","ia04an16","null","","","","learningBlock2","","","","This is a wug:","null","","","","",""
"","image-keyboard-response","267","1000906","0.0-8.0-1.6","LF","ulvf1nlewe","1536","864","de","ia04an16","null","","","","","","","","learning/Slide87.JPG","null","","","","",""
"","html-keyboard-response","268","1001910","0.0-8.0-2.6","LF","ulvf1nlewe","1536","864","de","ia04an16","null","","","","learningBlock2","","","","<div style=""font-size:60px;""> </div>","null","LF","learning/Slide87.JPG","This is a wug:","",""
"","html-keyboard-response","269","1002914","0.0-8.0-0.7","LF","ulvf1nlewe","1536","864","de","ia04an16","null","","","","learningBlock2","","","","This is a tob:","null","","","","",""
"","image-keyboard-response","270","1003244","0.0-8.0-1.7","LF","ulvf1nlewe","1536","864","de","ia04an16","null","","","","","","","","learning/Slide88.JPG","null","","","","",""
"","html-keyboard-response","271","1004247","0.0-8.0-2.7","LF","ulvf1nlewe","1536","864","de","ia04an16","null","","","","learningBlock2","","","","<div style=""font-size:60px;""> </div>","null","LF","learning/Slide88.JPG","This is a tob:","",""
"","html-keyboard-response","272","1005250","0.0-8.0-0.8","LF","ulvf1nlewe","1536","864","de","ia04an16","null","","","","learningBlock2","","","","This is a bim:","null","","","","",""
"","image-keyboard-response","273","1005589","0.0-8.0-1.8","LF","ulvf1nlewe","1536","864","de","ia04an16","null","","","","","","","","learning/Slide89.JPG","null","","","","",""
"","html-keyboard-response","274","1006593","0.0-8.0-2.8","LF","ulvf1nlewe","1536","864","de","ia04an16","null","","","","learningBlock2","","","","<div style=""font-size:60px;""> </div>","null","LF","learning/Slide89.JPG","This is a bim:","",""
"","html-keyboard-response","275","1007595","0.0-8.0-0.9","LF","ulvf1nlewe","1536","864","de","ia04an16","null","","","","learningBlock2","","","","This is a dep:","null","","","","",""
"","image-keyboard-response","276","1007924","0.0-8.0-1.9","LF","ulvf1nlewe","1536","864","de","ia04an16","null","","","","","","","","learning/Slide90.JPG","null","","","","",""
"","html-keyboard-response","277","1008927","0.0-8.0-2.9","LF","ulvf1nlewe","1536","864","de","ia04an16","null","","","","learningBlock2","","","","<div style=""font-size:60px;""> </div>","null","LF","learning/Slide90.JPG","This is a dep:","",""
"","html-keyboard-response","278","1009931","0.0-8.0-0.10","LF","ulvf1nlewe","1536","864","de","ia04an16","null","","","","learningBlock2","","","","This is a wug:","null","","","","",""
"","image-keyboard-response","279","1010258","0.0-8.0-1.10","LF","ulvf1nlewe","1536","864","de","ia04an16","null","","","","","","","","learning/Slide91.JPG","null","","","","",""
"","html-keyboard-response","280","1011262","0.0-8.0-2.10","LF","ulvf1nlewe","1536","864","de","ia04an16","null","","","","learningBlock2","","","","<div style=""font-size:60px;""> </div>","null","LF","learning/Slide91.JPG","This is a wug:","",""
"","html-keyboard-response","281","1012266","0.0-8.0-0.11","LF","ulvf1nlewe","1536","864","de","ia04an16","null","","","","learningBlock2","","","","This is a tob:","null","","","","",""
"","image-keyboard-response","282","1012594","0.0-8.0-1.11","LF","ulvf1nlewe","1536","864","de","ia04an16","null","","","","","","","","learning/Slide92.JPG","null","","","","",""
"","html-keyboard-response","283","1013596","0.0-8.0-2.11","LF","ulvf1nlewe","1536","864","de","ia04an16","null","","","","learningBlock2","","","","<div style=""font-size:60px;""> </div>","null","LF","learning/Slide92.JPG","This is a tob:","",""
"","html-keyboard-response","284","1014599","0.0-8.0-0.12","LF","ulvf1nlewe","1536","864","de","ia04an16","null","","","","learningBlock2","","","","This is a bim:","null","","","","",""
"","image-keyboard-response","285","1014928","0.0-8.0-1.12","LF","ulvf1nlewe","1536","864","de","ia04an16","null","","","","","","","","learning/Slide93.JPG","null","","","","",""
"","html-keyboard-response","286","1015931","0.0-8.0-2.12","LF","ulvf1nlewe","1536","864","de","ia04an16","null","","","","learningBlock2","","","","<div style=""font-size:60px;""> </div>","null","LF","learning/Slide93.JPG","This is a bim:","",""
"","html-keyboard-response","287","1016934","0.0-8.0-0.13","LF","ulvf1nlewe","1536","864","de","ia04an16","null","","","","learningBlock2","","","","This is a tob:","null","","","","",""
"","image-keyboard-response","288","1017261","0.0-8.0-1.13","LF","ulvf1nlewe","1536","864","de","ia04an16","null","","","","","","","","learning/Slide94.JPG","null","","","","",""
"","html-keyboard-response","289","1018264","0.0-8.0-2.13","LF","ulvf1nlewe","1536","864","de","ia04an16","null","","","","learningBlock2","","","","<div style=""font-size:60px;""> </div>","null","LF","learning/Slide94.JPG","This is a tob:","",""
"","html-keyboard-response","290","1019265","0.0-8.0-0.14","LF","ulvf1nlewe","1536","864","de","ia04an16","null","","","","learningBlock2","","","","This is a wug:","null","","","","",""
"","image-keyboard-response","291","1019594","0.0-8.0-1.14","LF","ulvf1nlewe","1536","864","de","ia04an16","null","","","","","","","","learning/Slide95.JPG","null","","","","",""
"","html-keyboard-response","292","1020595","0.0-8.0-2.14","LF","ulvf1nlewe","1536","864","de","ia04an16","null","","","","learningBlock2","","","","<div style=""font-size:60px;""> </div>","null","LF","learning/Slide95.JPG","This is a wug:","",""
"","html-keyboard-response","293","1021597","0.0-8.0-0.15","LF","ulvf1nlewe","1536","864","de","ia04an16","null","","","","learningBlock2","","","","This is a tob:","null","","","","",""
"","image-keyboard-response","294","1021926","0.0-8.0-1.15","LF","ulvf1nlewe","1536","864","de","ia04an16","null","","","","","","","","learning/Slide96.JPG","null","","","","",""
"","html-keyboard-response","295","1022929","0.0-8.0-2.15","LF","ulvf1nlewe","1536","864","de","ia04an16","null","","","","learningBlock2","","","","<div style=""font-size:60px;""> </div>","null","LF","learning/Slide96.JPG","This is a tob:","",""
"","html-keyboard-response","296","1023930","0.0-8.0-0.16","LF","ulvf1nlewe","1536","864","de","ia04an16","null","","","","learningBlock2","","","","This is a dep:","null","","","","",""
"","image-keyboard-response","297","1024260","0.0-8.0-1.16","LF","ulvf1nlewe","1536","864","de","ia04an16","null","","","","","","","","learning/Slide97.JPG","null","","","","",""
"","html-keyboard-response","298","1025270","0.0-8.0-2.16","LF","ulvf1nlewe","1536","864","de","ia04an16","null","","","","learningBlock2","","","","<div style=""font-size:60px;""> </div>","null","LF","learning/Slide97.JPG","This is a dep:","",""
"","html-keyboard-response","299","1026273","0.0-8.0-0.17","LF","ulvf1nlewe","1536","864","de","ia04an16","null","","","","learningBlock2","","","","This is a bim:","null","","","","",""
"","image-keyboard-response","300","1026602","0.0-8.0-1.17","LF","ulvf1nlewe","1536","864","de","ia04an16","null","","","","","","","","learning/Slide98.JPG","null","","","","",""
"","html-keyboard-response","301","1027606","0.0-8.0-2.17","LF","ulvf1nlewe","1536","864","de","ia04an16","null","","","","learningBlock2","","","","<div style=""font-size:60px;""> </div>","null","LF","learning/Slide98.JPG","This is a bim:","",""
"","html-keyboard-response","302","1028609","0.0-8.0-0.18","LF","ulvf1nlewe","1536","864","de","ia04an16","null","","","","learningBlock2","","","","This is a dep:","null","","","","",""
"","image-keyboard-response","303","1028938","0.0-8.0-1.18","LF","ulvf1nlewe","1536","864","de","ia04an16","null","","","","","","","","learning/Slide99.JPG","null","","","","",""
"","html-keyboard-response","304","1029940","0.0-8.0-2.18","LF","ulvf1nlewe","1536","864","de","ia04an16","null","","","","learningBlock2","","","","<div style=""font-size:60px;""> </div>","null","LF","learning/Slide99.JPG","This is a dep:","",""
"","html-keyboard-response","305","1030943","0.0-8.0-0.19","LF","ulvf1nlewe","1536","864","de","ia04an16","null","","","","learningBlock2","","","","This is a bim:","null","","","","",""
"","image-keyboard-response","306","1031270","0.0-8.0-1.19","LF","ulvf1nlewe","1536","864","de","ia04an16","null","","","","","","","","learning/Slide100.JPG","null","","","","",""
"","html-keyboard-response","307","1032274","0.0-8.0-2.19","LF","ulvf1nlewe","1536","864","de","ia04an16","null","","","","learningBlock2","","","","<div style=""font-size:60px;""> </div>","null","LF","learning/Slide100.JPG","This is a bim:","",""
"","html-keyboard-response","308","1033277","0.0-8.0-0.20","LF","ulvf1nlewe","1536","864","de","ia04an16","null","","","","learningBlock2","","","","This is a tob:","null","","","","",""
"","image-keyboard-response","309","1033605","0.0-8.0-1.20","LF","ulvf1nlewe","1536","864","de","ia04an16","null","","","","","","","","learning/Slide101.JPG","null","","","","",""
"","html-keyboard-response","310","1034609","0.0-8.0-2.20","LF","ulvf1nlewe","1536","864","de","ia04an16","null","","","","learningBlock2","","","","<div style=""font-size:60px;""> </div>","null","LF","learning/Slide101.JPG","This is a tob:","",""
"","html-keyboard-response","311","1035612","0.0-8.0-0.21","LF","ulvf1nlewe","1536","864","de","ia04an16","null","","","","learningBlock2","","","","This is a bim:","null","","","","",""
"","image-keyboard-response","312","1035941","0.0-8.0-1.21","LF","ulvf1nlewe","1536","864","de","ia04an16","null","","","","","","","","learning/Slide102.JPG","null","","","","",""
"","html-keyboard-response","313","1036945","0.0-8.0-2.21","LF","ulvf1nlewe","1536","864","de","ia04an16","null","","","","learningBlock2","","","","<div style=""font-size:60px;""> </div>","null","LF","learning/Slide102.JPG","This is a bim:","",""
"","html-keyboard-response","314","1037949","0.0-8.0-0.22","LF","ulvf1nlewe","1536","864","de","ia04an16","null","","","","learningBlock2","","","","This is a dep:","null","","","","",""
"","image-keyboard-response","315","1038278","0.0-8.0-1.22","LF","ulvf1nlewe","1536","864","de","ia04an16","null","","","","","","","","learning/Slide103.JPG","null","","","","",""
"","html-keyboard-response","316","1039281","0.0-8.0-2.22","LF","ulvf1nlewe","1536","864","de","ia04an16","null","","","","learningBlock2","","","","<div style=""font-size:60px;""> </div>","null","LF","learning/Slide103.JPG","This is a dep:","",""
"","html-keyboard-response","317","1040286","0.0-8.0-0.23","LF","ulvf1nlewe","1536","864","de","ia04an16","null","","","","learningBlock2","","","","This is a tob:","null","","","","",""
"","image-keyboard-response","318","1040615","0.0-8.0-1.23","LF","ulvf1nlewe","1536","864","de","ia04an16","null","","","","","","","","learning/Slide104.JPG","null","","","","",""
"","html-keyboard-response","319","1041618","0.0-8.0-2.23","LF","ulvf1nlewe","1536","864","de","ia04an16","null","","","","learningBlock2","","","","<div style=""font-size:60px;""> </div>","null","LF","learning/Slide104.JPG","This is a tob:","",""
"","html-keyboard-response","320","1042623","0.0-8.0-0.24","LF","ulvf1nlewe","1536","864","de","ia04an16","null","","","","learningBlock2","","","","This is a dep:","null","","","","",""
"","image-keyboard-response","321","1042951","0.0-8.0-1.24","LF","ulvf1nlewe","1536","864","de","ia04an16","null","","","","","","","","learning/Slide105.JPG","null","","","","",""
"","html-keyboard-response","322","1043953","0.0-8.0-2.24","LF","ulvf1nlewe","1536","864","de","ia04an16","null","","","","learningBlock2","","","","<div style=""font-size:60px;""> </div>","null","LF","learning/Slide105.JPG","This is a dep:","",""
"","html-keyboard-response","323","1044956","0.0-8.0-0.25","LF","ulvf1nlewe","1536","864","de","ia04an16","null","","","","learningBlock2","","","","This is a wug:","null","","","","",""
"","image-keyboard-response","324","1045285","0.0-8.0-1.25","LF","ulvf1nlewe","1536","864","de","ia04an16","null","","","","","","","","learning/Slide106.JPG","null","","","","",""
"","html-keyboard-response","325","1046287","0.0-8.0-2.25","LF","ulvf1nlewe","1536","864","de","ia04an16","null","","","","learningBlock2","","","","<div style=""font-size:60px;""> </div>","null","LF","learning/Slide106.JPG","This is a wug:","",""
"","html-keyboard-response","326","1047288","0.0-8.0-0.26","LF","ulvf1nlewe","1536","864","de","ia04an16","null","","","","learningBlock2","","","","This is a bim:","null","","","","",""
"","image-keyboard-response","327","1047616","0.0-8.0-1.26","LF","ulvf1nlewe","1536","864","de","ia04an16","null","","","","","","","","learning/Slide107.JPG","null","","","","",""
"","html-keyboard-response","328","1048620","0.0-8.0-2.26","LF","ulvf1nlewe","1536","864","de","ia04an16","null","","","","learningBlock2","","","","<div style=""font-size:60px;""> </div>","null","LF","learning/Slide107.JPG","This is a bim:","",""
"","html-keyboard-response","329","1049623","0.0-8.0-0.27","LF","ulvf1nlewe","1536","864","de","ia04an16","null","","","","learningBlock2","","","","This is a dep:","null","","","","",""
"","image-keyboard-response","330","1049953","0.0-8.0-1.27","LF","ulvf1nlewe","1536","864","de","ia04an16","null","","","","","","","","learning/Slide108.JPG","null","","","","",""
"","html-keyboard-response","331","1050957","0.0-8.0-2.27","LF","ulvf1nlewe","1536","864","de","ia04an16","null","","","","learningBlock2","","","","<div style=""font-size:60px;""> </div>","null","LF","learning/Slide108.JPG","This is a dep:","",""
"","html-keyboard-response","332","1051961","0.0-8.0-0.28","LF","ulvf1nlewe","1536","864","de","ia04an16","null","","","","learningBlock2","","","","This is a wug:","null","","","","",""
"","image-keyboard-response","333","1052290","0.0-8.0-1.28","LF","ulvf1nlewe","1536","864","de","ia04an16","null","","","","","","","","learning/Slide109.JPG","null","","","","",""
"","html-keyboard-response","334","1053296","0.0-8.0-2.28","LF","ulvf1nlewe","1536","864","de","ia04an16","null","","","","learningBlock2","","","","<div style=""font-size:60px;""> </div>","null","LF","learning/Slide109.JPG","This is a wug:","",""
"","html-keyboard-response","335","1054300","0.0-8.0-0.29","LF","ulvf1nlewe","1536","864","de","ia04an16","null","","","","learningBlock2","","","","This is a bim:","null","","","","",""
"","image-keyboard-response","336","1054627","0.0-8.0-1.29","LF","ulvf1nlewe","1536","864","de","ia04an16","null","","","","","","","","learning/Slide110.JPG","null","","","","",""
"","html-keyboard-response","337","1055631","0.0-8.0-2.29","LF","ulvf1nlewe","1536","864","de","ia04an16","null","","","","learningBlock2","","","","<div style=""font-size:60px;""> </div>","null","LF","learning/Slide110.JPG","This is a bim:","",""
"","html-keyboard-response","338","1056634","0.0-8.0-0.30","LF","ulvf1nlewe","1536","864","de","ia04an16","null","","","","learningBlock2","","","","This is a tob:","null","","","","",""
"","image-keyboard-response","339","1056962","0.0-8.0-1.30","LF","ulvf1nlewe","1536","864","de","ia04an16","null","","","","","","","","learning/Slide111.JPG","null","","","","",""
"","html-keyboard-response","340","1057965","0.0-8.0-2.30","LF","ulvf1nlewe","1536","864","de","ia04an16","null","","","","learningBlock2","","","","<div style=""font-size:60px;""> </div>","null","LF","learning/Slide111.JPG","This is a tob:","",""
"","html-keyboard-response","341","1058969","0.0-8.0-0.31","LF","ulvf1nlewe","1536","864","de","ia04an16","null","","","","learningBlock2","","","","This is a wug:","null","","","","",""
"","image-keyboard-response","342","1059297","0.0-8.0-1.31","LF","ulvf1nlewe","1536","864","de","ia04an16","null","","","","","","","","learning/Slide112.JPG","null","","","","",""
"","html-keyboard-response","343","1060300","0.0-8.0-2.31","LF","ulvf1nlewe","1536","864","de","ia04an16","null","","","","learningBlock2","","","","<div style=""font-size:60px;""> </div>","null","LF","learning/Slide112.JPG","This is a wug:","",""
"","html-keyboard-response","344","1061304","0.0-8.0-0.32","LF","ulvf1nlewe","1536","864","de","ia04an16","null","","","","learningBlock2","","","","This is a tob:","null","","","","",""
"","image-keyboard-response","345","1061646","0.0-8.0-1.32","LF","ulvf1nlewe","1536","864","de","ia04an16","null","","","","","","","","learning/Slide113.JPG","null","","","","",""
"","html-keyboard-response","346","1062650","0.0-8.0-2.32","LF","ulvf1nlewe","1536","864","de","ia04an16","null","","","","learningBlock2","","","","<div style=""font-size:60px;""> </div>","null","LF","learning/Slide113.JPG","This is a tob:","",""
"","html-keyboard-response","347","1063654","0.0-8.0-0.33","LF","ulvf1nlewe","1536","864","de","ia04an16","null","","","","learningBlock2","","","","This is a wug:","null","","","","",""
"","image-keyboard-response","348","1063983","0.0-8.0-1.33","LF","ulvf1nlewe","1536","864","de","ia04an16","null","","","","","","","","learning/Slide114.JPG","null","","","","",""
"","html-keyboard-response","349","1064986","0.0-8.0-2.33","LF","ulvf1nlewe","1536","864","de","ia04an16","null","","","","learningBlock2","","","","<div style=""font-size:60px;""> </div>","null","LF","learning/Slide114.JPG","This is a wug:","",""
"","html-keyboard-response","350","1065989","0.0-8.0-0.34","LF","ulvf1nlewe","1536","864","de","ia04an16","null","","","","learningBlock2","","","","This is a bim:","null","","","","",""
"","image-keyboard-response","351","1066318","0.0-8.0-1.34","LF","ulvf1nlewe","1536","864","de","ia04an16","null","","","","","","","","learning/Slide115.JPG","null","","","","",""
"","html-keyboard-response","352","1067328","0.0-8.0-2.34","LF","ulvf1nlewe","1536","864","de","ia04an16","null","","","","learningBlock2","","","","<div style=""font-size:60px;""> </div>","null","LF","learning/Slide115.JPG","This is a bim:","",""
"","html-keyboard-response","353","1068329","0.0-8.0-0.35","LF","ulvf1nlewe","1536","864","de","ia04an16","null","","","","learningBlock2","","","","This is a dep:","null","","","","",""
"","image-keyboard-response","354","1068658","0.0-8.0-1.35","LF","ulvf1nlewe","1536","864","de","ia04an16","null","","","","","","","","learning/Slide116.JPG","null","","","","",""
"","html-keyboard-response","355","1069661","0.0-8.0-2.35","LF","ulvf1nlewe","1536","864","de","ia04an16","null","","","","learningBlock2","","","","<div style=""font-size:60px;""> </div>","null","LF","learning/Slide116.JPG","This is a dep:","",""
"","html-keyboard-response","356","1070663","0.0-8.0-0.36","LF","ulvf1nlewe","1536","864","de","ia04an16","null","","","","learningBlock2","","","","This is a tob:","null","","","","",""
"","image-keyboard-response","357","1070990","0.0-8.0-1.36","LF","ulvf1nlewe","1536","864","de","ia04an16","null","","","","","","","","learning/Slide117.JPG","null","","","","",""
"","html-keyboard-response","358","1071993","0.0-8.0-2.36","LF","ulvf1nlewe","1536","864","de","ia04an16","null","","","","learningBlock2","","","","<div style=""font-size:60px;""> </div>","null","LF","learning/Slide117.JPG","This is a tob:","",""
"","html-keyboard-response","359","1072996","0.0-8.0-0.37","LF","ulvf1nlewe","1536","864","de","ia04an16","null","","","","learningBlock2","","","","This is a dep:","null","","","","",""
"","image-keyboard-response","360","1073324","0.0-8.0-1.37","LF","ulvf1nlewe","1536","864","de","ia04an16","null","","","","","","","","learning/Slide118.JPG","null","","","","",""
"","html-keyboard-response","361","1074325","0.0-8.0-2.37","LF","ulvf1nlewe","1536","864","de","ia04an16","null","","","","learningBlock2","","","","<div style=""font-size:60px;""> </div>","null","LF","learning/Slide118.JPG","This is a dep:","",""
"","html-keyboard-response","362","1075329","0.0-8.0-0.38","LF","ulvf1nlewe","1536","864","de","ia04an16","null","","","","learningBlock2","","","","This is a wug:","null","","","","",""
"","image-keyboard-response","363","1075658","0.0-8.0-1.38","LF","ulvf1nlewe","1536","864","de","ia04an16","null","","","","","","","","learning/Slide119.JPG","null","","","","",""
"","html-keyboard-response","364","1076661","0.0-8.0-2.38","LF","ulvf1nlewe","1536","864","de","ia04an16","null","","","","learningBlock2","","","","<div style=""font-size:60px;""> </div>","null","LF","learning/Slide119.JPG","This is a wug:","",""
"","html-keyboard-response","365","1077664","0.0-8.0-0.39","LF","ulvf1nlewe","1536","864","de","ia04an16","null","","","","learningBlock2","","","","This is a dep:","null","","","","",""
"","image-keyboard-response","366","1077993","0.0-8.0-1.39","LF","ulvf1nlewe","1536","864","de","ia04an16","null","","","","","","","","learning/Slide120.JPG","null","","","","",""
"","html-keyboard-response","367","1078997","0.0-8.0-2.39","LF","ulvf1nlewe","1536","864","de","ia04an16","null","","","","learningBlock2","","","","<div style=""font-size:60px;""> </div>","null","LF","learning/Slide120.JPG","This is a dep:","",""
"","html-keyboard-response","368","1080000","0.0-8.0-0.40","LF","ulvf1nlewe","1536","864","de","ia04an16","null","","","","learningBlock2","","","","This is a bim:","null","","","","",""
"","image-keyboard-response","369","1080329","0.0-8.0-1.40","LF","ulvf1nlewe","1536","864","de","ia04an16","null","","","","","","","","learning/Slide121.JPG","null","","","","",""
"","html-keyboard-response","370","1081337","0.0-8.0-2.40","LF","ulvf1nlewe","1536","864","de","ia04an16","null","","","","learningBlock2","","","","<div style=""font-size:60px;""> </div>","null","LF","learning/Slide121.JPG","This is a bim:","",""
"","html-keyboard-response","371","1082340","0.0-8.0-0.41","LF","ulvf1nlewe","1536","864","de","ia04an16","null","","","","learningBlock2","","","","This is a wug:","null","","","","",""
"","image-keyboard-response","372","1082670","0.0-8.0-1.41","LF","ulvf1nlewe","1536","864","de","ia04an16","null","","","","","","","","learning/Slide122.JPG","null","","","","",""
"","html-keyboard-response","373","1083674","0.0-8.0-2.41","LF","ulvf1nlewe","1536","864","de","ia04an16","null","","","","learningBlock2","","","","<div style=""font-size:60px;""> </div>","null","LF","learning/Slide122.JPG","This is a wug:","",""
"","html-keyboard-response","374","1084677","0.0-8.0-0.42","LF","ulvf1nlewe","1536","864","de","ia04an16","null","","","","learningBlock2","","","","This is a bim:","null","","","","",""
"","image-keyboard-response","375","1085006","0.0-8.0-1.42","LF","ulvf1nlewe","1536","864","de","ia04an16","null","","","","","","","","learning/Slide123.JPG","null","","","","",""
"","html-keyboard-response","376","1086009","0.0-8.0-2.42","LF","ulvf1nlewe","1536","864","de","ia04an16","null","","","","learningBlock2","","","","<div style=""font-size:60px;""> </div>","null","LF","learning/Slide123.JPG","This is a bim:","",""
"","html-keyboard-response","377","1087012","0.0-8.0-0.43","LF","ulvf1nlewe","1536","864","de","ia04an16","null","","","","learningBlock2","","","","This is a tob:","null","","","","",""
"","image-keyboard-response","378","1087340","0.0-8.0-1.43","LF","ulvf1nlewe","1536","864","de","ia04an16","null","","","","","","","","learning/Slide124.JPG","null","","","","",""
"","html-keyboard-response","379","1088344","0.0-8.0-2.43","LF","ulvf1nlewe","1536","864","de","ia04an16","null","","","","learningBlock2","","","","<div style=""font-size:60px;""> </div>","null","LF","learning/Slide124.JPG","This is a tob:","",""
"","html-keyboard-response","380","1089347","0.0-8.0-0.44","LF","ulvf1nlewe","1536","864","de","ia04an16","null","","","","learningBlock2","","","","This is a bim:","null","","","","",""
"","image-keyboard-response","381","1089676","0.0-8.0-1.44","LF","ulvf1nlewe","1536","864","de","ia04an16","null","","","","","","","","learning/Slide125.JPG","null","","","","",""
"","html-keyboard-response","382","1090679","0.0-8.0-2.44","LF","ulvf1nlewe","1536","864","de","ia04an16","null","","","","learningBlock2","","","","<div style=""font-size:60px;""> </div>","null","LF","learning/Slide125.JPG","This is a bim:","",""
"","html-keyboard-response","383","1091683","0.0-8.0-0.45","LF","ulvf1nlewe","1536","864","de","ia04an16","null","","","","learningBlock2","","","","This is a tob:","null","","","","",""
"","image-keyboard-response","384","1092021","0.0-8.0-1.45","LF","ulvf1nlewe","1536","864","de","ia04an16","null","","","","","","","","learning/Slide126.JPG","null","","","","",""
"","html-keyboard-response","385","1093024","0.0-8.0-2.45","LF","ulvf1nlewe","1536","864","de","ia04an16","null","","","","learningBlock2","","","","<div style=""font-size:60px;""> </div>","null","LF","learning/Slide126.JPG","This is a tob:","",""
"","html-keyboard-response","386","1094028","0.0-8.0-0.46","LF","ulvf1nlewe","1536","864","de","ia04an16","null","","","","learningBlock2","","","","This is a dep:","null","","","","",""
"","image-keyboard-response","387","1094357","0.0-8.0-1.46","LF","ulvf1nlewe","1536","864","de","ia04an16","null","","","","","","","","learning/Slide127.JPG","null","","","","",""
"","html-keyboard-response","388","1095362","0.0-8.0-2.46","LF","ulvf1nlewe","1536","864","de","ia04an16","null","","","","learningBlock2","","","","<div style=""font-size:60px;""> </div>","null","LF","learning/Slide127.JPG","This is a dep:","",""
"","html-keyboard-response","389","1096365","0.0-8.0-0.47","LF","ulvf1nlewe","1536","864","de","ia04an16","null","","","","learningBlock2","","","","This is a wug:","null","","","","",""
"","image-keyboard-response","390","1096695","0.0-8.0-1.47","LF","ulvf1nlewe","1536","864","de","ia04an16","null","","","","","","","","learning/Slide128.JPG","null","","","","",""
"","html-keyboard-response","391","1097698","0.0-8.0-2.47","LF","ulvf1nlewe","1536","864","de","ia04an16","null","","","","learningBlock2","","","","<div style=""font-size:60px;""> </div>","null","LF","learning/Slide128.JPG","This is a wug:","",""
"","html-keyboard-response","392","1098699","0.0-8.0-0.48","LF","ulvf1nlewe","1536","864","de","ia04an16","null","","","","learningBlock2","","","","This is a tob:","null","","","","",""
"","image-keyboard-response","393","1099032","0.0-8.0-1.48","LF","ulvf1nlewe","1536","864","de","ia04an16","null","","","","","","","","learning/Slide129.JPG","null","","","","",""
"","html-keyboard-response","394","1100035","0.0-8.0-2.48","LF","ulvf1nlewe","1536","864","de","ia04an16","null","","","","learningBlock2","","","","<div style=""font-size:60px;""> </div>","null","LF","learning/Slide129.JPG","This is a tob:","",""
"","html-keyboard-response","395","1101036","0.0-8.0-0.49","LF","ulvf1nlewe","1536","864","de","ia04an16","null","","","","learningBlock2","","","","This is a wug:","null","","","","",""
"","image-keyboard-response","396","1101364","0.0-8.0-1.49","LF","ulvf1nlewe","1536","864","de","ia04an16","null","","","","","","","","learning/Slide130.JPG","null","","","","",""
"","html-keyboard-response","397","1102369","0.0-8.0-2.49","LF","ulvf1nlewe","1536","864","de","ia04an16","null","","","","learningBlock2","","","","<div style=""font-size:60px;""> </div>","null","LF","learning/Slide130.JPG","This is a wug:","",""
"","html-keyboard-response","398","1103372","0.0-8.0-0.50","LF","ulvf1nlewe","1536","864","de","ia04an16","null","","","","learningBlock2","","","","This is a bim:","null","","","","",""
"","image-keyboard-response","399","1103702","0.0-8.0-1.50","LF","ulvf1nlewe","1536","864","de","ia04an16","null","","","","","","","","learning/Slide131.JPG","null","","","","",""
"","html-keyboard-response","400","1104706","0.0-8.0-2.50","LF","ulvf1nlewe","1536","864","de","ia04an16","null","","","","learningBlock2","","","","<div style=""font-size:60px;""> </div>","null","LF","learning/Slide131.JPG","This is a bim:","",""
"","html-keyboard-response","401","1105709","0.0-8.0-0.51","LF","ulvf1nlewe","1536","864","de","ia04an16","null","","","","learningBlock2","","","","This is a dep:","null","","","","",""
"","image-keyboard-response","402","1106037","0.0-8.0-1.51","LF","ulvf1nlewe","1536","864","de","ia04an16","null","","","","","","","","learning/Slide132.JPG","null","","","","",""
"","html-keyboard-response","403","1107040","0.0-8.0-2.51","LF","ulvf1nlewe","1536","864","de","ia04an16","null","","","","learningBlock2","","","","<div style=""font-size:60px;""> </div>","null","LF","learning/Slide132.JPG","This is a dep:","",""
"","html-keyboard-response","404","1108054","0.0-8.0-0.52","LF","ulvf1nlewe","1536","864","de","ia04an16","null","","","","learningBlock2","","","","This is a tob:","null","","","","",""
"","image-keyboard-response","405","1108383","0.0-8.0-1.52","LF","ulvf1nlewe","1536","864","de","ia04an16","null","","","","","","","","learning/Slide133.JPG","null","","","","",""
"","html-keyboard-response","406","1109386","0.0-8.0-2.52","LF","ulvf1nlewe","1536","864","de","ia04an16","null","","","","learningBlock2","","","","<div style=""font-size:60px;""> </div>","null","LF","learning/Slide133.JPG","This is a tob:","",""
"","html-keyboard-response","407","1110389","0.0-8.0-0.53","LF","ulvf1nlewe","1536","864","de","ia04an16","null","","","","learningBlock2","","","","This is a dep:","null","","","","",""
"","image-keyboard-response","408","1110718","0.0-8.0-1.53","LF","ulvf1nlewe","1536","864","de","ia04an16","null","","","","","","","","learning/Slide134.JPG","null","","","","",""
"","html-keyboard-response","409","1111719","0.0-8.0-2.53","LF","ulvf1nlewe","1536","864","de","ia04an16","null","","","","learningBlock2","","","","<div style=""font-size:60px;""> </div>","null","LF","learning/Slide134.JPG","This is a dep:","",""
"","html-keyboard-response","410","1112722","0.0-8.0-0.54","LF","ulvf1nlewe","1536","864","de","ia04an16","null","","","","learningBlock2","","","","This is a tob:","null","","","","",""
"","image-keyboard-response","411","1113050","0.0-8.0-1.54","LF","ulvf1nlewe","1536","864","de","ia04an16","null","","","","","","","","learning/Slide135.JPG","null","","","","",""
"","html-keyboard-response","412","1114054","0.0-8.0-2.54","LF","ulvf1nlewe","1536","864","de","ia04an16","null","","","","learningBlock2","","","","<div style=""font-size:60px;""> </div>","null","LF","learning/Slide135.JPG","This is a tob:","",""
"","html-keyboard-response","413","1115069","0.0-8.0-0.55","LF","ulvf1nlewe","1536","864","de","ia04an16","null","","","","learningBlock2","","","","This is a wug:","null","","","","",""
"","image-keyboard-response","414","1115397","0.0-8.0-1.55","LF","ulvf1nlewe","1536","864","de","ia04an16","null","","","","","","","","learning/Slide136.JPG","null","","","","",""
"","html-keyboard-response","415","1116400","0.0-8.0-2.55","LF","ulvf1nlewe","1536","864","de","ia04an16","null","","","","learningBlock2","","","","<div style=""font-size:60px;""> </div>","null","LF","learning/Slide136.JPG","This is a wug:","",""
"","html-keyboard-response","416","1117404","0.0-8.0-0.56","LF","ulvf1nlewe","1536","864","de","ia04an16","null","","","","learningBlock2","","","","This is a tob:","null","","","","",""
"","image-keyboard-response","417","1117733","0.0-8.0-1.56","LF","ulvf1nlewe","1536","864","de","ia04an16","null","","","","","","","","learning/Slide137.JPG","null","","","","",""
"","html-keyboard-response","418","1118738","0.0-8.0-2.56","LF","ulvf1nlewe","1536","864","de","ia04an16","null","","","","learningBlock2","","","","<div style=""font-size:60px;""> </div>","null","LF","learning/Slide137.JPG","This is a tob:","",""
"","html-keyboard-response","419","1119743","0.0-8.0-0.57","LF","ulvf1nlewe","1536","864","de","ia04an16","null","","","","learningBlock2","","","","This is a bim:","null","","","","",""
"","image-keyboard-response","420","1120071","0.0-8.0-1.57","LF","ulvf1nlewe","1536","864","de","ia04an16","null","","","","","","","","learning/Slide138.JPG","null","","","","",""
"","html-keyboard-response","421","1121074","0.0-8.0-2.57","LF","ulvf1nlewe","1536","864","de","ia04an16","null","","","","learningBlock2","","","","<div style=""font-size:60px;""> </div>","null","LF","learning/Slide138.JPG","This is a bim:","",""
"","html-keyboard-response","422","1122078","0.0-8.0-0.58","LF","ulvf1nlewe","1536","864","de","ia04an16","null","","","","learningBlock2","","","","This is a wug:","null","","","","",""
"","image-keyboard-response","423","1122408","0.0-8.0-1.58","LF","ulvf1nlewe","1536","864","de","ia04an16","null","","","","","","","","learning/Slide139.JPG","null","","","","",""
"","html-keyboard-response","424","1123412","0.0-8.0-2.58","LF","ulvf1nlewe","1536","864","de","ia04an16","null","","","","learningBlock2","","","","<div style=""font-size:60px;""> </div>","null","LF","learning/Slide139.JPG","This is a wug:","",""
"","html-keyboard-response","425","1124415","0.0-8.0-0.59","LF","ulvf1nlewe","1536","864","de","ia04an16","null","","","","learningBlock2","","","","This is a dep:","null","","","","",""
"","image-keyboard-response","426","1124744","0.0-8.0-1.59","LF","ulvf1nlewe","1536","864","de","ia04an16","null","","","","","","","","learning/Slide140.JPG","null","","","","",""
"","html-keyboard-response","427","1125747","0.0-8.0-2.59","LF","ulvf1nlewe","1536","864","de","ia04an16","null","","","","learningBlock2","","","","<div style=""font-size:60px;""> </div>","null","LF","learning/Slide140.JPG","This is a dep:","",""
"","html-keyboard-response","428","1126751","0.0-8.0-0.60","LF","ulvf1nlewe","1536","864","de","ia04an16","null","","","","learningBlock2","","","","This is a tob:","null","","","","",""
"","image-keyboard-response","429","1127079","0.0-8.0-1.60","LF","ulvf1nlewe","1536","864","de","ia04an16","null","","","","","","","","learning/Slide141.JPG","null","","","","",""
"","html-keyboard-response","430","1128084","0.0-8.0-2.60","LF","ulvf1nlewe","1536","864","de","ia04an16","null","","","","learningBlock2","","","","<div style=""font-size:60px;""> </div>","null","LF","learning/Slide141.JPG","This is a tob:","",""
"","html-keyboard-response","431","1129086","0.0-8.0-0.61","LF","ulvf1nlewe","1536","864","de","ia04an16","null","","","","learningBlock2","","","","This is a wug:","null","","","","",""
"","image-keyboard-response","432","1129415","0.0-8.0-1.61","LF","ulvf1nlewe","1536","864","de","ia04an16","null","","","","","","","","learning/Slide142.JPG","null","","","","",""
"","html-keyboard-response","433","1130417","0.0-8.0-2.61","LF","ulvf1nlewe","1536","864","de","ia04an16","null","","","","learningBlock2","","","","<div style=""font-size:60px;""> </div>","null","LF","learning/Slide142.JPG","This is a wug:","",""
"","html-keyboard-response","434","1131418","0.0-8.0-0.62","LF","ulvf1nlewe","1536","864","de","ia04an16","null","","","","learningBlock2","","","","This is a bim:","null","","","","",""
"","image-keyboard-response","435","1131745","0.0-8.0-1.62","LF","ulvf1nlewe","1536","864","de","ia04an16","null","","","","","","","","learning/Slide143.JPG","null","","","","",""
"","html-keyboard-response","436","1132746","0.0-8.0-2.62","LF","ulvf1nlewe","1536","864","de","ia04an16","null","","","","learningBlock2","","","","<div style=""font-size:60px;""> </div>","null","LF","learning/Slide143.JPG","This is a bim:","",""
"","html-keyboard-response","437","1133747","0.0-8.0-0.63","LF","ulvf1nlewe","1536","864","de","ia04an16","null","","","","learningBlock2","","","","This is a dep:","null","","","","",""
"","image-keyboard-response","438","1134076","0.0-8.0-1.63","LF","ulvf1nlewe","1536","864","de","ia04an16","null","","","","","","","","learning/Slide144.JPG","null","","","","",""
"","html-keyboard-response","439","1135085","0.0-8.0-2.63","LF","ulvf1nlewe","1536","864","de","ia04an16","null","","","","learningBlock2","","","","<div style=""font-size:60px;""> </div>","null","LF","learning/Slide144.JPG","This is a dep:","",""
"","html-keyboard-response","440","1136088","0.0-8.0-0.64","LF","ulvf1nlewe","1536","864","de","ia04an16","null","","","","learningBlock2","","","","This is a bim:","null","","","","",""
"","image-keyboard-response","441","1136416","0.0-8.0-1.64","LF","ulvf1nlewe","1536","864","de","ia04an16","null","","","","","","","","learning/Slide145.JPG","null","","","","",""
"","html-keyboard-response","442","1137418","0.0-8.0-2.64","LF","ulvf1nlewe","1536","864","de","ia04an16","null","","","","learningBlock2","","","","<div style=""font-size:60px;""> </div>","null","LF","learning/Slide145.JPG","This is a bim:","",""
"","html-keyboard-response","443","1138421","0.0-8.0-0.65","LF","ulvf1nlewe","1536","864","de","ia04an16","null","","","","learningBlock2","","","","This is a tob:","null","","","","",""
"","image-keyboard-response","444","1138750","0.0-8.0-1.65","LF","ulvf1nlewe","1536","864","de","ia04an16","null","","","","","","","","learning/Slide146.JPG","null","","","","",""
"","html-keyboard-response","445","1139753","0.0-8.0-2.65","LF","ulvf1nlewe","1536","864","de","ia04an16","null","","","","learningBlock2","","","","<div style=""font-size:60px;""> </div>","null","LF","learning/Slide146.JPG","This is a tob:","",""
"","html-keyboard-response","446","1140755","0.0-8.0-0.66","LF","ulvf1nlewe","1536","864","de","ia04an16","null","","","","learningBlock2","","","","This is a wug:","null","","","","",""
"","image-keyboard-response","447","1141084","0.0-8.0-1.66","LF","ulvf1nlewe","1536","864","de","ia04an16","null","","","","","","","","learning/Slide147.JPG","null","","","","",""
"","html-keyboard-response","448","1142088","0.0-8.0-2.66","LF","ulvf1nlewe","1536","864","de","ia04an16","null","","","","learningBlock2","","","","<div style=""font-size:60px;""> </div>","null","LF","learning/Slide147.JPG","This is a wug:","",""
"","html-keyboard-response","449","1143091","0.0-8.0-0.67","LF","ulvf1nlewe","1536","864","de","ia04an16","null","","","","learningBlock2","","","","This is a bim:","null","","","","",""
"","image-keyboard-response","450","1143418","0.0-8.0-1.67","LF","ulvf1nlewe","1536","864","de","ia04an16","null","","","","","","","","learning/Slide148.JPG","null","","","","",""
"","html-keyboard-response","451","1144420","0.0-8.0-2.67","LF","ulvf1nlewe","1536","864","de","ia04an16","null","","","","learningBlock2","","","","<div style=""font-size:60px;""> </div>","null","LF","learning/Slide148.JPG","This is a bim:","",""
"","html-keyboard-response","452","1145423","0.0-8.0-0.68","LF","ulvf1nlewe","1536","864","de","ia04an16","null","","","","learningBlock2","","","","This is a dep:","null","","","","",""
"","image-keyboard-response","453","1145751","0.0-8.0-1.68","LF","ulvf1nlewe","1536","864","de","ia04an16","null","","","","","","","","learning/Slide149.JPG","null","","","","",""
"","html-keyboard-response","454","1146755","0.0-8.0-2.68","LF","ulvf1nlewe","1536","864","de","ia04an16","null","","","","learningBlock2","","","","<div style=""font-size:60px;""> </div>","null","LF","learning/Slide149.JPG","This is a dep:","",""
"","html-keyboard-response","455","1147758","0.0-8.0-0.69","LF","ulvf1nlewe","1536","864","de","ia04an16","null","","","","learningBlock2","","","","This is a wug:","null","","","","",""
"","image-keyboard-response","456","1148086","0.0-8.0-1.69","LF","ulvf1nlewe","1536","864","de","ia04an16","null","","","","","","","","learning/Slide150.JPG","null","","","","",""
"","html-keyboard-response","457","1149089","0.0-8.0-2.69","LF","ulvf1nlewe","1536","864","de","ia04an16","null","","","","learningBlock2","","","","<div style=""font-size:60px;""> </div>","null","LF","learning/Slide150.JPG","This is a wug:","",""
"","html-keyboard-response","458","1150092","0.0-8.0-0.70","LF","ulvf1nlewe","1536","864","de","ia04an16","null","","","","learningBlock2","","","","This is a dep:","null","","","","",""
"","image-keyboard-response","459","1150418","0.0-8.0-1.70","LF","ulvf1nlewe","1536","864","de","ia04an16","null","","","","","","","","learning/Slide151.JPG","null","","","","",""
"","html-keyboard-response","460","1151420","0.0-8.0-2.70","LF","ulvf1nlewe","1536","864","de","ia04an16","null","","","","learningBlock2","","","","<div style=""font-size:60px;""> </div>","null","LF","learning/Slide151.JPG","This is a dep:","",""
"","html-keyboard-response","461","1152422","0.0-8.0-0.71","LF","ulvf1nlewe","1536","864","de","ia04an16","null","","","","learningBlock2","","","","This is a wug:","null","","","","",""
"","image-keyboard-response","462","1152751","0.0-8.0-1.71","LF","ulvf1nlewe","1536","864","de","ia04an16","null","","","","","","","","learning/Slide152.JPG","null","","","","",""
"","html-keyboard-response","463","1153754","0.0-8.0-2.71","LF","ulvf1nlewe","1536","864","de","ia04an16","null","","","","learningBlock2","","","","<div style=""font-size:60px;""> </div>","null","LF","learning/Slide152.JPG","This is a wug:","",""
"","html-keyboard-response","464","1154757","0.0-8.0-0.72","LF","ulvf1nlewe","1536","864","de","ia04an16","null","","","","learningBlock2","","","","This is a bim:","null","","","","",""
"","image-keyboard-response","465","1155086","0.0-8.0-1.72","LF","ulvf1nlewe","1536","864","de","ia04an16","null","","","","","","","","learning/Slide153.JPG","null","","","","",""
"","html-keyboard-response","466","1156089","0.0-8.0-2.72","LF","ulvf1nlewe","1536","864","de","ia04an16","null","","","","learningBlock2","","","","<div style=""font-size:60px;""> </div>","null","LF","learning/Slide153.JPG","This is a bim:","",""
"","html-keyboard-response","467","1157092","0.0-8.0-0.73","LF","ulvf1nlewe","1536","864","de","ia04an16","null","","","","learningBlock2","","","","This is a tob:","null","","","","",""
"","image-keyboard-response","468","1157420","0.0-8.0-1.73","LF","ulvf1nlewe","1536","864","de","ia04an16","null","","","","","","","","learning/Slide154.JPG","null","","","","",""
"","html-keyboard-response","469","1158422","0.0-8.0-2.73","LF","ulvf1nlewe","1536","864","de","ia04an16","null","","","","learningBlock2","","","","<div style=""font-size:60px;""> </div>","null","LF","learning/Slide154.JPG","This is a tob:","",""
"","html-keyboard-response","470","1159424","0.0-8.0-0.74","LF","ulvf1nlewe","1536","864","de","ia04an16","null","","","","learningBlock2","","","","This is a dep:","null","","","","",""
"","image-keyboard-response","471","1159751","0.0-8.0-1.74","LF","ulvf1nlewe","1536","864","de","ia04an16","null","","","","","","","","learning/Slide155.JPG","null","","","","",""
"","html-keyboard-response","472","1160755","0.0-8.0-2.74","LF","ulvf1nlewe","1536","864","de","ia04an16","null","","","","learningBlock2","","","","<div style=""font-size:60px;""> </div>","null","LF","learning/Slide155.JPG","This is a dep:","",""
"","html-keyboard-response","473","1161758","0.0-8.0-0.75","LF","ulvf1nlewe","1536","864","de","ia04an16","null","","","","learningBlock2","","","","This is a bim:","null","","","","",""
"","image-keyboard-response","474","1162087","0.0-8.0-1.75","LF","ulvf1nlewe","1536","864","de","ia04an16","null","","","","","","","","learning/Slide156.JPG","null","","","","",""
"","html-keyboard-response","475","1163090","0.0-8.0-2.75","LF","ulvf1nlewe","1536","864","de","ia04an16","null","","","","learningBlock2","","","","<div style=""font-size:60px;""> </div>","null","LF","learning/Slide156.JPG","This is a bim:","",""
"","html-keyboard-response","476","1164094","0.0-8.0-0.76","LF","ulvf1nlewe","1536","864","de","ia04an16","null","","","","learningBlock2","","","","This is a dep:","null","","","","",""
"","image-keyboard-response","477","1164423","0.0-8.0-1.76","LF","ulvf1nlewe","1536","864","de","ia04an16","null","","","","","","","","learning/Slide157.JPG","null","","","","",""
"","html-keyboard-response","478","1165428","0.0-8.0-2.76","LF","ulvf1nlewe","1536","864","de","ia04an16","null","","","","learningBlock2","","","","<div style=""font-size:60px;""> </div>","null","LF","learning/Slide157.JPG","This is a dep:","",""
"","html-keyboard-response","479","1166430","0.0-8.0-0.77","LF","ulvf1nlewe","1536","864","de","ia04an16","null","","","","learningBlock2","","","","This is a tob:","null","","","","",""
"","image-keyboard-response","480","1166759","0.0-8.0-1.77","LF","ulvf1nlewe","1536","864","de","ia04an16","null","","","","","","","","learning/Slide158.JPG","null","","","","",""
"","html-keyboard-response","481","1167762","0.0-8.0-2.77","LF","ulvf1nlewe","1536","864","de","ia04an16","null","","","","learningBlock2","","","","<div style=""font-size:60px;""> </div>","null","LF","learning/Slide158.JPG","This is a tob:","",""
"","html-keyboard-response","482","1168765","0.0-8.0-0.78","LF","ulvf1nlewe","1536","864","de","ia04an16","null","","","","learningBlock2","","","","This is a dep:","null","","","","",""
"","image-keyboard-response","483","1169095","0.0-8.0-1.78","LF","ulvf1nlewe","1536","864","de","ia04an16","null","","","","","","","","learning/Slide159.JPG","null","","","","",""
"","html-keyboard-response","484","1170097","0.0-8.0-2.78","LF","ulvf1nlewe","1536","864","de","ia04an16","null","","","","learningBlock2","","","","<div style=""font-size:60px;""> </div>","null","LF","learning/Slide159.JPG","This is a dep:","",""
"","html-keyboard-response","485","1171098","0.0-8.0-0.79","LF","ulvf1nlewe","1536","864","de","ia04an16","null","","","","learningBlock2","","","","This is a wug:","null","","","","",""
"","image-keyboard-response","486","1171427","0.0-8.0-1.79","LF","ulvf1nlewe","1536","864","de","ia04an16","null","","","","","","","","learning/Slide160.JPG","null","","","","",""
"","html-keyboard-response","487","1172427","0.0-8.0-2.79","LF","ulvf1nlewe","1536","864","de","ia04an16","null","","","","learningBlock2","","","","<div style=""font-size:60px;""> </div>","null","LF","learning/Slide160.JPG","This is a wug:","",""
"","resize2","488","1226668","0.0-9.0","LF","ulvf1nlewe","1536","864","de","ia04an16","","","","","","","104","1.04","","","","","","",""
