"success","trial_type","trial_index","time_elapsed","internal_node_id","condition","subject","screen_width","screen_height","language","codeword","rt","responses","url","view_history","test_part","final_height_px","final_width_px","scale_factor","stimulus","key_press","learningType","presentedImage","presentedLabel","button_pressed","response"
"true","fullscreen","0","13154","0.0-0.0","LF","22elk0nh1m","1280","1024","de","er08rd25","","","","","","","","","","","","","","",""
"","survey-html-form","1","27246","0.0-1.0","LF","22elk0nh1m","1280","1024","de","er08rd25","14088.329999998678","{""language"":""de""}","","","","","","","","","","","","",""
"","external-html","2","75724","0.0-2.0-0.0","LF","22elk0nh1m","1280","1024","de","er08rd25","45380.5149999971","","text/information.html","","","","","","","","","","","",""
"","external-html","3","85540","0.0-2.0-1.0","LF","22elk0nh1m","1280","1024","de","er08rd25","9732.60499999742","","text/consent.html","","","","","","","","","","","",""
"","survey-html-form","4","178044","0.0-2.0-2.0","LF","22elk0nh1m","1280","1024","de","er08rd25","92500.46000001021","{""codeword_enter"":""er08rd25""}","","","","","","","","","","","","",""
"","instructions","5","201509","0.0-4.0","LF","22elk0nh1m","1280","1024","de","er08rd25","NA","","","[{""page_index"":0,""viewing_time"":6488.400000002002},{""page_index"":1,""viewing_time"":15462.490000005346}]","instructions","","","","","","","","","",""
"","resize","6","264697","0.0-5.0","LF","22elk0nh1m","1280","1024","de","er08rd25","","","","","","","348","2.2095238095238097","","","","","","",""
"","html-keyboard-response","7","265701","0.0-6.0-0.0","LF","22elk0nh1m","1280","1024","de","er08rd25","null","","","","learningBlock1","","","","This is a tob:","null","","","","",""
"","image-keyboard-response","8","266048","0.0-6.0-1.0","LF","22elk0nh1m","1280","1024","de","er08rd25","null","","","","","","","","learning/Slide1.JPG","null","","","","",""
"","html-keyboard-response","9","267067","0.0-6.0-2.0","LF","22elk0nh1m","1280","1024","de","er08rd25","null","","","","learningBlock1","","","","<div style=""font-size:60px;""> </div>","null","LF","learning/Slide1.JPG","This is a tob:","",""
"","html-keyboard-response","10","268076","0.0-6.0-0.1","LF","22elk0nh1m","1280","1024","de","er08rd25","null","","","","learningBlock1","","","","This is a wug:","null","","","","",""
"","image-keyboard-response","11","268416","0.0-6.0-1.1","LF","22elk0nh1m","1280","1024","de","er08rd25","null","","","","","","","","learning/Slide2.JPG","null","","","","",""
"","html-keyboard-response","12","269425","0.0-6.0-2.1","LF","22elk0nh1m","1280","1024","de","er08rd25","null","","","","learningBlock1","","","","<div style=""font-size:60px;""> </div>","null","LF","learning/Slide2.JPG","This is a wug:","",""
"","html-keyboard-response","13","270426","0.0-6.0-0.2","LF","22elk0nh1m","1280","1024","de","er08rd25","null","","","","learningBlock1","","","","This is a bim:","null","","","","",""
"","image-keyboard-response","14","270764","0.0-6.0-1.2","LF","22elk0nh1m","1280","1024","de","er08rd25","null","","","","","","","","learning/Slide3.JPG","null","","","","",""
"","html-keyboard-response","15","271780","0.0-6.0-2.2","LF","22elk0nh1m","1280","1024","de","er08rd25","null","","","","learningBlock1","","","","<div style=""font-size:60px;""> </div>","null","LF","learning/Slide3.JPG","This is a bim:","",""
"","html-keyboard-response","16","272786","0.0-6.0-0.3","LF","22elk0nh1m","1280","1024","de","er08rd25","null","","","","learningBlock1","","","","This is a dep:","null","","","","",""
"","image-keyboard-response","17","273130","0.0-6.0-1.3","LF","22elk0nh1m","1280","1024","de","er08rd25","null","","","","","","","","learning/Slide4.JPG","null","","","","",""
"","html-keyboard-response","18","274140","0.0-6.0-2.3","LF","22elk0nh1m","1280","1024","de","er08rd25","null","","","","learningBlock1","","","","<div style=""font-size:60px;""> </div>","null","LF","learning/Slide4.JPG","This is a dep:","",""
"","html-keyboard-response","19","275148","0.0-6.0-0.4","LF","22elk0nh1m","1280","1024","de","er08rd25","null","","","","learningBlock1","","","","This is a wug:","null","","","","",""
"","image-keyboard-response","20","275501","0.0-6.0-1.4","LF","22elk0nh1m","1280","1024","de","er08rd25","null","","","","","","","","learning/Slide5.JPG","null","","","","",""
"","html-keyboard-response","21","276508","0.0-6.0-2.4","LF","22elk0nh1m","1280","1024","de","er08rd25","null","","","","learningBlock1","","","","<div style=""font-size:60px;""> </div>","null","LF","learning/Slide5.JPG","This is a wug:","",""
"","html-keyboard-response","22","277514","0.0-6.0-0.5","LF","22elk0nh1m","1280","1024","de","er08rd25","null","","","","learningBlock1","","","","This is a dep:","null","","","","",""
"","image-keyboard-response","23","277865","0.0-6.0-1.5","LF","22elk0nh1m","1280","1024","de","er08rd25","null","","","","","","","","learning/Slide6.JPG","null","","","","",""
"","html-keyboard-response","24","278874","0.0-6.0-2.5","LF","22elk0nh1m","1280","1024","de","er08rd25","null","","","","learningBlock1","","","","<div style=""font-size:60px;""> </div>","null","LF","learning/Slide6.JPG","This is a dep:","",""
"","html-keyboard-response","25","279884","0.0-6.0-0.6","LF","22elk0nh1m","1280","1024","de","er08rd25","null","","","","learningBlock1","","","","This is a wug:","null","","","","",""
"","image-keyboard-response","26","280229","0.0-6.0-1.6","LF","22elk0nh1m","1280","1024","de","er08rd25","null","","","","","","","","learning/Slide7.JPG","null","","","","",""
"","html-keyboard-response","27","281250","0.0-6.0-2.6","LF","22elk0nh1m","1280","1024","de","er08rd25","null","","","","learningBlock1","","","","<div style=""font-size:60px;""> </div>","null","LF","learning/Slide7.JPG","This is a wug:","",""
"","html-keyboard-response","28","282259","0.0-6.0-0.7","LF","22elk0nh1m","1280","1024","de","er08rd25","null","","","","learningBlock1","","","","This is a bim:","null","","","","",""
"","image-keyboard-response","29","282596","0.0-6.0-1.7","LF","22elk0nh1m","1280","1024","de","er08rd25","null","","","","","","","","learning/Slide8.JPG","null","","","","",""
"","html-keyboard-response","30","283613","0.0-6.0-2.7","LF","22elk0nh1m","1280","1024","de","er08rd25","null","","","","learningBlock1","","","","<div style=""font-size:60px;""> </div>","null","LF","learning/Slide8.JPG","This is a bim:","",""
"","html-keyboard-response","31","284631","0.0-6.0-0.8","LF","22elk0nh1m","1280","1024","de","er08rd25","null","","","","learningBlock1","","","","This is a wug:","null","","","","",""
"","image-keyboard-response","32","284979","0.0-6.0-1.8","LF","22elk0nh1m","1280","1024","de","er08rd25","null","","","","","","","","learning/Slide9.JPG","null","","","","",""
"","html-keyboard-response","33","285988","0.0-6.0-2.8","LF","22elk0nh1m","1280","1024","de","er08rd25","null","","","","learningBlock1","","","","<div style=""font-size:60px;""> </div>","null","LF","learning/Slide9.JPG","This is a wug:","",""
"","html-keyboard-response","34","287004","0.0-6.0-0.9","LF","22elk0nh1m","1280","1024","de","er08rd25","null","","","","learningBlock1","","","","This is a dep:","null","","","","",""
"","image-keyboard-response","35","287346","0.0-6.0-1.9","LF","22elk0nh1m","1280","1024","de","er08rd25","null","","","","","","","","learning/Slide10.JPG","null","","","","",""
"","html-keyboard-response","36","288352","0.0-6.0-2.9","LF","22elk0nh1m","1280","1024","de","er08rd25","null","","","","learningBlock1","","","","<div style=""font-size:60px;""> </div>","null","LF","learning/Slide10.JPG","This is a dep:","",""
"","html-keyboard-response","37","289359","0.0-6.0-0.10","LF","22elk0nh1m","1280","1024","de","er08rd25","null","","","","learningBlock1","","","","This is a tob:","null","","","","",""
"","image-keyboard-response","38","289695","0.0-6.0-1.10","LF","22elk0nh1m","1280","1024","de","er08rd25","null","","","","","","","","learning/Slide11.JPG","null","","","","",""
"","html-keyboard-response","39","290707","0.0-6.0-2.10","LF","22elk0nh1m","1280","1024","de","er08rd25","null","","","","learningBlock1","","","","<div style=""font-size:60px;""> </div>","null","LF","learning/Slide11.JPG","This is a tob:","",""
"","html-keyboard-response","40","291725","0.0-6.0-0.11","LF","22elk0nh1m","1280","1024","de","er08rd25","null","","","","learningBlock1","","","","This is a dep:","null","","","","",""
"","image-keyboard-response","41","292061","0.0-6.0-1.11","LF","22elk0nh1m","1280","1024","de","er08rd25","null","","","","","","","","learning/Slide12.JPG","null","","","","",""
"","html-keyboard-response","42","293071","0.0-6.0-2.11","LF","22elk0nh1m","1280","1024","de","er08rd25","null","","","","learningBlock1","","","","<div style=""font-size:60px;""> </div>","null","LF","learning/Slide12.JPG","This is a dep:","",""
"","html-keyboard-response","43","294080","0.0-6.0-0.12","LF","22elk0nh1m","1280","1024","de","er08rd25","null","","","","learningBlock1","","","","This is a bim:","null","","","","",""
"","image-keyboard-response","44","294427","0.0-6.0-1.12","LF","22elk0nh1m","1280","1024","de","er08rd25","null","","","","","","","","learning/Slide13.JPG","null","","","","",""
"","html-keyboard-response","45","295430","0.0-6.0-2.12","LF","22elk0nh1m","1280","1024","de","er08rd25","null","","","","learningBlock1","","","","<div style=""font-size:60px;""> </div>","null","LF","learning/Slide13.JPG","This is a bim:","",""
"","html-keyboard-response","46","296432","0.0-6.0-0.13","LF","22elk0nh1m","1280","1024","de","er08rd25","null","","","","learningBlock1","","","","This is a wug:","null","","","","",""
"","image-keyboard-response","47","296778","0.0-6.0-1.13","LF","22elk0nh1m","1280","1024","de","er08rd25","null","","","","","","","","learning/Slide14.JPG","null","","","","",""
"","html-keyboard-response","48","297792","0.0-6.0-2.13","LF","22elk0nh1m","1280","1024","de","er08rd25","null","","","","learningBlock1","","","","<div style=""font-size:60px;""> </div>","null","LF","learning/Slide14.JPG","This is a wug:","",""
"","html-keyboard-response","49","298800","0.0-6.0-0.14","LF","22elk0nh1m","1280","1024","de","er08rd25","null","","","","learningBlock1","","","","This is a tob:","null","","","","",""
"","image-keyboard-response","50","299144","0.0-6.0-1.14","LF","22elk0nh1m","1280","1024","de","er08rd25","null","","","","","","","","learning/Slide15.JPG","null","","","","",""
"","html-keyboard-response","51","300146","0.0-6.0-2.14","LF","22elk0nh1m","1280","1024","de","er08rd25","null","","","","learningBlock1","","","","<div style=""font-size:60px;""> </div>","null","LF","learning/Slide15.JPG","This is a tob:","",""
"","html-keyboard-response","52","301163","0.0-6.0-0.15","LF","22elk0nh1m","1280","1024","de","er08rd25","null","","","","learningBlock1","","","","This is a dep:","null","","","","",""
"","image-keyboard-response","53","301510","0.0-6.0-1.15","LF","22elk0nh1m","1280","1024","de","er08rd25","null","","","","","","","","learning/Slide16.JPG","null","","","","",""
"","html-keyboard-response","54","302514","0.0-6.0-2.15","LF","22elk0nh1m","1280","1024","de","er08rd25","null","","","","learningBlock1","","","","<div style=""font-size:60px;""> </div>","null","LF","learning/Slide16.JPG","This is a dep:","",""
"","html-keyboard-response","55","303522","0.0-6.0-0.16","LF","22elk0nh1m","1280","1024","de","er08rd25","null","","","","learningBlock1","","","","This is a bim:","null","","","","",""
"","image-keyboard-response","56","303861","0.0-6.0-1.16","LF","22elk0nh1m","1280","1024","de","er08rd25","null","","","","","","","","learning/Slide17.JPG","null","","","","",""
"","html-keyboard-response","57","304864","0.0-6.0-2.16","LF","22elk0nh1m","1280","1024","de","er08rd25","null","","","","learningBlock1","","","","<div style=""font-size:60px;""> </div>","null","LF","learning/Slide17.JPG","This is a bim:","",""
"","html-keyboard-response","58","305867","0.0-6.0-0.17","LF","22elk0nh1m","1280","1024","de","er08rd25","null","","","","learningBlock1","","","","This is a tob:","null","","","","",""
"","image-keyboard-response","59","306216","0.0-6.0-1.17","LF","22elk0nh1m","1280","1024","de","er08rd25","null","","","","","","","","learning/Slide18.JPG","null","","","","",""
"","html-keyboard-response","60","307234","0.0-6.0-2.17","LF","22elk0nh1m","1280","1024","de","er08rd25","null","","","","learningBlock1","","","","<div style=""font-size:60px;""> </div>","null","LF","learning/Slide18.JPG","This is a tob:","",""
"","html-keyboard-response","61","308251","0.0-6.0-0.18","LF","22elk0nh1m","1280","1024","de","er08rd25","null","","","","learningBlock1","","","","This is a wug:","null","","","","",""
"","image-keyboard-response","62","308593","0.0-6.0-1.18","LF","22elk0nh1m","1280","1024","de","er08rd25","null","","","","","","","","learning/Slide19.JPG","null","","","","",""
"","html-keyboard-response","63","309611","0.0-6.0-2.18","LF","22elk0nh1m","1280","1024","de","er08rd25","null","","","","learningBlock1","","","","<div style=""font-size:60px;""> </div>","null","LF","learning/Slide19.JPG","This is a wug:","",""
"","html-keyboard-response","64","310614","0.0-6.0-0.19","LF","22elk0nh1m","1280","1024","de","er08rd25","null","","","","learningBlock1","","","","This is a bim:","null","","","","",""
"","image-keyboard-response","65","310960","0.0-6.0-1.19","LF","22elk0nh1m","1280","1024","de","er08rd25","null","","","","","","","","learning/Slide20.JPG","null","","","","",""
"","html-keyboard-response","66","311970","0.0-6.0-2.19","LF","22elk0nh1m","1280","1024","de","er08rd25","null","","","","learningBlock1","","","","<div style=""font-size:60px;""> </div>","null","LF","learning/Slide20.JPG","This is a bim:","",""
"","html-keyboard-response","67","312975","0.0-6.0-0.20","LF","22elk0nh1m","1280","1024","de","er08rd25","null","","","","learningBlock1","","","","This is a dep:","null","","","","",""
"","image-keyboard-response","68","313308","0.0-6.0-1.20","LF","22elk0nh1m","1280","1024","de","er08rd25","null","","","","","","","","learning/Slide21.JPG","null","","","","",""
"","html-keyboard-response","69","314320","0.0-6.0-2.20","LF","22elk0nh1m","1280","1024","de","er08rd25","null","","","","learningBlock1","","","","<div style=""font-size:60px;""> </div>","null","LF","learning/Slide21.JPG","This is a dep:","",""
"","html-keyboard-response","70","315337","0.0-6.0-0.21","LF","22elk0nh1m","1280","1024","de","er08rd25","null","","","","learningBlock1","","","","This is a bim:","null","","","","",""
"","image-keyboard-response","71","315676","0.0-6.0-1.21","LF","22elk0nh1m","1280","1024","de","er08rd25","null","","","","","","","","learning/Slide22.JPG","null","","","","",""
"","html-keyboard-response","72","316685","0.0-6.0-2.21","LF","22elk0nh1m","1280","1024","de","er08rd25","null","","","","learningBlock1","","","","<div style=""font-size:60px;""> </div>","null","LF","learning/Slide22.JPG","This is a bim:","",""
"","html-keyboard-response","73","317688","0.0-6.0-0.22","LF","22elk0nh1m","1280","1024","de","er08rd25","null","","","","learningBlock1","","","","This is a tob:","null","","","","",""
"","image-keyboard-response","74","318025","0.0-6.0-1.22","LF","22elk0nh1m","1280","1024","de","er08rd25","null","","","","","","","","learning/Slide23.JPG","null","","","","",""
"","html-keyboard-response","75","319041","0.0-6.0-2.22","LF","22elk0nh1m","1280","1024","de","er08rd25","null","","","","learningBlock1","","","","<div style=""font-size:60px;""> </div>","null","LF","learning/Slide23.JPG","This is a tob:","",""
"","html-keyboard-response","76","320052","0.0-6.0-0.23","LF","22elk0nh1m","1280","1024","de","er08rd25","null","","","","learningBlock1","","","","This is a wug:","null","","","","",""
"","image-keyboard-response","77","320397","0.0-6.0-1.23","LF","22elk0nh1m","1280","1024","de","er08rd25","null","","","","","","","","learning/Slide24.JPG","null","","","","",""
"","html-keyboard-response","78","321406","0.0-6.0-2.23","LF","22elk0nh1m","1280","1024","de","er08rd25","null","","","","learningBlock1","","","","<div style=""font-size:60px;""> </div>","null","LF","learning/Slide24.JPG","This is a wug:","",""
"","html-keyboard-response","79","322423","0.0-6.0-0.24","LF","22elk0nh1m","1280","1024","de","er08rd25","null","","","","learningBlock1","","","","This is a dep:","null","","","","",""
"","image-keyboard-response","80","322773","0.0-6.0-1.24","LF","22elk0nh1m","1280","1024","de","er08rd25","null","","","","","","","","learning/Slide25.JPG","null","","","","",""
"","html-keyboard-response","81","323782","0.0-6.0-2.24","LF","22elk0nh1m","1280","1024","de","er08rd25","null","","","","learningBlock1","","","","<div style=""font-size:60px;""> </div>","null","LF","learning/Slide25.JPG","This is a dep:","",""
"","html-keyboard-response","82","324799","0.0-6.0-0.25","LF","22elk0nh1m","1280","1024","de","er08rd25","null","","","","learningBlock1","","","","This is a wug:","null","","","","",""
"","image-keyboard-response","83","325139","0.0-6.0-1.25","LF","22elk0nh1m","1280","1024","de","er08rd25","null","","","","","","","","learning/Slide26.JPG","null","","","","",""
"","html-keyboard-response","84","326142","0.0-6.0-2.25","LF","22elk0nh1m","1280","1024","de","er08rd25","null","","","","learningBlock1","","","","<div style=""font-size:60px;""> </div>","null","LF","learning/Slide26.JPG","This is a wug:","",""
"","html-keyboard-response","85","327150","0.0-6.0-0.26","LF","22elk0nh1m","1280","1024","de","er08rd25","null","","","","learningBlock1","","","","This is a bim:","null","","","","",""
"","image-keyboard-response","86","327491","0.0-6.0-1.26","LF","22elk0nh1m","1280","1024","de","er08rd25","null","","","","","","","","learning/Slide27.JPG","null","","","","",""
"","html-keyboard-response","87","328500","0.0-6.0-2.26","LF","22elk0nh1m","1280","1024","de","er08rd25","null","","","","learningBlock1","","","","<div style=""font-size:60px;""> </div>","null","LF","learning/Slide27.JPG","This is a bim:","",""
"","html-keyboard-response","88","329505","0.0-6.0-0.27","LF","22elk0nh1m","1280","1024","de","er08rd25","null","","","","learningBlock1","","","","This is a dep:","null","","","","",""
"","image-keyboard-response","89","329841","0.0-6.0-1.27","LF","22elk0nh1m","1280","1024","de","er08rd25","null","","","","","","","","learning/Slide28.JPG","null","","","","",""
"","html-keyboard-response","90","330856","0.0-6.0-2.27","LF","22elk0nh1m","1280","1024","de","er08rd25","null","","","","learningBlock1","","","","<div style=""font-size:60px;""> </div>","null","LF","learning/Slide28.JPG","This is a dep:","",""
"","html-keyboard-response","91","331867","0.0-6.0-0.28","LF","22elk0nh1m","1280","1024","de","er08rd25","null","","","","learningBlock1","","","","This is a tob:","null","","","","",""
"","image-keyboard-response","92","332206","0.0-6.0-1.28","LF","22elk0nh1m","1280","1024","de","er08rd25","null","","","","","","","","learning/Slide29.JPG","null","","","","",""
"","html-keyboard-response","93","333211","0.0-6.0-2.28","LF","22elk0nh1m","1280","1024","de","er08rd25","null","","","","learningBlock1","","","","<div style=""font-size:60px;""> </div>","null","LF","learning/Slide29.JPG","This is a tob:","",""
"","html-keyboard-response","94","334225","0.0-6.0-0.29","LF","22elk0nh1m","1280","1024","de","er08rd25","null","","","","learningBlock1","","","","This is a dep:","null","","","","",""
"","image-keyboard-response","95","334579","0.0-6.0-1.29","LF","22elk0nh1m","1280","1024","de","er08rd25","null","","","","","","","","learning/Slide30.JPG","null","","","","",""
"","html-keyboard-response","96","335586","0.0-6.0-2.29","LF","22elk0nh1m","1280","1024","de","er08rd25","null","","","","learningBlock1","","","","<div style=""font-size:60px;""> </div>","null","LF","learning/Slide30.JPG","This is a dep:","",""
"","html-keyboard-response","97","336588","0.0-6.0-0.30","LF","22elk0nh1m","1280","1024","de","er08rd25","null","","","","learningBlock1","","","","This is a wug:","null","","","","",""
"","image-keyboard-response","98","336923","0.0-6.0-1.30","LF","22elk0nh1m","1280","1024","de","er08rd25","null","","","","","","","","learning/Slide31.JPG","null","","","","",""
"","html-keyboard-response","99","337937","0.0-6.0-2.30","LF","22elk0nh1m","1280","1024","de","er08rd25","null","","","","learningBlock1","","","","<div style=""font-size:60px;""> </div>","null","LF","learning/Slide31.JPG","This is a wug:","",""
"","html-keyboard-response","100","338946","0.0-6.0-0.31","LF","22elk0nh1m","1280","1024","de","er08rd25","null","","","","learningBlock1","","","","This is a tob:","null","","","","",""
"","image-keyboard-response","101","339289","0.0-6.0-1.31","LF","22elk0nh1m","1280","1024","de","er08rd25","null","","","","","","","","learning/Slide32.JPG","null","","","","",""
"","html-keyboard-response","102","340292","0.0-6.0-2.31","LF","22elk0nh1m","1280","1024","de","er08rd25","null","","","","learningBlock1","","","","<div style=""font-size:60px;""> </div>","null","LF","learning/Slide32.JPG","This is a tob:","",""
"","html-keyboard-response","103","341298","0.0-6.0-0.32","LF","22elk0nh1m","1280","1024","de","er08rd25","null","","","","learningBlock1","","","","This is a bim:","null","","","","",""
"","image-keyboard-response","104","341638","0.0-6.0-1.32","LF","22elk0nh1m","1280","1024","de","er08rd25","null","","","","","","","","learning/Slide33.JPG","null","","","","",""
"","html-keyboard-response","105","342650","0.0-6.0-2.32","LF","22elk0nh1m","1280","1024","de","er08rd25","null","","","","learningBlock1","","","","<div style=""font-size:60px;""> </div>","null","LF","learning/Slide33.JPG","This is a bim:","",""
"","html-keyboard-response","106","343665","0.0-6.0-0.33","LF","22elk0nh1m","1280","1024","de","er08rd25","null","","","","learningBlock1","","","","This is a tob:","null","","","","",""
"","image-keyboard-response","107","344008","0.0-6.0-1.33","LF","22elk0nh1m","1280","1024","de","er08rd25","null","","","","","","","","learning/Slide34.JPG","null","","","","",""
"","html-keyboard-response","108","345013","0.0-6.0-2.33","LF","22elk0nh1m","1280","1024","de","er08rd25","null","","","","learningBlock1","","","","<div style=""font-size:60px;""> </div>","null","LF","learning/Slide34.JPG","This is a tob:","",""
"","html-keyboard-response","109","346031","0.0-6.0-0.34","LF","22elk0nh1m","1280","1024","de","er08rd25","null","","","","learningBlock1","","","","This is a bim:","null","","","","",""
"","image-keyboard-response","110","346370","0.0-6.0-1.34","LF","22elk0nh1m","1280","1024","de","er08rd25","null","","","","","","","","learning/Slide35.JPG","null","","","","",""
"","html-keyboard-response","111","347373","0.0-6.0-2.34","LF","22elk0nh1m","1280","1024","de","er08rd25","null","","","","learningBlock1","","","","<div style=""font-size:60px;""> </div>","null","LF","learning/Slide35.JPG","This is a bim:","",""
"","html-keyboard-response","112","348382","0.0-6.0-0.35","LF","22elk0nh1m","1280","1024","de","er08rd25","null","","","","learningBlock1","","","","This is a dep:","null","","","","",""
"","image-keyboard-response","113","348725","0.0-6.0-1.35","LF","22elk0nh1m","1280","1024","de","er08rd25","null","","","","","","","","learning/Slide36.JPG","null","","","","",""
"","html-keyboard-response","114","349732","0.0-6.0-2.35","LF","22elk0nh1m","1280","1024","de","er08rd25","null","","","","learningBlock1","","","","<div style=""font-size:60px;""> </div>","null","LF","learning/Slide36.JPG","This is a dep:","",""
"","html-keyboard-response","115","350738","0.0-6.0-0.36","LF","22elk0nh1m","1280","1024","de","er08rd25","null","","","","learningBlock1","","","","This is a tob:","null","","","","",""
"","image-keyboard-response","116","351071","0.0-6.0-1.36","LF","22elk0nh1m","1280","1024","de","er08rd25","null","","","","","","","","learning/Slide37.JPG","null","","","","",""
"","html-keyboard-response","117","352073","0.0-6.0-2.36","LF","22elk0nh1m","1280","1024","de","er08rd25","null","","","","learningBlock1","","","","<div style=""font-size:60px;""> </div>","null","LF","learning/Slide37.JPG","This is a tob:","",""
"","html-keyboard-response","118","353084","0.0-6.0-0.37","LF","22elk0nh1m","1280","1024","de","er08rd25","null","","","","learningBlock1","","","","This is a wug:","null","","","","",""
"","image-keyboard-response","119","353421","0.0-6.0-1.37","LF","22elk0nh1m","1280","1024","de","er08rd25","null","","","","","","","","learning/Slide38.JPG","null","","","","",""
"","html-keyboard-response","120","354428","0.0-6.0-2.37","LF","22elk0nh1m","1280","1024","de","er08rd25","null","","","","learningBlock1","","","","<div style=""font-size:60px;""> </div>","null","LF","learning/Slide38.JPG","This is a wug:","",""
"","html-keyboard-response","121","355438","0.0-6.0-0.38","LF","22elk0nh1m","1280","1024","de","er08rd25","null","","","","learningBlock1","","","","This is a bim:","null","","","","",""
"","image-keyboard-response","122","355770","0.0-6.0-1.38","LF","22elk0nh1m","1280","1024","de","er08rd25","null","","","","","","","","learning/Slide39.JPG","null","","","","",""
"","html-keyboard-response","123","356774","0.0-6.0-2.38","LF","22elk0nh1m","1280","1024","de","er08rd25","null","","","","learningBlock1","","","","<div style=""font-size:60px;""> </div>","null","LF","learning/Slide39.JPG","This is a bim:","",""
"","html-keyboard-response","124","357782","0.0-6.0-0.39","LF","22elk0nh1m","1280","1024","de","er08rd25","null","","","","learningBlock1","","","","This is a tob:","null","","","","",""
"","image-keyboard-response","125","358118","0.0-6.0-1.39","LF","22elk0nh1m","1280","1024","de","er08rd25","null","","","","","","","","learning/Slide40.JPG","null","","","","",""
"","html-keyboard-response","126","359130","0.0-6.0-2.39","LF","22elk0nh1m","1280","1024","de","er08rd25","null","","","","learningBlock1","","","","<div style=""font-size:60px;""> </div>","null","LF","learning/Slide40.JPG","This is a tob:","",""
"","html-keyboard-response","127","360146","0.0-6.0-0.40","LF","22elk0nh1m","1280","1024","de","er08rd25","null","","","","learningBlock1","","","","This is a bim:","null","","","","",""
"","image-keyboard-response","128","360486","0.0-6.0-1.40","LF","22elk0nh1m","1280","1024","de","er08rd25","null","","","","","","","","learning/Slide41.JPG","null","","","","",""
"","html-keyboard-response","129","361493","0.0-6.0-2.40","LF","22elk0nh1m","1280","1024","de","er08rd25","null","","","","learningBlock1","","","","<div style=""font-size:60px;""> </div>","null","LF","learning/Slide41.JPG","This is a bim:","",""
"","html-keyboard-response","130","362498","0.0-6.0-0.41","LF","22elk0nh1m","1280","1024","de","er08rd25","null","","","","learningBlock1","","","","This is a dep:","null","","","","",""
"","image-keyboard-response","131","362836","0.0-6.0-1.41","LF","22elk0nh1m","1280","1024","de","er08rd25","null","","","","","","","","learning/Slide42.JPG","null","","","","",""
"","html-keyboard-response","132","363841","0.0-6.0-2.41","LF","22elk0nh1m","1280","1024","de","er08rd25","null","","","","learningBlock1","","","","<div style=""font-size:60px;""> </div>","null","LF","learning/Slide42.JPG","This is a dep:","",""
"","html-keyboard-response","133","364849","0.0-6.0-0.42","LF","22elk0nh1m","1280","1024","de","er08rd25","null","","","","learningBlock1","","","","This is a wug:","null","","","","",""
"","image-keyboard-response","134","365185","0.0-6.0-1.42","LF","22elk0nh1m","1280","1024","de","er08rd25","null","","","","","","","","learning/Slide43.JPG","null","","","","",""
"","html-keyboard-response","135","366187","0.0-6.0-2.42","LF","22elk0nh1m","1280","1024","de","er08rd25","null","","","","learningBlock1","","","","<div style=""font-size:60px;""> </div>","null","LF","learning/Slide43.JPG","This is a wug:","",""
"","html-keyboard-response","136","367198","0.0-6.0-0.43","LF","22elk0nh1m","1280","1024","de","er08rd25","null","","","","learningBlock1","","","","This is a bim:","null","","","","",""
"","image-keyboard-response","137","367536","0.0-6.0-1.43","LF","22elk0nh1m","1280","1024","de","er08rd25","null","","","","","","","","learning/Slide44.JPG","null","","","","",""
"","html-keyboard-response","138","368540","0.0-6.0-2.43","LF","22elk0nh1m","1280","1024","de","er08rd25","null","","","","learningBlock1","","","","<div style=""font-size:60px;""> </div>","null","LF","learning/Slide44.JPG","This is a bim:","",""
"","html-keyboard-response","139","369548","0.0-6.0-0.44","LF","22elk0nh1m","1280","1024","de","er08rd25","null","","","","learningBlock1","","","","This is a wug:","null","","","","",""
"","image-keyboard-response","140","369885","0.0-6.0-1.44","LF","22elk0nh1m","1280","1024","de","er08rd25","null","","","","","","","","learning/Slide45.JPG","null","","","","",""
"","html-keyboard-response","141","370900","0.0-6.0-2.44","LF","22elk0nh1m","1280","1024","de","er08rd25","null","","","","learningBlock1","","","","<div style=""font-size:60px;""> </div>","null","LF","learning/Slide45.JPG","This is a wug:","",""
"","html-keyboard-response","142","371911","0.0-6.0-0.45","LF","22elk0nh1m","1280","1024","de","er08rd25","null","","","","learningBlock1","","","","This is a dep:","null","","","","",""
"","image-keyboard-response","143","372251","0.0-6.0-1.45","LF","22elk0nh1m","1280","1024","de","er08rd25","null","","","","","","","","learning/Slide46.JPG","null","","","","",""
"","html-keyboard-response","144","373261","0.0-6.0-2.45","LF","22elk0nh1m","1280","1024","de","er08rd25","null","","","","learningBlock1","","","","<div style=""font-size:60px;""> </div>","null","LF","learning/Slide46.JPG","This is a dep:","",""
"","html-keyboard-response","145","374273","0.0-6.0-0.46","LF","22elk0nh1m","1280","1024","de","er08rd25","null","","","","learningBlock1","","","","This is a tob:","null","","","","",""
"","image-keyboard-response","146","374620","0.0-6.0-1.46","LF","22elk0nh1m","1280","1024","de","er08rd25","null","","","","","","","","learning/Slide47.JPG","null","","","","",""
"","html-keyboard-response","147","375625","0.0-6.0-2.46","LF","22elk0nh1m","1280","1024","de","er08rd25","null","","","","learningBlock1","","","","<div style=""font-size:60px;""> </div>","null","LF","learning/Slide47.JPG","This is a tob:","",""
"","html-keyboard-response","148","376638","0.0-6.0-0.47","LF","22elk0nh1m","1280","1024","de","er08rd25","null","","","","learningBlock1","","","","This is a bim:","null","","","","",""
"","image-keyboard-response","149","376983","0.0-6.0-1.47","LF","22elk0nh1m","1280","1024","de","er08rd25","null","","","","","","","","learning/Slide48.JPG","null","","","","",""
"","html-keyboard-response","150","377986","0.0-6.0-2.47","LF","22elk0nh1m","1280","1024","de","er08rd25","null","","","","learningBlock1","","","","<div style=""font-size:60px;""> </div>","null","LF","learning/Slide48.JPG","This is a bim:","",""
"","html-keyboard-response","151","378996","0.0-6.0-0.48","LF","22elk0nh1m","1280","1024","de","er08rd25","null","","","","learningBlock1","","","","This is a dep:","null","","","","",""
"","image-keyboard-response","152","379333","0.0-6.0-1.48","LF","22elk0nh1m","1280","1024","de","er08rd25","null","","","","","","","","learning/Slide49.JPG","null","","","","",""
"","html-keyboard-response","153","380344","0.0-6.0-2.48","LF","22elk0nh1m","1280","1024","de","er08rd25","null","","","","learningBlock1","","","","<div style=""font-size:60px;""> </div>","null","LF","learning/Slide49.JPG","This is a dep:","",""
"","html-keyboard-response","154","381360","0.0-6.0-0.49","LF","22elk0nh1m","1280","1024","de","er08rd25","null","","","","learningBlock1","","","","This is a tob:","null","","","","",""
"","image-keyboard-response","155","381699","0.0-6.0-1.49","LF","22elk0nh1m","1280","1024","de","er08rd25","null","","","","","","","","learning/Slide50.JPG","null","","","","",""
"","html-keyboard-response","156","382710","0.0-6.0-2.49","LF","22elk0nh1m","1280","1024","de","er08rd25","null","","","","learningBlock1","","","","<div style=""font-size:60px;""> </div>","null","LF","learning/Slide50.JPG","This is a tob:","",""
"","html-keyboard-response","157","383714","0.0-6.0-0.50","LF","22elk0nh1m","1280","1024","de","er08rd25","null","","","","learningBlock1","","","","This is a bim:","null","","","","",""
"","image-keyboard-response","158","384049","0.0-6.0-1.50","LF","22elk0nh1m","1280","1024","de","er08rd25","null","","","","","","","","learning/Slide51.JPG","null","","","","",""
"","html-keyboard-response","159","385059","0.0-6.0-2.50","LF","22elk0nh1m","1280","1024","de","er08rd25","null","","","","learningBlock1","","","","<div style=""font-size:60px;""> </div>","null","LF","learning/Slide51.JPG","This is a bim:","",""
"","html-keyboard-response","160","386074","0.0-6.0-0.51","LF","22elk0nh1m","1280","1024","de","er08rd25","null","","","","learningBlock1","","","","This is a wug:","null","","","","",""
"","image-keyboard-response","161","386414","0.0-6.0-1.51","LF","22elk0nh1m","1280","1024","de","er08rd25","null","","","","","","","","learning/Slide52.JPG","null","","","","",""
"","html-keyboard-response","162","387420","0.0-6.0-2.51","LF","22elk0nh1m","1280","1024","de","er08rd25","null","","","","learningBlock1","","","","<div style=""font-size:60px;""> </div>","null","LF","learning/Slide52.JPG","This is a wug:","",""
"","html-keyboard-response","163","388432","0.0-6.0-0.52","LF","22elk0nh1m","1280","1024","de","er08rd25","null","","","","learningBlock1","","","","This is a tob:","null","","","","",""
"","image-keyboard-response","164","388765","0.0-6.0-1.52","LF","22elk0nh1m","1280","1024","de","er08rd25","null","","","","","","","","learning/Slide53.JPG","null","","","","",""
"","html-keyboard-response","165","389773","0.0-6.0-2.52","LF","22elk0nh1m","1280","1024","de","er08rd25","null","","","","learningBlock1","","","","<div style=""font-size:60px;""> </div>","null","LF","learning/Slide53.JPG","This is a tob:","",""
"","html-keyboard-response","166","390781","0.0-6.0-0.53","LF","22elk0nh1m","1280","1024","de","er08rd25","null","","","","learningBlock1","","","","This is a dep:","null","","","","",""
"","image-keyboard-response","167","391131","0.0-6.0-1.53","LF","22elk0nh1m","1280","1024","de","er08rd25","null","","","","","","","","learning/Slide54.JPG","null","","","","",""
"","html-keyboard-response","168","392137","0.0-6.0-2.53","LF","22elk0nh1m","1280","1024","de","er08rd25","null","","","","learningBlock1","","","","<div style=""font-size:60px;""> </div>","null","LF","learning/Slide54.JPG","This is a dep:","",""
"","html-keyboard-response","169","393151","0.0-6.0-0.54","LF","22elk0nh1m","1280","1024","de","er08rd25","null","","","","learningBlock1","","","","This is a bim:","null","","","","",""
"","image-keyboard-response","170","393497","0.0-6.0-1.54","LF","22elk0nh1m","1280","1024","de","er08rd25","null","","","","","","","","learning/Slide55.JPG","null","","","","",""
"","html-keyboard-response","171","394515","0.0-6.0-2.54","LF","22elk0nh1m","1280","1024","de","er08rd25","null","","","","learningBlock1","","","","<div style=""font-size:60px;""> </div>","null","LF","learning/Slide55.JPG","This is a bim:","",""
"","html-keyboard-response","172","395526","0.0-6.0-0.55","LF","22elk0nh1m","1280","1024","de","er08rd25","null","","","","learningBlock1","","","","This is a tob:","null","","","","",""
"","image-keyboard-response","173","395864","0.0-6.0-1.55","LF","22elk0nh1m","1280","1024","de","er08rd25","null","","","","","","","","learning/Slide56.JPG","null","","","","",""
"","html-keyboard-response","174","396876","0.0-6.0-2.55","LF","22elk0nh1m","1280","1024","de","er08rd25","null","","","","learningBlock1","","","","<div style=""font-size:60px;""> </div>","null","LF","learning/Slide56.JPG","This is a tob:","",""
"","html-keyboard-response","175","397893","0.0-6.0-0.56","LF","22elk0nh1m","1280","1024","de","er08rd25","null","","","","learningBlock1","","","","This is a dep:","null","","","","",""
"","image-keyboard-response","176","398230","0.0-6.0-1.56","LF","22elk0nh1m","1280","1024","de","er08rd25","null","","","","","","","","learning/Slide57.JPG","null","","","","",""
"","html-keyboard-response","177","399235","0.0-6.0-2.56","LF","22elk0nh1m","1280","1024","de","er08rd25","null","","","","learningBlock1","","","","<div style=""font-size:60px;""> </div>","null","LF","learning/Slide57.JPG","This is a dep:","",""
"","html-keyboard-response","178","400243","0.0-6.0-0.57","LF","22elk0nh1m","1280","1024","de","er08rd25","null","","","","learningBlock1","","","","This is a wug:","null","","","","",""
"","image-keyboard-response","179","400580","0.0-6.0-1.57","LF","22elk0nh1m","1280","1024","de","er08rd25","null","","","","","","","","learning/Slide58.JPG","null","","","","",""
"","html-keyboard-response","180","401583","0.0-6.0-2.57","LF","22elk0nh1m","1280","1024","de","er08rd25","null","","","","learningBlock1","","","","<div style=""font-size:60px;""> </div>","null","LF","learning/Slide58.JPG","This is a wug:","",""
"","html-keyboard-response","181","402595","0.0-6.0-0.58","LF","22elk0nh1m","1280","1024","de","er08rd25","null","","","","learningBlock1","","","","This is a dep:","null","","","","",""
"","image-keyboard-response","182","402930","0.0-6.0-1.58","LF","22elk0nh1m","1280","1024","de","er08rd25","null","","","","","","","","learning/Slide59.JPG","null","","","","",""
"","html-keyboard-response","183","403938","0.0-6.0-2.58","LF","22elk0nh1m","1280","1024","de","er08rd25","null","","","","learningBlock1","","","","<div style=""font-size:60px;""> </div>","null","LF","learning/Slide59.JPG","This is a dep:","",""
"","html-keyboard-response","184","404941","0.0-6.0-0.59","LF","22elk0nh1m","1280","1024","de","er08rd25","null","","","","learningBlock1","","","","This is a wug:","null","","","","",""
"","image-keyboard-response","185","405280","0.0-6.0-1.59","LF","22elk0nh1m","1280","1024","de","er08rd25","null","","","","","","","","learning/Slide60.JPG","null","","","","",""
"","html-keyboard-response","186","406285","0.0-6.0-2.59","LF","22elk0nh1m","1280","1024","de","er08rd25","null","","","","learningBlock1","","","","<div style=""font-size:60px;""> </div>","null","LF","learning/Slide60.JPG","This is a wug:","",""
"","html-keyboard-response","187","407292","0.0-6.0-0.60","LF","22elk0nh1m","1280","1024","de","er08rd25","null","","","","learningBlock1","","","","This is a bim:","null","","","","",""
"","image-keyboard-response","188","407630","0.0-6.0-1.60","LF","22elk0nh1m","1280","1024","de","er08rd25","null","","","","","","","","learning/Slide61.JPG","null","","","","",""
"","html-keyboard-response","189","408645","0.0-6.0-2.60","LF","22elk0nh1m","1280","1024","de","er08rd25","null","","","","learningBlock1","","","","<div style=""font-size:60px;""> </div>","null","LF","learning/Slide61.JPG","This is a bim:","",""
"","html-keyboard-response","190","409657","0.0-6.0-0.61","LF","22elk0nh1m","1280","1024","de","er08rd25","null","","","","learningBlock1","","","","This is a dep:","null","","","","",""
"","image-keyboard-response","191","409995","0.0-6.0-1.61","LF","22elk0nh1m","1280","1024","de","er08rd25","null","","","","","","","","learning/Slide62.JPG","null","","","","",""
"","html-keyboard-response","192","410999","0.0-6.0-2.61","LF","22elk0nh1m","1280","1024","de","er08rd25","null","","","","learningBlock1","","","","<div style=""font-size:60px;""> </div>","null","LF","learning/Slide62.JPG","This is a dep:","",""
"","html-keyboard-response","193","412006","0.0-6.0-0.62","LF","22elk0nh1m","1280","1024","de","er08rd25","null","","","","learningBlock1","","","","This is a bim:","null","","","","",""
"","image-keyboard-response","194","412345","0.0-6.0-1.62","LF","22elk0nh1m","1280","1024","de","er08rd25","null","","","","","","","","learning/Slide63.JPG","null","","","","",""
"","html-keyboard-response","195","413351","0.0-6.0-2.62","LF","22elk0nh1m","1280","1024","de","er08rd25","null","","","","learningBlock1","","","","<div style=""font-size:60px;""> </div>","null","LF","learning/Slide63.JPG","This is a bim:","",""
"","html-keyboard-response","196","414354","0.0-6.0-0.63","LF","22elk0nh1m","1280","1024","de","er08rd25","null","","","","learningBlock1","","","","This is a tob:","null","","","","",""
"","image-keyboard-response","197","414695","0.0-6.0-1.63","LF","22elk0nh1m","1280","1024","de","er08rd25","null","","","","","","","","learning/Slide64.JPG","null","","","","",""
"","html-keyboard-response","198","415713","0.0-6.0-2.63","LF","22elk0nh1m","1280","1024","de","er08rd25","null","","","","learningBlock1","","","","<div style=""font-size:60px;""> </div>","null","LF","learning/Slide64.JPG","This is a tob:","",""
"","html-keyboard-response","199","416730","0.0-6.0-0.64","LF","22elk0nh1m","1280","1024","de","er08rd25","null","","","","learningBlock1","","","","This is a wug:","null","","","","",""
"","image-keyboard-response","200","417086","0.0-6.0-1.64","LF","22elk0nh1m","1280","1024","de","er08rd25","null","","","","","","","","learning/Slide65.JPG","null","","","","",""
"","html-keyboard-response","201","418094","0.0-6.0-2.64","LF","22elk0nh1m","1280","1024","de","er08rd25","null","","","","learningBlock1","","","","<div style=""font-size:60px;""> </div>","null","LF","learning/Slide65.JPG","This is a wug:","",""
"","html-keyboard-response","202","419097","0.0-6.0-0.65","LF","22elk0nh1m","1280","1024","de","er08rd25","null","","","","learningBlock1","","","","This is a dep:","null","","","","",""
"","image-keyboard-response","203","419444","0.0-6.0-1.65","LF","22elk0nh1m","1280","1024","de","er08rd25","null","","","","","","","","learning/Slide66.JPG","null","","","","",""
"","html-keyboard-response","204","420449","0.0-6.0-2.65","LF","22elk0nh1m","1280","1024","de","er08rd25","null","","","","learningBlock1","","","","<div style=""font-size:60px;""> </div>","null","LF","learning/Slide66.JPG","This is a dep:","",""
"","html-keyboard-response","205","421463","0.0-6.0-0.66","LF","22elk0nh1m","1280","1024","de","er08rd25","null","","","","learningBlock1","","","","This is a tob:","null","","","","",""
"","image-keyboard-response","206","421810","0.0-6.0-1.66","LF","22elk0nh1m","1280","1024","de","er08rd25","null","","","","","","","","learning/Slide67.JPG","null","","","","",""
"","html-keyboard-response","207","422822","0.0-6.0-2.66","LF","22elk0nh1m","1280","1024","de","er08rd25","null","","","","learningBlock1","","","","<div style=""font-size:60px;""> </div>","null","LF","learning/Slide67.JPG","This is a tob:","",""
"","html-keyboard-response","208","423831","0.0-6.0-0.67","LF","22elk0nh1m","1280","1024","de","er08rd25","null","","","","learningBlock1","","","","This is a wug:","null","","","","",""
"","image-keyboard-response","209","424175","0.0-6.0-1.67","LF","22elk0nh1m","1280","1024","de","er08rd25","null","","","","","","","","learning/Slide68.JPG","null","","","","",""
"","html-keyboard-response","210","425178","0.0-6.0-2.67","LF","22elk0nh1m","1280","1024","de","er08rd25","null","","","","learningBlock1","","","","<div style=""font-size:60px;""> </div>","null","LF","learning/Slide68.JPG","This is a wug:","",""
"","html-keyboard-response","211","426183","0.0-6.0-0.68","LF","22elk0nh1m","1280","1024","de","er08rd25","null","","","","learningBlock1","","","","This is a tob:","null","","","","",""
"","image-keyboard-response","212","426526","0.0-6.0-1.68","LF","22elk0nh1m","1280","1024","de","er08rd25","null","","","","","","","","learning/Slide69.JPG","null","","","","",""
"","html-keyboard-response","213","427536","0.0-6.0-2.68","LF","22elk0nh1m","1280","1024","de","er08rd25","null","","","","learningBlock1","","","","<div style=""font-size:60px;""> </div>","null","LF","learning/Slide69.JPG","This is a tob:","",""
"","html-keyboard-response","214","428540","0.0-6.0-0.69","LF","22elk0nh1m","1280","1024","de","er08rd25","null","","","","learningBlock1","","","","This is a dep:","null","","","","",""
"","image-keyboard-response","215","428876","0.0-6.0-1.69","LF","22elk0nh1m","1280","1024","de","er08rd25","null","","","","","","","","learning/Slide70.JPG","null","","","","",""
"","html-keyboard-response","216","429886","0.0-6.0-2.69","LF","22elk0nh1m","1280","1024","de","er08rd25","null","","","","learningBlock1","","","","<div style=""font-size:60px;""> </div>","null","LF","learning/Slide70.JPG","This is a dep:","",""
"","html-keyboard-response","217","430904","0.0-6.0-0.70","LF","22elk0nh1m","1280","1024","de","er08rd25","null","","","","learningBlock1","","","","This is a wug:","null","","","","",""
"","image-keyboard-response","218","431243","0.0-6.0-1.70","LF","22elk0nh1m","1280","1024","de","er08rd25","null","","","","","","","","learning/Slide71.JPG","null","","","","",""
"","html-keyboard-response","219","432245","0.0-6.0-2.70","LF","22elk0nh1m","1280","1024","de","er08rd25","null","","","","learningBlock1","","","","<div style=""font-size:60px;""> </div>","null","LF","learning/Slide71.JPG","This is a wug:","",""
"","html-keyboard-response","220","433261","0.0-6.0-0.71","LF","22elk0nh1m","1280","1024","de","er08rd25","null","","","","learningBlock1","","","","This is a bim:","null","","","","",""
"","image-keyboard-response","221","433611","0.0-6.0-1.71","LF","22elk0nh1m","1280","1024","de","er08rd25","null","","","","","","","","learning/Slide72.JPG","null","","","","",""
"","html-keyboard-response","222","434621","0.0-6.0-2.71","LF","22elk0nh1m","1280","1024","de","er08rd25","null","","","","learningBlock1","","","","<div style=""font-size:60px;""> </div>","null","LF","learning/Slide72.JPG","This is a bim:","",""
"","html-keyboard-response","223","435629","0.0-6.0-0.72","LF","22elk0nh1m","1280","1024","de","er08rd25","null","","","","learningBlock1","","","","This is a wug:","null","","","","",""
"","image-keyboard-response","224","435976","0.0-6.0-1.72","LF","22elk0nh1m","1280","1024","de","er08rd25","null","","","","","","","","learning/Slide73.JPG","null","","","","",""
"","html-keyboard-response","225","436991","0.0-6.0-2.72","LF","22elk0nh1m","1280","1024","de","er08rd25","null","","","","learningBlock1","","","","<div style=""font-size:60px;""> </div>","null","LF","learning/Slide73.JPG","This is a wug:","",""
"","html-keyboard-response","226","437999","0.0-6.0-0.73","LF","22elk0nh1m","1280","1024","de","er08rd25","null","","","","learningBlock1","","","","This is a dep:","null","","","","",""
"","image-keyboard-response","227","438341","0.0-6.0-1.73","LF","22elk0nh1m","1280","1024","de","er08rd25","null","","","","","","","","learning/Slide74.JPG","null","","","","",""
"","html-keyboard-response","228","439349","0.0-6.0-2.73","LF","22elk0nh1m","1280","1024","de","er08rd25","null","","","","learningBlock1","","","","<div style=""font-size:60px;""> </div>","null","LF","learning/Slide74.JPG","This is a dep:","",""
"","html-keyboard-response","229","440364","0.0-6.0-0.74","LF","22elk0nh1m","1280","1024","de","er08rd25","null","","","","learningBlock1","","","","This is a tob:","null","","","","",""
"","image-keyboard-response","230","440706","0.0-6.0-1.74","LF","22elk0nh1m","1280","1024","de","er08rd25","null","","","","","","","","learning/Slide75.JPG","null","","","","",""
"","html-keyboard-response","231","441709","0.0-6.0-2.74","LF","22elk0nh1m","1280","1024","de","er08rd25","null","","","","learningBlock1","","","","<div style=""font-size:60px;""> </div>","null","LF","learning/Slide75.JPG","This is a tob:","",""
"","html-keyboard-response","232","442719","0.0-6.0-0.75","LF","22elk0nh1m","1280","1024","de","er08rd25","null","","","","learningBlock1","","","","This is a bim:","null","","","","",""
"","image-keyboard-response","233","443058","0.0-6.0-1.75","LF","22elk0nh1m","1280","1024","de","er08rd25","null","","","","","","","","learning/Slide76.JPG","null","","","","",""
"","html-keyboard-response","234","444071","0.0-6.0-2.75","LF","22elk0nh1m","1280","1024","de","er08rd25","null","","","","learningBlock1","","","","<div style=""font-size:60px;""> </div>","null","LF","learning/Slide76.JPG","This is a bim:","",""
"","html-keyboard-response","235","445080","0.0-6.0-0.76","LF","22elk0nh1m","1280","1024","de","er08rd25","null","","","","learningBlock1","","","","This is a tob:","null","","","","",""
"","image-keyboard-response","236","445424","0.0-6.0-1.76","LF","22elk0nh1m","1280","1024","de","er08rd25","null","","","","","","","","learning/Slide77.JPG","null","","","","",""
"","html-keyboard-response","237","446439","0.0-6.0-2.76","LF","22elk0nh1m","1280","1024","de","er08rd25","null","","","","learningBlock1","","","","<div style=""font-size:60px;""> </div>","null","LF","learning/Slide77.JPG","This is a tob:","",""
"","html-keyboard-response","238","447454","0.0-6.0-0.77","LF","22elk0nh1m","1280","1024","de","er08rd25","null","","","","learningBlock1","","","","This is a wug:","null","","","","",""
"","image-keyboard-response","239","447790","0.0-6.0-1.77","LF","22elk0nh1m","1280","1024","de","er08rd25","null","","","","","","","","learning/Slide78.JPG","null","","","","",""
"","html-keyboard-response","240","448800","0.0-6.0-2.77","LF","22elk0nh1m","1280","1024","de","er08rd25","null","","","","learningBlock1","","","","<div style=""font-size:60px;""> </div>","null","LF","learning/Slide78.JPG","This is a wug:","",""
"","html-keyboard-response","241","449811","0.0-6.0-0.78","LF","22elk0nh1m","1280","1024","de","er08rd25","null","","","","learningBlock1","","","","This is a bim:","null","","","","",""
"","image-keyboard-response","242","450156","0.0-6.0-1.78","LF","22elk0nh1m","1280","1024","de","er08rd25","null","","","","","","","","learning/Slide79.JPG","null","","","","",""
"","html-keyboard-response","243","451159","0.0-6.0-2.78","LF","22elk0nh1m","1280","1024","de","er08rd25","null","","","","learningBlock1","","","","<div style=""font-size:60px;""> </div>","null","LF","learning/Slide79.JPG","This is a bim:","",""
"","html-keyboard-response","244","452171","0.0-6.0-0.79","LF","22elk0nh1m","1280","1024","de","er08rd25","null","","","","learningBlock1","","","","This is a tob:","null","","","","",""
"","image-keyboard-response","245","452507","0.0-6.0-1.79","LF","22elk0nh1m","1280","1024","de","er08rd25","null","","","","","","","","learning/Slide80.JPG","null","","","","",""
"","html-keyboard-response","246","453525","0.0-6.0-2.79","LF","22elk0nh1m","1280","1024","de","er08rd25","null","","","","learningBlock1","","","","<div style=""font-size:60px;""> </div>","null","LF","learning/Slide80.JPG","This is a tob:","",""
"","instructions","247","462903","0.0-7.0","LF","22elk0nh1m","1280","1024","de","er08rd25","NA","","","[{""page_index"":0,""viewing_time"":9377.489999998943}]","instructions","","","","","","","","","",""
"","html-keyboard-response","248","463910","0.0-8.0-0.0","LF","22elk0nh1m","1280","1024","de","er08rd25","null","","","","learningBlock2","","","","This is a wug:","null","","","","",""
"","image-keyboard-response","249","464253","0.0-8.0-1.0","LF","22elk0nh1m","1280","1024","de","er08rd25","null","","","","","","","","learning/Slide81.JPG","null","","","","",""
"","html-keyboard-response","250","465266","0.0-8.0-2.0","LF","22elk0nh1m","1280","1024","de","er08rd25","null","","","","learningBlock2","","","","<div style=""font-size:60px;""> </div>","null","LF","learning/Slide81.JPG","This is a wug:","",""
"","html-keyboard-response","251","466281","0.0-8.0-0.1","LF","22elk0nh1m","1280","1024","de","er08rd25","null","","","","learningBlock2","","","","This is a bim:","null","","","","",""
"","image-keyboard-response","252","466620","0.0-8.0-1.1","LF","22elk0nh1m","1280","1024","de","er08rd25","null","","","","","","","","learning/Slide82.JPG","null","","","","",""
"","html-keyboard-response","253","467624","0.0-8.0-2.1","LF","22elk0nh1m","1280","1024","de","er08rd25","null","","","","learningBlock2","","","","<div style=""font-size:60px;""> </div>","null","LF","learning/Slide82.JPG","This is a bim:","",""
"","html-keyboard-response","254","468629","0.0-8.0-0.2","LF","22elk0nh1m","1280","1024","de","er08rd25","null","","","","learningBlock2","","","","This is a wug:","null","","","","",""
"","image-keyboard-response","255","468970","0.0-8.0-1.2","LF","22elk0nh1m","1280","1024","de","er08rd25","null","","","","","","","","learning/Slide83.JPG","null","","","","",""
"","html-keyboard-response","256","469981","0.0-8.0-2.2","LF","22elk0nh1m","1280","1024","de","er08rd25","null","","","","learningBlock2","","","","<div style=""font-size:60px;""> </div>","null","LF","learning/Slide83.JPG","This is a wug:","",""
"","html-keyboard-response","257","470999","0.0-8.0-0.3","LF","22elk0nh1m","1280","1024","de","er08rd25","null","","","","learningBlock2","","","","This is a dep:","null","","","","",""
"","image-keyboard-response","258","471337","0.0-8.0-1.3","LF","22elk0nh1m","1280","1024","de","er08rd25","null","","","","","","","","learning/Slide84.JPG","null","","","","",""
"","html-keyboard-response","259","472350","0.0-8.0-2.3","LF","22elk0nh1m","1280","1024","de","er08rd25","null","","","","learningBlock2","","","","<div style=""font-size:60px;""> </div>","null","LF","learning/Slide84.JPG","This is a dep:","",""
"","html-keyboard-response","260","473366","0.0-8.0-0.4","LF","22elk0nh1m","1280","1024","de","er08rd25","null","","","","learningBlock2","","","","This is a bim:","null","","","","",""
"","image-keyboard-response","261","473702","0.0-8.0-1.4","LF","22elk0nh1m","1280","1024","de","er08rd25","null","","","","","","","","learning/Slide85.JPG","null","","","","",""
"","html-keyboard-response","262","474717","0.0-8.0-2.4","LF","22elk0nh1m","1280","1024","de","er08rd25","null","","","","learningBlock2","","","","<div style=""font-size:60px;""> </div>","null","LF","learning/Slide85.JPG","This is a bim:","",""
"","html-keyboard-response","263","475731","0.0-8.0-0.5","LF","22elk0nh1m","1280","1024","de","er08rd25","null","","","","learningBlock2","","","","This is a tob:","null","","","","",""
"","image-keyboard-response","264","476069","0.0-8.0-1.5","LF","22elk0nh1m","1280","1024","de","er08rd25","null","","","","","","","","learning/Slide86.JPG","null","","","","",""
"","html-keyboard-response","265","477072","0.0-8.0-2.5","LF","22elk0nh1m","1280","1024","de","er08rd25","null","","","","learningBlock2","","","","<div style=""font-size:60px;""> </div>","null","LF","learning/Slide86.JPG","This is a tob:","",""
"","html-keyboard-response","266","478074","0.0-8.0-0.6","LF","22elk0nh1m","1280","1024","de","er08rd25","null","","","","learningBlock2","","","","This is a wug:","null","","","","",""
"","image-keyboard-response","267","478420","0.0-8.0-1.6","LF","22elk0nh1m","1280","1024","de","er08rd25","null","","","","","","","","learning/Slide87.JPG","null","","","","",""
"","html-keyboard-response","268","479429","0.0-8.0-2.6","LF","22elk0nh1m","1280","1024","de","er08rd25","null","","","","learningBlock2","","","","<div style=""font-size:60px;""> </div>","null","LF","learning/Slide87.JPG","This is a wug:","",""
"","html-keyboard-response","269","480446","0.0-8.0-0.7","LF","22elk0nh1m","1280","1024","de","er08rd25","null","","","","learningBlock2","","","","This is a tob:","null","","","","",""
"","image-keyboard-response","270","480785","0.0-8.0-1.7","LF","22elk0nh1m","1280","1024","de","er08rd25","null","","","","","","","","learning/Slide88.JPG","null","","","","",""
"","html-keyboard-response","271","481789","0.0-8.0-2.7","LF","22elk0nh1m","1280","1024","de","er08rd25","null","","","","learningBlock2","","","","<div style=""font-size:60px;""> </div>","null","LF","learning/Slide88.JPG","This is a tob:","",""
"","html-keyboard-response","272","482792","0.0-8.0-0.8","LF","22elk0nh1m","1280","1024","de","er08rd25","null","","","","learningBlock2","","","","This is a bim:","null","","","","",""
"","image-keyboard-response","273","483134","0.0-8.0-1.8","LF","22elk0nh1m","1280","1024","de","er08rd25","null","","","","","","","","learning/Slide89.JPG","null","","","","",""
"","html-keyboard-response","274","484151","0.0-8.0-2.8","LF","22elk0nh1m","1280","1024","de","er08rd25","null","","","","learningBlock2","","","","<div style=""font-size:60px;""> </div>","null","LF","learning/Slide89.JPG","This is a bim:","",""
"","html-keyboard-response","275","485163","0.0-8.0-0.9","LF","22elk0nh1m","1280","1024","de","er08rd25","null","","","","learningBlock2","","","","This is a dep:","null","","","","",""
"","image-keyboard-response","276","485501","0.0-8.0-1.9","LF","22elk0nh1m","1280","1024","de","er08rd25","null","","","","","","","","learning/Slide90.JPG","null","","","","",""
"","html-keyboard-response","277","486511","0.0-8.0-2.9","LF","22elk0nh1m","1280","1024","de","er08rd25","null","","","","learningBlock2","","","","<div style=""font-size:60px;""> </div>","null","LF","learning/Slide90.JPG","This is a dep:","",""
"","html-keyboard-response","278","487523","0.0-8.0-0.10","LF","22elk0nh1m","1280","1024","de","er08rd25","null","","","","learningBlock2","","","","This is a wug:","null","","","","",""
"","image-keyboard-response","279","487867","0.0-8.0-1.10","LF","22elk0nh1m","1280","1024","de","er08rd25","null","","","","","","","","learning/Slide91.JPG","null","","","","",""
"","html-keyboard-response","280","488883","0.0-8.0-2.10","LF","22elk0nh1m","1280","1024","de","er08rd25","null","","","","learningBlock2","","","","<div style=""font-size:60px;""> </div>","null","LF","learning/Slide91.JPG","This is a wug:","",""
"","html-keyboard-response","281","489886","0.0-8.0-0.11","LF","22elk0nh1m","1280","1024","de","er08rd25","null","","","","learningBlock2","","","","This is a tob:","null","","","","",""
"","image-keyboard-response","282","490233","0.0-8.0-1.11","LF","22elk0nh1m","1280","1024","de","er08rd25","null","","","","","","","","learning/Slide92.JPG","null","","","","",""
"","html-keyboard-response","283","491241","0.0-8.0-2.11","LF","22elk0nh1m","1280","1024","de","er08rd25","null","","","","learningBlock2","","","","<div style=""font-size:60px;""> </div>","null","LF","learning/Slide92.JPG","This is a tob:","",""
"","html-keyboard-response","284","492244","0.0-8.0-0.12","LF","22elk0nh1m","1280","1024","de","er08rd25","null","","","","learningBlock2","","","","This is a bim:","null","","","","",""
"","image-keyboard-response","285","492584","0.0-8.0-1.12","LF","22elk0nh1m","1280","1024","de","er08rd25","null","","","","","","","","learning/Slide93.JPG","null","","","","",""
"","html-keyboard-response","286","493594","0.0-8.0-2.12","LF","22elk0nh1m","1280","1024","de","er08rd25","null","","","","learningBlock2","","","","<div style=""font-size:60px;""> </div>","null","LF","learning/Slide93.JPG","This is a bim:","",""
"","html-keyboard-response","287","494601","0.0-8.0-0.13","LF","22elk0nh1m","1280","1024","de","er08rd25","null","","","","learningBlock2","","","","This is a tob:","null","","","","",""
"","image-keyboard-response","288","494949","0.0-8.0-1.13","LF","22elk0nh1m","1280","1024","de","er08rd25","null","","","","","","","","learning/Slide94.JPG","null","","","","",""
"","html-keyboard-response","289","495954","0.0-8.0-2.13","LF","22elk0nh1m","1280","1024","de","er08rd25","null","","","","learningBlock2","","","","<div style=""font-size:60px;""> </div>","null","LF","learning/Slide94.JPG","This is a tob:","",""
"","html-keyboard-response","290","496960","0.0-8.0-0.14","LF","22elk0nh1m","1280","1024","de","er08rd25","null","","","","learningBlock2","","","","This is a wug:","null","","","","",""
"","image-keyboard-response","291","497300","0.0-8.0-1.14","LF","22elk0nh1m","1280","1024","de","er08rd25","null","","","","","","","","learning/Slide95.JPG","null","","","","",""
"","html-keyboard-response","292","498307","0.0-8.0-2.14","LF","22elk0nh1m","1280","1024","de","er08rd25","null","","","","learningBlock2","","","","<div style=""font-size:60px;""> </div>","null","LF","learning/Slide95.JPG","This is a wug:","",""
"","html-keyboard-response","293","499313","0.0-8.0-0.15","LF","22elk0nh1m","1280","1024","de","er08rd25","null","","","","learningBlock2","","","","This is a tob:","null","","","","",""
"","image-keyboard-response","294","499649","0.0-8.0-1.15","LF","22elk0nh1m","1280","1024","de","er08rd25","null","","","","","","","","learning/Slide96.JPG","null","","","","",""
"","html-keyboard-response","295","500665","0.0-8.0-2.15","LF","22elk0nh1m","1280","1024","de","er08rd25","null","","","","learningBlock2","","","","<div style=""font-size:60px;""> </div>","null","LF","learning/Slide96.JPG","This is a tob:","",""
"","html-keyboard-response","296","501669","0.0-8.0-0.16","LF","22elk0nh1m","1280","1024","de","er08rd25","null","","","","learningBlock2","","","","This is a dep:","null","","","","",""
"","image-keyboard-response","297","502014","0.0-8.0-1.16","LF","22elk0nh1m","1280","1024","de","er08rd25","null","","","","","","","","learning/Slide97.JPG","null","","","","",""
"","html-keyboard-response","298","503021","0.0-8.0-2.16","LF","22elk0nh1m","1280","1024","de","er08rd25","null","","","","learningBlock2","","","","<div style=""font-size:60px;""> </div>","null","LF","learning/Slide97.JPG","This is a dep:","",""
"","html-keyboard-response","299","504031","0.0-8.0-0.17","LF","22elk0nh1m","1280","1024","de","er08rd25","null","","","","learningBlock2","","","","This is a bim:","null","","","","",""
"","image-keyboard-response","300","504365","0.0-8.0-1.17","LF","22elk0nh1m","1280","1024","de","er08rd25","null","","","","","","","","learning/Slide98.JPG","null","","","","",""
"","html-keyboard-response","301","505377","0.0-8.0-2.17","LF","22elk0nh1m","1280","1024","de","er08rd25","null","","","","learningBlock2","","","","<div style=""font-size:60px;""> </div>","null","LF","learning/Slide98.JPG","This is a bim:","",""
"","html-keyboard-response","302","506381","0.0-8.0-0.18","LF","22elk0nh1m","1280","1024","de","er08rd25","null","","","","learningBlock2","","","","This is a dep:","null","","","","",""
"","image-keyboard-response","303","506715","0.0-8.0-1.18","LF","22elk0nh1m","1280","1024","de","er08rd25","null","","","","","","","","learning/Slide99.JPG","null","","","","",""
"","html-keyboard-response","304","507732","0.0-8.0-2.18","LF","22elk0nh1m","1280","1024","de","er08rd25","null","","","","learningBlock2","","","","<div style=""font-size:60px;""> </div>","null","LF","learning/Slide99.JPG","This is a dep:","",""
"","html-keyboard-response","305","508751","0.0-8.0-0.19","LF","22elk0nh1m","1280","1024","de","er08rd25","null","","","","learningBlock2","","","","This is a bim:","null","","","","",""
"","image-keyboard-response","306","509099","0.0-8.0-1.19","LF","22elk0nh1m","1280","1024","de","er08rd25","null","","","","","","","","learning/Slide100.JPG","null","","","","",""
"","html-keyboard-response","307","510112","0.0-8.0-2.19","LF","22elk0nh1m","1280","1024","de","er08rd25","null","","","","learningBlock2","","","","<div style=""font-size:60px;""> </div>","null","LF","learning/Slide100.JPG","This is a bim:","",""
"","html-keyboard-response","308","511123","0.0-8.0-0.20","LF","22elk0nh1m","1280","1024","de","er08rd25","null","","","","learningBlock2","","","","This is a tob:","null","","","","",""
"","image-keyboard-response","309","511464","0.0-8.0-1.20","LF","22elk0nh1m","1280","1024","de","er08rd25","null","","","","","","","","learning/Slide101.JPG","null","","","","",""
"","html-keyboard-response","310","512471","0.0-8.0-2.20","LF","22elk0nh1m","1280","1024","de","er08rd25","null","","","","learningBlock2","","","","<div style=""font-size:60px;""> </div>","null","LF","learning/Slide101.JPG","This is a tob:","",""
"","html-keyboard-response","311","513483","0.0-8.0-0.21","LF","22elk0nh1m","1280","1024","de","er08rd25","null","","","","learningBlock2","","","","This is a bim:","null","","","","",""
"","image-keyboard-response","312","513831","0.0-8.0-1.21","LF","22elk0nh1m","1280","1024","de","er08rd25","null","","","","","","","","learning/Slide102.JPG","null","","","","",""
"","html-keyboard-response","313","514843","0.0-8.0-2.21","LF","22elk0nh1m","1280","1024","de","er08rd25","null","","","","learningBlock2","","","","<div style=""font-size:60px;""> </div>","null","LF","learning/Slide102.JPG","This is a bim:","",""
"","html-keyboard-response","314","515857","0.0-8.0-0.22","LF","22elk0nh1m","1280","1024","de","er08rd25","null","","","","learningBlock2","","","","This is a dep:","null","","","","",""
"","image-keyboard-response","315","516198","0.0-8.0-1.22","LF","22elk0nh1m","1280","1024","de","er08rd25","null","","","","","","","","learning/Slide103.JPG","null","","","","",""
"","html-keyboard-response","316","517215","0.0-8.0-2.22","LF","22elk0nh1m","1280","1024","de","er08rd25","null","","","","learningBlock2","","","","<div style=""font-size:60px;""> </div>","null","LF","learning/Slide103.JPG","This is a dep:","",""
"","html-keyboard-response","317","518220","0.0-8.0-0.23","LF","22elk0nh1m","1280","1024","de","er08rd25","null","","","","learningBlock2","","","","This is a tob:","null","","","","",""
"","image-keyboard-response","318","518564","0.0-8.0-1.23","LF","22elk0nh1m","1280","1024","de","er08rd25","null","","","","","","","","learning/Slide104.JPG","null","","","","",""
"","html-keyboard-response","319","519567","0.0-8.0-2.23","LF","22elk0nh1m","1280","1024","de","er08rd25","null","","","","learningBlock2","","","","<div style=""font-size:60px;""> </div>","null","LF","learning/Slide104.JPG","This is a tob:","",""
"","html-keyboard-response","320","520582","0.0-8.0-0.24","LF","22elk0nh1m","1280","1024","de","er08rd25","null","","","","learningBlock2","","","","This is a dep:","null","","","","",""
"","image-keyboard-response","321","520929","0.0-8.0-1.24","LF","22elk0nh1m","1280","1024","de","er08rd25","null","","","","","","","","learning/Slide105.JPG","null","","","","",""
"","html-keyboard-response","322","521944","0.0-8.0-2.24","LF","22elk0nh1m","1280","1024","de","er08rd25","null","","","","learningBlock2","","","","<div style=""font-size:60px;""> </div>","null","LF","learning/Slide105.JPG","This is a dep:","",""
"","html-keyboard-response","323","522950","0.0-8.0-0.25","LF","22elk0nh1m","1280","1024","de","er08rd25","null","","","","learningBlock2","","","","This is a wug:","null","","","","",""
"","image-keyboard-response","324","523296","0.0-8.0-1.25","LF","22elk0nh1m","1280","1024","de","er08rd25","null","","","","","","","","learning/Slide106.JPG","null","","","","",""
"","html-keyboard-response","325","524311","0.0-8.0-2.25","LF","22elk0nh1m","1280","1024","de","er08rd25","null","","","","learningBlock2","","","","<div style=""font-size:60px;""> </div>","null","LF","learning/Slide106.JPG","This is a wug:","",""
"","html-keyboard-response","326","525322","0.0-8.0-0.26","LF","22elk0nh1m","1280","1024","de","er08rd25","null","","","","learningBlock2","","","","This is a bim:","null","","","","",""
"","image-keyboard-response","327","525662","0.0-8.0-1.26","LF","22elk0nh1m","1280","1024","de","er08rd25","null","","","","","","","","learning/Slide107.JPG","null","","","","",""
"","html-keyboard-response","328","526673","0.0-8.0-2.26","LF","22elk0nh1m","1280","1024","de","er08rd25","null","","","","learningBlock2","","","","<div style=""font-size:60px;""> </div>","null","LF","learning/Slide107.JPG","This is a bim:","",""
"","html-keyboard-response","329","527691","0.0-8.0-0.27","LF","22elk0nh1m","1280","1024","de","er08rd25","null","","","","learningBlock2","","","","This is a dep:","null","","","","",""
"","image-keyboard-response","330","528028","0.0-8.0-1.27","LF","22elk0nh1m","1280","1024","de","er08rd25","null","","","","","","","","learning/Slide108.JPG","null","","","","",""
"","html-keyboard-response","331","529045","0.0-8.0-2.27","LF","22elk0nh1m","1280","1024","de","er08rd25","null","","","","learningBlock2","","","","<div style=""font-size:60px;""> </div>","null","LF","learning/Slide108.JPG","This is a dep:","",""
"","html-keyboard-response","332","530056","0.0-8.0-0.28","LF","22elk0nh1m","1280","1024","de","er08rd25","null","","","","learningBlock2","","","","This is a wug:","null","","","","",""
"","image-keyboard-response","333","530399","0.0-8.0-1.28","LF","22elk0nh1m","1280","1024","de","er08rd25","null","","","","","","","","learning/Slide109.JPG","null","","","","",""
"","html-keyboard-response","334","531409","0.0-8.0-2.28","LF","22elk0nh1m","1280","1024","de","er08rd25","null","","","","learningBlock2","","","","<div style=""font-size:60px;""> </div>","null","LF","learning/Slide109.JPG","This is a wug:","",""
"","html-keyboard-response","335","532419","0.0-8.0-0.29","LF","22elk0nh1m","1280","1024","de","er08rd25","null","","","","learningBlock2","","","","This is a bim:","null","","","","",""
"","image-keyboard-response","336","532767","0.0-8.0-1.29","LF","22elk0nh1m","1280","1024","de","er08rd25","null","","","","","","","","learning/Slide110.JPG","null","","","","",""
"","html-keyboard-response","337","533770","0.0-8.0-2.29","LF","22elk0nh1m","1280","1024","de","er08rd25","null","","","","learningBlock2","","","","<div style=""font-size:60px;""> </div>","null","LF","learning/Slide110.JPG","This is a bim:","",""
"","html-keyboard-response","338","534780","0.0-8.0-0.30","LF","22elk0nh1m","1280","1024","de","er08rd25","null","","","","learningBlock2","","","","This is a tob:","null","","","","",""
"","image-keyboard-response","339","535127","0.0-8.0-1.30","LF","22elk0nh1m","1280","1024","de","er08rd25","null","","","","","","","","learning/Slide111.JPG","null","","","","",""
"","html-keyboard-response","340","536139","0.0-8.0-2.30","LF","22elk0nh1m","1280","1024","de","er08rd25","null","","","","learningBlock2","","","","<div style=""font-size:60px;""> </div>","null","LF","learning/Slide111.JPG","This is a tob:","",""
"","html-keyboard-response","341","537142","0.0-8.0-0.31","LF","22elk0nh1m","1280","1024","de","er08rd25","null","","","","learningBlock2","","","","This is a wug:","null","","","","",""
"","image-keyboard-response","342","537476","0.0-8.0-1.31","LF","22elk0nh1m","1280","1024","de","er08rd25","null","","","","","","","","learning/Slide112.JPG","null","","","","",""
"","html-keyboard-response","343","538492","0.0-8.0-2.31","LF","22elk0nh1m","1280","1024","de","er08rd25","null","","","","learningBlock2","","","","<div style=""font-size:60px;""> </div>","null","LF","learning/Slide112.JPG","This is a wug:","",""
"","html-keyboard-response","344","539500","0.0-8.0-0.32","LF","22elk0nh1m","1280","1024","de","er08rd25","null","","","","learningBlock2","","","","This is a tob:","null","","","","",""
"","image-keyboard-response","345","539844","0.0-8.0-1.32","LF","22elk0nh1m","1280","1024","de","er08rd25","null","","","","","","","","learning/Slide113.JPG","null","","","","",""
"","html-keyboard-response","346","540860","0.0-8.0-2.32","LF","22elk0nh1m","1280","1024","de","er08rd25","null","","","","learningBlock2","","","","<div style=""font-size:60px;""> </div>","null","LF","learning/Slide113.JPG","This is a tob:","",""
"","html-keyboard-response","347","541877","0.0-8.0-0.33","LF","22elk0nh1m","1280","1024","de","er08rd25","null","","","","learningBlock2","","","","This is a wug:","null","","","","",""
"","image-keyboard-response","348","542210","0.0-8.0-1.33","LF","22elk0nh1m","1280","1024","de","er08rd25","null","","","","","","","","learning/Slide114.JPG","null","","","","",""
"","html-keyboard-response","349","543218","0.0-8.0-2.33","LF","22elk0nh1m","1280","1024","de","er08rd25","null","","","","learningBlock2","","","","<div style=""font-size:60px;""> </div>","null","LF","learning/Slide114.JPG","This is a wug:","",""
"","html-keyboard-response","350","544234","0.0-8.0-0.34","LF","22elk0nh1m","1280","1024","de","er08rd25","null","","","","learningBlock2","","","","This is a bim:","null","","","","",""
"","image-keyboard-response","351","544576","0.0-8.0-1.34","LF","22elk0nh1m","1280","1024","de","er08rd25","null","","","","","","","","learning/Slide115.JPG","null","","","","",""
"","html-keyboard-response","352","545585","0.0-8.0-2.34","LF","22elk0nh1m","1280","1024","de","er08rd25","null","","","","learningBlock2","","","","<div style=""font-size:60px;""> </div>","null","LF","learning/Slide115.JPG","This is a bim:","",""
"","html-keyboard-response","353","546596","0.0-8.0-0.35","LF","22elk0nh1m","1280","1024","de","er08rd25","null","","","","learningBlock2","","","","This is a dep:","null","","","","",""
"","image-keyboard-response","354","546944","0.0-8.0-1.35","LF","22elk0nh1m","1280","1024","de","er08rd25","null","","","","","","","","learning/Slide116.JPG","null","","","","",""
"","html-keyboard-response","355","547954","0.0-8.0-2.35","LF","22elk0nh1m","1280","1024","de","er08rd25","null","","","","learningBlock2","","","","<div style=""font-size:60px;""> </div>","null","LF","learning/Slide116.JPG","This is a dep:","",""
"","html-keyboard-response","356","548965","0.0-8.0-0.36","LF","22elk0nh1m","1280","1024","de","er08rd25","null","","","","learningBlock2","","","","This is a tob:","null","","","","",""
"","image-keyboard-response","357","549309","0.0-8.0-1.36","LF","22elk0nh1m","1280","1024","de","er08rd25","null","","","","","","","","learning/Slide117.JPG","null","","","","",""
"","html-keyboard-response","358","550327","0.0-8.0-2.36","LF","22elk0nh1m","1280","1024","de","er08rd25","null","","","","learningBlock2","","","","<div style=""font-size:60px;""> </div>","null","LF","learning/Slide117.JPG","This is a tob:","",""
"","html-keyboard-response","359","551340","0.0-8.0-0.37","LF","22elk0nh1m","1280","1024","de","er08rd25","null","","","","learningBlock2","","","","This is a dep:","null","","","","",""
"","image-keyboard-response","360","551680","0.0-8.0-1.37","LF","22elk0nh1m","1280","1024","de","er08rd25","null","","","","","","","","learning/Slide118.JPG","null","","","","",""
"","html-keyboard-response","361","552693","0.0-8.0-2.37","LF","22elk0nh1m","1280","1024","de","er08rd25","null","","","","learningBlock2","","","","<div style=""font-size:60px;""> </div>","null","LF","learning/Slide118.JPG","This is a dep:","",""
"","html-keyboard-response","362","553706","0.0-8.0-0.38","LF","22elk0nh1m","1280","1024","de","er08rd25","null","","","","learningBlock2","","","","This is a wug:","null","","","","",""
"","image-keyboard-response","363","554042","0.0-8.0-1.38","LF","22elk0nh1m","1280","1024","de","er08rd25","null","","","","","","","","learning/Slide119.JPG","null","","","","",""
"","html-keyboard-response","364","555053","0.0-8.0-2.38","LF","22elk0nh1m","1280","1024","de","er08rd25","null","","","","learningBlock2","","","","<div style=""font-size:60px;""> </div>","null","LF","learning/Slide119.JPG","This is a wug:","",""
"","html-keyboard-response","365","556072","0.0-8.0-0.39","LF","22elk0nh1m","1280","1024","de","er08rd25","null","","","","learningBlock2","","","","This is a dep:","null","","","","",""
"","image-keyboard-response","366","556408","0.0-8.0-1.39","LF","22elk0nh1m","1280","1024","de","er08rd25","null","","","","","","","","learning/Slide120.JPG","null","","","","",""
"","html-keyboard-response","367","557422","0.0-8.0-2.39","LF","22elk0nh1m","1280","1024","de","er08rd25","null","","","","learningBlock2","","","","<div style=""font-size:60px;""> </div>","null","LF","learning/Slide120.JPG","This is a dep:","",""
"","html-keyboard-response","368","558438","0.0-8.0-0.40","LF","22elk0nh1m","1280","1024","de","er08rd25","null","","","","learningBlock2","","","","This is a bim:","null","","","","",""
"","image-keyboard-response","369","558775","0.0-8.0-1.40","LF","22elk0nh1m","1280","1024","de","er08rd25","null","","","","","","","","learning/Slide121.JPG","null","","","","",""
"","html-keyboard-response","370","559785","0.0-8.0-2.40","LF","22elk0nh1m","1280","1024","de","er08rd25","null","","","","learningBlock2","","","","<div style=""font-size:60px;""> </div>","null","LF","learning/Slide121.JPG","This is a bim:","",""
"","html-keyboard-response","371","560801","0.0-8.0-0.41","LF","22elk0nh1m","1280","1024","de","er08rd25","null","","","","learningBlock2","","","","This is a wug:","null","","","","",""
"","image-keyboard-response","372","561140","0.0-8.0-1.41","LF","22elk0nh1m","1280","1024","de","er08rd25","null","","","","","","","","learning/Slide122.JPG","null","","","","",""
"","html-keyboard-response","373","562144","0.0-8.0-2.41","LF","22elk0nh1m","1280","1024","de","er08rd25","null","","","","learningBlock2","","","","<div style=""font-size:60px;""> </div>","null","LF","learning/Slide122.JPG","This is a wug:","",""
"","html-keyboard-response","374","563159","0.0-8.0-0.42","LF","22elk0nh1m","1280","1024","de","er08rd25","null","","","","learningBlock2","","","","This is a bim:","null","","","","",""
"","image-keyboard-response","375","563508","0.0-8.0-1.42","LF","22elk0nh1m","1280","1024","de","er08rd25","null","","","","","","","","learning/Slide123.JPG","null","","","","",""
"","html-keyboard-response","376","564525","0.0-8.0-2.42","LF","22elk0nh1m","1280","1024","de","er08rd25","null","","","","learningBlock2","","","","<div style=""font-size:60px;""> </div>","null","LF","learning/Slide123.JPG","This is a bim:","",""
"","html-keyboard-response","377","565538","0.0-8.0-0.43","LF","22elk0nh1m","1280","1024","de","er08rd25","null","","","","learningBlock2","","","","This is a tob:","null","","","","",""
"","image-keyboard-response","378","565874","0.0-8.0-1.43","LF","22elk0nh1m","1280","1024","de","er08rd25","null","","","","","","","","learning/Slide124.JPG","null","","","","",""
"","html-keyboard-response","379","566889","0.0-8.0-2.43","LF","22elk0nh1m","1280","1024","de","er08rd25","null","","","","learningBlock2","","","","<div style=""font-size:60px;""> </div>","null","LF","learning/Slide124.JPG","This is a tob:","",""
"","html-keyboard-response","380","567896","0.0-8.0-0.44","LF","22elk0nh1m","1280","1024","de","er08rd25","null","","","","learningBlock2","","","","This is a bim:","null","","","","",""
"","image-keyboard-response","381","568240","0.0-8.0-1.44","LF","22elk0nh1m","1280","1024","de","er08rd25","null","","","","","","","","learning/Slide125.JPG","null","","","","",""
"","html-keyboard-response","382","569244","0.0-8.0-2.44","LF","22elk0nh1m","1280","1024","de","er08rd25","null","","","","learningBlock2","","","","<div style=""font-size:60px;""> </div>","null","LF","learning/Slide125.JPG","This is a bim:","",""
"","html-keyboard-response","383","570248","0.0-8.0-0.45","LF","22elk0nh1m","1280","1024","de","er08rd25","null","","","","learningBlock2","","","","This is a tob:","null","","","","",""
"","image-keyboard-response","384","570590","0.0-8.0-1.45","LF","22elk0nh1m","1280","1024","de","er08rd25","null","","","","","","","","learning/Slide126.JPG","null","","","","",""
"","html-keyboard-response","385","571593","0.0-8.0-2.45","LF","22elk0nh1m","1280","1024","de","er08rd25","null","","","","learningBlock2","","","","<div style=""font-size:60px;""> </div>","null","LF","learning/Slide126.JPG","This is a tob:","",""
"","html-keyboard-response","386","572597","0.0-8.0-0.46","LF","22elk0nh1m","1280","1024","de","er08rd25","null","","","","learningBlock2","","","","This is a dep:","null","","","","",""
"","image-keyboard-response","387","572939","0.0-8.0-1.46","LF","22elk0nh1m","1280","1024","de","er08rd25","null","","","","","","","","learning/Slide127.JPG","null","","","","",""
"","html-keyboard-response","388","573953","0.0-8.0-2.46","LF","22elk0nh1m","1280","1024","de","er08rd25","null","","","","learningBlock2","","","","<div style=""font-size:60px;""> </div>","null","LF","learning/Slide127.JPG","This is a dep:","",""
"","html-keyboard-response","389","574969","0.0-8.0-0.47","LF","22elk0nh1m","1280","1024","de","er08rd25","null","","","","learningBlock2","","","","This is a wug:","null","","","","",""
"","image-keyboard-response","390","575305","0.0-8.0-1.47","LF","22elk0nh1m","1280","1024","de","er08rd25","null","","","","","","","","learning/Slide128.JPG","null","","","","",""
"","html-keyboard-response","391","576314","0.0-8.0-2.47","LF","22elk0nh1m","1280","1024","de","er08rd25","null","","","","learningBlock2","","","","<div style=""font-size:60px;""> </div>","null","LF","learning/Slide128.JPG","This is a wug:","",""
"","html-keyboard-response","392","577327","0.0-8.0-0.48","LF","22elk0nh1m","1280","1024","de","er08rd25","null","","","","learningBlock2","","","","This is a tob:","null","","","","",""
"","image-keyboard-response","393","577678","0.0-8.0-1.48","LF","22elk0nh1m","1280","1024","de","er08rd25","null","","","","","","","","learning/Slide129.JPG","null","","","","",""
"","html-keyboard-response","394","578687","0.0-8.0-2.48","LF","22elk0nh1m","1280","1024","de","er08rd25","null","","","","learningBlock2","","","","<div style=""font-size:60px;""> </div>","null","LF","learning/Slide129.JPG","This is a tob:","",""
"","html-keyboard-response","395","579703","0.0-8.0-0.49","LF","22elk0nh1m","1280","1024","de","er08rd25","null","","","","learningBlock2","","","","This is a wug:","null","","","","",""
"","image-keyboard-response","396","580038","0.0-8.0-1.49","LF","22elk0nh1m","1280","1024","de","er08rd25","null","","","","","","","","learning/Slide130.JPG","null","","","","",""
"","html-keyboard-response","397","581049","0.0-8.0-2.49","LF","22elk0nh1m","1280","1024","de","er08rd25","null","","","","learningBlock2","","","","<div style=""font-size:60px;""> </div>","null","LF","learning/Slide130.JPG","This is a wug:","",""
"","html-keyboard-response","398","582063","0.0-8.0-0.50","LF","22elk0nh1m","1280","1024","de","er08rd25","null","","","","learningBlock2","","","","This is a bim:","null","","","","",""
"","image-keyboard-response","399","582406","0.0-8.0-1.50","LF","22elk0nh1m","1280","1024","de","er08rd25","null","","","","","","","","learning/Slide131.JPG","null","","","","",""
"","html-keyboard-response","400","583416","0.0-8.0-2.50","LF","22elk0nh1m","1280","1024","de","er08rd25","null","","","","learningBlock2","","","","<div style=""font-size:60px;""> </div>","null","LF","learning/Slide131.JPG","This is a bim:","",""
"","html-keyboard-response","401","584421","0.0-8.0-0.51","LF","22elk0nh1m","1280","1024","de","er08rd25","null","","","","learningBlock2","","","","This is a dep:","null","","","","",""
"","image-keyboard-response","402","584772","0.0-8.0-1.51","LF","22elk0nh1m","1280","1024","de","er08rd25","null","","","","","","","","learning/Slide132.JPG","null","","","","",""
"","html-keyboard-response","403","585790","0.0-8.0-2.51","LF","22elk0nh1m","1280","1024","de","er08rd25","null","","","","learningBlock2","","","","<div style=""font-size:60px;""> </div>","null","LF","learning/Slide132.JPG","This is a dep:","",""
"","html-keyboard-response","404","586802","0.0-8.0-0.52","LF","22elk0nh1m","1280","1024","de","er08rd25","null","","","","learningBlock2","","","","This is a tob:","null","","","","",""
"","image-keyboard-response","405","587136","0.0-8.0-1.52","LF","22elk0nh1m","1280","1024","de","er08rd25","null","","","","","","","","learning/Slide133.JPG","null","","","","",""
"","html-keyboard-response","406","588149","0.0-8.0-2.52","LF","22elk0nh1m","1280","1024","de","er08rd25","null","","","","learningBlock2","","","","<div style=""font-size:60px;""> </div>","null","LF","learning/Slide133.JPG","This is a tob:","",""
"","html-keyboard-response","407","589154","0.0-8.0-0.53","LF","22elk0nh1m","1280","1024","de","er08rd25","null","","","","learningBlock2","","","","This is a dep:","null","","","","",""
"","image-keyboard-response","408","589503","0.0-8.0-1.53","LF","22elk0nh1m","1280","1024","de","er08rd25","null","","","","","","","","learning/Slide134.JPG","null","","","","",""
"","html-keyboard-response","409","590514","0.0-8.0-2.53","LF","22elk0nh1m","1280","1024","de","er08rd25","null","","","","learningBlock2","","","","<div style=""font-size:60px;""> </div>","null","LF","learning/Slide134.JPG","This is a dep:","",""
"","html-keyboard-response","410","591517","0.0-8.0-0.54","LF","22elk0nh1m","1280","1024","de","er08rd25","null","","","","learningBlock2","","","","This is a tob:","null","","","","",""
"","image-keyboard-response","411","591852","0.0-8.0-1.54","LF","22elk0nh1m","1280","1024","de","er08rd25","null","","","","","","","","learning/Slide135.JPG","null","","","","",""
"","html-keyboard-response","412","592866","0.0-8.0-2.54","LF","22elk0nh1m","1280","1024","de","er08rd25","null","","","","learningBlock2","","","","<div style=""font-size:60px;""> </div>","null","LF","learning/Slide135.JPG","This is a tob:","",""
"","html-keyboard-response","413","593881","0.0-8.0-0.55","LF","22elk0nh1m","1280","1024","de","er08rd25","null","","","","learningBlock2","","","","This is a wug:","null","","","","",""
"","image-keyboard-response","414","594219","0.0-8.0-1.55","LF","22elk0nh1m","1280","1024","de","er08rd25","null","","","","","","","","learning/Slide136.JPG","null","","","","",""
"","html-keyboard-response","415","595222","0.0-8.0-2.55","LF","22elk0nh1m","1280","1024","de","er08rd25","null","","","","learningBlock2","","","","<div style=""font-size:60px;""> </div>","null","LF","learning/Slide136.JPG","This is a wug:","",""
"","html-keyboard-response","416","596231","0.0-8.0-0.56","LF","22elk0nh1m","1280","1024","de","er08rd25","null","","","","learningBlock2","","","","This is a tob:","null","","","","",""
"","image-keyboard-response","417","596568","0.0-8.0-1.56","LF","22elk0nh1m","1280","1024","de","er08rd25","null","","","","","","","","learning/Slide137.JPG","null","","","","",""
"","html-keyboard-response","418","597583","0.0-8.0-2.56","LF","22elk0nh1m","1280","1024","de","er08rd25","null","","","","learningBlock2","","","","<div style=""font-size:60px;""> </div>","null","LF","learning/Slide137.JPG","This is a tob:","",""
"","html-keyboard-response","419","598593","0.0-8.0-0.57","LF","22elk0nh1m","1280","1024","de","er08rd25","null","","","","learningBlock2","","","","This is a bim:","null","","","","",""
"","image-keyboard-response","420","598939","0.0-8.0-1.57","LF","22elk0nh1m","1280","1024","de","er08rd25","null","","","","","","","","learning/Slide138.JPG","null","","","","",""
"","html-keyboard-response","421","599950","0.0-8.0-2.57","LF","22elk0nh1m","1280","1024","de","er08rd25","null","","","","learningBlock2","","","","<div style=""font-size:60px;""> </div>","null","LF","learning/Slide138.JPG","This is a bim:","",""
"","html-keyboard-response","422","600957","0.0-8.0-0.58","LF","22elk0nh1m","1280","1024","de","er08rd25","null","","","","learningBlock2","","","","This is a wug:","null","","","","",""
"","image-keyboard-response","423","601302","0.0-8.0-1.58","LF","22elk0nh1m","1280","1024","de","er08rd25","null","","","","","","","","learning/Slide139.JPG","null","","","","",""
"","html-keyboard-response","424","602309","0.0-8.0-2.58","LF","22elk0nh1m","1280","1024","de","er08rd25","null","","","","learningBlock2","","","","<div style=""font-size:60px;""> </div>","null","LF","learning/Slide139.JPG","This is a wug:","",""
"","html-keyboard-response","425","603322","0.0-8.0-0.59","LF","22elk0nh1m","1280","1024","de","er08rd25","null","","","","learningBlock2","","","","This is a dep:","null","","","","",""
"","image-keyboard-response","426","603667","0.0-8.0-1.59","LF","22elk0nh1m","1280","1024","de","er08rd25","null","","","","","","","","learning/Slide140.JPG","null","","","","",""
"","html-keyboard-response","427","604679","0.0-8.0-2.59","LF","22elk0nh1m","1280","1024","de","er08rd25","null","","","","learningBlock2","","","","<div style=""font-size:60px;""> </div>","null","LF","learning/Slide140.JPG","This is a dep:","",""
"","html-keyboard-response","428","605694","0.0-8.0-0.60","LF","22elk0nh1m","1280","1024","de","er08rd25","null","","","","learningBlock2","","","","This is a tob:","null","","","","",""
"","image-keyboard-response","429","606035","0.0-8.0-1.60","LF","22elk0nh1m","1280","1024","de","er08rd25","null","","","","","","","","learning/Slide141.JPG","null","","","","",""
"","html-keyboard-response","430","607052","0.0-8.0-2.60","LF","22elk0nh1m","1280","1024","de","er08rd25","null","","","","learningBlock2","","","","<div style=""font-size:60px;""> </div>","null","LF","learning/Slide141.JPG","This is a tob:","",""
"","html-keyboard-response","431","608055","0.0-8.0-0.61","LF","22elk0nh1m","1280","1024","de","er08rd25","null","","","","learningBlock2","","","","This is a wug:","null","","","","",""
"","image-keyboard-response","432","608401","0.0-8.0-1.61","LF","22elk0nh1m","1280","1024","de","er08rd25","null","","","","","","","","learning/Slide142.JPG","null","","","","",""
"","html-keyboard-response","433","609406","0.0-8.0-2.61","LF","22elk0nh1m","1280","1024","de","er08rd25","null","","","","learningBlock2","","","","<div style=""font-size:60px;""> </div>","null","LF","learning/Slide142.JPG","This is a wug:","",""
"","html-keyboard-response","434","610424","0.0-8.0-0.62","LF","22elk0nh1m","1280","1024","de","er08rd25","null","","","","learningBlock2","","","","This is a bim:","null","","","","",""
"","image-keyboard-response","435","610767","0.0-8.0-1.62","LF","22elk0nh1m","1280","1024","de","er08rd25","null","","","","","","","","learning/Slide143.JPG","null","","","","",""
"","html-keyboard-response","436","611782","0.0-8.0-2.62","LF","22elk0nh1m","1280","1024","de","er08rd25","null","","","","learningBlock2","","","","<div style=""font-size:60px;""> </div>","null","LF","learning/Slide143.JPG","This is a bim:","",""
"","html-keyboard-response","437","612796","0.0-8.0-0.63","LF","22elk0nh1m","1280","1024","de","er08rd25","null","","","","learningBlock2","","","","This is a dep:","null","","","","",""
"","image-keyboard-response","438","613134","0.0-8.0-1.63","LF","22elk0nh1m","1280","1024","de","er08rd25","null","","","","","","","","learning/Slide144.JPG","null","","","","",""
"","html-keyboard-response","439","614143","0.0-8.0-2.63","LF","22elk0nh1m","1280","1024","de","er08rd25","null","","","","learningBlock2","","","","<div style=""font-size:60px;""> </div>","null","LF","learning/Slide144.JPG","This is a dep:","",""
"","html-keyboard-response","440","615153","0.0-8.0-0.64","LF","22elk0nh1m","1280","1024","de","er08rd25","null","","","","learningBlock2","","","","This is a bim:","null","","","","",""
"","image-keyboard-response","441","615500","0.0-8.0-1.64","LF","22elk0nh1m","1280","1024","de","er08rd25","null","","","","","","","","learning/Slide145.JPG","null","","","","",""
"","html-keyboard-response","442","616502","0.0-8.0-2.64","LF","22elk0nh1m","1280","1024","de","er08rd25","null","","","","learningBlock2","","","","<div style=""font-size:60px;""> </div>","null","LF","learning/Slide145.JPG","This is a bim:","",""
"","html-keyboard-response","443","617508","0.0-8.0-0.65","LF","22elk0nh1m","1280","1024","de","er08rd25","null","","","","learningBlock2","","","","This is a tob:","null","","","","",""
"","image-keyboard-response","444","617851","0.0-8.0-1.65","LF","22elk0nh1m","1280","1024","de","er08rd25","null","","","","","","","","learning/Slide146.JPG","null","","","","",""
"","html-keyboard-response","445","618869","0.0-8.0-2.65","LF","22elk0nh1m","1280","1024","de","er08rd25","null","","","","learningBlock2","","","","<div style=""font-size:60px;""> </div>","null","LF","learning/Slide146.JPG","This is a tob:","",""
"","html-keyboard-response","446","619886","0.0-8.0-0.66","LF","22elk0nh1m","1280","1024","de","er08rd25","null","","","","learningBlock2","","","","This is a wug:","null","","","","",""
"","image-keyboard-response","447","620231","0.0-8.0-1.66","LF","22elk0nh1m","1280","1024","de","er08rd25","null","","","","","","","","learning/Slide147.JPG","null","","","","",""
"","html-keyboard-response","448","621235","0.0-8.0-2.66","LF","22elk0nh1m","1280","1024","de","er08rd25","null","","","","learningBlock2","","","","<div style=""font-size:60px;""> </div>","null","LF","learning/Slide147.JPG","This is a wug:","",""
"","html-keyboard-response","449","622251","0.0-8.0-0.67","LF","22elk0nh1m","1280","1024","de","er08rd25","null","","","","learningBlock2","","","","This is a bim:","null","","","","",""
"","image-keyboard-response","450","622604","0.0-8.0-1.67","LF","22elk0nh1m","1280","1024","de","er08rd25","null","","","","","","","","learning/Slide148.JPG","null","","","","",""
"","html-keyboard-response","451","623610","0.0-8.0-2.67","LF","22elk0nh1m","1280","1024","de","er08rd25","null","","","","learningBlock2","","","","<div style=""font-size:60px;""> </div>","null","LF","learning/Slide148.JPG","This is a bim:","",""
"","html-keyboard-response","452","624619","0.0-8.0-0.68","LF","22elk0nh1m","1280","1024","de","er08rd25","null","","","","learningBlock2","","","","This is a dep:","null","","","","",""
"","image-keyboard-response","453","624965","0.0-8.0-1.68","LF","22elk0nh1m","1280","1024","de","er08rd25","null","","","","","","","","learning/Slide149.JPG","null","","","","",""
"","html-keyboard-response","454","625968","0.0-8.0-2.68","LF","22elk0nh1m","1280","1024","de","er08rd25","null","","","","learningBlock2","","","","<div style=""font-size:60px;""> </div>","null","LF","learning/Slide149.JPG","This is a dep:","",""
"","html-keyboard-response","455","626989","0.0-8.0-0.69","LF","22elk0nh1m","1280","1024","de","er08rd25","null","","","","learningBlock2","","","","This is a wug:","null","","","","",""
"","image-keyboard-response","456","627331","0.0-8.0-1.69","LF","22elk0nh1m","1280","1024","de","er08rd25","null","","","","","","","","learning/Slide150.JPG","null","","","","",""
"","html-keyboard-response","457","628335","0.0-8.0-2.69","LF","22elk0nh1m","1280","1024","de","er08rd25","null","","","","learningBlock2","","","","<div style=""font-size:60px;""> </div>","null","LF","learning/Slide150.JPG","This is a wug:","",""
"","html-keyboard-response","458","629344","0.0-8.0-0.70","LF","22elk0nh1m","1280","1024","de","er08rd25","null","","","","learningBlock2","","","","This is a dep:","null","","","","",""
"","image-keyboard-response","459","629682","0.0-8.0-1.70","LF","22elk0nh1m","1280","1024","de","er08rd25","null","","","","","","","","learning/Slide151.JPG","null","","","","",""
"","html-keyboard-response","460","630692","0.0-8.0-2.70","LF","22elk0nh1m","1280","1024","de","er08rd25","null","","","","learningBlock2","","","","<div style=""font-size:60px;""> </div>","null","LF","learning/Slide151.JPG","This is a dep:","",""
"","html-keyboard-response","461","631699","0.0-8.0-0.71","LF","22elk0nh1m","1280","1024","de","er08rd25","null","","","","learningBlock2","","","","This is a wug:","null","","","","",""
"","image-keyboard-response","462","632046","0.0-8.0-1.71","LF","22elk0nh1m","1280","1024","de","er08rd25","null","","","","","","","","learning/Slide152.JPG","null","","","","",""
"","html-keyboard-response","463","633057","0.0-8.0-2.71","LF","22elk0nh1m","1280","1024","de","er08rd25","null","","","","learningBlock2","","","","<div style=""font-size:60px;""> </div>","null","LF","learning/Slide152.JPG","This is a wug:","",""
"","html-keyboard-response","464","634068","0.0-8.0-0.72","LF","22elk0nh1m","1280","1024","de","er08rd25","null","","","","learningBlock2","","","","This is a bim:","null","","","","",""
"","image-keyboard-response","465","634413","0.0-8.0-1.72","LF","22elk0nh1m","1280","1024","de","er08rd25","null","","","","","","","","learning/Slide153.JPG","null","","","","",""
"","html-keyboard-response","466","635417","0.0-8.0-2.72","LF","22elk0nh1m","1280","1024","de","er08rd25","null","","","","learningBlock2","","","","<div style=""font-size:60px;""> </div>","null","LF","learning/Slide153.JPG","This is a bim:","",""
"","html-keyboard-response","467","636431","0.0-8.0-0.73","LF","22elk0nh1m","1280","1024","de","er08rd25","null","","","","learningBlock2","","","","This is a tob:","null","","","","",""
"","image-keyboard-response","468","636779","0.0-8.0-1.73","LF","22elk0nh1m","1280","1024","de","er08rd25","null","","","","","","","","learning/Slide154.JPG","null","","","","",""
"","html-keyboard-response","469","637781","0.0-8.0-2.73","LF","22elk0nh1m","1280","1024","de","er08rd25","null","","","","learningBlock2","","","","<div style=""font-size:60px;""> </div>","null","LF","learning/Slide154.JPG","This is a tob:","",""
"","html-keyboard-response","470","638798","0.0-8.0-0.74","LF","22elk0nh1m","1280","1024","de","er08rd25","null","","","","learningBlock2","","","","This is a dep:","null","","","","",""
"","image-keyboard-response","471","639146","0.0-8.0-1.74","LF","22elk0nh1m","1280","1024","de","er08rd25","null","","","","","","","","learning/Slide155.JPG","null","","","","",""
"","html-keyboard-response","472","640162","0.0-8.0-2.74","LF","22elk0nh1m","1280","1024","de","er08rd25","null","","","","learningBlock2","","","","<div style=""font-size:60px;""> </div>","null","LF","learning/Slide155.JPG","This is a dep:","",""
"","html-keyboard-response","473","641172","0.0-8.0-0.75","LF","22elk0nh1m","1280","1024","de","er08rd25","null","","","","learningBlock2","","","","This is a bim:","null","","","","",""
"","image-keyboard-response","474","641513","0.0-8.0-1.75","LF","22elk0nh1m","1280","1024","de","er08rd25","null","","","","","","","","learning/Slide156.JPG","null","","","","",""
"","html-keyboard-response","475","642519","0.0-8.0-2.75","LF","22elk0nh1m","1280","1024","de","er08rd25","null","","","","learningBlock2","","","","<div style=""font-size:60px;""> </div>","null","LF","learning/Slide156.JPG","This is a bim:","",""
"","html-keyboard-response","476","643534","0.0-8.0-0.76","LF","22elk0nh1m","1280","1024","de","er08rd25","null","","","","learningBlock2","","","","This is a dep:","null","","","","",""
"","image-keyboard-response","477","643878","0.0-8.0-1.76","LF","22elk0nh1m","1280","1024","de","er08rd25","null","","","","","","","","learning/Slide157.JPG","null","","","","",""
"","html-keyboard-response","478","644890","0.0-8.0-2.76","LF","22elk0nh1m","1280","1024","de","er08rd25","null","","","","learningBlock2","","","","<div style=""font-size:60px;""> </div>","null","LF","learning/Slide157.JPG","This is a dep:","",""
"","html-keyboard-response","479","645907","0.0-8.0-0.77","LF","22elk0nh1m","1280","1024","de","er08rd25","null","","","","learningBlock2","","","","This is a tob:","null","","","","",""
"","image-keyboard-response","480","646243","0.0-8.0-1.77","LF","22elk0nh1m","1280","1024","de","er08rd25","null","","","","","","","","learning/Slide158.JPG","null","","","","",""
"","html-keyboard-response","481","647248","0.0-8.0-2.77","LF","22elk0nh1m","1280","1024","de","er08rd25","null","","","","learningBlock2","","","","<div style=""font-size:60px;""> </div>","null","LF","learning/Slide158.JPG","This is a tob:","",""
"","html-keyboard-response","482","648260","0.0-8.0-0.78","LF","22elk0nh1m","1280","1024","de","er08rd25","null","","","","learningBlock2","","","","This is a dep:","null","","","","",""
"","image-keyboard-response","483","648595","0.0-8.0-1.78","LF","22elk0nh1m","1280","1024","de","er08rd25","null","","","","","","","","learning/Slide159.JPG","null","","","","",""
"","html-keyboard-response","484","649611","0.0-8.0-2.78","LF","22elk0nh1m","1280","1024","de","er08rd25","null","","","","learningBlock2","","","","<div style=""font-size:60px;""> </div>","null","LF","learning/Slide159.JPG","This is a dep:","",""
"","html-keyboard-response","485","650626","0.0-8.0-0.79","LF","22elk0nh1m","1280","1024","de","er08rd25","null","","","","learningBlock2","","","","This is a wug:","null","","","","",""
"","image-keyboard-response","486","650962","0.0-8.0-1.79","LF","22elk0nh1m","1280","1024","de","er08rd25","null","","","","","","","","learning/Slide160.JPG","null","","","","",""
"","html-keyboard-response","487","651966","0.0-8.0-2.79","LF","22elk0nh1m","1280","1024","de","er08rd25","null","","","","learningBlock2","","","","<div style=""font-size:60px;""> </div>","null","LF","learning/Slide160.JPG","This is a wug:","",""
