"success","trial_type","trial_index","time_elapsed","internal_node_id","condition","subject","screen_width","screen_height","language","codeword","rt","responses","url","view_history","test_part","final_height_px","final_width_px","scale_factor","stimulus","key_press","learningType","presentedImage","presentedLabel","button_pressed","response"
"true","fullscreen","0","3916","0.0-0.0","LF","forzsbtguz","1440","900","en","ng06an28","","","","","","","","","","","","","","",""
"","survey-html-form","1","5956","0.0-1.0","LF","forzsbtguz","1440","900","en","ng06an28","2037.304999998014","{""language"":""en""}","","","","","","","","","","","","",""
"","external-html","2","63978","0.0-3.0-0.0","LF","forzsbtguz","1440","900","en","ng06an28","57995.24000000383","","text/information_english.html","","","","","","","","","","","",""
"","external-html","3","84017","0.0-3.0-1.0","LF","forzsbtguz","1440","900","en","ng06an28","19993.224999998347","","text/consent_english.html","","","","","","","","","","","",""
"","survey-html-form","4","295149","0.0-3.0-2.0","LF","forzsbtguz","1440","900","en","ng06an28","211125.62500000058","{""codeword_enter"":""ng06an28""}","","","","","","","","","","","","",""
"","instructions","5","326350","0.0-4.0","LF","forzsbtguz","1440","900","en","ng06an28","NA","","","[{""page_index"":0,""viewing_time"":21100.579999998445},{""page_index"":1,""viewing_time"":8592.329999999492}]","instructions","","","","","","","","","",""
"","resize","6","417229","0.0-5.0","LF","forzsbtguz","1440","900","en","ng06an28","","","","","","","429","2.723809523809524","","","","","","",""
"","html-keyboard-response","7","418233","0.0-6.0-0.0","LF","forzsbtguz","1440","900","en","ng06an28","null","","","","learningBlock1","","","","This is a tob:","null","","","","",""
"","image-keyboard-response","8","418565","0.0-6.0-1.0","LF","forzsbtguz","1440","900","en","ng06an28","null","","","","","","","","learning/Slide1.JPG","null","","","","",""
"","html-keyboard-response","9","419567","0.0-6.0-2.0","LF","forzsbtguz","1440","900","en","ng06an28","null","","","","learningBlock1","","","","<div style=""font-size:60px;""> </div>","null","LF","learning/Slide1.JPG","This is a tob:","",""
"","html-keyboard-response","10","420572","0.0-6.0-0.1","LF","forzsbtguz","1440","900","en","ng06an28","null","","","","learningBlock1","","","","This is a wug:","null","","","","",""
"","image-keyboard-response","11","420904","0.0-6.0-1.1","LF","forzsbtguz","1440","900","en","ng06an28","null","","","","","","","","learning/Slide2.JPG","null","","","","",""
"","html-keyboard-response","12","421910","0.0-6.0-2.1","LF","forzsbtguz","1440","900","en","ng06an28","null","","","","learningBlock1","","","","<div style=""font-size:60px;""> </div>","null","LF","learning/Slide2.JPG","This is a wug:","",""
"","html-keyboard-response","13","422915","0.0-6.0-0.2","LF","forzsbtguz","1440","900","en","ng06an28","null","","","","learningBlock1","","","","This is a bim:","null","","","","",""
"","image-keyboard-response","14","423245","0.0-6.0-1.2","LF","forzsbtguz","1440","900","en","ng06an28","null","","","","","","","","learning/Slide3.JPG","null","","","","",""
"","html-keyboard-response","15","424252","0.0-6.0-2.2","LF","forzsbtguz","1440","900","en","ng06an28","null","","","","learningBlock1","","","","<div style=""font-size:60px;""> </div>","null","LF","learning/Slide3.JPG","This is a bim:","",""
"","html-keyboard-response","16","425253","0.0-6.0-0.3","LF","forzsbtguz","1440","900","en","ng06an28","null","","","","learningBlock1","","","","This is a dep:","null","","","","",""
"","image-keyboard-response","17","425589","0.0-6.0-1.3","LF","forzsbtguz","1440","900","en","ng06an28","null","","","","","","","","learning/Slide4.JPG","null","","","","",""
"","html-keyboard-response","18","426595","0.0-6.0-2.3","LF","forzsbtguz","1440","900","en","ng06an28","null","","","","learningBlock1","","","","<div style=""font-size:60px;""> </div>","null","LF","learning/Slide4.JPG","This is a dep:","",""
"","html-keyboard-response","19","427601","0.0-6.0-0.4","LF","forzsbtguz","1440","900","en","ng06an28","null","","","","learningBlock1","","","","This is a wug:","null","","","","",""
"","image-keyboard-response","20","427936","0.0-6.0-1.4","LF","forzsbtguz","1440","900","en","ng06an28","null","","","","","","","","learning/Slide5.JPG","null","","","","",""
"","html-keyboard-response","21","428942","0.0-6.0-2.4","LF","forzsbtguz","1440","900","en","ng06an28","null","","","","learningBlock1","","","","<div style=""font-size:60px;""> </div>","null","LF","learning/Slide5.JPG","This is a wug:","",""
"","html-keyboard-response","22","429946","0.0-6.0-0.5","LF","forzsbtguz","1440","900","en","ng06an28","null","","","","learningBlock1","","","","This is a dep:","null","","","","",""
"","image-keyboard-response","23","430275","0.0-6.0-1.5","LF","forzsbtguz","1440","900","en","ng06an28","null","","","","","","","","learning/Slide6.JPG","null","","","","",""
"","html-keyboard-response","24","431280","0.0-6.0-2.5","LF","forzsbtguz","1440","900","en","ng06an28","null","","","","learningBlock1","","","","<div style=""font-size:60px;""> </div>","null","LF","learning/Slide6.JPG","This is a dep:","",""
"","html-keyboard-response","25","432283","0.0-6.0-0.6","LF","forzsbtguz","1440","900","en","ng06an28","null","","","","learningBlock1","","","","This is a wug:","null","","","","",""
"","image-keyboard-response","26","432620","0.0-6.0-1.6","LF","forzsbtguz","1440","900","en","ng06an28","null","","","","","","","","learning/Slide7.JPG","null","","","","",""
"","html-keyboard-response","27","433627","0.0-6.0-2.6","LF","forzsbtguz","1440","900","en","ng06an28","null","","","","learningBlock1","","","","<div style=""font-size:60px;""> </div>","null","LF","learning/Slide7.JPG","This is a wug:","",""
"","html-keyboard-response","28","434631","0.0-6.0-0.7","LF","forzsbtguz","1440","900","en","ng06an28","null","","","","learningBlock1","","","","This is a bim:","null","","","","",""
"","image-keyboard-response","29","434963","0.0-6.0-1.7","LF","forzsbtguz","1440","900","en","ng06an28","null","","","","","","","","learning/Slide8.JPG","null","","","","",""
"","html-keyboard-response","30","435968","0.0-6.0-2.7","LF","forzsbtguz","1440","900","en","ng06an28","null","","","","learningBlock1","","","","<div style=""font-size:60px;""> </div>","null","LF","learning/Slide8.JPG","This is a bim:","",""
"","html-keyboard-response","31","436972","0.0-6.0-0.8","LF","forzsbtguz","1440","900","en","ng06an28","null","","","","learningBlock1","","","","This is a wug:","null","","","","",""
"","image-keyboard-response","32","437301","0.0-6.0-1.8","LF","forzsbtguz","1440","900","en","ng06an28","null","","","","","","","","learning/Slide9.JPG","null","","","","",""
"","html-keyboard-response","33","438302","0.0-6.0-2.8","LF","forzsbtguz","1440","900","en","ng06an28","null","","","","learningBlock1","","","","<div style=""font-size:60px;""> </div>","null","LF","learning/Slide9.JPG","This is a wug:","",""
"","html-keyboard-response","34","439305","0.0-6.0-0.9","LF","forzsbtguz","1440","900","en","ng06an28","null","","","","learningBlock1","","","","This is a dep:","null","","","","",""
"","image-keyboard-response","35","439641","0.0-6.0-1.9","LF","forzsbtguz","1440","900","en","ng06an28","null","","","","","","","","learning/Slide10.JPG","null","","","","",""
"","html-keyboard-response","36","440648","0.0-6.0-2.9","LF","forzsbtguz","1440","900","en","ng06an28","null","","","","learningBlock1","","","","<div style=""font-size:60px;""> </div>","null","LF","learning/Slide10.JPG","This is a dep:","",""
"","html-keyboard-response","37","441652","0.0-6.0-0.10","LF","forzsbtguz","1440","900","en","ng06an28","null","","","","learningBlock1","","","","This is a tob:","null","","","","",""
"","image-keyboard-response","38","441988","0.0-6.0-1.10","LF","forzsbtguz","1440","900","en","ng06an28","null","","","","","","","","learning/Slide11.JPG","null","","","","",""
"","html-keyboard-response","39","442989","0.0-6.0-2.10","LF","forzsbtguz","1440","900","en","ng06an28","null","","","","learningBlock1","","","","<div style=""font-size:60px;""> </div>","null","LF","learning/Slide11.JPG","This is a tob:","",""
"","html-keyboard-response","40","443993","0.0-6.0-0.11","LF","forzsbtguz","1440","900","en","ng06an28","null","","","","learningBlock1","","","","This is a dep:","null","","","","",""
"","image-keyboard-response","41","444328","0.0-6.0-1.11","LF","forzsbtguz","1440","900","en","ng06an28","null","","","","","","","","learning/Slide12.JPG","null","","","","",""
"","html-keyboard-response","42","445329","0.0-6.0-2.11","LF","forzsbtguz","1440","900","en","ng06an28","null","","","","learningBlock1","","","","<div style=""font-size:60px;""> </div>","null","LF","learning/Slide12.JPG","This is a dep:","",""
"","html-keyboard-response","43","446333","0.0-6.0-0.12","LF","forzsbtguz","1440","900","en","ng06an28","null","","","","learningBlock1","","","","This is a bim:","null","","","","",""
"","image-keyboard-response","44","446670","0.0-6.0-1.12","LF","forzsbtguz","1440","900","en","ng06an28","null","","","","","","","","learning/Slide13.JPG","null","","","","",""
"","html-keyboard-response","45","447676","0.0-6.0-2.12","LF","forzsbtguz","1440","900","en","ng06an28","null","","","","learningBlock1","","","","<div style=""font-size:60px;""> </div>","null","LF","learning/Slide13.JPG","This is a bim:","",""
"","html-keyboard-response","46","448680","0.0-6.0-0.13","LF","forzsbtguz","1440","900","en","ng06an28","null","","","","learningBlock1","","","","This is a wug:","null","","","","",""
"","image-keyboard-response","47","449010","0.0-6.0-1.13","LF","forzsbtguz","1440","900","en","ng06an28","null","","","","","","","","learning/Slide14.JPG","null","","","","",""
"","html-keyboard-response","48","450017","0.0-6.0-2.13","LF","forzsbtguz","1440","900","en","ng06an28","null","","","","learningBlock1","","","","<div style=""font-size:60px;""> </div>","null","LF","learning/Slide14.JPG","This is a wug:","",""
"","html-keyboard-response","49","451021","0.0-6.0-0.14","LF","forzsbtguz","1440","900","en","ng06an28","null","","","","learningBlock1","","","","This is a tob:","null","","","","",""
"","image-keyboard-response","50","451357","0.0-6.0-1.14","LF","forzsbtguz","1440","900","en","ng06an28","null","","","","","","","","learning/Slide15.JPG","null","","","","",""
"","html-keyboard-response","51","452360","0.0-6.0-2.14","LF","forzsbtguz","1440","900","en","ng06an28","null","","","","learningBlock1","","","","<div style=""font-size:60px;""> </div>","null","LF","learning/Slide15.JPG","This is a tob:","",""
"","html-keyboard-response","52","453364","0.0-6.0-0.15","LF","forzsbtguz","1440","900","en","ng06an28","null","","","","learningBlock1","","","","This is a dep:","null","","","","",""
"","image-keyboard-response","53","453695","0.0-6.0-1.15","LF","forzsbtguz","1440","900","en","ng06an28","null","","","","","","","","learning/Slide16.JPG","null","","","","",""
"","html-keyboard-response","54","454702","0.0-6.0-2.15","LF","forzsbtguz","1440","900","en","ng06an28","null","","","","learningBlock1","","","","<div style=""font-size:60px;""> </div>","null","LF","learning/Slide16.JPG","This is a dep:","",""
"","html-keyboard-response","55","455706","0.0-6.0-0.16","LF","forzsbtguz","1440","900","en","ng06an28","null","","","","learningBlock1","","","","This is a bim:","null","","","","",""
"","image-keyboard-response","56","456041","0.0-6.0-1.16","LF","forzsbtguz","1440","900","en","ng06an28","null","","","","","","","","learning/Slide17.JPG","null","","","","",""
"","html-keyboard-response","57","457047","0.0-6.0-2.16","LF","forzsbtguz","1440","900","en","ng06an28","null","","","","learningBlock1","","","","<div style=""font-size:60px;""> </div>","null","LF","learning/Slide17.JPG","This is a bim:","",""
"","html-keyboard-response","58","458051","0.0-6.0-0.17","LF","forzsbtguz","1440","900","en","ng06an28","null","","","","learningBlock1","","","","This is a tob:","null","","","","",""
"","image-keyboard-response","59","458388","0.0-6.0-1.17","LF","forzsbtguz","1440","900","en","ng06an28","null","","","","","","","","learning/Slide18.JPG","null","","","","",""
"","html-keyboard-response","60","459390","0.0-6.0-2.17","LF","forzsbtguz","1440","900","en","ng06an28","null","","","","learningBlock1","","","","<div style=""font-size:60px;""> </div>","null","LF","learning/Slide18.JPG","This is a tob:","",""
"","html-keyboard-response","61","460394","0.0-6.0-0.18","LF","forzsbtguz","1440","900","en","ng06an28","null","","","","learningBlock1","","","","This is a wug:","null","","","","",""
"","image-keyboard-response","62","460729","0.0-6.0-1.18","LF","forzsbtguz","1440","900","en","ng06an28","null","","","","","","","","learning/Slide19.JPG","null","","","","",""
"","html-keyboard-response","63","461735","0.0-6.0-2.18","LF","forzsbtguz","1440","900","en","ng06an28","null","","","","learningBlock1","","","","<div style=""font-size:60px;""> </div>","null","LF","learning/Slide19.JPG","This is a wug:","",""
"","html-keyboard-response","64","462739","0.0-6.0-0.19","LF","forzsbtguz","1440","900","en","ng06an28","null","","","","learningBlock1","","","","This is a bim:","null","","","","",""
"","image-keyboard-response","65","463069","0.0-6.0-1.19","LF","forzsbtguz","1440","900","en","ng06an28","null","","","","","","","","learning/Slide20.JPG","null","","","","",""
"","html-keyboard-response","66","464074","0.0-6.0-2.19","LF","forzsbtguz","1440","900","en","ng06an28","null","","","","learningBlock1","","","","<div style=""font-size:60px;""> </div>","null","LF","learning/Slide20.JPG","This is a bim:","",""
"","html-keyboard-response","67","465080","0.0-6.0-0.20","LF","forzsbtguz","1440","900","en","ng06an28","null","","","","learningBlock1","","","","This is a dep:","null","","","","",""
"","image-keyboard-response","68","465412","0.0-6.0-1.20","LF","forzsbtguz","1440","900","en","ng06an28","null","","","","","","","","learning/Slide21.JPG","null","","","","",""
"","html-keyboard-response","69","466420","0.0-6.0-2.20","LF","forzsbtguz","1440","900","en","ng06an28","null","","","","learningBlock1","","","","<div style=""font-size:60px;""> </div>","null","LF","learning/Slide21.JPG","This is a dep:","",""
"","html-keyboard-response","70","467421","0.0-6.0-0.21","LF","forzsbtguz","1440","900","en","ng06an28","null","","","","learningBlock1","","","","This is a bim:","null","","","","",""
"","image-keyboard-response","71","467756","0.0-6.0-1.21","LF","forzsbtguz","1440","900","en","ng06an28","null","","","","","","","","learning/Slide22.JPG","null","","","","",""
"","html-keyboard-response","72","468762","0.0-6.0-2.21","LF","forzsbtguz","1440","900","en","ng06an28","null","","","","learningBlock1","","","","<div style=""font-size:60px;""> </div>","null","LF","learning/Slide22.JPG","This is a bim:","",""
"","html-keyboard-response","73","469766","0.0-6.0-0.22","LF","forzsbtguz","1440","900","en","ng06an28","null","","","","learningBlock1","","","","This is a tob:","null","","","","",""
"","image-keyboard-response","74","470102","0.0-6.0-1.22","LF","forzsbtguz","1440","900","en","ng06an28","null","","","","","","","","learning/Slide23.JPG","null","","","","",""
"","html-keyboard-response","75","471107","0.0-6.0-2.22","LF","forzsbtguz","1440","900","en","ng06an28","null","","","","learningBlock1","","","","<div style=""font-size:60px;""> </div>","null","LF","learning/Slide23.JPG","This is a tob:","",""
"","html-keyboard-response","76","472111","0.0-6.0-0.23","LF","forzsbtguz","1440","900","en","ng06an28","null","","","","learningBlock1","","","","This is a wug:","null","","","","",""
"","image-keyboard-response","77","472448","0.0-6.0-1.23","LF","forzsbtguz","1440","900","en","ng06an28","null","","","","","","","","learning/Slide24.JPG","null","","","","",""
"","html-keyboard-response","78","473453","0.0-6.0-2.23","LF","forzsbtguz","1440","900","en","ng06an28","null","","","","learningBlock1","","","","<div style=""font-size:60px;""> </div>","null","LF","learning/Slide24.JPG","This is a wug:","",""
"","html-keyboard-response","79","474456","0.0-6.0-0.24","LF","forzsbtguz","1440","900","en","ng06an28","null","","","","learningBlock1","","","","This is a dep:","null","","","","",""
"","image-keyboard-response","80","474789","0.0-6.0-1.24","LF","forzsbtguz","1440","900","en","ng06an28","null","","","","","","","","learning/Slide25.JPG","null","","","","",""
"","html-keyboard-response","81","475790","0.0-6.0-2.24","LF","forzsbtguz","1440","900","en","ng06an28","null","","","","learningBlock1","","","","<div style=""font-size:60px;""> </div>","null","LF","learning/Slide25.JPG","This is a dep:","",""
"","html-keyboard-response","82","476794","0.0-6.0-0.25","LF","forzsbtguz","1440","900","en","ng06an28","null","","","","learningBlock1","","","","This is a wug:","null","","","","",""
"","image-keyboard-response","83","477131","0.0-6.0-1.25","LF","forzsbtguz","1440","900","en","ng06an28","null","","","","","","","","learning/Slide26.JPG","null","","","","",""
"","html-keyboard-response","84","478137","0.0-6.0-2.25","LF","forzsbtguz","1440","900","en","ng06an28","null","","","","learningBlock1","","","","<div style=""font-size:60px;""> </div>","null","LF","learning/Slide26.JPG","This is a wug:","",""
"","html-keyboard-response","85","479143","0.0-6.0-0.26","LF","forzsbtguz","1440","900","en","ng06an28","null","","","","learningBlock1","","","","This is a bim:","null","","","","",""
"","image-keyboard-response","86","479472","0.0-6.0-1.26","LF","forzsbtguz","1440","900","en","ng06an28","null","","","","","","","","learning/Slide27.JPG","null","","","","",""
"","html-keyboard-response","87","480479","0.0-6.0-2.26","LF","forzsbtguz","1440","900","en","ng06an28","null","","","","learningBlock1","","","","<div style=""font-size:60px;""> </div>","null","LF","learning/Slide27.JPG","This is a bim:","",""
"","html-keyboard-response","88","481482","0.0-6.0-0.27","LF","forzsbtguz","1440","900","en","ng06an28","null","","","","learningBlock1","","","","This is a dep:","null","","","","",""
"","image-keyboard-response","89","481814","0.0-6.0-1.27","LF","forzsbtguz","1440","900","en","ng06an28","null","","","","","","","","learning/Slide28.JPG","null","","","","",""
"","html-keyboard-response","90","482820","0.0-6.0-2.27","LF","forzsbtguz","1440","900","en","ng06an28","null","","","","learningBlock1","","","","<div style=""font-size:60px;""> </div>","null","LF","learning/Slide28.JPG","This is a dep:","",""
"","html-keyboard-response","91","483824","0.0-6.0-0.28","LF","forzsbtguz","1440","900","en","ng06an28","null","","","","learningBlock1","","","","This is a tob:","null","","","","",""
"","image-keyboard-response","92","484160","0.0-6.0-1.28","LF","forzsbtguz","1440","900","en","ng06an28","null","","","","","","","","learning/Slide29.JPG","null","","","","",""
"","html-keyboard-response","93","485167","0.0-6.0-2.28","LF","forzsbtguz","1440","900","en","ng06an28","null","","","","learningBlock1","","","","<div style=""font-size:60px;""> </div>","null","LF","learning/Slide29.JPG","This is a tob:","",""
"","html-keyboard-response","94","486171","0.0-6.0-0.29","LF","forzsbtguz","1440","900","en","ng06an28","null","","","","learningBlock1","","","","This is a dep:","null","","","","",""
"","image-keyboard-response","95","486504","0.0-6.0-1.29","LF","forzsbtguz","1440","900","en","ng06an28","null","","","","","","","","learning/Slide30.JPG","null","","","","",""
"","html-keyboard-response","96","487510","0.0-6.0-2.29","LF","forzsbtguz","1440","900","en","ng06an28","null","","","","learningBlock1","","","","<div style=""font-size:60px;""> </div>","null","LF","learning/Slide30.JPG","This is a dep:","",""
"","html-keyboard-response","97","488514","0.0-6.0-0.30","LF","forzsbtguz","1440","900","en","ng06an28","null","","","","learningBlock1","","","","This is a wug:","null","","","","",""
"","image-keyboard-response","98","488850","0.0-6.0-1.30","LF","forzsbtguz","1440","900","en","ng06an28","null","","","","","","","","learning/Slide31.JPG","null","","","","",""
"","html-keyboard-response","99","489856","0.0-6.0-2.30","LF","forzsbtguz","1440","900","en","ng06an28","null","","","","learningBlock1","","","","<div style=""font-size:60px;""> </div>","null","LF","learning/Slide31.JPG","This is a wug:","",""
"","html-keyboard-response","100","490860","0.0-6.0-0.31","LF","forzsbtguz","1440","900","en","ng06an28","null","","","","learningBlock1","","","","This is a tob:","null","","","","",""
"","image-keyboard-response","101","491193","0.0-6.0-1.31","LF","forzsbtguz","1440","900","en","ng06an28","null","","","","","","","","learning/Slide32.JPG","null","","","","",""
"","html-keyboard-response","102","492200","0.0-6.0-2.31","LF","forzsbtguz","1440","900","en","ng06an28","null","","","","learningBlock1","","","","<div style=""font-size:60px;""> </div>","null","LF","learning/Slide32.JPG","This is a tob:","",""
"","html-keyboard-response","103","493204","0.0-6.0-0.32","LF","forzsbtguz","1440","900","en","ng06an28","null","","","","learningBlock1","","","","This is a bim:","null","","","","",""
"","image-keyboard-response","104","493535","0.0-6.0-1.32","LF","forzsbtguz","1440","900","en","ng06an28","null","","","","","","","","learning/Slide33.JPG","null","","","","",""
"","html-keyboard-response","105","494538","0.0-6.0-2.32","LF","forzsbtguz","1440","900","en","ng06an28","null","","","","learningBlock1","","","","<div style=""font-size:60px;""> </div>","null","LF","learning/Slide33.JPG","This is a bim:","",""
"","html-keyboard-response","106","495544","0.0-6.0-0.33","LF","forzsbtguz","1440","900","en","ng06an28","null","","","","learningBlock1","","","","This is a tob:","null","","","","",""
"","image-keyboard-response","107","495879","0.0-6.0-1.33","LF","forzsbtguz","1440","900","en","ng06an28","null","","","","","","","","learning/Slide34.JPG","null","","","","",""
"","html-keyboard-response","108","496886","0.0-6.0-2.33","LF","forzsbtguz","1440","900","en","ng06an28","null","","","","learningBlock1","","","","<div style=""font-size:60px;""> </div>","null","LF","learning/Slide34.JPG","This is a tob:","",""
"","html-keyboard-response","109","497891","0.0-6.0-0.34","LF","forzsbtguz","1440","900","en","ng06an28","null","","","","learningBlock1","","","","This is a bim:","null","","","","",""
"","image-keyboard-response","110","498223","0.0-6.0-1.34","LF","forzsbtguz","1440","900","en","ng06an28","null","","","","","","","","learning/Slide35.JPG","null","","","","",""
"","html-keyboard-response","111","499229","0.0-6.0-2.34","LF","forzsbtguz","1440","900","en","ng06an28","null","","","","learningBlock1","","","","<div style=""font-size:60px;""> </div>","null","LF","learning/Slide35.JPG","This is a bim:","",""
"","html-keyboard-response","112","500233","0.0-6.0-0.35","LF","forzsbtguz","1440","900","en","ng06an28","null","","","","learningBlock1","","","","This is a dep:","null","","","","",""
"","image-keyboard-response","113","500563","0.0-6.0-1.35","LF","forzsbtguz","1440","900","en","ng06an28","null","","","","","","","","learning/Slide36.JPG","null","","","","",""
"","html-keyboard-response","114","501569","0.0-6.0-2.35","LF","forzsbtguz","1440","900","en","ng06an28","null","","","","learningBlock1","","","","<div style=""font-size:60px;""> </div>","null","LF","learning/Slide36.JPG","This is a dep:","",""
"","html-keyboard-response","115","502575","0.0-6.0-0.36","LF","forzsbtguz","1440","900","en","ng06an28","null","","","","learningBlock1","","","","This is a tob:","null","","","","",""
"","image-keyboard-response","116","502912","0.0-6.0-1.36","LF","forzsbtguz","1440","900","en","ng06an28","null","","","","","","","","learning/Slide37.JPG","null","","","","",""
"","html-keyboard-response","117","503918","0.0-6.0-2.36","LF","forzsbtguz","1440","900","en","ng06an28","null","","","","learningBlock1","","","","<div style=""font-size:60px;""> </div>","null","LF","learning/Slide37.JPG","This is a tob:","",""
"","html-keyboard-response","118","504924","0.0-6.0-0.37","LF","forzsbtguz","1440","900","en","ng06an28","null","","","","learningBlock1","","","","This is a wug:","null","","","","",""
"","image-keyboard-response","119","505252","0.0-6.0-1.37","LF","forzsbtguz","1440","900","en","ng06an28","null","","","","","","","","learning/Slide38.JPG","null","","","","",""
"","html-keyboard-response","120","506258","0.0-6.0-2.37","LF","forzsbtguz","1440","900","en","ng06an28","null","","","","learningBlock1","","","","<div style=""font-size:60px;""> </div>","null","LF","learning/Slide38.JPG","This is a wug:","",""
"","html-keyboard-response","121","507262","0.0-6.0-0.38","LF","forzsbtguz","1440","900","en","ng06an28","null","","","","learningBlock1","","","","This is a bim:","null","","","","",""
"","image-keyboard-response","122","507591","0.0-6.0-1.38","LF","forzsbtguz","1440","900","en","ng06an28","null","","","","","","","","learning/Slide39.JPG","null","","","","",""
"","html-keyboard-response","123","508594","0.0-6.0-2.38","LF","forzsbtguz","1440","900","en","ng06an28","null","","","","learningBlock1","","","","<div style=""font-size:60px;""> </div>","null","LF","learning/Slide39.JPG","This is a bim:","",""
"","html-keyboard-response","124","509599","0.0-6.0-0.39","LF","forzsbtguz","1440","900","en","ng06an28","null","","","","learningBlock1","","","","This is a tob:","null","","","","",""
"","image-keyboard-response","125","509936","0.0-6.0-1.39","LF","forzsbtguz","1440","900","en","ng06an28","null","","","","","","","","learning/Slide40.JPG","null","","","","",""
"","html-keyboard-response","126","510938","0.0-6.0-2.39","LF","forzsbtguz","1440","900","en","ng06an28","null","","","","learningBlock1","","","","<div style=""font-size:60px;""> </div>","null","LF","learning/Slide40.JPG","This is a tob:","",""
"","html-keyboard-response","127","511942","0.0-6.0-0.40","LF","forzsbtguz","1440","900","en","ng06an28","null","","","","learningBlock1","","","","This is a bim:","null","","","","",""
"","image-keyboard-response","128","512275","0.0-6.0-1.40","LF","forzsbtguz","1440","900","en","ng06an28","null","","","","","","","","learning/Slide41.JPG","null","","","","",""
"","html-keyboard-response","129","513281","0.0-6.0-2.40","LF","forzsbtguz","1440","900","en","ng06an28","null","","","","learningBlock1","","","","<div style=""font-size:60px;""> </div>","null","LF","learning/Slide41.JPG","This is a bim:","",""
"","html-keyboard-response","130","514287","0.0-6.0-0.41","LF","forzsbtguz","1440","900","en","ng06an28","null","","","","learningBlock1","","","","This is a dep:","null","","","","",""
"","image-keyboard-response","131","514623","0.0-6.0-1.41","LF","forzsbtguz","1440","900","en","ng06an28","null","","","","","","","","learning/Slide42.JPG","null","","","","",""
"","html-keyboard-response","132","515629","0.0-6.0-2.41","LF","forzsbtguz","1440","900","en","ng06an28","null","","","","learningBlock1","","","","<div style=""font-size:60px;""> </div>","null","LF","learning/Slide42.JPG","This is a dep:","",""
"","html-keyboard-response","133","516633","0.0-6.0-0.42","LF","forzsbtguz","1440","900","en","ng06an28","null","","","","learningBlock1","","","","This is a wug:","null","","","","",""
"","image-keyboard-response","134","516963","0.0-6.0-1.42","LF","forzsbtguz","1440","900","en","ng06an28","null","","","","","","","","learning/Slide43.JPG","null","","","","",""
"","html-keyboard-response","135","517967","0.0-6.0-2.42","LF","forzsbtguz","1440","900","en","ng06an28","null","","","","learningBlock1","","","","<div style=""font-size:60px;""> </div>","null","LF","learning/Slide43.JPG","This is a wug:","",""
"","html-keyboard-response","136","518969","0.0-6.0-0.43","LF","forzsbtguz","1440","900","en","ng06an28","null","","","","learningBlock1","","","","This is a bim:","null","","","","",""
"","image-keyboard-response","137","519302","0.0-6.0-1.43","LF","forzsbtguz","1440","900","en","ng06an28","null","","","","","","","","learning/Slide44.JPG","null","","","","",""
"","html-keyboard-response","138","520308","0.0-6.0-2.43","LF","forzsbtguz","1440","900","en","ng06an28","null","","","","learningBlock1","","","","<div style=""font-size:60px;""> </div>","null","LF","learning/Slide44.JPG","This is a bim:","",""
"","html-keyboard-response","139","521311","0.0-6.0-0.44","LF","forzsbtguz","1440","900","en","ng06an28","null","","","","learningBlock1","","","","This is a wug:","null","","","","",""
"","image-keyboard-response","140","521643","0.0-6.0-1.44","LF","forzsbtguz","1440","900","en","ng06an28","null","","","","","","","","learning/Slide45.JPG","null","","","","",""
"","html-keyboard-response","141","522649","0.0-6.0-2.44","LF","forzsbtguz","1440","900","en","ng06an28","null","","","","learningBlock1","","","","<div style=""font-size:60px;""> </div>","null","LF","learning/Slide45.JPG","This is a wug:","",""
"","html-keyboard-response","142","523653","0.0-6.0-0.45","LF","forzsbtguz","1440","900","en","ng06an28","null","","","","learningBlock1","","","","This is a dep:","null","","","","",""
"","image-keyboard-response","143","523988","0.0-6.0-1.45","LF","forzsbtguz","1440","900","en","ng06an28","null","","","","","","","","learning/Slide46.JPG","null","","","","",""
"","html-keyboard-response","144","524992","0.0-6.0-2.45","LF","forzsbtguz","1440","900","en","ng06an28","null","","","","learningBlock1","","","","<div style=""font-size:60px;""> </div>","null","LF","learning/Slide46.JPG","This is a dep:","",""
"","html-keyboard-response","145","525998","0.0-6.0-0.46","LF","forzsbtguz","1440","900","en","ng06an28","null","","","","learningBlock1","","","","This is a tob:","null","","","","",""
"","image-keyboard-response","146","526330","0.0-6.0-1.46","LF","forzsbtguz","1440","900","en","ng06an28","null","","","","","","","","learning/Slide47.JPG","null","","","","",""
"","html-keyboard-response","147","527337","0.0-6.0-2.46","LF","forzsbtguz","1440","900","en","ng06an28","null","","","","learningBlock1","","","","<div style=""font-size:60px;""> </div>","null","LF","learning/Slide47.JPG","This is a tob:","",""
"","html-keyboard-response","148","528341","0.0-6.0-0.47","LF","forzsbtguz","1440","900","en","ng06an28","null","","","","learningBlock1","","","","This is a bim:","null","","","","",""
"","image-keyboard-response","149","528673","0.0-6.0-1.47","LF","forzsbtguz","1440","900","en","ng06an28","null","","","","","","","","learning/Slide48.JPG","null","","","","",""
"","html-keyboard-response","150","529676","0.0-6.0-2.47","LF","forzsbtguz","1440","900","en","ng06an28","null","","","","learningBlock1","","","","<div style=""font-size:60px;""> </div>","null","LF","learning/Slide48.JPG","This is a bim:","",""
"","html-keyboard-response","151","530682","0.0-6.0-0.48","LF","forzsbtguz","1440","900","en","ng06an28","null","","","","learningBlock1","","","","This is a dep:","null","","","","",""
"","image-keyboard-response","152","531015","0.0-6.0-1.48","LF","forzsbtguz","1440","900","en","ng06an28","null","","","","","","","","learning/Slide49.JPG","null","","","","",""
"","html-keyboard-response","153","532018","0.0-6.0-2.48","LF","forzsbtguz","1440","900","en","ng06an28","null","","","","learningBlock1","","","","<div style=""font-size:60px;""> </div>","null","LF","learning/Slide49.JPG","This is a dep:","",""
"","html-keyboard-response","154","533019","0.0-6.0-0.49","LF","forzsbtguz","1440","900","en","ng06an28","null","","","","learningBlock1","","","","This is a tob:","null","","","","",""
"","image-keyboard-response","155","533356","0.0-6.0-1.49","LF","forzsbtguz","1440","900","en","ng06an28","null","","","","","","","","learning/Slide50.JPG","null","","","","",""
"","html-keyboard-response","156","534358","0.0-6.0-2.49","LF","forzsbtguz","1440","900","en","ng06an28","null","","","","learningBlock1","","","","<div style=""font-size:60px;""> </div>","null","LF","learning/Slide50.JPG","This is a tob:","",""
"","html-keyboard-response","157","535364","0.0-6.0-0.50","LF","forzsbtguz","1440","900","en","ng06an28","null","","","","learningBlock1","","","","This is a bim:","null","","","","",""
"","image-keyboard-response","158","535692","0.0-6.0-1.50","LF","forzsbtguz","1440","900","en","ng06an28","null","","","","","","","","learning/Slide51.JPG","null","","","","",""
"","html-keyboard-response","159","536699","0.0-6.0-2.50","LF","forzsbtguz","1440","900","en","ng06an28","null","","","","learningBlock1","","","","<div style=""font-size:60px;""> </div>","null","LF","learning/Slide51.JPG","This is a bim:","",""
"","html-keyboard-response","160","537703","0.0-6.0-0.51","LF","forzsbtguz","1440","900","en","ng06an28","null","","","","learningBlock1","","","","This is a wug:","null","","","","",""
"","image-keyboard-response","161","538037","0.0-6.0-1.51","LF","forzsbtguz","1440","900","en","ng06an28","null","","","","","","","","learning/Slide52.JPG","null","","","","",""
"","html-keyboard-response","162","539043","0.0-6.0-2.51","LF","forzsbtguz","1440","900","en","ng06an28","null","","","","learningBlock1","","","","<div style=""font-size:60px;""> </div>","null","LF","learning/Slide52.JPG","This is a wug:","",""
"","html-keyboard-response","163","540047","0.0-6.0-0.52","LF","forzsbtguz","1440","900","en","ng06an28","null","","","","learningBlock1","","","","This is a tob:","null","","","","",""
"","image-keyboard-response","164","540379","0.0-6.0-1.52","LF","forzsbtguz","1440","900","en","ng06an28","null","","","","","","","","learning/Slide53.JPG","null","","","","",""
"","html-keyboard-response","165","541385","0.0-6.0-2.52","LF","forzsbtguz","1440","900","en","ng06an28","null","","","","learningBlock1","","","","<div style=""font-size:60px;""> </div>","null","LF","learning/Slide53.JPG","This is a tob:","",""
"","html-keyboard-response","166","542390","0.0-6.0-0.53","LF","forzsbtguz","1440","900","en","ng06an28","null","","","","learningBlock1","","","","This is a dep:","null","","","","",""
"","image-keyboard-response","167","542724","0.0-6.0-1.53","LF","forzsbtguz","1440","900","en","ng06an28","null","","","","","","","","learning/Slide54.JPG","null","","","","",""
"","html-keyboard-response","168","543731","0.0-6.0-2.53","LF","forzsbtguz","1440","900","en","ng06an28","null","","","","learningBlock1","","","","<div style=""font-size:60px;""> </div>","null","LF","learning/Slide54.JPG","This is a dep:","",""
"","html-keyboard-response","169","544735","0.0-6.0-0.54","LF","forzsbtguz","1440","900","en","ng06an28","null","","","","learningBlock1","","","","This is a bim:","null","","","","",""
"","image-keyboard-response","170","545069","0.0-6.0-1.54","LF","forzsbtguz","1440","900","en","ng06an28","null","","","","","","","","learning/Slide55.JPG","null","","","","",""
"","html-keyboard-response","171","546075","0.0-6.0-2.54","LF","forzsbtguz","1440","900","en","ng06an28","null","","","","learningBlock1","","","","<div style=""font-size:60px;""> </div>","null","LF","learning/Slide55.JPG","This is a bim:","",""
"","html-keyboard-response","172","547079","0.0-6.0-0.55","LF","forzsbtguz","1440","900","en","ng06an28","null","","","","learningBlock1","","","","This is a tob:","null","","","","",""
"","image-keyboard-response","173","547416","0.0-6.0-1.55","LF","forzsbtguz","1440","900","en","ng06an28","null","","","","","","","","learning/Slide56.JPG","null","","","","",""
"","html-keyboard-response","174","548420","0.0-6.0-2.55","LF","forzsbtguz","1440","900","en","ng06an28","null","","","","learningBlock1","","","","<div style=""font-size:60px;""> </div>","null","LF","learning/Slide56.JPG","This is a tob:","",""
"","html-keyboard-response","175","549424","0.0-6.0-0.56","LF","forzsbtguz","1440","900","en","ng06an28","null","","","","learningBlock1","","","","This is a dep:","null","","","","",""
"","image-keyboard-response","176","549755","0.0-6.0-1.56","LF","forzsbtguz","1440","900","en","ng06an28","null","","","","","","","","learning/Slide57.JPG","null","","","","",""
"","html-keyboard-response","177","550757","0.0-6.0-2.56","LF","forzsbtguz","1440","900","en","ng06an28","null","","","","learningBlock1","","","","<div style=""font-size:60px;""> </div>","null","LF","learning/Slide57.JPG","This is a dep:","",""
"","html-keyboard-response","178","551763","0.0-6.0-0.57","LF","forzsbtguz","1440","900","en","ng06an28","null","","","","learningBlock1","","","","This is a wug:","null","","","","",""
"","image-keyboard-response","179","552099","0.0-6.0-1.57","LF","forzsbtguz","1440","900","en","ng06an28","null","","","","","","","","learning/Slide58.JPG","null","","","","",""
"","html-keyboard-response","180","553106","0.0-6.0-2.57","LF","forzsbtguz","1440","900","en","ng06an28","null","","","","learningBlock1","","","","<div style=""font-size:60px;""> </div>","null","LF","learning/Slide58.JPG","This is a wug:","",""
"","html-keyboard-response","181","554110","0.0-6.0-0.58","LF","forzsbtguz","1440","900","en","ng06an28","null","","","","learningBlock1","","","","This is a dep:","null","","","","",""
"","image-keyboard-response","182","554446","0.0-6.0-1.58","LF","forzsbtguz","1440","900","en","ng06an28","null","","","","","","","","learning/Slide59.JPG","null","","","","",""
"","html-keyboard-response","183","555447","0.0-6.0-2.58","LF","forzsbtguz","1440","900","en","ng06an28","null","","","","learningBlock1","","","","<div style=""font-size:60px;""> </div>","null","LF","learning/Slide59.JPG","This is a dep:","",""
"","html-keyboard-response","184","556450","0.0-6.0-0.59","LF","forzsbtguz","1440","900","en","ng06an28","null","","","","learningBlock1","","","","This is a wug:","null","","","","",""
"","image-keyboard-response","185","556831","0.0-6.0-1.59","LF","forzsbtguz","1440","900","en","ng06an28","null","","","","","","","","learning/Slide60.JPG","null","","","","",""
"","html-keyboard-response","186","557834","0.0-6.0-2.59","LF","forzsbtguz","1440","900","en","ng06an28","null","","","","learningBlock1","","","","<div style=""font-size:60px;""> </div>","null","LF","learning/Slide60.JPG","This is a wug:","",""
"","html-keyboard-response","187","558838","0.0-6.0-0.60","LF","forzsbtguz","1440","900","en","ng06an28","null","","","","learningBlock1","","","","This is a bim:","null","","","","",""
"","image-keyboard-response","188","559173","0.0-6.0-1.60","LF","forzsbtguz","1440","900","en","ng06an28","null","","","","","","","","learning/Slide61.JPG","null","","","","",""
"","html-keyboard-response","189","560179","0.0-6.0-2.60","LF","forzsbtguz","1440","900","en","ng06an28","null","","","","learningBlock1","","","","<div style=""font-size:60px;""> </div>","null","LF","learning/Slide61.JPG","This is a bim:","",""
"","html-keyboard-response","190","561183","0.0-6.0-0.61","LF","forzsbtguz","1440","900","en","ng06an28","null","","","","learningBlock1","","","","This is a dep:","null","","","","",""
"","image-keyboard-response","191","561510","0.0-6.0-1.61","LF","forzsbtguz","1440","900","en","ng06an28","null","","","","","","","","learning/Slide62.JPG","null","","","","",""
"","html-keyboard-response","192","562515","0.0-6.0-2.61","LF","forzsbtguz","1440","900","en","ng06an28","null","","","","learningBlock1","","","","<div style=""font-size:60px;""> </div>","null","LF","learning/Slide62.JPG","This is a dep:","",""
"","html-keyboard-response","193","563519","0.0-6.0-0.62","LF","forzsbtguz","1440","900","en","ng06an28","null","","","","learningBlock1","","","","This is a bim:","null","","","","",""
"","image-keyboard-response","194","563846","0.0-6.0-1.62","LF","forzsbtguz","1440","900","en","ng06an28","null","","","","","","","","learning/Slide63.JPG","null","","","","",""
"","html-keyboard-response","195","564852","0.0-6.0-2.62","LF","forzsbtguz","1440","900","en","ng06an28","null","","","","learningBlock1","","","","<div style=""font-size:60px;""> </div>","null","LF","learning/Slide63.JPG","This is a bim:","",""
"","html-keyboard-response","196","565856","0.0-6.0-0.63","LF","forzsbtguz","1440","900","en","ng06an28","null","","","","learningBlock1","","","","This is a tob:","null","","","","",""
"","image-keyboard-response","197","566188","0.0-6.0-1.63","LF","forzsbtguz","1440","900","en","ng06an28","null","","","","","","","","learning/Slide64.JPG","null","","","","",""
"","html-keyboard-response","198","567193","0.0-6.0-2.63","LF","forzsbtguz","1440","900","en","ng06an28","null","","","","learningBlock1","","","","<div style=""font-size:60px;""> </div>","null","LF","learning/Slide64.JPG","This is a tob:","",""
"","html-keyboard-response","199","568198","0.0-6.0-0.64","LF","forzsbtguz","1440","900","en","ng06an28","null","","","","learningBlock1","","","","This is a wug:","null","","","","",""
"","image-keyboard-response","200","568533","0.0-6.0-1.64","LF","forzsbtguz","1440","900","en","ng06an28","null","","","","","","","","learning/Slide65.JPG","null","","","","",""
"","html-keyboard-response","201","569534","0.0-6.0-2.64","LF","forzsbtguz","1440","900","en","ng06an28","null","","","","learningBlock1","","","","<div style=""font-size:60px;""> </div>","null","LF","learning/Slide65.JPG","This is a wug:","",""
"","html-keyboard-response","202","570536","0.0-6.0-0.65","LF","forzsbtguz","1440","900","en","ng06an28","null","","","","learningBlock1","","","","This is a dep:","null","","","","",""
"","image-keyboard-response","203","570869","0.0-6.0-1.65","LF","forzsbtguz","1440","900","en","ng06an28","null","","","","","","","","learning/Slide66.JPG","null","","","","",""
"","html-keyboard-response","204","571876","0.0-6.0-2.65","LF","forzsbtguz","1440","900","en","ng06an28","null","","","","learningBlock1","","","","<div style=""font-size:60px;""> </div>","null","LF","learning/Slide66.JPG","This is a dep:","",""
"","html-keyboard-response","205","572882","0.0-6.0-0.66","LF","forzsbtguz","1440","900","en","ng06an28","null","","","","learningBlock1","","","","This is a tob:","null","","","","",""
"","image-keyboard-response","206","573214","0.0-6.0-1.66","LF","forzsbtguz","1440","900","en","ng06an28","null","","","","","","","","learning/Slide67.JPG","null","","","","",""
"","html-keyboard-response","207","574220","0.0-6.0-2.66","LF","forzsbtguz","1440","900","en","ng06an28","null","","","","learningBlock1","","","","<div style=""font-size:60px;""> </div>","null","LF","learning/Slide67.JPG","This is a tob:","",""
"","html-keyboard-response","208","575224","0.0-6.0-0.67","LF","forzsbtguz","1440","900","en","ng06an28","null","","","","learningBlock1","","","","This is a wug:","null","","","","",""
"","image-keyboard-response","209","575559","0.0-6.0-1.67","LF","forzsbtguz","1440","900","en","ng06an28","null","","","","","","","","learning/Slide68.JPG","null","","","","",""
"","html-keyboard-response","210","576566","0.0-6.0-2.67","LF","forzsbtguz","1440","900","en","ng06an28","null","","","","learningBlock1","","","","<div style=""font-size:60px;""> </div>","null","LF","learning/Slide68.JPG","This is a wug:","",""
"","html-keyboard-response","211","577570","0.0-6.0-0.68","LF","forzsbtguz","1440","900","en","ng06an28","null","","","","learningBlock1","","","","This is a tob:","null","","","","",""
"","image-keyboard-response","212","577902","0.0-6.0-1.68","LF","forzsbtguz","1440","900","en","ng06an28","null","","","","","","","","learning/Slide69.JPG","null","","","","",""
"","html-keyboard-response","213","578908","0.0-6.0-2.68","LF","forzsbtguz","1440","900","en","ng06an28","null","","","","learningBlock1","","","","<div style=""font-size:60px;""> </div>","null","LF","learning/Slide69.JPG","This is a tob:","",""
"","html-keyboard-response","214","579912","0.0-6.0-0.69","LF","forzsbtguz","1440","900","en","ng06an28","null","","","","learningBlock1","","","","This is a dep:","null","","","","",""
"","image-keyboard-response","215","580244","0.0-6.0-1.69","LF","forzsbtguz","1440","900","en","ng06an28","null","","","","","","","","learning/Slide70.JPG","null","","","","",""
"","html-keyboard-response","216","581249","0.0-6.0-2.69","LF","forzsbtguz","1440","900","en","ng06an28","null","","","","learningBlock1","","","","<div style=""font-size:60px;""> </div>","null","LF","learning/Slide70.JPG","This is a dep:","",""
"","html-keyboard-response","217","582254","0.0-6.0-0.70","LF","forzsbtguz","1440","900","en","ng06an28","null","","","","learningBlock1","","","","This is a wug:","null","","","","",""
"","image-keyboard-response","218","582588","0.0-6.0-1.70","LF","forzsbtguz","1440","900","en","ng06an28","null","","","","","","","","learning/Slide71.JPG","null","","","","",""
"","html-keyboard-response","219","583594","0.0-6.0-2.70","LF","forzsbtguz","1440","900","en","ng06an28","null","","","","learningBlock1","","","","<div style=""font-size:60px;""> </div>","null","LF","learning/Slide71.JPG","This is a wug:","",""
"","html-keyboard-response","220","584598","0.0-6.0-0.71","LF","forzsbtguz","1440","900","en","ng06an28","null","","","","learningBlock1","","","","This is a bim:","null","","","","",""
"","image-keyboard-response","221","584931","0.0-6.0-1.71","LF","forzsbtguz","1440","900","en","ng06an28","null","","","","","","","","learning/Slide72.JPG","null","","","","",""
"","html-keyboard-response","222","585937","0.0-6.0-2.71","LF","forzsbtguz","1440","900","en","ng06an28","null","","","","learningBlock1","","","","<div style=""font-size:60px;""> </div>","null","LF","learning/Slide72.JPG","This is a bim:","",""
"","html-keyboard-response","223","586941","0.0-6.0-0.72","LF","forzsbtguz","1440","900","en","ng06an28","null","","","","learningBlock1","","","","This is a wug:","null","","","","",""
"","image-keyboard-response","224","587275","0.0-6.0-1.72","LF","forzsbtguz","1440","900","en","ng06an28","null","","","","","","","","learning/Slide73.JPG","null","","","","",""
"","html-keyboard-response","225","588280","0.0-6.0-2.72","LF","forzsbtguz","1440","900","en","ng06an28","null","","","","learningBlock1","","","","<div style=""font-size:60px;""> </div>","null","LF","learning/Slide73.JPG","This is a wug:","",""
"","html-keyboard-response","226","589284","0.0-6.0-0.73","LF","forzsbtguz","1440","900","en","ng06an28","null","","","","learningBlock1","","","","This is a dep:","null","","","","",""
"","image-keyboard-response","227","589618","0.0-6.0-1.73","LF","forzsbtguz","1440","900","en","ng06an28","null","","","","","","","","learning/Slide74.JPG","null","","","","",""
"","html-keyboard-response","228","590623","0.0-6.0-2.73","LF","forzsbtguz","1440","900","en","ng06an28","null","","","","learningBlock1","","","","<div style=""font-size:60px;""> </div>","null","LF","learning/Slide74.JPG","This is a dep:","",""
"","html-keyboard-response","229","591629","0.0-6.0-0.74","LF","forzsbtguz","1440","900","en","ng06an28","null","","","","learningBlock1","","","","This is a tob:","null","","","","",""
"","image-keyboard-response","230","591960","0.0-6.0-1.74","LF","forzsbtguz","1440","900","en","ng06an28","null","","","","","","","","learning/Slide75.JPG","null","","","","",""
"","html-keyboard-response","231","592967","0.0-6.0-2.74","LF","forzsbtguz","1440","900","en","ng06an28","null","","","","learningBlock1","","","","<div style=""font-size:60px;""> </div>","null","LF","learning/Slide75.JPG","This is a tob:","",""
"","html-keyboard-response","232","593973","0.0-6.0-0.75","LF","forzsbtguz","1440","900","en","ng06an28","null","","","","learningBlock1","","","","This is a bim:","null","","","","",""
"","image-keyboard-response","233","594308","0.0-6.0-1.75","LF","forzsbtguz","1440","900","en","ng06an28","null","","","","","","","","learning/Slide76.JPG","null","","","","",""
"","html-keyboard-response","234","595314","0.0-6.0-2.75","LF","forzsbtguz","1440","900","en","ng06an28","null","","","","learningBlock1","","","","<div style=""font-size:60px;""> </div>","null","LF","learning/Slide76.JPG","This is a bim:","",""
"","html-keyboard-response","235","596318","0.0-6.0-0.76","LF","forzsbtguz","1440","900","en","ng06an28","null","","","","learningBlock1","","","","This is a tob:","null","","","","",""
"","image-keyboard-response","236","596650","0.0-6.0-1.76","LF","forzsbtguz","1440","900","en","ng06an28","null","","","","","","","","learning/Slide77.JPG","null","","","","",""
"","html-keyboard-response","237","597657","0.0-6.0-2.76","LF","forzsbtguz","1440","900","en","ng06an28","null","","","","learningBlock1","","","","<div style=""font-size:60px;""> </div>","null","LF","learning/Slide77.JPG","This is a tob:","",""
"","html-keyboard-response","238","598661","0.0-6.0-0.77","LF","forzsbtguz","1440","900","en","ng06an28","null","","","","learningBlock1","","","","This is a wug:","null","","","","",""
"","image-keyboard-response","239","598994","0.0-6.0-1.77","LF","forzsbtguz","1440","900","en","ng06an28","null","","","","","","","","learning/Slide78.JPG","null","","","","",""
"","html-keyboard-response","240","600000","0.0-6.0-2.77","LF","forzsbtguz","1440","900","en","ng06an28","null","","","","learningBlock1","","","","<div style=""font-size:60px;""> </div>","null","LF","learning/Slide78.JPG","This is a wug:","",""
"","html-keyboard-response","241","601004","0.0-6.0-0.78","LF","forzsbtguz","1440","900","en","ng06an28","null","","","","learningBlock1","","","","This is a bim:","null","","","","",""
"","image-keyboard-response","242","601341","0.0-6.0-1.78","LF","forzsbtguz","1440","900","en","ng06an28","null","","","","","","","","learning/Slide79.JPG","null","","","","",""
"","html-keyboard-response","243","602347","0.0-6.0-2.78","LF","forzsbtguz","1440","900","en","ng06an28","null","","","","learningBlock1","","","","<div style=""font-size:60px;""> </div>","null","LF","learning/Slide79.JPG","This is a bim:","",""
"","html-keyboard-response","244","603353","0.0-6.0-0.79","LF","forzsbtguz","1440","900","en","ng06an28","null","","","","learningBlock1","","","","This is a tob:","null","","","","",""
"","image-keyboard-response","245","603689","0.0-6.0-1.79","LF","forzsbtguz","1440","900","en","ng06an28","null","","","","","","","","learning/Slide80.JPG","null","","","","",""
"","html-keyboard-response","246","604694","0.0-6.0-2.79","LF","forzsbtguz","1440","900","en","ng06an28","null","","","","learningBlock1","","","","<div style=""font-size:60px;""> </div>","null","LF","learning/Slide80.JPG","This is a tob:","",""
"","instructions","247","610831","0.0-7.0","LF","forzsbtguz","1440","900","en","ng06an28","NA","","","[{""page_index"":0,""viewing_time"":6135.419999998645}]","instructions","","","","","","","","","",""
"","html-keyboard-response","248","611836","0.0-8.0-0.0","LF","forzsbtguz","1440","900","en","ng06an28","null","","","","learningBlock2","","","","This is a wug:","null","","","","",""
"","image-keyboard-response","249","612164","0.0-8.0-1.0","LF","forzsbtguz","1440","900","en","ng06an28","null","","","","","","","","learning/Slide81.JPG","null","","","","",""
"","html-keyboard-response","250","613170","0.0-8.0-2.0","LF","forzsbtguz","1440","900","en","ng06an28","null","","","","learningBlock2","","","","<div style=""font-size:60px;""> </div>","null","LF","learning/Slide81.JPG","This is a wug:","",""
"","html-keyboard-response","251","614175","0.0-8.0-0.1","LF","forzsbtguz","1440","900","en","ng06an28","null","","","","learningBlock2","","","","This is a bim:","null","","","","",""
"","image-keyboard-response","252","614511","0.0-8.0-1.1","LF","forzsbtguz","1440","900","en","ng06an28","null","","","","","","","","learning/Slide82.JPG","null","","","","",""
"","html-keyboard-response","253","615513","0.0-8.0-2.1","LF","forzsbtguz","1440","900","en","ng06an28","null","","","","learningBlock2","","","","<div style=""font-size:60px;""> </div>","null","LF","learning/Slide82.JPG","This is a bim:","",""
"","html-keyboard-response","254","616515","0.0-8.0-0.2","LF","forzsbtguz","1440","900","en","ng06an28","null","","","","learningBlock2","","","","This is a wug:","null","","","","",""
"","image-keyboard-response","255","616847","0.0-8.0-1.2","LF","forzsbtguz","1440","900","en","ng06an28","null","","","","","","","","learning/Slide83.JPG","null","","","","",""
"","html-keyboard-response","256","617854","0.0-8.0-2.2","LF","forzsbtguz","1440","900","en","ng06an28","null","","","","learningBlock2","","","","<div style=""font-size:60px;""> </div>","null","LF","learning/Slide83.JPG","This is a wug:","",""
"","html-keyboard-response","257","618858","0.0-8.0-0.3","LF","forzsbtguz","1440","900","en","ng06an28","null","","","","learningBlock2","","","","This is a dep:","null","","","","",""
"","image-keyboard-response","258","619190","0.0-8.0-1.3","LF","forzsbtguz","1440","900","en","ng06an28","null","","","","","","","","learning/Slide84.JPG","null","","","","",""
"","html-keyboard-response","259","620195","0.0-8.0-2.3","LF","forzsbtguz","1440","900","en","ng06an28","null","","","","learningBlock2","","","","<div style=""font-size:60px;""> </div>","null","LF","learning/Slide84.JPG","This is a dep:","",""
"","html-keyboard-response","260","621201","0.0-8.0-0.4","LF","forzsbtguz","1440","900","en","ng06an28","null","","","","learningBlock2","","","","This is a bim:","null","","","","",""
"","image-keyboard-response","261","621534","0.0-8.0-1.4","LF","forzsbtguz","1440","900","en","ng06an28","null","","","","","","","","learning/Slide85.JPG","null","","","","",""
"","html-keyboard-response","262","622541","0.0-8.0-2.4","LF","forzsbtguz","1440","900","en","ng06an28","null","","","","learningBlock2","","","","<div style=""font-size:60px;""> </div>","null","LF","learning/Slide85.JPG","This is a bim:","",""
"","html-keyboard-response","263","623545","0.0-8.0-0.5","LF","forzsbtguz","1440","900","en","ng06an28","null","","","","learningBlock2","","","","This is a tob:","null","","","","",""
"","image-keyboard-response","264","623874","0.0-8.0-1.5","LF","forzsbtguz","1440","900","en","ng06an28","null","","","","","","","","learning/Slide86.JPG","null","","","","",""
"","html-keyboard-response","265","624877","0.0-8.0-2.5","LF","forzsbtguz","1440","900","en","ng06an28","null","","","","learningBlock2","","","","<div style=""font-size:60px;""> </div>","null","LF","learning/Slide86.JPG","This is a tob:","",""
"","html-keyboard-response","266","625882","0.0-8.0-0.6","LF","forzsbtguz","1440","900","en","ng06an28","null","","","","learningBlock2","","","","This is a wug:","null","","","","",""
"","image-keyboard-response","267","626218","0.0-8.0-1.6","LF","forzsbtguz","1440","900","en","ng06an28","null","","","","","","","","learning/Slide87.JPG","null","","","","",""
"","html-keyboard-response","268","627225","0.0-8.0-2.6","LF","forzsbtguz","1440","900","en","ng06an28","null","","","","learningBlock2","","","","<div style=""font-size:60px;""> </div>","null","LF","learning/Slide87.JPG","This is a wug:","",""
"","html-keyboard-response","269","628229","0.0-8.0-0.7","LF","forzsbtguz","1440","900","en","ng06an28","null","","","","learningBlock2","","","","This is a tob:","null","","","","",""
"","image-keyboard-response","270","628562","0.0-8.0-1.7","LF","forzsbtguz","1440","900","en","ng06an28","null","","","","","","","","learning/Slide88.JPG","null","","","","",""
"","html-keyboard-response","271","629568","0.0-8.0-2.7","LF","forzsbtguz","1440","900","en","ng06an28","null","","","","learningBlock2","","","","<div style=""font-size:60px;""> </div>","null","LF","learning/Slide88.JPG","This is a tob:","",""
"","html-keyboard-response","272","630573","0.0-8.0-0.8","LF","forzsbtguz","1440","900","en","ng06an28","null","","","","learningBlock2","","","","This is a bim:","null","","","","",""
"","image-keyboard-response","273","630908","0.0-8.0-1.8","LF","forzsbtguz","1440","900","en","ng06an28","null","","","","","","","","learning/Slide89.JPG","null","","","","",""
"","html-keyboard-response","274","631914","0.0-8.0-2.8","LF","forzsbtguz","1440","900","en","ng06an28","null","","","","learningBlock2","","","","<div style=""font-size:60px;""> </div>","null","LF","learning/Slide89.JPG","This is a bim:","",""
"","html-keyboard-response","275","632919","0.0-8.0-0.9","LF","forzsbtguz","1440","900","en","ng06an28","null","","","","learningBlock2","","","","This is a dep:","null","","","","",""
"","image-keyboard-response","276","633252","0.0-8.0-1.9","LF","forzsbtguz","1440","900","en","ng06an28","null","","","","","","","","learning/Slide90.JPG","null","","","","",""
"","html-keyboard-response","277","634259","0.0-8.0-2.9","LF","forzsbtguz","1440","900","en","ng06an28","null","","","","learningBlock2","","","","<div style=""font-size:60px;""> </div>","null","LF","learning/Slide90.JPG","This is a dep:","",""
"","html-keyboard-response","278","635263","0.0-8.0-0.10","LF","forzsbtguz","1440","900","en","ng06an28","null","","","","learningBlock2","","","","This is a wug:","null","","","","",""
"","image-keyboard-response","279","635592","0.0-8.0-1.10","LF","forzsbtguz","1440","900","en","ng06an28","null","","","","","","","","learning/Slide91.JPG","null","","","","",""
"","html-keyboard-response","280","636595","0.0-8.0-2.10","LF","forzsbtguz","1440","900","en","ng06an28","null","","","","learningBlock2","","","","<div style=""font-size:60px;""> </div>","null","LF","learning/Slide91.JPG","This is a wug:","",""
"","html-keyboard-response","281","637599","0.0-8.0-0.11","LF","forzsbtguz","1440","900","en","ng06an28","null","","","","learningBlock2","","","","This is a tob:","null","","","","",""
"","image-keyboard-response","282","637935","0.0-8.0-1.11","LF","forzsbtguz","1440","900","en","ng06an28","null","","","","","","","","learning/Slide92.JPG","null","","","","",""
"","html-keyboard-response","283","638941","0.0-8.0-2.11","LF","forzsbtguz","1440","900","en","ng06an28","null","","","","learningBlock2","","","","<div style=""font-size:60px;""> </div>","null","LF","learning/Slide92.JPG","This is a tob:","",""
"","html-keyboard-response","284","639946","0.0-8.0-0.12","LF","forzsbtguz","1440","900","en","ng06an28","null","","","","learningBlock2","","","","This is a bim:","null","","","","",""
"","image-keyboard-response","285","640282","0.0-8.0-1.12","LF","forzsbtguz","1440","900","en","ng06an28","null","","","","","","","","learning/Slide93.JPG","null","","","","",""
"","html-keyboard-response","286","641289","0.0-8.0-2.12","LF","forzsbtguz","1440","900","en","ng06an28","null","","","","learningBlock2","","","","<div style=""font-size:60px;""> </div>","null","LF","learning/Slide93.JPG","This is a bim:","",""
"","html-keyboard-response","287","642294","0.0-8.0-0.13","LF","forzsbtguz","1440","900","en","ng06an28","null","","","","learningBlock2","","","","This is a tob:","null","","","","",""
"","image-keyboard-response","288","642630","0.0-8.0-1.13","LF","forzsbtguz","1440","900","en","ng06an28","null","","","","","","","","learning/Slide94.JPG","null","","","","",""
"","html-keyboard-response","289","643637","0.0-8.0-2.13","LF","forzsbtguz","1440","900","en","ng06an28","null","","","","learningBlock2","","","","<div style=""font-size:60px;""> </div>","null","LF","learning/Slide94.JPG","This is a tob:","",""
"","html-keyboard-response","290","644642","0.0-8.0-0.14","LF","forzsbtguz","1440","900","en","ng06an28","null","","","","learningBlock2","","","","This is a wug:","null","","","","",""
"","image-keyboard-response","291","644974","0.0-8.0-1.14","LF","forzsbtguz","1440","900","en","ng06an28","null","","","","","","","","learning/Slide95.JPG","null","","","","",""
"","html-keyboard-response","292","645981","0.0-8.0-2.14","LF","forzsbtguz","1440","900","en","ng06an28","null","","","","learningBlock2","","","","<div style=""font-size:60px;""> </div>","null","LF","learning/Slide95.JPG","This is a wug:","",""
"","html-keyboard-response","293","646985","0.0-8.0-0.15","LF","forzsbtguz","1440","900","en","ng06an28","null","","","","learningBlock2","","","","This is a tob:","null","","","","",""
"","image-keyboard-response","294","647320","0.0-8.0-1.15","LF","forzsbtguz","1440","900","en","ng06an28","null","","","","","","","","learning/Slide96.JPG","null","","","","",""
"","html-keyboard-response","295","648326","0.0-8.0-2.15","LF","forzsbtguz","1440","900","en","ng06an28","null","","","","learningBlock2","","","","<div style=""font-size:60px;""> </div>","null","LF","learning/Slide96.JPG","This is a tob:","",""
"","html-keyboard-response","296","649331","0.0-8.0-0.16","LF","forzsbtguz","1440","900","en","ng06an28","null","","","","learningBlock2","","","","This is a dep:","null","","","","",""
"","image-keyboard-response","297","649667","0.0-8.0-1.16","LF","forzsbtguz","1440","900","en","ng06an28","null","","","","","","","","learning/Slide97.JPG","null","","","","",""
"","html-keyboard-response","298","650674","0.0-8.0-2.16","LF","forzsbtguz","1440","900","en","ng06an28","null","","","","learningBlock2","","","","<div style=""font-size:60px;""> </div>","null","LF","learning/Slide97.JPG","This is a dep:","",""
"","html-keyboard-response","299","651679","0.0-8.0-0.17","LF","forzsbtguz","1440","900","en","ng06an28","null","","","","learningBlock2","","","","This is a bim:","null","","","","",""
"","image-keyboard-response","300","652011","0.0-8.0-1.17","LF","forzsbtguz","1440","900","en","ng06an28","null","","","","","","","","learning/Slide98.JPG","null","","","","",""
"","html-keyboard-response","301","653017","0.0-8.0-2.17","LF","forzsbtguz","1440","900","en","ng06an28","null","","","","learningBlock2","","","","<div style=""font-size:60px;""> </div>","null","LF","learning/Slide98.JPG","This is a bim:","",""
"","html-keyboard-response","302","654019","0.0-8.0-0.18","LF","forzsbtguz","1440","900","en","ng06an28","null","","","","learningBlock2","","","","This is a dep:","null","","","","",""
"","image-keyboard-response","303","654353","0.0-8.0-1.18","LF","forzsbtguz","1440","900","en","ng06an28","null","","","","","","","","learning/Slide99.JPG","null","","","","",""
"","html-keyboard-response","304","655358","0.0-8.0-2.18","LF","forzsbtguz","1440","900","en","ng06an28","null","","","","learningBlock2","","","","<div style=""font-size:60px;""> </div>","null","LF","learning/Slide99.JPG","This is a dep:","",""
"","html-keyboard-response","305","656363","0.0-8.0-0.19","LF","forzsbtguz","1440","900","en","ng06an28","null","","","","learningBlock2","","","","This is a bim:","null","","","","",""
"","image-keyboard-response","306","656696","0.0-8.0-1.19","LF","forzsbtguz","1440","900","en","ng06an28","null","","","","","","","","learning/Slide100.JPG","null","","","","",""
"","html-keyboard-response","307","657700","0.0-8.0-2.19","LF","forzsbtguz","1440","900","en","ng06an28","null","","","","learningBlock2","","","","<div style=""font-size:60px;""> </div>","null","LF","learning/Slide100.JPG","This is a bim:","",""
"","html-keyboard-response","308","658704","0.0-8.0-0.20","LF","forzsbtguz","1440","900","en","ng06an28","null","","","","learningBlock2","","","","This is a tob:","null","","","","",""
"","image-keyboard-response","309","659037","0.0-8.0-1.20","LF","forzsbtguz","1440","900","en","ng06an28","null","","","","","","","","learning/Slide101.JPG","null","","","","",""
"","html-keyboard-response","310","660044","0.0-8.0-2.20","LF","forzsbtguz","1440","900","en","ng06an28","null","","","","learningBlock2","","","","<div style=""font-size:60px;""> </div>","null","LF","learning/Slide101.JPG","This is a tob:","",""
"","html-keyboard-response","311","661049","0.0-8.0-0.21","LF","forzsbtguz","1440","900","en","ng06an28","null","","","","learningBlock2","","","","This is a bim:","null","","","","",""
"","image-keyboard-response","312","661383","0.0-8.0-1.21","LF","forzsbtguz","1440","900","en","ng06an28","null","","","","","","","","learning/Slide102.JPG","null","","","","",""
"","html-keyboard-response","313","662389","0.0-8.0-2.21","LF","forzsbtguz","1440","900","en","ng06an28","null","","","","learningBlock2","","","","<div style=""font-size:60px;""> </div>","null","LF","learning/Slide102.JPG","This is a bim:","",""
"","html-keyboard-response","314","663395","0.0-8.0-0.22","LF","forzsbtguz","1440","900","en","ng06an28","null","","","","learningBlock2","","","","This is a dep:","null","","","","",""
"","image-keyboard-response","315","663731","0.0-8.0-1.22","LF","forzsbtguz","1440","900","en","ng06an28","null","","","","","","","","learning/Slide103.JPG","null","","","","",""
"","html-keyboard-response","316","664733","0.0-8.0-2.22","LF","forzsbtguz","1440","900","en","ng06an28","null","","","","learningBlock2","","","","<div style=""font-size:60px;""> </div>","null","LF","learning/Slide103.JPG","This is a dep:","",""
"","html-keyboard-response","317","665735","0.0-8.0-0.23","LF","forzsbtguz","1440","900","en","ng06an28","null","","","","learningBlock2","","","","This is a tob:","null","","","","",""
"","image-keyboard-response","318","666067","0.0-8.0-1.23","LF","forzsbtguz","1440","900","en","ng06an28","null","","","","","","","","learning/Slide104.JPG","null","","","","",""
"","html-keyboard-response","319","667073","0.0-8.0-2.23","LF","forzsbtguz","1440","900","en","ng06an28","null","","","","learningBlock2","","","","<div style=""font-size:60px;""> </div>","null","LF","learning/Slide104.JPG","This is a tob:","",""
"","html-keyboard-response","320","668078","0.0-8.0-0.24","LF","forzsbtguz","1440","900","en","ng06an28","null","","","","learningBlock2","","","","This is a dep:","null","","","","",""
"","image-keyboard-response","321","668409","0.0-8.0-1.24","LF","forzsbtguz","1440","900","en","ng06an28","null","","","","","","","","learning/Slide105.JPG","null","","","","",""
"","html-keyboard-response","322","669416","0.0-8.0-2.24","LF","forzsbtguz","1440","900","en","ng06an28","null","","","","learningBlock2","","","","<div style=""font-size:60px;""> </div>","null","LF","learning/Slide105.JPG","This is a dep:","",""
"","html-keyboard-response","323","670421","0.0-8.0-0.25","LF","forzsbtguz","1440","900","en","ng06an28","null","","","","learningBlock2","","","","This is a wug:","null","","","","",""
"","image-keyboard-response","324","670752","0.0-8.0-1.25","LF","forzsbtguz","1440","900","en","ng06an28","null","","","","","","","","learning/Slide106.JPG","null","","","","",""
"","html-keyboard-response","325","671758","0.0-8.0-2.25","LF","forzsbtguz","1440","900","en","ng06an28","null","","","","learningBlock2","","","","<div style=""font-size:60px;""> </div>","null","LF","learning/Slide106.JPG","This is a wug:","",""
"","html-keyboard-response","326","672763","0.0-8.0-0.26","LF","forzsbtguz","1440","900","en","ng06an28","null","","","","learningBlock2","","","","This is a bim:","null","","","","",""
"","image-keyboard-response","327","673096","0.0-8.0-1.26","LF","forzsbtguz","1440","900","en","ng06an28","null","","","","","","","","learning/Slide107.JPG","null","","","","",""
"","html-keyboard-response","328","674103","0.0-8.0-2.26","LF","forzsbtguz","1440","900","en","ng06an28","null","","","","learningBlock2","","","","<div style=""font-size:60px;""> </div>","null","LF","learning/Slide107.JPG","This is a bim:","",""
"","html-keyboard-response","329","675107","0.0-8.0-0.27","LF","forzsbtguz","1440","900","en","ng06an28","null","","","","learningBlock2","","","","This is a dep:","null","","","","",""
"","image-keyboard-response","330","675444","0.0-8.0-1.27","LF","forzsbtguz","1440","900","en","ng06an28","null","","","","","","","","learning/Slide108.JPG","null","","","","",""
"","html-keyboard-response","331","676451","0.0-8.0-2.27","LF","forzsbtguz","1440","900","en","ng06an28","null","","","","learningBlock2","","","","<div style=""font-size:60px;""> </div>","null","LF","learning/Slide108.JPG","This is a dep:","",""
"","html-keyboard-response","332","677455","0.0-8.0-0.28","LF","forzsbtguz","1440","900","en","ng06an28","null","","","","learningBlock2","","","","This is a wug:","null","","","","",""
"","image-keyboard-response","333","677787","0.0-8.0-1.28","LF","forzsbtguz","1440","900","en","ng06an28","null","","","","","","","","learning/Slide109.JPG","null","","","","",""
"","html-keyboard-response","334","678791","0.0-8.0-2.28","LF","forzsbtguz","1440","900","en","ng06an28","null","","","","learningBlock2","","","","<div style=""font-size:60px;""> </div>","null","LF","learning/Slide109.JPG","This is a wug:","",""
"","html-keyboard-response","335","679796","0.0-8.0-0.29","LF","forzsbtguz","1440","900","en","ng06an28","null","","","","learningBlock2","","","","This is a bim:","null","","","","",""
"","image-keyboard-response","336","680132","0.0-8.0-1.29","LF","forzsbtguz","1440","900","en","ng06an28","null","","","","","","","","learning/Slide110.JPG","null","","","","",""
"","html-keyboard-response","337","681138","0.0-8.0-2.29","LF","forzsbtguz","1440","900","en","ng06an28","null","","","","learningBlock2","","","","<div style=""font-size:60px;""> </div>","null","LF","learning/Slide110.JPG","This is a bim:","",""
"","html-keyboard-response","338","682143","0.0-8.0-0.30","LF","forzsbtguz","1440","900","en","ng06an28","null","","","","learningBlock2","","","","This is a tob:","null","","","","",""
"","image-keyboard-response","339","682473","0.0-8.0-1.30","LF","forzsbtguz","1440","900","en","ng06an28","null","","","","","","","","learning/Slide111.JPG","null","","","","",""
"","html-keyboard-response","340","683479","0.0-8.0-2.30","LF","forzsbtguz","1440","900","en","ng06an28","null","","","","learningBlock2","","","","<div style=""font-size:60px;""> </div>","null","LF","learning/Slide111.JPG","This is a tob:","",""
"","html-keyboard-response","341","684485","0.0-8.0-0.31","LF","forzsbtguz","1440","900","en","ng06an28","null","","","","learningBlock2","","","","This is a wug:","null","","","","",""
"","image-keyboard-response","342","684822","0.0-8.0-1.31","LF","forzsbtguz","1440","900","en","ng06an28","null","","","","","","","","learning/Slide112.JPG","null","","","","",""
"","html-keyboard-response","343","685828","0.0-8.0-2.31","LF","forzsbtguz","1440","900","en","ng06an28","null","","","","learningBlock2","","","","<div style=""font-size:60px;""> </div>","null","LF","learning/Slide112.JPG","This is a wug:","",""
"","html-keyboard-response","344","686833","0.0-8.0-0.32","LF","forzsbtguz","1440","900","en","ng06an28","null","","","","learningBlock2","","","","This is a tob:","null","","","","",""
"","image-keyboard-response","345","687166","0.0-8.0-1.32","LF","forzsbtguz","1440","900","en","ng06an28","null","","","","","","","","learning/Slide113.JPG","null","","","","",""
"","html-keyboard-response","346","688172","0.0-8.0-2.32","LF","forzsbtguz","1440","900","en","ng06an28","null","","","","learningBlock2","","","","<div style=""font-size:60px;""> </div>","null","LF","learning/Slide113.JPG","This is a tob:","",""
"","html-keyboard-response","347","689177","0.0-8.0-0.33","LF","forzsbtguz","1440","900","en","ng06an28","null","","","","learningBlock2","","","","This is a wug:","null","","","","",""
"","image-keyboard-response","348","689511","0.0-8.0-1.33","LF","forzsbtguz","1440","900","en","ng06an28","null","","","","","","","","learning/Slide114.JPG","null","","","","",""
"","html-keyboard-response","349","690515","0.0-8.0-2.33","LF","forzsbtguz","1440","900","en","ng06an28","null","","","","learningBlock2","","","","<div style=""font-size:60px;""> </div>","null","LF","learning/Slide114.JPG","This is a wug:","",""
"","html-keyboard-response","350","691520","0.0-8.0-0.34","LF","forzsbtguz","1440","900","en","ng06an28","null","","","","learningBlock2","","","","This is a bim:","null","","","","",""
"","image-keyboard-response","351","691856","0.0-8.0-1.34","LF","forzsbtguz","1440","900","en","ng06an28","null","","","","","","","","learning/Slide115.JPG","null","","","","",""
"","html-keyboard-response","352","692863","0.0-8.0-2.34","LF","forzsbtguz","1440","900","en","ng06an28","null","","","","learningBlock2","","","","<div style=""font-size:60px;""> </div>","null","LF","learning/Slide115.JPG","This is a bim:","",""
"","html-keyboard-response","353","693867","0.0-8.0-0.35","LF","forzsbtguz","1440","900","en","ng06an28","null","","","","learningBlock2","","","","This is a dep:","null","","","","",""
"","image-keyboard-response","354","694196","0.0-8.0-1.35","LF","forzsbtguz","1440","900","en","ng06an28","null","","","","","","","","learning/Slide116.JPG","null","","","","",""
"","html-keyboard-response","355","695202","0.0-8.0-2.35","LF","forzsbtguz","1440","900","en","ng06an28","null","","","","learningBlock2","","","","<div style=""font-size:60px;""> </div>","null","LF","learning/Slide116.JPG","This is a dep:","",""
"","html-keyboard-response","356","696208","0.0-8.0-0.36","LF","forzsbtguz","1440","900","en","ng06an28","null","","","","learningBlock2","","","","This is a tob:","null","","","","",""
"","image-keyboard-response","357","696541","0.0-8.0-1.36","LF","forzsbtguz","1440","900","en","ng06an28","null","","","","","","","","learning/Slide117.JPG","null","","","","",""
"","html-keyboard-response","358","697548","0.0-8.0-2.36","LF","forzsbtguz","1440","900","en","ng06an28","null","","","","learningBlock2","","","","<div style=""font-size:60px;""> </div>","null","LF","learning/Slide117.JPG","This is a tob:","",""
"","html-keyboard-response","359","698552","0.0-8.0-0.37","LF","forzsbtguz","1440","900","en","ng06an28","null","","","","learningBlock2","","","","This is a dep:","null","","","","",""
"","image-keyboard-response","360","698888","0.0-8.0-1.37","LF","forzsbtguz","1440","900","en","ng06an28","null","","","","","","","","learning/Slide118.JPG","null","","","","",""
"","html-keyboard-response","361","699894","0.0-8.0-2.37","LF","forzsbtguz","1440","900","en","ng06an28","null","","","","learningBlock2","","","","<div style=""font-size:60px;""> </div>","null","LF","learning/Slide118.JPG","This is a dep:","",""
"","html-keyboard-response","362","700899","0.0-8.0-0.38","LF","forzsbtguz","1440","900","en","ng06an28","null","","","","learningBlock2","","","","This is a wug:","null","","","","",""
"","image-keyboard-response","363","701230","0.0-8.0-1.38","LF","forzsbtguz","1440","900","en","ng06an28","null","","","","","","","","learning/Slide119.JPG","null","","","","",""
"","html-keyboard-response","364","702236","0.0-8.0-2.38","LF","forzsbtguz","1440","900","en","ng06an28","null","","","","learningBlock2","","","","<div style=""font-size:60px;""> </div>","null","LF","learning/Slide119.JPG","This is a wug:","",""
"","html-keyboard-response","365","703241","0.0-8.0-0.39","LF","forzsbtguz","1440","900","en","ng06an28","null","","","","learningBlock2","","","","This is a dep:","null","","","","",""
"","image-keyboard-response","366","703574","0.0-8.0-1.39","LF","forzsbtguz","1440","900","en","ng06an28","null","","","","","","","","learning/Slide120.JPG","null","","","","",""
"","html-keyboard-response","367","704580","0.0-8.0-2.39","LF","forzsbtguz","1440","900","en","ng06an28","null","","","","learningBlock2","","","","<div style=""font-size:60px;""> </div>","null","LF","learning/Slide120.JPG","This is a dep:","",""
"","html-keyboard-response","368","705581","0.0-8.0-0.40","LF","forzsbtguz","1440","900","en","ng06an28","null","","","","learningBlock2","","","","This is a bim:","null","","","","",""
"","image-keyboard-response","369","705914","0.0-8.0-1.40","LF","forzsbtguz","1440","900","en","ng06an28","null","","","","","","","","learning/Slide121.JPG","null","","","","",""
"","html-keyboard-response","370","706920","0.0-8.0-2.40","LF","forzsbtguz","1440","900","en","ng06an28","null","","","","learningBlock2","","","","<div style=""font-size:60px;""> </div>","null","LF","learning/Slide121.JPG","This is a bim:","",""
"","html-keyboard-response","371","707926","0.0-8.0-0.41","LF","forzsbtguz","1440","900","en","ng06an28","null","","","","learningBlock2","","","","This is a wug:","null","","","","",""
"","image-keyboard-response","372","708254","0.0-8.0-1.41","LF","forzsbtguz","1440","900","en","ng06an28","null","","","","","","","","learning/Slide122.JPG","null","","","","",""
"","html-keyboard-response","373","709259","0.0-8.0-2.41","LF","forzsbtguz","1440","900","en","ng06an28","null","","","","learningBlock2","","","","<div style=""font-size:60px;""> </div>","null","LF","learning/Slide122.JPG","This is a wug:","",""
"","html-keyboard-response","374","710264","0.0-8.0-0.42","LF","forzsbtguz","1440","900","en","ng06an28","null","","","","learningBlock2","","","","This is a bim:","null","","","","",""
"","image-keyboard-response","375","710596","0.0-8.0-1.42","LF","forzsbtguz","1440","900","en","ng06an28","null","","","","","","","","learning/Slide123.JPG","null","","","","",""
"","html-keyboard-response","376","711597","0.0-8.0-2.42","LF","forzsbtguz","1440","900","en","ng06an28","null","","","","learningBlock2","","","","<div style=""font-size:60px;""> </div>","null","LF","learning/Slide123.JPG","This is a bim:","",""
"","html-keyboard-response","377","712602","0.0-8.0-0.43","LF","forzsbtguz","1440","900","en","ng06an28","null","","","","learningBlock2","","","","This is a tob:","null","","","","",""
"","image-keyboard-response","378","712937","0.0-8.0-1.43","LF","forzsbtguz","1440","900","en","ng06an28","null","","","","","","","","learning/Slide124.JPG","null","","","","",""
"","html-keyboard-response","379","713943","0.0-8.0-2.43","LF","forzsbtguz","1440","900","en","ng06an28","null","","","","learningBlock2","","","","<div style=""font-size:60px;""> </div>","null","LF","learning/Slide124.JPG","This is a tob:","",""
"","html-keyboard-response","380","714948","0.0-8.0-0.44","LF","forzsbtguz","1440","900","en","ng06an28","null","","","","learningBlock2","","","","This is a bim:","null","","","","",""
"","image-keyboard-response","381","715283","0.0-8.0-1.44","LF","forzsbtguz","1440","900","en","ng06an28","null","","","","","","","","learning/Slide125.JPG","null","","","","",""
"","html-keyboard-response","382","716289","0.0-8.0-2.44","LF","forzsbtguz","1440","900","en","ng06an28","null","","","","learningBlock2","","","","<div style=""font-size:60px;""> </div>","null","LF","learning/Slide125.JPG","This is a bim:","",""
"","html-keyboard-response","383","717295","0.0-8.0-0.45","LF","forzsbtguz","1440","900","en","ng06an28","null","","","","learningBlock2","","","","This is a tob:","null","","","","",""
"","image-keyboard-response","384","717632","0.0-8.0-1.45","LF","forzsbtguz","1440","900","en","ng06an28","null","","","","","","","","learning/Slide126.JPG","null","","","","",""
"","html-keyboard-response","385","718638","0.0-8.0-2.45","LF","forzsbtguz","1440","900","en","ng06an28","null","","","","learningBlock2","","","","<div style=""font-size:60px;""> </div>","null","LF","learning/Slide126.JPG","This is a tob:","",""
"","html-keyboard-response","386","719642","0.0-8.0-0.46","LF","forzsbtguz","1440","900","en","ng06an28","null","","","","learningBlock2","","","","This is a dep:","null","","","","",""
"","image-keyboard-response","387","719978","0.0-8.0-1.46","LF","forzsbtguz","1440","900","en","ng06an28","null","","","","","","","","learning/Slide127.JPG","null","","","","",""
"","html-keyboard-response","388","720985","0.0-8.0-2.46","LF","forzsbtguz","1440","900","en","ng06an28","null","","","","learningBlock2","","","","<div style=""font-size:60px;""> </div>","null","LF","learning/Slide127.JPG","This is a dep:","",""
"","html-keyboard-response","389","721990","0.0-8.0-0.47","LF","forzsbtguz","1440","900","en","ng06an28","null","","","","learningBlock2","","","","This is a wug:","null","","","","",""
"","image-keyboard-response","390","722321","0.0-8.0-1.47","LF","forzsbtguz","1440","900","en","ng06an28","null","","","","","","","","learning/Slide128.JPG","null","","","","",""
"","html-keyboard-response","391","723327","0.0-8.0-2.47","LF","forzsbtguz","1440","900","en","ng06an28","null","","","","learningBlock2","","","","<div style=""font-size:60px;""> </div>","null","LF","learning/Slide128.JPG","This is a wug:","",""
"","html-keyboard-response","392","724330","0.0-8.0-0.48","LF","forzsbtguz","1440","900","en","ng06an28","null","","","","learningBlock2","","","","This is a tob:","null","","","","",""
"","image-keyboard-response","393","724667","0.0-8.0-1.48","LF","forzsbtguz","1440","900","en","ng06an28","null","","","","","","","","learning/Slide129.JPG","null","","","","",""
"","html-keyboard-response","394","725673","0.0-8.0-2.48","LF","forzsbtguz","1440","900","en","ng06an28","null","","","","learningBlock2","","","","<div style=""font-size:60px;""> </div>","null","LF","learning/Slide129.JPG","This is a tob:","",""
"","html-keyboard-response","395","726678","0.0-8.0-0.49","LF","forzsbtguz","1440","900","en","ng06an28","null","","","","learningBlock2","","","","This is a wug:","null","","","","",""
"","image-keyboard-response","396","727008","0.0-8.0-1.49","LF","forzsbtguz","1440","900","en","ng06an28","null","","","","","","","","learning/Slide130.JPG","null","","","","",""
"","html-keyboard-response","397","728010","0.0-8.0-2.49","LF","forzsbtguz","1440","900","en","ng06an28","null","","","","learningBlock2","","","","<div style=""font-size:60px;""> </div>","null","LF","learning/Slide130.JPG","This is a wug:","",""
"","html-keyboard-response","398","729014","0.0-8.0-0.50","LF","forzsbtguz","1440","900","en","ng06an28","null","","","","learningBlock2","","","","This is a bim:","null","","","","",""
"","image-keyboard-response","399","729350","0.0-8.0-1.50","LF","forzsbtguz","1440","900","en","ng06an28","null","","","","","","","","learning/Slide131.JPG","null","","","","",""
"","html-keyboard-response","400","730357","0.0-8.0-2.50","LF","forzsbtguz","1440","900","en","ng06an28","null","","","","learningBlock2","","","","<div style=""font-size:60px;""> </div>","null","LF","learning/Slide131.JPG","This is a bim:","",""
"","html-keyboard-response","401","731361","0.0-8.0-0.51","LF","forzsbtguz","1440","900","en","ng06an28","null","","","","learningBlock2","","","","This is a dep:","null","","","","",""
"","image-keyboard-response","402","731698","0.0-8.0-1.51","LF","forzsbtguz","1440","900","en","ng06an28","null","","","","","","","","learning/Slide132.JPG","null","","","","",""
"","html-keyboard-response","403","732704","0.0-8.0-2.51","LF","forzsbtguz","1440","900","en","ng06an28","null","","","","learningBlock2","","","","<div style=""font-size:60px;""> </div>","null","LF","learning/Slide132.JPG","This is a dep:","",""
"","html-keyboard-response","404","733711","0.0-8.0-0.52","LF","forzsbtguz","1440","900","en","ng06an28","null","","","","learningBlock2","","","","This is a tob:","null","","","","",""
"","image-keyboard-response","405","734046","0.0-8.0-1.52","LF","forzsbtguz","1440","900","en","ng06an28","null","","","","","","","","learning/Slide133.JPG","null","","","","",""
"","html-keyboard-response","406","735049","0.0-8.0-2.52","LF","forzsbtguz","1440","900","en","ng06an28","null","","","","learningBlock2","","","","<div style=""font-size:60px;""> </div>","null","LF","learning/Slide133.JPG","This is a tob:","",""
"","html-keyboard-response","407","736054","0.0-8.0-0.53","LF","forzsbtguz","1440","900","en","ng06an28","null","","","","learningBlock2","","","","This is a dep:","null","","","","",""
"","image-keyboard-response","408","736385","0.0-8.0-1.53","LF","forzsbtguz","1440","900","en","ng06an28","null","","","","","","","","learning/Slide134.JPG","null","","","","",""
"","html-keyboard-response","409","737391","0.0-8.0-2.53","LF","forzsbtguz","1440","900","en","ng06an28","null","","","","learningBlock2","","","","<div style=""font-size:60px;""> </div>","null","LF","learning/Slide134.JPG","This is a dep:","",""
"","html-keyboard-response","410","738396","0.0-8.0-0.54","LF","forzsbtguz","1440","900","en","ng06an28","null","","","","learningBlock2","","","","This is a tob:","null","","","","",""
"","image-keyboard-response","411","738730","0.0-8.0-1.54","LF","forzsbtguz","1440","900","en","ng06an28","null","","","","","","","","learning/Slide135.JPG","null","","","","",""
"","html-keyboard-response","412","739737","0.0-8.0-2.54","LF","forzsbtguz","1440","900","en","ng06an28","null","","","","learningBlock2","","","","<div style=""font-size:60px;""> </div>","null","LF","learning/Slide135.JPG","This is a tob:","",""
"","html-keyboard-response","413","740740","0.0-8.0-0.55","LF","forzsbtguz","1440","900","en","ng06an28","null","","","","learningBlock2","","","","This is a wug:","null","","","","",""
"","image-keyboard-response","414","741071","0.0-8.0-1.55","LF","forzsbtguz","1440","900","en","ng06an28","null","","","","","","","","learning/Slide136.JPG","null","","","","",""
"","html-keyboard-response","415","742077","0.0-8.0-2.55","LF","forzsbtguz","1440","900","en","ng06an28","null","","","","learningBlock2","","","","<div style=""font-size:60px;""> </div>","null","LF","learning/Slide136.JPG","This is a wug:","",""
"","html-keyboard-response","416","743082","0.0-8.0-0.56","LF","forzsbtguz","1440","900","en","ng06an28","null","","","","learningBlock2","","","","This is a tob:","null","","","","",""
"","image-keyboard-response","417","743418","0.0-8.0-1.56","LF","forzsbtguz","1440","900","en","ng06an28","null","","","","","","","","learning/Slide137.JPG","null","","","","",""
"","html-keyboard-response","418","744425","0.0-8.0-2.56","LF","forzsbtguz","1440","900","en","ng06an28","null","","","","learningBlock2","","","","<div style=""font-size:60px;""> </div>","null","LF","learning/Slide137.JPG","This is a tob:","",""
"","html-keyboard-response","419","745429","0.0-8.0-0.57","LF","forzsbtguz","1440","900","en","ng06an28","null","","","","learningBlock2","","","","This is a bim:","null","","","","",""
"","image-keyboard-response","420","745762","0.0-8.0-1.57","LF","forzsbtguz","1440","900","en","ng06an28","null","","","","","","","","learning/Slide138.JPG","null","","","","",""
"","html-keyboard-response","421","746769","0.0-8.0-2.57","LF","forzsbtguz","1440","900","en","ng06an28","null","","","","learningBlock2","","","","<div style=""font-size:60px;""> </div>","null","LF","learning/Slide138.JPG","This is a bim:","",""
"","html-keyboard-response","422","747775","0.0-8.0-0.58","LF","forzsbtguz","1440","900","en","ng06an28","null","","","","learningBlock2","","","","This is a wug:","null","","","","",""
"","image-keyboard-response","423","748110","0.0-8.0-1.58","LF","forzsbtguz","1440","900","en","ng06an28","null","","","","","","","","learning/Slide139.JPG","null","","","","",""
"","html-keyboard-response","424","749116","0.0-8.0-2.58","LF","forzsbtguz","1440","900","en","ng06an28","null","","","","learningBlock2","","","","<div style=""font-size:60px;""> </div>","null","LF","learning/Slide139.JPG","This is a wug:","",""
"","html-keyboard-response","425","750121","0.0-8.0-0.59","LF","forzsbtguz","1440","900","en","ng06an28","null","","","","learningBlock2","","","","This is a dep:","null","","","","",""
"","image-keyboard-response","426","750452","0.0-8.0-1.59","LF","forzsbtguz","1440","900","en","ng06an28","null","","","","","","","","learning/Slide140.JPG","null","","","","",""
"","html-keyboard-response","427","751457","0.0-8.0-2.59","LF","forzsbtguz","1440","900","en","ng06an28","null","","","","learningBlock2","","","","<div style=""font-size:60px;""> </div>","null","LF","learning/Slide140.JPG","This is a dep:","",""
"","html-keyboard-response","428","752462","0.0-8.0-0.60","LF","forzsbtguz","1440","900","en","ng06an28","null","","","","learningBlock2","","","","This is a tob:","null","","","","",""
"","image-keyboard-response","429","752798","0.0-8.0-1.60","LF","forzsbtguz","1440","900","en","ng06an28","null","","","","","","","","learning/Slide141.JPG","null","","","","",""
"","html-keyboard-response","430","753804","0.0-8.0-2.60","LF","forzsbtguz","1440","900","en","ng06an28","null","","","","learningBlock2","","","","<div style=""font-size:60px;""> </div>","null","LF","learning/Slide141.JPG","This is a tob:","",""
"","html-keyboard-response","431","754809","0.0-8.0-0.61","LF","forzsbtguz","1440","900","en","ng06an28","null","","","","learningBlock2","","","","This is a wug:","null","","","","",""
"","image-keyboard-response","432","755142","0.0-8.0-1.61","LF","forzsbtguz","1440","900","en","ng06an28","null","","","","","","","","learning/Slide142.JPG","null","","","","",""
"","html-keyboard-response","433","756148","0.0-8.0-2.61","LF","forzsbtguz","1440","900","en","ng06an28","null","","","","learningBlock2","","","","<div style=""font-size:60px;""> </div>","null","LF","learning/Slide142.JPG","This is a wug:","",""
"","html-keyboard-response","434","757152","0.0-8.0-0.62","LF","forzsbtguz","1440","900","en","ng06an28","null","","","","learningBlock2","","","","This is a bim:","null","","","","",""
"","image-keyboard-response","435","757484","0.0-8.0-1.62","LF","forzsbtguz","1440","900","en","ng06an28","null","","","","","","","","learning/Slide143.JPG","null","","","","",""
"","html-keyboard-response","436","758491","0.0-8.0-2.62","LF","forzsbtguz","1440","900","en","ng06an28","null","","","","learningBlock2","","","","<div style=""font-size:60px;""> </div>","null","LF","learning/Slide143.JPG","This is a bim:","",""
"","html-keyboard-response","437","759497","0.0-8.0-0.63","LF","forzsbtguz","1440","900","en","ng06an28","null","","","","learningBlock2","","","","This is a dep:","null","","","","",""
"","image-keyboard-response","438","759825","0.0-8.0-1.63","LF","forzsbtguz","1440","900","en","ng06an28","null","","","","","","","","learning/Slide144.JPG","null","","","","",""
"","html-keyboard-response","439","760831","0.0-8.0-2.63","LF","forzsbtguz","1440","900","en","ng06an28","null","","","","learningBlock2","","","","<div style=""font-size:60px;""> </div>","null","LF","learning/Slide144.JPG","This is a dep:","",""
"","html-keyboard-response","440","761835","0.0-8.0-0.64","LF","forzsbtguz","1440","900","en","ng06an28","null","","","","learningBlock2","","","","This is a bim:","null","","","","",""
"","image-keyboard-response","441","762167","0.0-8.0-1.64","LF","forzsbtguz","1440","900","en","ng06an28","null","","","","","","","","learning/Slide145.JPG","null","","","","",""
"","html-keyboard-response","442","763173","0.0-8.0-2.64","LF","forzsbtguz","1440","900","en","ng06an28","null","","","","learningBlock2","","","","<div style=""font-size:60px;""> </div>","null","LF","learning/Slide145.JPG","This is a bim:","",""
"","html-keyboard-response","443","764178","0.0-8.0-0.65","LF","forzsbtguz","1440","900","en","ng06an28","null","","","","learningBlock2","","","","This is a tob:","null","","","","",""
"","image-keyboard-response","444","764512","0.0-8.0-1.65","LF","forzsbtguz","1440","900","en","ng06an28","null","","","","","","","","learning/Slide146.JPG","null","","","","",""
"","html-keyboard-response","445","765518","0.0-8.0-2.65","LF","forzsbtguz","1440","900","en","ng06an28","null","","","","learningBlock2","","","","<div style=""font-size:60px;""> </div>","null","LF","learning/Slide146.JPG","This is a tob:","",""
"","html-keyboard-response","446","766522","0.0-8.0-0.66","LF","forzsbtguz","1440","900","en","ng06an28","null","","","","learningBlock2","","","","This is a wug:","null","","","","",""
"","image-keyboard-response","447","766857","0.0-8.0-1.66","LF","forzsbtguz","1440","900","en","ng06an28","null","","","","","","","","learning/Slide147.JPG","null","","","","",""
"","html-keyboard-response","448","767860","0.0-8.0-2.66","LF","forzsbtguz","1440","900","en","ng06an28","null","","","","learningBlock2","","","","<div style=""font-size:60px;""> </div>","null","LF","learning/Slide147.JPG","This is a wug:","",""
"","html-keyboard-response","449","768865","0.0-8.0-0.67","LF","forzsbtguz","1440","900","en","ng06an28","null","","","","learningBlock2","","","","This is a bim:","null","","","","",""
"","image-keyboard-response","450","769194","0.0-8.0-1.67","LF","forzsbtguz","1440","900","en","ng06an28","null","","","","","","","","learning/Slide148.JPG","null","","","","",""
"","html-keyboard-response","451","770199","0.0-8.0-2.67","LF","forzsbtguz","1440","900","en","ng06an28","null","","","","learningBlock2","","","","<div style=""font-size:60px;""> </div>","null","LF","learning/Slide148.JPG","This is a bim:","",""
"","html-keyboard-response","452","771205","0.0-8.0-0.68","LF","forzsbtguz","1440","900","en","ng06an28","null","","","","learningBlock2","","","","This is a dep:","null","","","","",""
"","image-keyboard-response","453","771539","0.0-8.0-1.68","LF","forzsbtguz","1440","900","en","ng06an28","null","","","","","","","","learning/Slide149.JPG","null","","","","",""
"","html-keyboard-response","454","772545","0.0-8.0-2.68","LF","forzsbtguz","1440","900","en","ng06an28","null","","","","learningBlock2","","","","<div style=""font-size:60px;""> </div>","null","LF","learning/Slide149.JPG","This is a dep:","",""
"","html-keyboard-response","455","773550","0.0-8.0-0.69","LF","forzsbtguz","1440","900","en","ng06an28","null","","","","learningBlock2","","","","This is a wug:","null","","","","",""
"","image-keyboard-response","456","773885","0.0-8.0-1.69","LF","forzsbtguz","1440","900","en","ng06an28","null","","","","","","","","learning/Slide150.JPG","null","","","","",""
"","html-keyboard-response","457","774887","0.0-8.0-2.69","LF","forzsbtguz","1440","900","en","ng06an28","null","","","","learningBlock2","","","","<div style=""font-size:60px;""> </div>","null","LF","learning/Slide150.JPG","This is a wug:","",""
"","html-keyboard-response","458","775891","0.0-8.0-0.70","LF","forzsbtguz","1440","900","en","ng06an28","null","","","","learningBlock2","","","","This is a dep:","null","","","","",""
"","image-keyboard-response","459","776224","0.0-8.0-1.70","LF","forzsbtguz","1440","900","en","ng06an28","null","","","","","","","","learning/Slide151.JPG","null","","","","",""
"","html-keyboard-response","460","777228","0.0-8.0-2.70","LF","forzsbtguz","1440","900","en","ng06an28","null","","","","learningBlock2","","","","<div style=""font-size:60px;""> </div>","null","LF","learning/Slide151.JPG","This is a dep:","",""
"","html-keyboard-response","461","778233","0.0-8.0-0.71","LF","forzsbtguz","1440","900","en","ng06an28","null","","","","learningBlock2","","","","This is a wug:","null","","","","",""
"","image-keyboard-response","462","778565","0.0-8.0-1.71","LF","forzsbtguz","1440","900","en","ng06an28","null","","","","","","","","learning/Slide152.JPG","null","","","","",""
"","html-keyboard-response","463","779567","0.0-8.0-2.71","LF","forzsbtguz","1440","900","en","ng06an28","null","","","","learningBlock2","","","","<div style=""font-size:60px;""> </div>","null","LF","learning/Slide152.JPG","This is a wug:","",""
"","html-keyboard-response","464","780573","0.0-8.0-0.72","LF","forzsbtguz","1440","900","en","ng06an28","null","","","","learningBlock2","","","","This is a bim:","null","","","","",""
"","image-keyboard-response","465","780910","0.0-8.0-1.72","LF","forzsbtguz","1440","900","en","ng06an28","null","","","","","","","","learning/Slide153.JPG","null","","","","",""
"","html-keyboard-response","466","781916","0.0-8.0-2.72","LF","forzsbtguz","1440","900","en","ng06an28","null","","","","learningBlock2","","","","<div style=""font-size:60px;""> </div>","null","LF","learning/Slide153.JPG","This is a bim:","",""
"","html-keyboard-response","467","782921","0.0-8.0-0.73","LF","forzsbtguz","1440","900","en","ng06an28","null","","","","learningBlock2","","","","This is a tob:","null","","","","",""
"","image-keyboard-response","468","783253","0.0-8.0-1.73","LF","forzsbtguz","1440","900","en","ng06an28","null","","","","","","","","learning/Slide154.JPG","null","","","","",""
"","html-keyboard-response","469","784259","0.0-8.0-2.73","LF","forzsbtguz","1440","900","en","ng06an28","null","","","","learningBlock2","","","","<div style=""font-size:60px;""> </div>","null","LF","learning/Slide154.JPG","This is a tob:","",""
"","html-keyboard-response","470","785263","0.0-8.0-0.74","LF","forzsbtguz","1440","900","en","ng06an28","null","","","","learningBlock2","","","","This is a dep:","null","","","","",""
"","image-keyboard-response","471","785593","0.0-8.0-1.74","LF","forzsbtguz","1440","900","en","ng06an28","null","","","","","","","","learning/Slide155.JPG","null","","","","",""
"","html-keyboard-response","472","786600","0.0-8.0-2.74","LF","forzsbtguz","1440","900","en","ng06an28","null","","","","learningBlock2","","","","<div style=""font-size:60px;""> </div>","null","LF","learning/Slide155.JPG","This is a dep:","",""
"","html-keyboard-response","473","787604","0.0-8.0-0.75","LF","forzsbtguz","1440","900","en","ng06an28","null","","","","learningBlock2","","","","This is a bim:","null","","","","",""
"","image-keyboard-response","474","787940","0.0-8.0-1.75","LF","forzsbtguz","1440","900","en","ng06an28","null","","","","","","","","learning/Slide156.JPG","null","","","","",""
"","html-keyboard-response","475","788947","0.0-8.0-2.75","LF","forzsbtguz","1440","900","en","ng06an28","null","","","","learningBlock2","","","","<div style=""font-size:60px;""> </div>","null","LF","learning/Slide156.JPG","This is a bim:","",""
"","html-keyboard-response","476","789951","0.0-8.0-0.76","LF","forzsbtguz","1440","900","en","ng06an28","null","","","","learningBlock2","","","","This is a dep:","null","","","","",""
"","image-keyboard-response","477","790288","0.0-8.0-1.76","LF","forzsbtguz","1440","900","en","ng06an28","null","","","","","","","","learning/Slide157.JPG","null","","","","",""
"","html-keyboard-response","478","791290","0.0-8.0-2.76","LF","forzsbtguz","1440","900","en","ng06an28","null","","","","learningBlock2","","","","<div style=""font-size:60px;""> </div>","null","LF","learning/Slide157.JPG","This is a dep:","",""
"","html-keyboard-response","479","792296","0.0-8.0-0.77","LF","forzsbtguz","1440","900","en","ng06an28","null","","","","learningBlock2","","","","This is a tob:","null","","","","",""
"","image-keyboard-response","480","792628","0.0-8.0-1.77","LF","forzsbtguz","1440","900","en","ng06an28","null","","","","","","","","learning/Slide158.JPG","null","","","","",""
"","html-keyboard-response","481","793634","0.0-8.0-2.77","LF","forzsbtguz","1440","900","en","ng06an28","null","","","","learningBlock2","","","","<div style=""font-size:60px;""> </div>","null","LF","learning/Slide158.JPG","This is a tob:","",""
"","html-keyboard-response","482","794639","0.0-8.0-0.78","LF","forzsbtguz","1440","900","en","ng06an28","null","","","","learningBlock2","","","","This is a dep:","null","","","","",""
"","image-keyboard-response","483","794975","0.0-8.0-1.78","LF","forzsbtguz","1440","900","en","ng06an28","null","","","","","","","","learning/Slide159.JPG","null","","","","",""
"","html-keyboard-response","484","795981","0.0-8.0-2.78","LF","forzsbtguz","1440","900","en","ng06an28","null","","","","learningBlock2","","","","<div style=""font-size:60px;""> </div>","null","LF","learning/Slide159.JPG","This is a dep:","",""
"","html-keyboard-response","485","796986","0.0-8.0-0.79","LF","forzsbtguz","1440","900","en","ng06an28","null","","","","learningBlock2","","","","This is a wug:","null","","","","",""
"","image-keyboard-response","486","797319","0.0-8.0-1.79","LF","forzsbtguz","1440","900","en","ng06an28","null","","","","","","","","learning/Slide160.JPG","null","","","","",""
"","html-keyboard-response","487","798322","0.0-8.0-2.79","LF","forzsbtguz","1440","900","en","ng06an28","null","","","","learningBlock2","","","","<div style=""font-size:60px;""> </div>","null","LF","learning/Slide160.JPG","This is a wug:","",""
"","resize2","488","802207","0.0-9.0","LF","forzsbtguz","1440","900","en","ng06an28","","","","","","","104","1.04","","","","","","",""
"","instructions","489","813148","0.0-10.0","LF","forzsbtguz","1440","900","en","ng06an28","NA","","","[{""page_index"":0,""viewing_time"":10939.69500000088}]","instructions","","","","","","","","","",""
