"success","trial_type","trial_index","time_elapsed","internal_node_id","condition","subject","screen_width","screen_height","language","codeword","rt","responses","url","view_history","test_part","final_height_px","final_width_px","scale_factor","stimulus","key_press","learningType","presentedImage","presentedLabel","button_pressed","response"
"true","fullscreen","0","32741","0.0-0.0","FL","zq7k8hkxsq","1440","900","de","fa05ea13","","","","","","","","","","","","","","",""
"","survey-html-form","1","40367","0.0-1.0","FL","zq7k8hkxsq","1440","900","de","fa05ea13","7623","{""language"":""de""}","","","","","","","","","","","","",""
"","external-html","2","76966","0.0-2.0-0.0","FL","zq7k8hkxsq","1440","900","de","fa05ea13","36511","","text/information.html","","","","","","","","","","","",""
"","external-html","3","92039","0.0-2.0-1.0","FL","zq7k8hkxsq","1440","900","de","fa05ea13","15000","","text/consent.html","","","","","","","","","","","",""
"","survey-html-form","4","176327","0.0-2.0-2.0","FL","zq7k8hkxsq","1440","900","de","fa05ea13","84283","{""codeword_enter"":""fa05ea13""}","","","","","","","","","","","","",""
"","instructions","5","190270","0.0-4.0","FL","zq7k8hkxsq","1440","900","de","fa05ea13","NA","","","[{""page_index"":0,""viewing_time"":3722},{""page_index"":1,""viewing_time"":8717}]","instructions","","","","","","","","","",""
"","resize","6","227539","0.0-5.0","FL","zq7k8hkxsq","1440","900","de","fa05ea13","","","","","","","430","2.7301587301587302","","","","","","",""
"","image-keyboard-response","7","227719","0.0-6.0-0.0","FL","zq7k8hkxsq","1440","900","de","fa05ea13","null","","","","","","","","learning/Slide1.JPG","null","","","","",""
"","html-keyboard-response","8","228880","0.0-6.0-1.0","FL","zq7k8hkxsq","1440","900","de","fa05ea13","null","","","","learningBlock1","","","","That was a tob.","null","","","","",""
"","html-keyboard-response","9","229884","0.0-6.0-2.0","FL","zq7k8hkxsq","1440","900","de","fa05ea13","null","","","","learningBlock1","","","","<div style=""font-size:60px;""> </div>","null","FL","learning/Slide1.JPG","That was a tob.","",""
"","image-keyboard-response","10","230065","0.0-6.0-0.1","FL","zq7k8hkxsq","1440","900","de","fa05ea13","null","","","","","","","","learning/Slide2.JPG","null","","","","",""
"","html-keyboard-response","11","231218","0.0-6.0-1.1","FL","zq7k8hkxsq","1440","900","de","fa05ea13","null","","","","learningBlock1","","","","That was a wug.","null","","","","",""
"","html-keyboard-response","12","232223","0.0-6.0-2.1","FL","zq7k8hkxsq","1440","900","de","fa05ea13","null","","","","learningBlock1","","","","<div style=""font-size:60px;""> </div>","null","FL","learning/Slide2.JPG","That was a wug.","",""
"","image-keyboard-response","13","232404","0.0-6.0-0.2","FL","zq7k8hkxsq","1440","900","de","fa05ea13","null","","","","","","","","learning/Slide3.JPG","null","","","","",""
"","html-keyboard-response","14","233558","0.0-6.0-1.2","FL","zq7k8hkxsq","1440","900","de","fa05ea13","null","","","","learningBlock1","","","","That was a bim.","null","","","","",""
"","html-keyboard-response","15","234559","0.0-6.0-2.2","FL","zq7k8hkxsq","1440","900","de","fa05ea13","null","","","","learningBlock1","","","","<div style=""font-size:60px;""> </div>","null","FL","learning/Slide3.JPG","That was a bim.","",""
"","image-keyboard-response","16","234737","0.0-6.0-0.3","FL","zq7k8hkxsq","1440","900","de","fa05ea13","null","","","","","","","","learning/Slide4.JPG","null","","","","",""
"","html-keyboard-response","17","235898","0.0-6.0-1.3","FL","zq7k8hkxsq","1440","900","de","fa05ea13","null","","","","learningBlock1","","","","That was a dep.","null","","","","",""
"","html-keyboard-response","18","236902","0.0-6.0-2.3","FL","zq7k8hkxsq","1440","900","de","fa05ea13","null","","","","learningBlock1","","","","<div style=""font-size:60px;""> </div>","null","FL","learning/Slide4.JPG","That was a dep.","",""
"","image-keyboard-response","19","237084","0.0-6.0-0.4","FL","zq7k8hkxsq","1440","900","de","fa05ea13","null","","","","","","","","learning/Slide5.JPG","null","","","","",""
"","html-keyboard-response","20","238245","0.0-6.0-1.4","FL","zq7k8hkxsq","1440","900","de","fa05ea13","null","","","","learningBlock1","","","","That was a wug.","null","","","","",""
"","html-keyboard-response","21","239249","0.0-6.0-2.4","FL","zq7k8hkxsq","1440","900","de","fa05ea13","null","","","","learningBlock1","","","","<div style=""font-size:60px;""> </div>","null","FL","learning/Slide5.JPG","That was a wug.","",""
"","image-keyboard-response","22","239432","0.0-6.0-0.5","FL","zq7k8hkxsq","1440","900","de","fa05ea13","null","","","","","","","","learning/Slide6.JPG","null","","","","",""
"","html-keyboard-response","23","240591","0.0-6.0-1.5","FL","zq7k8hkxsq","1440","900","de","fa05ea13","null","","","","learningBlock1","","","","That was a dep.","null","","","","",""
"","html-keyboard-response","24","241596","0.0-6.0-2.5","FL","zq7k8hkxsq","1440","900","de","fa05ea13","null","","","","learningBlock1","","","","<div style=""font-size:60px;""> </div>","null","FL","learning/Slide6.JPG","That was a dep.","",""
"","image-keyboard-response","25","241777","0.0-6.0-0.6","FL","zq7k8hkxsq","1440","900","de","fa05ea13","null","","","","","","","","learning/Slide7.JPG","null","","","","",""
"","html-keyboard-response","26","242929","0.0-6.0-1.6","FL","zq7k8hkxsq","1440","900","de","fa05ea13","null","","","","learningBlock1","","","","That was a wug.","null","","","","",""
"","html-keyboard-response","27","243932","0.0-6.0-2.6","FL","zq7k8hkxsq","1440","900","de","fa05ea13","null","","","","learningBlock1","","","","<div style=""font-size:60px;""> </div>","null","FL","learning/Slide7.JPG","That was a wug.","",""
"","image-keyboard-response","28","244115","0.0-6.0-0.7","FL","zq7k8hkxsq","1440","900","de","fa05ea13","null","","","","","","","","learning/Slide8.JPG","null","","","","",""
"","html-keyboard-response","29","245272","0.0-6.0-1.7","FL","zq7k8hkxsq","1440","900","de","fa05ea13","null","","","","learningBlock1","","","","That was a bim.","null","","","","",""
"","html-keyboard-response","30","246278","0.0-6.0-2.7","FL","zq7k8hkxsq","1440","900","de","fa05ea13","null","","","","learningBlock1","","","","<div style=""font-size:60px;""> </div>","null","FL","learning/Slide8.JPG","That was a bim.","",""
"","image-keyboard-response","31","246457","0.0-6.0-0.8","FL","zq7k8hkxsq","1440","900","de","fa05ea13","null","","","","","","","","learning/Slide9.JPG","null","","","","",""
"","html-keyboard-response","32","247612","0.0-6.0-1.8","FL","zq7k8hkxsq","1440","900","de","fa05ea13","null","","","","learningBlock1","","","","That was a wug.","null","","","","",""
"","html-keyboard-response","33","248614","0.0-6.0-2.8","FL","zq7k8hkxsq","1440","900","de","fa05ea13","null","","","","learningBlock1","","","","<div style=""font-size:60px;""> </div>","null","FL","learning/Slide9.JPG","That was a wug.","",""
"","image-keyboard-response","34","248797","0.0-6.0-0.9","FL","zq7k8hkxsq","1440","900","de","fa05ea13","null","","","","","","","","learning/Slide10.JPG","null","","","","",""
"","html-keyboard-response","35","249953","0.0-6.0-1.9","FL","zq7k8hkxsq","1440","900","de","fa05ea13","null","","","","learningBlock1","","","","That was a dep.","null","","","","",""
"","html-keyboard-response","36","250959","0.0-6.0-2.9","FL","zq7k8hkxsq","1440","900","de","fa05ea13","null","","","","learningBlock1","","","","<div style=""font-size:60px;""> </div>","null","FL","learning/Slide10.JPG","That was a dep.","",""
"","image-keyboard-response","37","251137","0.0-6.0-0.10","FL","zq7k8hkxsq","1440","900","de","fa05ea13","null","","","","","","","","learning/Slide11.JPG","null","","","","",""
"","html-keyboard-response","38","252295","0.0-6.0-1.10","FL","zq7k8hkxsq","1440","900","de","fa05ea13","null","","","","learningBlock1","","","","That was a tob.","null","","","","",""
"","html-keyboard-response","39","253298","0.0-6.0-2.10","FL","zq7k8hkxsq","1440","900","de","fa05ea13","null","","","","learningBlock1","","","","<div style=""font-size:60px;""> </div>","null","FL","learning/Slide11.JPG","That was a tob.","",""
"","image-keyboard-response","40","253479","0.0-6.0-0.11","FL","zq7k8hkxsq","1440","900","de","fa05ea13","null","","","","","","","","learning/Slide12.JPG","null","","","","",""
"","html-keyboard-response","41","254631","0.0-6.0-1.11","FL","zq7k8hkxsq","1440","900","de","fa05ea13","null","","","","learningBlock1","","","","That was a dep.","null","","","","",""
"","html-keyboard-response","42","255634","0.0-6.0-2.11","FL","zq7k8hkxsq","1440","900","de","fa05ea13","null","","","","learningBlock1","","","","<div style=""font-size:60px;""> </div>","null","FL","learning/Slide12.JPG","That was a dep.","",""
"","image-keyboard-response","43","255815","0.0-6.0-0.12","FL","zq7k8hkxsq","1440","900","de","fa05ea13","null","","","","","","","","learning/Slide13.JPG","null","","","","",""
"","html-keyboard-response","44","256975","0.0-6.0-1.12","FL","zq7k8hkxsq","1440","900","de","fa05ea13","null","","","","learningBlock1","","","","That was a bim.","null","","","","",""
"","html-keyboard-response","45","257980","0.0-6.0-2.12","FL","zq7k8hkxsq","1440","900","de","fa05ea13","null","","","","learningBlock1","","","","<div style=""font-size:60px;""> </div>","null","FL","learning/Slide13.JPG","That was a bim.","",""
"","image-keyboard-response","46","258157","0.0-6.0-0.13","FL","zq7k8hkxsq","1440","900","de","fa05ea13","null","","","","","","","","learning/Slide14.JPG","null","","","","",""
"","html-keyboard-response","47","259314","0.0-6.0-1.13","FL","zq7k8hkxsq","1440","900","de","fa05ea13","null","","","","learningBlock1","","","","That was a wug.","null","","","","",""
"","html-keyboard-response","48","260316","0.0-6.0-2.13","FL","zq7k8hkxsq","1440","900","de","fa05ea13","null","","","","learningBlock1","","","","<div style=""font-size:60px;""> </div>","null","FL","learning/Slide14.JPG","That was a wug.","",""
"","image-keyboard-response","49","260494","0.0-6.0-0.14","FL","zq7k8hkxsq","1440","900","de","fa05ea13","null","","","","","","","","learning/Slide15.JPG","null","","","","",""
"","html-keyboard-response","50","261652","0.0-6.0-1.14","FL","zq7k8hkxsq","1440","900","de","fa05ea13","null","","","","learningBlock1","","","","That was a tob.","null","","","","",""
"","html-keyboard-response","51","262658","0.0-6.0-2.14","FL","zq7k8hkxsq","1440","900","de","fa05ea13","null","","","","learningBlock1","","","","<div style=""font-size:60px;""> </div>","null","FL","learning/Slide15.JPG","That was a tob.","",""
"","image-keyboard-response","52","262840","0.0-6.0-0.15","FL","zq7k8hkxsq","1440","900","de","fa05ea13","null","","","","","","","","learning/Slide16.JPG","null","","","","",""
"","html-keyboard-response","53","263996","0.0-6.0-1.15","FL","zq7k8hkxsq","1440","900","de","fa05ea13","null","","","","learningBlock1","","","","That was a dep.","null","","","","",""
"","html-keyboard-response","54","264999","0.0-6.0-2.15","FL","zq7k8hkxsq","1440","900","de","fa05ea13","null","","","","learningBlock1","","","","<div style=""font-size:60px;""> </div>","null","FL","learning/Slide16.JPG","That was a dep.","",""
"","image-keyboard-response","55","265180","0.0-6.0-0.16","FL","zq7k8hkxsq","1440","900","de","fa05ea13","null","","","","","","","","learning/Slide17.JPG","null","","","","",""
"","html-keyboard-response","56","266338","0.0-6.0-1.16","FL","zq7k8hkxsq","1440","900","de","fa05ea13","null","","","","learningBlock1","","","","That was a bim.","null","","","","",""
"","html-keyboard-response","57","267343","0.0-6.0-2.16","FL","zq7k8hkxsq","1440","900","de","fa05ea13","null","","","","learningBlock1","","","","<div style=""font-size:60px;""> </div>","null","FL","learning/Slide17.JPG","That was a bim.","",""
"","image-keyboard-response","58","267519","0.0-6.0-0.17","FL","zq7k8hkxsq","1440","900","de","fa05ea13","null","","","","","","","","learning/Slide18.JPG","null","","","","",""
"","html-keyboard-response","59","268676","0.0-6.0-1.17","FL","zq7k8hkxsq","1440","900","de","fa05ea13","null","","","","learningBlock1","","","","That was a tob.","null","","","","",""
"","html-keyboard-response","60","269682","0.0-6.0-2.17","FL","zq7k8hkxsq","1440","900","de","fa05ea13","null","","","","learningBlock1","","","","<div style=""font-size:60px;""> </div>","null","FL","learning/Slide18.JPG","That was a tob.","",""
"","image-keyboard-response","61","269863","0.0-6.0-0.18","FL","zq7k8hkxsq","1440","900","de","fa05ea13","null","","","","","","","","learning/Slide19.JPG","null","","","","",""
"","html-keyboard-response","62","271024","0.0-6.0-1.18","FL","zq7k8hkxsq","1440","900","de","fa05ea13","null","","","","learningBlock1","","","","That was a wug.","null","","","","",""
"","html-keyboard-response","63","272029","0.0-6.0-2.18","FL","zq7k8hkxsq","1440","900","de","fa05ea13","null","","","","learningBlock1","","","","<div style=""font-size:60px;""> </div>","null","FL","learning/Slide19.JPG","That was a wug.","",""
"","image-keyboard-response","64","272210","0.0-6.0-0.19","FL","zq7k8hkxsq","1440","900","de","fa05ea13","null","","","","","","","","learning/Slide20.JPG","null","","","","",""
"","html-keyboard-response","65","273366","0.0-6.0-1.19","FL","zq7k8hkxsq","1440","900","de","fa05ea13","null","","","","learningBlock1","","","","That was a bim.","null","","","","",""
"","html-keyboard-response","66","274372","0.0-6.0-2.19","FL","zq7k8hkxsq","1440","900","de","fa05ea13","null","","","","learningBlock1","","","","<div style=""font-size:60px;""> </div>","null","FL","learning/Slide20.JPG","That was a bim.","",""
"","image-keyboard-response","67","274553","0.0-6.0-0.20","FL","zq7k8hkxsq","1440","900","de","fa05ea13","null","","","","","","","","learning/Slide21.JPG","null","","","","",""
"","html-keyboard-response","68","275708","0.0-6.0-1.20","FL","zq7k8hkxsq","1440","900","de","fa05ea13","null","","","","learningBlock1","","","","That was a dep.","null","","","","",""
"","html-keyboard-response","69","276711","0.0-6.0-2.20","FL","zq7k8hkxsq","1440","900","de","fa05ea13","null","","","","learningBlock1","","","","<div style=""font-size:60px;""> </div>","null","FL","learning/Slide21.JPG","That was a dep.","",""
"","image-keyboard-response","70","276891","0.0-6.0-0.21","FL","zq7k8hkxsq","1440","900","de","fa05ea13","null","","","","","","","","learning/Slide22.JPG","null","","","","",""
"","html-keyboard-response","71","278045","0.0-6.0-1.21","FL","zq7k8hkxsq","1440","900","de","fa05ea13","null","","","","learningBlock1","","","","That was a bim.","null","","","","",""
"","html-keyboard-response","72","279048","0.0-6.0-2.21","FL","zq7k8hkxsq","1440","900","de","fa05ea13","null","","","","learningBlock1","","","","<div style=""font-size:60px;""> </div>","null","FL","learning/Slide22.JPG","That was a bim.","",""
"","image-keyboard-response","73","279224","0.0-6.0-0.22","FL","zq7k8hkxsq","1440","900","de","fa05ea13","null","","","","","","","","learning/Slide23.JPG","null","","","","",""
"","html-keyboard-response","74","280384","0.0-6.0-1.22","FL","zq7k8hkxsq","1440","900","de","fa05ea13","null","","","","learningBlock1","","","","That was a tob.","null","","","","",""
"","html-keyboard-response","75","281388","0.0-6.0-2.22","FL","zq7k8hkxsq","1440","900","de","fa05ea13","null","","","","learningBlock1","","","","<div style=""font-size:60px;""> </div>","null","FL","learning/Slide23.JPG","That was a tob.","",""
"","image-keyboard-response","76","281565","0.0-6.0-0.23","FL","zq7k8hkxsq","1440","900","de","fa05ea13","null","","","","","","","","learning/Slide24.JPG","null","","","","",""
"","html-keyboard-response","77","282727","0.0-6.0-1.23","FL","zq7k8hkxsq","1440","900","de","fa05ea13","null","","","","learningBlock1","","","","That was a wug.","null","","","","",""
"","html-keyboard-response","78","283730","0.0-6.0-2.23","FL","zq7k8hkxsq","1440","900","de","fa05ea13","null","","","","learningBlock1","","","","<div style=""font-size:60px;""> </div>","null","FL","learning/Slide24.JPG","That was a wug.","",""
"","image-keyboard-response","79","283911","0.0-6.0-0.24","FL","zq7k8hkxsq","1440","900","de","fa05ea13","null","","","","","","","","learning/Slide25.JPG","null","","","","",""
"","html-keyboard-response","80","285070","0.0-6.0-1.24","FL","zq7k8hkxsq","1440","900","de","fa05ea13","null","","","","learningBlock1","","","","That was a dep.","null","","","","",""
"","html-keyboard-response","81","286076","0.0-6.0-2.24","FL","zq7k8hkxsq","1440","900","de","fa05ea13","null","","","","learningBlock1","","","","<div style=""font-size:60px;""> </div>","null","FL","learning/Slide25.JPG","That was a dep.","",""
"","image-keyboard-response","82","286258","0.0-6.0-0.25","FL","zq7k8hkxsq","1440","900","de","fa05ea13","null","","","","","","","","learning/Slide26.JPG","null","","","","",""
"","html-keyboard-response","83","287417","0.0-6.0-1.25","FL","zq7k8hkxsq","1440","900","de","fa05ea13","null","","","","learningBlock1","","","","That was a wug.","null","","","","",""
"","html-keyboard-response","84","288423","0.0-6.0-2.25","FL","zq7k8hkxsq","1440","900","de","fa05ea13","null","","","","learningBlock1","","","","<div style=""font-size:60px;""> </div>","null","FL","learning/Slide26.JPG","That was a wug.","",""
"","image-keyboard-response","85","288601","0.0-6.0-0.26","FL","zq7k8hkxsq","1440","900","de","fa05ea13","null","","","","","","","","learning/Slide27.JPG","null","","","","",""
"","html-keyboard-response","86","289758","0.0-6.0-1.26","FL","zq7k8hkxsq","1440","900","de","fa05ea13","null","","","","learningBlock1","","","","That was a bim.","null","","","","",""
"","html-keyboard-response","87","290759","0.0-6.0-2.26","FL","zq7k8hkxsq","1440","900","de","fa05ea13","null","","","","learningBlock1","","","","<div style=""font-size:60px;""> </div>","null","FL","learning/Slide27.JPG","That was a bim.","",""
"","image-keyboard-response","88","290936","0.0-6.0-0.27","FL","zq7k8hkxsq","1440","900","de","fa05ea13","null","","","","","","","","learning/Slide28.JPG","null","","","","",""
"","html-keyboard-response","89","292093","0.0-6.0-1.27","FL","zq7k8hkxsq","1440","900","de","fa05ea13","null","","","","learningBlock1","","","","That was a dep.","null","","","","",""
"","html-keyboard-response","90","293096","0.0-6.0-2.27","FL","zq7k8hkxsq","1440","900","de","fa05ea13","null","","","","learningBlock1","","","","<div style=""font-size:60px;""> </div>","null","FL","learning/Slide28.JPG","That was a dep.","",""
"","image-keyboard-response","91","293277","0.0-6.0-0.28","FL","zq7k8hkxsq","1440","900","de","fa05ea13","null","","","","","","","","learning/Slide29.JPG","null","","","","",""
"","html-keyboard-response","92","294438","0.0-6.0-1.28","FL","zq7k8hkxsq","1440","900","de","fa05ea13","null","","","","learningBlock1","","","","That was a tob.","null","","","","",""
"","html-keyboard-response","93","295442","0.0-6.0-2.28","FL","zq7k8hkxsq","1440","900","de","fa05ea13","null","","","","learningBlock1","","","","<div style=""font-size:60px;""> </div>","null","FL","learning/Slide29.JPG","That was a tob.","",""
"","image-keyboard-response","94","295624","0.0-6.0-0.29","FL","zq7k8hkxsq","1440","900","de","fa05ea13","null","","","","","","","","learning/Slide30.JPG","null","","","","",""
"","html-keyboard-response","95","296783","0.0-6.0-1.29","FL","zq7k8hkxsq","1440","900","de","fa05ea13","null","","","","learningBlock1","","","","That was a dep.","null","","","","",""
"","html-keyboard-response","96","297789","0.0-6.0-2.29","FL","zq7k8hkxsq","1440","900","de","fa05ea13","null","","","","learningBlock1","","","","<div style=""font-size:60px;""> </div>","null","FL","learning/Slide30.JPG","That was a dep.","",""
"","image-keyboard-response","97","297971","0.0-6.0-0.30","FL","zq7k8hkxsq","1440","900","de","fa05ea13","null","","","","","","","","learning/Slide31.JPG","null","","","","",""
"","html-keyboard-response","98","299130","0.0-6.0-1.30","FL","zq7k8hkxsq","1440","900","de","fa05ea13","null","","","","learningBlock1","","","","That was a wug.","null","","","","",""
"","html-keyboard-response","99","300136","0.0-6.0-2.30","FL","zq7k8hkxsq","1440","900","de","fa05ea13","null","","","","learningBlock1","","","","<div style=""font-size:60px;""> </div>","null","FL","learning/Slide31.JPG","That was a wug.","",""
"","image-keyboard-response","100","300313","0.0-6.0-0.31","FL","zq7k8hkxsq","1440","900","de","fa05ea13","null","","","","","","","","learning/Slide32.JPG","null","","","","",""
"","html-keyboard-response","101","301469","0.0-6.0-1.31","FL","zq7k8hkxsq","1440","900","de","fa05ea13","null","","","","learningBlock1","","","","That was a tob.","null","","","","",""
"","html-keyboard-response","102","302472","0.0-6.0-2.31","FL","zq7k8hkxsq","1440","900","de","fa05ea13","null","","","","learningBlock1","","","","<div style=""font-size:60px;""> </div>","null","FL","learning/Slide32.JPG","That was a tob.","",""
"","image-keyboard-response","103","302653","0.0-6.0-0.32","FL","zq7k8hkxsq","1440","900","de","fa05ea13","null","","","","","","","","learning/Slide33.JPG","null","","","","",""
"","html-keyboard-response","104","303805","0.0-6.0-1.32","FL","zq7k8hkxsq","1440","900","de","fa05ea13","null","","","","learningBlock1","","","","That was a bim.","null","","","","",""
"","html-keyboard-response","105","304808","0.0-6.0-2.32","FL","zq7k8hkxsq","1440","900","de","fa05ea13","null","","","","learningBlock1","","","","<div style=""font-size:60px;""> </div>","null","FL","learning/Slide33.JPG","That was a bim.","",""
"","image-keyboard-response","106","304989","0.0-6.0-0.33","FL","zq7k8hkxsq","1440","900","de","fa05ea13","null","","","","","","","","learning/Slide34.JPG","null","","","","",""
"","html-keyboard-response","107","306151","0.0-6.0-1.33","FL","zq7k8hkxsq","1440","900","de","fa05ea13","null","","","","learningBlock1","","","","That was a tob.","null","","","","",""
"","html-keyboard-response","108","307154","0.0-6.0-2.33","FL","zq7k8hkxsq","1440","900","de","fa05ea13","null","","","","learningBlock1","","","","<div style=""font-size:60px;""> </div>","null","FL","learning/Slide34.JPG","That was a tob.","",""
"","image-keyboard-response","109","307336","0.0-6.0-0.34","FL","zq7k8hkxsq","1440","900","de","fa05ea13","null","","","","","","","","learning/Slide35.JPG","null","","","","",""
"","html-keyboard-response","110","308497","0.0-6.0-1.34","FL","zq7k8hkxsq","1440","900","de","fa05ea13","null","","","","learningBlock1","","","","That was a bim.","null","","","","",""
"","html-keyboard-response","111","309501","0.0-6.0-2.34","FL","zq7k8hkxsq","1440","900","de","fa05ea13","null","","","","learningBlock1","","","","<div style=""font-size:60px;""> </div>","null","FL","learning/Slide35.JPG","That was a bim.","",""
"","image-keyboard-response","112","309682","0.0-6.0-0.35","FL","zq7k8hkxsq","1440","900","de","fa05ea13","null","","","","","","","","learning/Slide36.JPG","null","","","","",""
"","html-keyboard-response","113","310835","0.0-6.0-1.35","FL","zq7k8hkxsq","1440","900","de","fa05ea13","null","","","","learningBlock1","","","","That was a dep.","null","","","","",""
"","html-keyboard-response","114","311838","0.0-6.0-2.35","FL","zq7k8hkxsq","1440","900","de","fa05ea13","null","","","","learningBlock1","","","","<div style=""font-size:60px;""> </div>","null","FL","learning/Slide36.JPG","That was a dep.","",""
"","image-keyboard-response","115","312018","0.0-6.0-0.36","FL","zq7k8hkxsq","1440","900","de","fa05ea13","null","","","","","","","","learning/Slide37.JPG","null","","","","",""
"","html-keyboard-response","116","313170","0.0-6.0-1.36","FL","zq7k8hkxsq","1440","900","de","fa05ea13","null","","","","learningBlock1","","","","That was a tob.","null","","","","",""
"","html-keyboard-response","117","314174","0.0-6.0-2.36","FL","zq7k8hkxsq","1440","900","de","fa05ea13","null","","","","learningBlock1","","","","<div style=""font-size:60px;""> </div>","null","FL","learning/Slide37.JPG","That was a tob.","",""
"","image-keyboard-response","118","314354","0.0-6.0-0.37","FL","zq7k8hkxsq","1440","900","de","fa05ea13","null","","","","","","","","learning/Slide38.JPG","null","","","","",""
"","html-keyboard-response","119","315514","0.0-6.0-1.37","FL","zq7k8hkxsq","1440","900","de","fa05ea13","null","","","","learningBlock1","","","","That was a wug.","null","","","","",""
"","html-keyboard-response","120","316520","0.0-6.0-2.37","FL","zq7k8hkxsq","1440","900","de","fa05ea13","null","","","","learningBlock1","","","","<div style=""font-size:60px;""> </div>","null","FL","learning/Slide38.JPG","That was a wug.","",""
"","image-keyboard-response","121","316701","0.0-6.0-0.38","FL","zq7k8hkxsq","1440","900","de","fa05ea13","null","","","","","","","","learning/Slide39.JPG","null","","","","",""
"","html-keyboard-response","122","317853","0.0-6.0-1.38","FL","zq7k8hkxsq","1440","900","de","fa05ea13","null","","","","learningBlock1","","","","That was a bim.","null","","","","",""
"","html-keyboard-response","123","318857","0.0-6.0-2.38","FL","zq7k8hkxsq","1440","900","de","fa05ea13","null","","","","learningBlock1","","","","<div style=""font-size:60px;""> </div>","null","FL","learning/Slide39.JPG","That was a bim.","",""
"","image-keyboard-response","124","319037","0.0-6.0-0.39","FL","zq7k8hkxsq","1440","900","de","fa05ea13","null","","","","","","","","learning/Slide40.JPG","null","","","","",""
"","html-keyboard-response","125","320190","0.0-6.0-1.39","FL","zq7k8hkxsq","1440","900","de","fa05ea13","null","","","","learningBlock1","","","","That was a tob.","null","","","","",""
"","html-keyboard-response","126","321193","0.0-6.0-2.39","FL","zq7k8hkxsq","1440","900","de","fa05ea13","null","","","","learningBlock1","","","","<div style=""font-size:60px;""> </div>","null","FL","learning/Slide40.JPG","That was a tob.","",""
"","image-keyboard-response","127","321373","0.0-6.0-0.40","FL","zq7k8hkxsq","1440","900","de","fa05ea13","null","","","","","","","","learning/Slide41.JPG","null","","","","",""
"","html-keyboard-response","128","322526","0.0-6.0-1.40","FL","zq7k8hkxsq","1440","900","de","fa05ea13","null","","","","learningBlock1","","","","That was a bim.","null","","","","",""
"","html-keyboard-response","129","323529","0.0-6.0-2.40","FL","zq7k8hkxsq","1440","900","de","fa05ea13","null","","","","learningBlock1","","","","<div style=""font-size:60px;""> </div>","null","FL","learning/Slide41.JPG","That was a bim.","",""
"","image-keyboard-response","130","323710","0.0-6.0-0.41","FL","zq7k8hkxsq","1440","900","de","fa05ea13","null","","","","","","","","learning/Slide42.JPG","null","","","","",""
"","html-keyboard-response","131","324862","0.0-6.0-1.41","FL","zq7k8hkxsq","1440","900","de","fa05ea13","null","","","","learningBlock1","","","","That was a dep.","null","","","","",""
"","html-keyboard-response","132","325868","0.0-6.0-2.41","FL","zq7k8hkxsq","1440","900","de","fa05ea13","null","","","","learningBlock1","","","","<div style=""font-size:60px;""> </div>","null","FL","learning/Slide42.JPG","That was a dep.","",""
"","image-keyboard-response","133","326048","0.0-6.0-0.42","FL","zq7k8hkxsq","1440","900","de","fa05ea13","null","","","","","","","","learning/Slide43.JPG","null","","","","",""
"","html-keyboard-response","134","327205","0.0-6.0-1.42","FL","zq7k8hkxsq","1440","900","de","fa05ea13","null","","","","learningBlock1","","","","That was a wug.","null","","","","",""
"","html-keyboard-response","135","328210","0.0-6.0-2.42","FL","zq7k8hkxsq","1440","900","de","fa05ea13","null","","","","learningBlock1","","","","<div style=""font-size:60px;""> </div>","null","FL","learning/Slide43.JPG","That was a wug.","",""
"","image-keyboard-response","136","328392","0.0-6.0-0.43","FL","zq7k8hkxsq","1440","900","de","fa05ea13","null","","","","","","","","learning/Slide44.JPG","null","","","","",""
"","html-keyboard-response","137","329552","0.0-6.0-1.43","FL","zq7k8hkxsq","1440","900","de","fa05ea13","null","","","","learningBlock1","","","","That was a bim.","null","","","","",""
"","html-keyboard-response","138","330553","0.0-6.0-2.43","FL","zq7k8hkxsq","1440","900","de","fa05ea13","null","","","","learningBlock1","","","","<div style=""font-size:60px;""> </div>","null","FL","learning/Slide44.JPG","That was a bim.","",""
"","image-keyboard-response","139","330735","0.0-6.0-0.44","FL","zq7k8hkxsq","1440","900","de","fa05ea13","null","","","","","","","","learning/Slide45.JPG","null","","","","",""
"","html-keyboard-response","140","331891","0.0-6.0-1.44","FL","zq7k8hkxsq","1440","900","de","fa05ea13","null","","","","learningBlock1","","","","That was a wug.","null","","","","",""
"","html-keyboard-response","141","332893","0.0-6.0-2.44","FL","zq7k8hkxsq","1440","900","de","fa05ea13","null","","","","learningBlock1","","","","<div style=""font-size:60px;""> </div>","null","FL","learning/Slide45.JPG","That was a wug.","",""
"","image-keyboard-response","142","333075","0.0-6.0-0.45","FL","zq7k8hkxsq","1440","900","de","fa05ea13","null","","","","","","","","learning/Slide46.JPG","null","","","","",""
"","html-keyboard-response","143","334236","0.0-6.0-1.45","FL","zq7k8hkxsq","1440","900","de","fa05ea13","null","","","","learningBlock1","","","","That was a dep.","null","","","","",""
"","html-keyboard-response","144","335240","0.0-6.0-2.45","FL","zq7k8hkxsq","1440","900","de","fa05ea13","null","","","","learningBlock1","","","","<div style=""font-size:60px;""> </div>","null","FL","learning/Slide46.JPG","That was a dep.","",""
"","image-keyboard-response","145","335422","0.0-6.0-0.46","FL","zq7k8hkxsq","1440","900","de","fa05ea13","null","","","","","","","","learning/Slide47.JPG","null","","","","",""
"","html-keyboard-response","146","336574","0.0-6.0-1.46","FL","zq7k8hkxsq","1440","900","de","fa05ea13","null","","","","learningBlock1","","","","That was a tob.","null","","","","",""
"","html-keyboard-response","147","337576","0.0-6.0-2.46","FL","zq7k8hkxsq","1440","900","de","fa05ea13","null","","","","learningBlock1","","","","<div style=""font-size:60px;""> </div>","null","FL","learning/Slide47.JPG","That was a tob.","",""
"","image-keyboard-response","148","337757","0.0-6.0-0.47","FL","zq7k8hkxsq","1440","900","de","fa05ea13","null","","","","","","","","learning/Slide48.JPG","null","","","","",""
"","html-keyboard-response","149","338910","0.0-6.0-1.47","FL","zq7k8hkxsq","1440","900","de","fa05ea13","null","","","","learningBlock1","","","","That was a bim.","null","","","","",""
"","html-keyboard-response","150","339913","0.0-6.0-2.47","FL","zq7k8hkxsq","1440","900","de","fa05ea13","null","","","","learningBlock1","","","","<div style=""font-size:60px;""> </div>","null","FL","learning/Slide48.JPG","That was a bim.","",""
"","image-keyboard-response","151","340092","0.0-6.0-0.48","FL","zq7k8hkxsq","1440","900","de","fa05ea13","null","","","","","","","","learning/Slide49.JPG","null","","","","",""
"","html-keyboard-response","152","341246","0.0-6.0-1.48","FL","zq7k8hkxsq","1440","900","de","fa05ea13","null","","","","learningBlock1","","","","That was a dep.","null","","","","",""
"","html-keyboard-response","153","342252","0.0-6.0-2.48","FL","zq7k8hkxsq","1440","900","de","fa05ea13","null","","","","learningBlock1","","","","<div style=""font-size:60px;""> </div>","null","FL","learning/Slide49.JPG","That was a dep.","",""
"","image-keyboard-response","154","342430","0.0-6.0-0.49","FL","zq7k8hkxsq","1440","900","de","fa05ea13","null","","","","","","","","learning/Slide50.JPG","null","","","","",""
"","html-keyboard-response","155","343591","0.0-6.0-1.49","FL","zq7k8hkxsq","1440","900","de","fa05ea13","null","","","","learningBlock1","","","","That was a tob.","null","","","","",""
"","html-keyboard-response","156","344595","0.0-6.0-2.49","FL","zq7k8hkxsq","1440","900","de","fa05ea13","null","","","","learningBlock1","","","","<div style=""font-size:60px;""> </div>","null","FL","learning/Slide50.JPG","That was a tob.","",""
"","image-keyboard-response","157","344777","0.0-6.0-0.50","FL","zq7k8hkxsq","1440","900","de","fa05ea13","null","","","","","","","","learning/Slide51.JPG","null","","","","",""
"","html-keyboard-response","158","345938","0.0-6.0-1.50","FL","zq7k8hkxsq","1440","900","de","fa05ea13","null","","","","learningBlock1","","","","That was a bim.","null","","","","",""
"","html-keyboard-response","159","346942","0.0-6.0-2.50","FL","zq7k8hkxsq","1440","900","de","fa05ea13","null","","","","learningBlock1","","","","<div style=""font-size:60px;""> </div>","null","FL","learning/Slide51.JPG","That was a bim.","",""
"","image-keyboard-response","160","347124","0.0-6.0-0.51","FL","zq7k8hkxsq","1440","900","de","fa05ea13","null","","","","","","","","learning/Slide52.JPG","null","","","","",""
"","html-keyboard-response","161","348284","0.0-6.0-1.51","FL","zq7k8hkxsq","1440","900","de","fa05ea13","null","","","","learningBlock1","","","","That was a wug.","null","","","","",""
"","html-keyboard-response","162","349289","0.0-6.0-2.51","FL","zq7k8hkxsq","1440","900","de","fa05ea13","null","","","","learningBlock1","","","","<div style=""font-size:60px;""> </div>","null","FL","learning/Slide52.JPG","That was a wug.","",""
"","image-keyboard-response","163","349470","0.0-6.0-0.52","FL","zq7k8hkxsq","1440","900","de","fa05ea13","null","","","","","","","","learning/Slide53.JPG","null","","","","",""
"","html-keyboard-response","164","350628","0.0-6.0-1.52","FL","zq7k8hkxsq","1440","900","de","fa05ea13","null","","","","learningBlock1","","","","That was a tob.","null","","","","",""
"","html-keyboard-response","165","351634","0.0-6.0-2.52","FL","zq7k8hkxsq","1440","900","de","fa05ea13","null","","","","learningBlock1","","","","<div style=""font-size:60px;""> </div>","null","FL","learning/Slide53.JPG","That was a tob.","",""
"","image-keyboard-response","166","351817","0.0-6.0-0.53","FL","zq7k8hkxsq","1440","900","de","fa05ea13","null","","","","","","","","learning/Slide54.JPG","null","","","","",""
"","html-keyboard-response","167","352979","0.0-6.0-1.53","FL","zq7k8hkxsq","1440","900","de","fa05ea13","null","","","","learningBlock1","","","","That was a dep.","null","","","","",""
"","html-keyboard-response","168","353982","0.0-6.0-2.53","FL","zq7k8hkxsq","1440","900","de","fa05ea13","null","","","","learningBlock1","","","","<div style=""font-size:60px;""> </div>","null","FL","learning/Slide54.JPG","That was a dep.","",""
"","image-keyboard-response","169","354163","0.0-6.0-0.54","FL","zq7k8hkxsq","1440","900","de","fa05ea13","null","","","","","","","","learning/Slide55.JPG","null","","","","",""
"","html-keyboard-response","170","355325","0.0-6.0-1.54","FL","zq7k8hkxsq","1440","900","de","fa05ea13","null","","","","learningBlock1","","","","That was a bim.","null","","","","",""
"","html-keyboard-response","171","356329","0.0-6.0-2.54","FL","zq7k8hkxsq","1440","900","de","fa05ea13","null","","","","learningBlock1","","","","<div style=""font-size:60px;""> </div>","null","FL","learning/Slide55.JPG","That was a bim.","",""
"","image-keyboard-response","172","356510","0.0-6.0-0.55","FL","zq7k8hkxsq","1440","900","de","fa05ea13","null","","","","","","","","learning/Slide56.JPG","null","","","","",""
"","html-keyboard-response","173","357663","0.0-6.0-1.55","FL","zq7k8hkxsq","1440","900","de","fa05ea13","null","","","","learningBlock1","","","","That was a tob.","null","","","","",""
"","html-keyboard-response","174","358665","0.0-6.0-2.55","FL","zq7k8hkxsq","1440","900","de","fa05ea13","null","","","","learningBlock1","","","","<div style=""font-size:60px;""> </div>","null","FL","learning/Slide56.JPG","That was a tob.","",""
"","image-keyboard-response","175","358845","0.0-6.0-0.56","FL","zq7k8hkxsq","1440","900","de","fa05ea13","null","","","","","","","","learning/Slide57.JPG","null","","","","",""
"","html-keyboard-response","176","359998","0.0-6.0-1.56","FL","zq7k8hkxsq","1440","900","de","fa05ea13","null","","","","learningBlock1","","","","That was a dep.","null","","","","",""
"","html-keyboard-response","177","361001","0.0-6.0-2.56","FL","zq7k8hkxsq","1440","900","de","fa05ea13","null","","","","learningBlock1","","","","<div style=""font-size:60px;""> </div>","null","FL","learning/Slide57.JPG","That was a dep.","",""
"","image-keyboard-response","178","361182","0.0-6.0-0.57","FL","zq7k8hkxsq","1440","900","de","fa05ea13","null","","","","","","","","learning/Slide58.JPG","null","","","","",""
"","html-keyboard-response","179","362341","0.0-6.0-1.57","FL","zq7k8hkxsq","1440","900","de","fa05ea13","null","","","","learningBlock1","","","","That was a wug.","null","","","","",""
"","html-keyboard-response","180","363348","0.0-6.0-2.57","FL","zq7k8hkxsq","1440","900","de","fa05ea13","null","","","","learningBlock1","","","","<div style=""font-size:60px;""> </div>","null","FL","learning/Slide58.JPG","That was a wug.","",""
"","image-keyboard-response","181","363530","0.0-6.0-0.58","FL","zq7k8hkxsq","1440","900","de","fa05ea13","null","","","","","","","","learning/Slide59.JPG","null","","","","",""
"","html-keyboard-response","182","364681","0.0-6.0-1.58","FL","zq7k8hkxsq","1440","900","de","fa05ea13","null","","","","learningBlock1","","","","That was a dep.","null","","","","",""
"","html-keyboard-response","183","365684","0.0-6.0-2.58","FL","zq7k8hkxsq","1440","900","de","fa05ea13","null","","","","learningBlock1","","","","<div style=""font-size:60px;""> </div>","null","FL","learning/Slide59.JPG","That was a dep.","",""
"","image-keyboard-response","184","365865","0.0-6.0-0.59","FL","zq7k8hkxsq","1440","900","de","fa05ea13","null","","","","","","","","learning/Slide60.JPG","null","","","","",""
"","html-keyboard-response","185","367017","0.0-6.0-1.59","FL","zq7k8hkxsq","1440","900","de","fa05ea13","null","","","","learningBlock1","","","","That was a wug.","null","","","","",""
"","html-keyboard-response","186","368020","0.0-6.0-2.59","FL","zq7k8hkxsq","1440","900","de","fa05ea13","null","","","","learningBlock1","","","","<div style=""font-size:60px;""> </div>","null","FL","learning/Slide60.JPG","That was a wug.","",""
"","image-keyboard-response","187","368202","0.0-6.0-0.60","FL","zq7k8hkxsq","1440","900","de","fa05ea13","null","","","","","","","","learning/Slide61.JPG","null","","","","",""
"","html-keyboard-response","188","369361","0.0-6.0-1.60","FL","zq7k8hkxsq","1440","900","de","fa05ea13","null","","","","learningBlock1","","","","That was a bim.","null","","","","",""
"","html-keyboard-response","189","370366","0.0-6.0-2.60","FL","zq7k8hkxsq","1440","900","de","fa05ea13","null","","","","learningBlock1","","","","<div style=""font-size:60px;""> </div>","null","FL","learning/Slide61.JPG","That was a bim.","",""
"","image-keyboard-response","190","370545","0.0-6.0-0.61","FL","zq7k8hkxsq","1440","900","de","fa05ea13","null","","","","","","","","learning/Slide62.JPG","null","","","","",""
"","html-keyboard-response","191","371700","0.0-6.0-1.61","FL","zq7k8hkxsq","1440","900","de","fa05ea13","null","","","","learningBlock1","","","","That was a dep.","null","","","","",""
"","html-keyboard-response","192","372703","0.0-6.0-2.61","FL","zq7k8hkxsq","1440","900","de","fa05ea13","null","","","","learningBlock1","","","","<div style=""font-size:60px;""> </div>","null","FL","learning/Slide62.JPG","That was a dep.","",""
"","image-keyboard-response","193","372884","0.0-6.0-0.62","FL","zq7k8hkxsq","1440","900","de","fa05ea13","null","","","","","","","","learning/Slide63.JPG","null","","","","",""
"","html-keyboard-response","194","374045","0.0-6.0-1.62","FL","zq7k8hkxsq","1440","900","de","fa05ea13","null","","","","learningBlock1","","","","That was a bim.","null","","","","",""
"","html-keyboard-response","195","375049","0.0-6.0-2.62","FL","zq7k8hkxsq","1440","900","de","fa05ea13","null","","","","learningBlock1","","","","<div style=""font-size:60px;""> </div>","null","FL","learning/Slide63.JPG","That was a bim.","",""
"","image-keyboard-response","196","375226","0.0-6.0-0.63","FL","zq7k8hkxsq","1440","900","de","fa05ea13","null","","","","","","","","learning/Slide64.JPG","null","","","","",""
"","html-keyboard-response","197","376383","0.0-6.0-1.63","FL","zq7k8hkxsq","1440","900","de","fa05ea13","null","","","","learningBlock1","","","","That was a tob.","null","","","","",""
"","html-keyboard-response","198","377386","0.0-6.0-2.63","FL","zq7k8hkxsq","1440","900","de","fa05ea13","null","","","","learningBlock1","","","","<div style=""font-size:60px;""> </div>","null","FL","learning/Slide64.JPG","That was a tob.","",""
"","image-keyboard-response","199","377567","0.0-6.0-0.64","FL","zq7k8hkxsq","1440","900","de","fa05ea13","null","","","","","","","","learning/Slide65.JPG","null","","","","",""
"","html-keyboard-response","200","378728","0.0-6.0-1.64","FL","zq7k8hkxsq","1440","900","de","fa05ea13","null","","","","learningBlock1","","","","That was a wug.","null","","","","",""
"","html-keyboard-response","201","379732","0.0-6.0-2.64","FL","zq7k8hkxsq","1440","900","de","fa05ea13","null","","","","learningBlock1","","","","<div style=""font-size:60px;""> </div>","null","FL","learning/Slide65.JPG","That was a wug.","",""
"","image-keyboard-response","202","379914","0.0-6.0-0.65","FL","zq7k8hkxsq","1440","900","de","fa05ea13","null","","","","","","","","learning/Slide66.JPG","null","","","","",""
"","html-keyboard-response","203","381074","0.0-6.0-1.65","FL","zq7k8hkxsq","1440","900","de","fa05ea13","null","","","","learningBlock1","","","","That was a dep.","null","","","","",""
"","html-keyboard-response","204","382079","0.0-6.0-2.65","FL","zq7k8hkxsq","1440","900","de","fa05ea13","null","","","","learningBlock1","","","","<div style=""font-size:60px;""> </div>","null","FL","learning/Slide66.JPG","That was a dep.","",""
"","image-keyboard-response","205","382261","0.0-6.0-0.66","FL","zq7k8hkxsq","1440","900","de","fa05ea13","null","","","","","","","","learning/Slide67.JPG","null","","","","",""
"","html-keyboard-response","206","383413","0.0-6.0-1.66","FL","zq7k8hkxsq","1440","900","de","fa05ea13","null","","","","learningBlock1","","","","That was a tob.","null","","","","",""
"","html-keyboard-response","207","384418","0.0-6.0-2.66","FL","zq7k8hkxsq","1440","900","de","fa05ea13","null","","","","learningBlock1","","","","<div style=""font-size:60px;""> </div>","null","FL","learning/Slide67.JPG","That was a tob.","",""
"","image-keyboard-response","208","384596","0.0-6.0-0.67","FL","zq7k8hkxsq","1440","900","de","fa05ea13","null","","","","","","","","learning/Slide68.JPG","null","","","","",""
"","html-keyboard-response","209","385758","0.0-6.0-1.67","FL","zq7k8hkxsq","1440","900","de","fa05ea13","null","","","","learningBlock1","","","","That was a wug.","null","","","","",""
"","html-keyboard-response","210","386762","0.0-6.0-2.67","FL","zq7k8hkxsq","1440","900","de","fa05ea13","null","","","","learningBlock1","","","","<div style=""font-size:60px;""> </div>","null","FL","learning/Slide68.JPG","That was a wug.","",""
"","image-keyboard-response","211","386943","0.0-6.0-0.68","FL","zq7k8hkxsq","1440","900","de","fa05ea13","null","","","","","","","","learning/Slide69.JPG","null","","","","",""
"","html-keyboard-response","212","388096","0.0-6.0-1.68","FL","zq7k8hkxsq","1440","900","de","fa05ea13","null","","","","learningBlock1","","","","That was a tob.","null","","","","",""
"","html-keyboard-response","213","389098","0.0-6.0-2.68","FL","zq7k8hkxsq","1440","900","de","fa05ea13","null","","","","learningBlock1","","","","<div style=""font-size:60px;""> </div>","null","FL","learning/Slide69.JPG","That was a tob.","",""
"","image-keyboard-response","214","389279","0.0-6.0-0.69","FL","zq7k8hkxsq","1440","900","de","fa05ea13","null","","","","","","","","learning/Slide70.JPG","null","","","","",""
"","html-keyboard-response","215","390440","0.0-6.0-1.69","FL","zq7k8hkxsq","1440","900","de","fa05ea13","null","","","","learningBlock1","","","","That was a dep.","null","","","","",""
"","html-keyboard-response","216","391444","0.0-6.0-2.69","FL","zq7k8hkxsq","1440","900","de","fa05ea13","null","","","","learningBlock1","","","","<div style=""font-size:60px;""> </div>","null","FL","learning/Slide70.JPG","That was a dep.","",""
"","image-keyboard-response","217","391622","0.0-6.0-0.70","FL","zq7k8hkxsq","1440","900","de","fa05ea13","null","","","","","","","","learning/Slide71.JPG","null","","","","",""
"","html-keyboard-response","218","392778","0.0-6.0-1.70","FL","zq7k8hkxsq","1440","900","de","fa05ea13","null","","","","learningBlock1","","","","That was a wug.","null","","","","",""
"","html-keyboard-response","219","393780","0.0-6.0-2.70","FL","zq7k8hkxsq","1440","900","de","fa05ea13","null","","","","learningBlock1","","","","<div style=""font-size:60px;""> </div>","null","FL","learning/Slide71.JPG","That was a wug.","",""
"","image-keyboard-response","220","393957","0.0-6.0-0.71","FL","zq7k8hkxsq","1440","900","de","fa05ea13","null","","","","","","","","learning/Slide72.JPG","null","","","","",""
"","html-keyboard-response","221","395113","0.0-6.0-1.71","FL","zq7k8hkxsq","1440","900","de","fa05ea13","null","","","","learningBlock1","","","","That was a bim.","null","","","","",""
"","html-keyboard-response","222","396116","0.0-6.0-2.71","FL","zq7k8hkxsq","1440","900","de","fa05ea13","null","","","","learningBlock1","","","","<div style=""font-size:60px;""> </div>","null","FL","learning/Slide72.JPG","That was a bim.","",""
"","image-keyboard-response","223","396293","0.0-6.0-0.72","FL","zq7k8hkxsq","1440","900","de","fa05ea13","null","","","","","","","","learning/Slide73.JPG","null","","","","",""
"","html-keyboard-response","224","397453","0.0-6.0-1.72","FL","zq7k8hkxsq","1440","900","de","fa05ea13","null","","","","learningBlock1","","","","That was a wug.","null","","","","",""
"","html-keyboard-response","225","398459","0.0-6.0-2.72","FL","zq7k8hkxsq","1440","900","de","fa05ea13","null","","","","learningBlock1","","","","<div style=""font-size:60px;""> </div>","null","FL","learning/Slide73.JPG","That was a wug.","",""
"","image-keyboard-response","226","398640","0.0-6.0-0.73","FL","zq7k8hkxsq","1440","900","de","fa05ea13","null","","","","","","","","learning/Slide74.JPG","null","","","","",""
"","html-keyboard-response","227","399797","0.0-6.0-1.73","FL","zq7k8hkxsq","1440","900","de","fa05ea13","null","","","","learningBlock1","","","","That was a dep.","null","","","","",""
"","html-keyboard-response","228","400799","0.0-6.0-2.73","FL","zq7k8hkxsq","1440","900","de","fa05ea13","null","","","","learningBlock1","","","","<div style=""font-size:60px;""> </div>","null","FL","learning/Slide74.JPG","That was a dep.","",""
"","image-keyboard-response","229","400981","0.0-6.0-0.74","FL","zq7k8hkxsq","1440","900","de","fa05ea13","null","","","","","","","","learning/Slide75.JPG","null","","","","",""
"","html-keyboard-response","230","402140","0.0-6.0-1.74","FL","zq7k8hkxsq","1440","900","de","fa05ea13","null","","","","learningBlock1","","","","That was a tob.","null","","","","",""
"","html-keyboard-response","231","403146","0.0-6.0-2.74","FL","zq7k8hkxsq","1440","900","de","fa05ea13","null","","","","learningBlock1","","","","<div style=""font-size:60px;""> </div>","null","FL","learning/Slide75.JPG","That was a tob.","",""
"","image-keyboard-response","232","403327","0.0-6.0-0.75","FL","zq7k8hkxsq","1440","900","de","fa05ea13","null","","","","","","","","learning/Slide76.JPG","null","","","","",""
"","html-keyboard-response","233","404480","0.0-6.0-1.75","FL","zq7k8hkxsq","1440","900","de","fa05ea13","null","","","","learningBlock1","","","","That was a bim.","null","","","","",""
"","html-keyboard-response","234","405483","0.0-6.0-2.75","FL","zq7k8hkxsq","1440","900","de","fa05ea13","null","","","","learningBlock1","","","","<div style=""font-size:60px;""> </div>","null","FL","learning/Slide76.JPG","That was a bim.","",""
"","image-keyboard-response","235","405664","0.0-6.0-0.76","FL","zq7k8hkxsq","1440","900","de","fa05ea13","null","","","","","","","","learning/Slide77.JPG","null","","","","",""
"","html-keyboard-response","236","406824","0.0-6.0-1.76","FL","zq7k8hkxsq","1440","900","de","fa05ea13","null","","","","learningBlock1","","","","That was a tob.","null","","","","",""
"","html-keyboard-response","237","407829","0.0-6.0-2.76","FL","zq7k8hkxsq","1440","900","de","fa05ea13","null","","","","learningBlock1","","","","<div style=""font-size:60px;""> </div>","null","FL","learning/Slide77.JPG","That was a tob.","",""
"","image-keyboard-response","238","408007","0.0-6.0-0.77","FL","zq7k8hkxsq","1440","900","de","fa05ea13","null","","","","","","","","learning/Slide78.JPG","null","","","","",""
"","html-keyboard-response","239","409162","0.0-6.0-1.77","FL","zq7k8hkxsq","1440","900","de","fa05ea13","null","","","","learningBlock1","","","","That was a wug.","null","","","","",""
"","html-keyboard-response","240","410164","0.0-6.0-2.77","FL","zq7k8hkxsq","1440","900","de","fa05ea13","null","","","","learningBlock1","","","","<div style=""font-size:60px;""> </div>","null","FL","learning/Slide78.JPG","That was a wug.","",""
"","image-keyboard-response","241","410341","0.0-6.0-0.78","FL","zq7k8hkxsq","1440","900","de","fa05ea13","null","","","","","","","","learning/Slide79.JPG","null","","","","",""
"","html-keyboard-response","242","411499","0.0-6.0-1.78","FL","zq7k8hkxsq","1440","900","de","fa05ea13","null","","","","learningBlock1","","","","That was a bim.","null","","","","",""
"","html-keyboard-response","243","412501","0.0-6.0-2.78","FL","zq7k8hkxsq","1440","900","de","fa05ea13","null","","","","learningBlock1","","","","<div style=""font-size:60px;""> </div>","null","FL","learning/Slide79.JPG","That was a bim.","",""
"","image-keyboard-response","244","412683","0.0-6.0-0.79","FL","zq7k8hkxsq","1440","900","de","fa05ea13","null","","","","","","","","learning/Slide80.JPG","null","","","","",""
"","html-keyboard-response","245","413843","0.0-6.0-1.79","FL","zq7k8hkxsq","1440","900","de","fa05ea13","null","","","","learningBlock1","","","","That was a tob.","null","","","","",""
"","html-keyboard-response","246","414847","0.0-6.0-2.79","FL","zq7k8hkxsq","1440","900","de","fa05ea13","null","","","","learningBlock1","","","","<div style=""font-size:60px;""> </div>","null","FL","learning/Slide80.JPG","That was a tob.","",""
"","instructions","247","418246","0.0-7.0","FL","zq7k8hkxsq","1440","900","de","fa05ea13","NA","","","[{""page_index"":0,""viewing_time"":3396}]","instructions","","","","","","","","","",""
"","image-keyboard-response","248","418424","0.0-8.0-0.0","FL","zq7k8hkxsq","1440","900","de","fa05ea13","null","","","","","","","","learning/Slide81.JPG","null","","","","",""
"","html-keyboard-response","249","419584","0.0-8.0-1.0","FL","zq7k8hkxsq","1440","900","de","fa05ea13","null","","","","learningBlock2","","","","That was a wug.","null","","","","",""
"","html-keyboard-response","250","420586","0.0-8.0-2.0","FL","zq7k8hkxsq","1440","900","de","fa05ea13","null","","","","learningBlock2","","","","<div style=""font-size:60px;""> </div>","null","FL","learning/Slide81.JPG","That was a wug.","",""
"","image-keyboard-response","251","420763","0.0-8.0-0.1","FL","zq7k8hkxsq","1440","900","de","fa05ea13","null","","","","","","","","learning/Slide82.JPG","null","","","","",""
"","html-keyboard-response","252","421919","0.0-8.0-1.1","FL","zq7k8hkxsq","1440","900","de","fa05ea13","null","","","","learningBlock2","","","","That was a bim.","null","","","","",""
"","html-keyboard-response","253","422922","0.0-8.0-2.1","FL","zq7k8hkxsq","1440","900","de","fa05ea13","null","","","","learningBlock2","","","","<div style=""font-size:60px;""> </div>","null","FL","learning/Slide82.JPG","That was a bim.","",""
"","image-keyboard-response","254","423103","0.0-8.0-0.2","FL","zq7k8hkxsq","1440","900","de","fa05ea13","null","","","","","","","","learning/Slide83.JPG","null","","","","",""
"","html-keyboard-response","255","424264","0.0-8.0-1.2","FL","zq7k8hkxsq","1440","900","de","fa05ea13","null","","","","learningBlock2","","","","That was a wug.","null","","","","",""
"","html-keyboard-response","256","425269","0.0-8.0-2.2","FL","zq7k8hkxsq","1440","900","de","fa05ea13","null","","","","learningBlock2","","","","<div style=""font-size:60px;""> </div>","null","FL","learning/Slide83.JPG","That was a wug.","",""
"","image-keyboard-response","257","425449","0.0-8.0-0.3","FL","zq7k8hkxsq","1440","900","de","fa05ea13","null","","","","","","","","learning/Slide84.JPG","null","","","","",""
"","html-keyboard-response","258","426602","0.0-8.0-1.3","FL","zq7k8hkxsq","1440","900","de","fa05ea13","null","","","","learningBlock2","","","","That was a dep.","null","","","","",""
"","html-keyboard-response","259","427605","0.0-8.0-2.3","FL","zq7k8hkxsq","1440","900","de","fa05ea13","null","","","","learningBlock2","","","","<div style=""font-size:60px;""> </div>","null","FL","learning/Slide84.JPG","That was a dep.","",""
"","image-keyboard-response","260","427784","0.0-8.0-0.4","FL","zq7k8hkxsq","1440","900","de","fa05ea13","null","","","","","","","","learning/Slide85.JPG","null","","","","",""
"","html-keyboard-response","261","428938","0.0-8.0-1.4","FL","zq7k8hkxsq","1440","900","de","fa05ea13","null","","","","learningBlock2","","","","That was a bim.","null","","","","",""
"","html-keyboard-response","262","429942","0.0-8.0-2.4","FL","zq7k8hkxsq","1440","900","de","fa05ea13","null","","","","learningBlock2","","","","<div style=""font-size:60px;""> </div>","null","FL","learning/Slide85.JPG","That was a bim.","",""
"","image-keyboard-response","263","430121","0.0-8.0-0.5","FL","zq7k8hkxsq","1440","900","de","fa05ea13","null","","","","","","","","learning/Slide86.JPG","null","","","","",""
"","html-keyboard-response","264","431274","0.0-8.0-1.5","FL","zq7k8hkxsq","1440","900","de","fa05ea13","null","","","","learningBlock2","","","","That was a tob.","null","","","","",""
"","html-keyboard-response","265","432277","0.0-8.0-2.5","FL","zq7k8hkxsq","1440","900","de","fa05ea13","null","","","","learningBlock2","","","","<div style=""font-size:60px;""> </div>","null","FL","learning/Slide86.JPG","That was a tob.","",""
"","image-keyboard-response","266","432458","0.0-8.0-0.6","FL","zq7k8hkxsq","1440","900","de","fa05ea13","null","","","","","","","","learning/Slide87.JPG","null","","","","",""
"","html-keyboard-response","267","433619","0.0-8.0-1.6","FL","zq7k8hkxsq","1440","900","de","fa05ea13","null","","","","learningBlock2","","","","That was a wug.","null","","","","",""
"","html-keyboard-response","268","434624","0.0-8.0-2.6","FL","zq7k8hkxsq","1440","900","de","fa05ea13","null","","","","learningBlock2","","","","<div style=""font-size:60px;""> </div>","null","FL","learning/Slide87.JPG","That was a wug.","",""
"","image-keyboard-response","269","434805","0.0-8.0-0.7","FL","zq7k8hkxsq","1440","900","de","fa05ea13","null","","","","","","","","learning/Slide88.JPG","null","","","","",""
"","html-keyboard-response","270","435964","0.0-8.0-1.7","FL","zq7k8hkxsq","1440","900","de","fa05ea13","null","","","","learningBlock2","","","","That was a tob.","null","","","","",""
"","html-keyboard-response","271","436970","0.0-8.0-2.7","FL","zq7k8hkxsq","1440","900","de","fa05ea13","null","","","","learningBlock2","","","","<div style=""font-size:60px;""> </div>","null","FL","learning/Slide88.JPG","That was a tob.","",""
"","image-keyboard-response","272","437152","0.0-8.0-0.8","FL","zq7k8hkxsq","1440","900","de","fa05ea13","null","","","","","","","","learning/Slide89.JPG","null","","","","",""
"","html-keyboard-response","273","438313","0.0-8.0-1.8","FL","zq7k8hkxsq","1440","900","de","fa05ea13","null","","","","learningBlock2","","","","That was a bim.","null","","","","",""
"","html-keyboard-response","274","439319","0.0-8.0-2.8","FL","zq7k8hkxsq","1440","900","de","fa05ea13","null","","","","learningBlock2","","","","<div style=""font-size:60px;""> </div>","null","FL","learning/Slide89.JPG","That was a bim.","",""
"","image-keyboard-response","275","439499","0.0-8.0-0.9","FL","zq7k8hkxsq","1440","900","de","fa05ea13","null","","","","","","","","learning/Slide90.JPG","null","","","","",""
"","html-keyboard-response","276","440651","0.0-8.0-1.9","FL","zq7k8hkxsq","1440","900","de","fa05ea13","null","","","","learningBlock2","","","","That was a dep.","null","","","","",""
"","html-keyboard-response","277","441652","0.0-8.0-2.9","FL","zq7k8hkxsq","1440","900","de","fa05ea13","null","","","","learningBlock2","","","","<div style=""font-size:60px;""> </div>","null","FL","learning/Slide90.JPG","That was a dep.","",""
"","image-keyboard-response","278","441833","0.0-8.0-0.10","FL","zq7k8hkxsq","1440","900","de","fa05ea13","null","","","","","","","","learning/Slide91.JPG","null","","","","",""
"","html-keyboard-response","279","442987","0.0-8.0-1.10","FL","zq7k8hkxsq","1440","900","de","fa05ea13","null","","","","learningBlock2","","","","That was a wug.","null","","","","",""
"","html-keyboard-response","280","443989","0.0-8.0-2.10","FL","zq7k8hkxsq","1440","900","de","fa05ea13","null","","","","learningBlock2","","","","<div style=""font-size:60px;""> </div>","null","FL","learning/Slide91.JPG","That was a wug.","",""
"","image-keyboard-response","281","444166","0.0-8.0-0.11","FL","zq7k8hkxsq","1440","900","de","fa05ea13","null","","","","","","","","learning/Slide92.JPG","null","","","","",""
"","html-keyboard-response","282","445324","0.0-8.0-1.11","FL","zq7k8hkxsq","1440","900","de","fa05ea13","null","","","","learningBlock2","","","","That was a tob.","null","","","","",""
"","html-keyboard-response","283","446329","0.0-8.0-2.11","FL","zq7k8hkxsq","1440","900","de","fa05ea13","null","","","","learningBlock2","","","","<div style=""font-size:60px;""> </div>","null","FL","learning/Slide92.JPG","That was a tob.","",""
"","image-keyboard-response","284","446507","0.0-8.0-0.12","FL","zq7k8hkxsq","1440","900","de","fa05ea13","null","","","","","","","","learning/Slide93.JPG","null","","","","",""
"","html-keyboard-response","285","447667","0.0-8.0-1.12","FL","zq7k8hkxsq","1440","900","de","fa05ea13","null","","","","learningBlock2","","","","That was a bim.","null","","","","",""
"","html-keyboard-response","286","448673","0.0-8.0-2.12","FL","zq7k8hkxsq","1440","900","de","fa05ea13","null","","","","learningBlock2","","","","<div style=""font-size:60px;""> </div>","null","FL","learning/Slide93.JPG","That was a bim.","",""
"","image-keyboard-response","287","448849","0.0-8.0-0.13","FL","zq7k8hkxsq","1440","900","de","fa05ea13","null","","","","","","","","learning/Slide94.JPG","null","","","","",""
"","html-keyboard-response","288","450005","0.0-8.0-1.13","FL","zq7k8hkxsq","1440","900","de","fa05ea13","null","","","","learningBlock2","","","","That was a tob.","null","","","","",""
"","html-keyboard-response","289","451008","0.0-8.0-2.13","FL","zq7k8hkxsq","1440","900","de","fa05ea13","null","","","","learningBlock2","","","","<div style=""font-size:60px;""> </div>","null","FL","learning/Slide94.JPG","That was a tob.","",""
"","image-keyboard-response","290","451190","0.0-8.0-0.14","FL","zq7k8hkxsq","1440","900","de","fa05ea13","null","","","","","","","","learning/Slide95.JPG","null","","","","",""
"","html-keyboard-response","291","452349","0.0-8.0-1.14","FL","zq7k8hkxsq","1440","900","de","fa05ea13","null","","","","learningBlock2","","","","That was a wug.","null","","","","",""
"","html-keyboard-response","292","453355","0.0-8.0-2.14","FL","zq7k8hkxsq","1440","900","de","fa05ea13","null","","","","learningBlock2","","","","<div style=""font-size:60px;""> </div>","null","FL","learning/Slide95.JPG","That was a wug.","",""
"","image-keyboard-response","293","453536","0.0-8.0-0.15","FL","zq7k8hkxsq","1440","900","de","fa05ea13","null","","","","","","","","learning/Slide96.JPG","null","","","","",""
"","html-keyboard-response","294","454695","0.0-8.0-1.15","FL","zq7k8hkxsq","1440","900","de","fa05ea13","null","","","","learningBlock2","","","","That was a tob.","null","","","","",""
"","html-keyboard-response","295","455701","0.0-8.0-2.15","FL","zq7k8hkxsq","1440","900","de","fa05ea13","null","","","","learningBlock2","","","","<div style=""font-size:60px;""> </div>","null","FL","learning/Slide96.JPG","That was a tob.","",""
"","image-keyboard-response","296","455883","0.0-8.0-0.16","FL","zq7k8hkxsq","1440","900","de","fa05ea13","null","","","","","","","","learning/Slide97.JPG","null","","","","",""
"","html-keyboard-response","297","457044","0.0-8.0-1.16","FL","zq7k8hkxsq","1440","900","de","fa05ea13","null","","","","learningBlock2","","","","That was a dep.","null","","","","",""
"","html-keyboard-response","298","458049","0.0-8.0-2.16","FL","zq7k8hkxsq","1440","900","de","fa05ea13","null","","","","learningBlock2","","","","<div style=""font-size:60px;""> </div>","null","FL","learning/Slide97.JPG","That was a dep.","",""
"","image-keyboard-response","299","458227","0.0-8.0-0.17","FL","zq7k8hkxsq","1440","900","de","fa05ea13","null","","","","","","","","learning/Slide98.JPG","null","","","","",""
"","html-keyboard-response","300","459382","0.0-8.0-1.17","FL","zq7k8hkxsq","1440","900","de","fa05ea13","null","","","","learningBlock2","","","","That was a bim.","null","","","","",""
"","html-keyboard-response","301","460385","0.0-8.0-2.17","FL","zq7k8hkxsq","1440","900","de","fa05ea13","null","","","","learningBlock2","","","","<div style=""font-size:60px;""> </div>","null","FL","learning/Slide98.JPG","That was a bim.","",""
"","image-keyboard-response","302","460567","0.0-8.0-0.18","FL","zq7k8hkxsq","1440","900","de","fa05ea13","null","","","","","","","","learning/Slide99.JPG","null","","","","",""
"","html-keyboard-response","303","461721","0.0-8.0-1.18","FL","zq7k8hkxsq","1440","900","de","fa05ea13","null","","","","learningBlock2","","","","That was a dep.","null","","","","",""
"","html-keyboard-response","304","462727","0.0-8.0-2.18","FL","zq7k8hkxsq","1440","900","de","fa05ea13","null","","","","learningBlock2","","","","<div style=""font-size:60px;""> </div>","null","FL","learning/Slide99.JPG","That was a dep.","",""
"","image-keyboard-response","305","462909","0.0-8.0-0.19","FL","zq7k8hkxsq","1440","900","de","fa05ea13","null","","","","","","","","learning/Slide100.JPG","null","","","","",""
"","html-keyboard-response","306","464063","0.0-8.0-1.19","FL","zq7k8hkxsq","1440","900","de","fa05ea13","null","","","","learningBlock2","","","","That was a bim.","null","","","","",""
"","html-keyboard-response","307","465067","0.0-8.0-2.19","FL","zq7k8hkxsq","1440","900","de","fa05ea13","null","","","","learningBlock2","","","","<div style=""font-size:60px;""> </div>","null","FL","learning/Slide100.JPG","That was a bim.","",""
"","image-keyboard-response","308","465249","0.0-8.0-0.20","FL","zq7k8hkxsq","1440","900","de","fa05ea13","null","","","","","","","","learning/Slide101.JPG","null","","","","",""
"","html-keyboard-response","309","466409","0.0-8.0-1.20","FL","zq7k8hkxsq","1440","900","de","fa05ea13","null","","","","learningBlock2","","","","That was a tob.","null","","","","",""
"","html-keyboard-response","310","467414","0.0-8.0-2.20","FL","zq7k8hkxsq","1440","900","de","fa05ea13","null","","","","learningBlock2","","","","<div style=""font-size:60px;""> </div>","null","FL","learning/Slide101.JPG","That was a tob.","",""
"","image-keyboard-response","311","467592","0.0-8.0-0.21","FL","zq7k8hkxsq","1440","900","de","fa05ea13","null","","","","","","","","learning/Slide102.JPG","null","","","","",""
"","html-keyboard-response","312","468747","0.0-8.0-1.21","FL","zq7k8hkxsq","1440","900","de","fa05ea13","null","","","","learningBlock2","","","","That was a bim.","null","","","","",""
"","html-keyboard-response","313","469751","0.0-8.0-2.21","FL","zq7k8hkxsq","1440","900","de","fa05ea13","null","","","","learningBlock2","","","","<div style=""font-size:60px;""> </div>","null","FL","learning/Slide102.JPG","That was a bim.","",""
"","image-keyboard-response","314","469931","0.0-8.0-0.22","FL","zq7k8hkxsq","1440","900","de","fa05ea13","null","","","","","","","","learning/Slide103.JPG","null","","","","",""
"","html-keyboard-response","315","471093","0.0-8.0-1.22","FL","zq7k8hkxsq","1440","900","de","fa05ea13","null","","","","learningBlock2","","","","That was a dep.","null","","","","",""
"","html-keyboard-response","316","472097","0.0-8.0-2.22","FL","zq7k8hkxsq","1440","900","de","fa05ea13","null","","","","learningBlock2","","","","<div style=""font-size:60px;""> </div>","null","FL","learning/Slide103.JPG","That was a dep.","",""
"","image-keyboard-response","317","472275","0.0-8.0-0.23","FL","zq7k8hkxsq","1440","900","de","fa05ea13","null","","","","","","","","learning/Slide104.JPG","null","","","","",""
"","html-keyboard-response","318","473430","0.0-8.0-1.23","FL","zq7k8hkxsq","1440","900","de","fa05ea13","null","","","","learningBlock2","","","","That was a tob.","null","","","","",""
"","html-keyboard-response","319","474433","0.0-8.0-2.23","FL","zq7k8hkxsq","1440","900","de","fa05ea13","null","","","","learningBlock2","","","","<div style=""font-size:60px;""> </div>","null","FL","learning/Slide104.JPG","That was a tob.","",""
"","image-keyboard-response","320","474611","0.0-8.0-0.24","FL","zq7k8hkxsq","1440","900","de","fa05ea13","null","","","","","","","","learning/Slide105.JPG","null","","","","",""
"","html-keyboard-response","321","475766","0.0-8.0-1.24","FL","zq7k8hkxsq","1440","900","de","fa05ea13","null","","","","learningBlock2","","","","That was a dep.","null","","","","",""
"","html-keyboard-response","322","476769","0.0-8.0-2.24","FL","zq7k8hkxsq","1440","900","de","fa05ea13","null","","","","learningBlock2","","","","<div style=""font-size:60px;""> </div>","null","FL","learning/Slide105.JPG","That was a dep.","",""
"","image-keyboard-response","323","476950","0.0-8.0-0.25","FL","zq7k8hkxsq","1440","900","de","fa05ea13","null","","","","","","","","learning/Slide106.JPG","null","","","","",""
"","html-keyboard-response","324","478111","0.0-8.0-1.25","FL","zq7k8hkxsq","1440","900","de","fa05ea13","null","","","","learningBlock2","","","","That was a wug.","null","","","","",""
"","html-keyboard-response","325","479116","0.0-8.0-2.25","FL","zq7k8hkxsq","1440","900","de","fa05ea13","null","","","","learningBlock2","","","","<div style=""font-size:60px;""> </div>","null","FL","learning/Slide106.JPG","That was a wug.","",""
"","image-keyboard-response","326","479294","0.0-8.0-0.26","FL","zq7k8hkxsq","1440","900","de","fa05ea13","null","","","","","","","","learning/Slide107.JPG","null","","","","",""
"","html-keyboard-response","327","480449","0.0-8.0-1.26","FL","zq7k8hkxsq","1440","900","de","fa05ea13","null","","","","learningBlock2","","","","That was a bim.","null","","","","",""
"","html-keyboard-response","328","481452","0.0-8.0-2.26","FL","zq7k8hkxsq","1440","900","de","fa05ea13","null","","","","learningBlock2","","","","<div style=""font-size:60px;""> </div>","null","FL","learning/Slide107.JPG","That was a bim.","",""
"","image-keyboard-response","329","481630","0.0-8.0-0.27","FL","zq7k8hkxsq","1440","900","de","fa05ea13","null","","","","","","","","learning/Slide108.JPG","null","","","","",""
"","html-keyboard-response","330","482785","0.0-8.0-1.27","FL","zq7k8hkxsq","1440","900","de","fa05ea13","null","","","","learningBlock2","","","","That was a dep.","null","","","","",""
"","html-keyboard-response","331","483788","0.0-8.0-2.27","FL","zq7k8hkxsq","1440","900","de","fa05ea13","null","","","","learningBlock2","","","","<div style=""font-size:60px;""> </div>","null","FL","learning/Slide108.JPG","That was a dep.","",""
"","image-keyboard-response","332","483969","0.0-8.0-0.28","FL","zq7k8hkxsq","1440","900","de","fa05ea13","null","","","","","","","","learning/Slide109.JPG","null","","","","",""
"","html-keyboard-response","333","485130","0.0-8.0-1.28","FL","zq7k8hkxsq","1440","900","de","fa05ea13","null","","","","learningBlock2","","","","That was a wug.","null","","","","",""
"","html-keyboard-response","334","486132","0.0-8.0-2.28","FL","zq7k8hkxsq","1440","900","de","fa05ea13","null","","","","learningBlock2","","","","<div style=""font-size:60px;""> </div>","null","FL","learning/Slide109.JPG","That was a wug.","",""
"","image-keyboard-response","335","486313","0.0-8.0-0.29","FL","zq7k8hkxsq","1440","900","de","fa05ea13","null","","","","","","","","learning/Slide110.JPG","null","","","","",""
"","html-keyboard-response","336","487468","0.0-8.0-1.29","FL","zq7k8hkxsq","1440","900","de","fa05ea13","null","","","","learningBlock2","","","","That was a bim.","null","","","","",""
"","html-keyboard-response","337","488471","0.0-8.0-2.29","FL","zq7k8hkxsq","1440","900","de","fa05ea13","null","","","","learningBlock2","","","","<div style=""font-size:60px;""> </div>","null","FL","learning/Slide110.JPG","That was a bim.","",""
"","image-keyboard-response","338","488652","0.0-8.0-0.30","FL","zq7k8hkxsq","1440","900","de","fa05ea13","null","","","","","","","","learning/Slide111.JPG","null","","","","",""
"","html-keyboard-response","339","489811","0.0-8.0-1.30","FL","zq7k8hkxsq","1440","900","de","fa05ea13","null","","","","learningBlock2","","","","That was a tob.","null","","","","",""
"","html-keyboard-response","340","490815","0.0-8.0-2.30","FL","zq7k8hkxsq","1440","900","de","fa05ea13","null","","","","learningBlock2","","","","<div style=""font-size:60px;""> </div>","null","FL","learning/Slide111.JPG","That was a tob.","",""
"","image-keyboard-response","341","490999","0.0-8.0-0.31","FL","zq7k8hkxsq","1440","900","de","fa05ea13","null","","","","","","","","learning/Slide112.JPG","null","","","","",""
"","html-keyboard-response","342","492159","0.0-8.0-1.31","FL","zq7k8hkxsq","1440","900","de","fa05ea13","null","","","","learningBlock2","","","","That was a wug.","null","","","","",""
"","html-keyboard-response","343","493164","0.0-8.0-2.31","FL","zq7k8hkxsq","1440","900","de","fa05ea13","null","","","","learningBlock2","","","","<div style=""font-size:60px;""> </div>","null","FL","learning/Slide112.JPG","That was a wug.","",""
"","image-keyboard-response","344","493345","0.0-8.0-0.32","FL","zq7k8hkxsq","1440","900","de","fa05ea13","null","","","","","","","","learning/Slide113.JPG","null","","","","",""
"","html-keyboard-response","345","494506","0.0-8.0-1.32","FL","zq7k8hkxsq","1440","900","de","fa05ea13","null","","","","learningBlock2","","","","That was a tob.","null","","","","",""
"","html-keyboard-response","346","495508","0.0-8.0-2.32","FL","zq7k8hkxsq","1440","900","de","fa05ea13","null","","","","learningBlock2","","","","<div style=""font-size:60px;""> </div>","null","FL","learning/Slide113.JPG","That was a tob.","",""
"","image-keyboard-response","347","495689","0.0-8.0-0.33","FL","zq7k8hkxsq","1440","900","de","fa05ea13","null","","","","","","","","learning/Slide114.JPG","null","","","","",""
"","html-keyboard-response","348","496844","0.0-8.0-1.33","FL","zq7k8hkxsq","1440","900","de","fa05ea13","null","","","","learningBlock2","","","","That was a wug.","null","","","","",""
"","html-keyboard-response","349","497847","0.0-8.0-2.33","FL","zq7k8hkxsq","1440","900","de","fa05ea13","null","","","","learningBlock2","","","","<div style=""font-size:60px;""> </div>","null","FL","learning/Slide114.JPG","That was a wug.","",""
"","image-keyboard-response","350","498025","0.0-8.0-0.34","FL","zq7k8hkxsq","1440","900","de","fa05ea13","null","","","","","","","","learning/Slide115.JPG","null","","","","",""
"","html-keyboard-response","351","499179","0.0-8.0-1.34","FL","zq7k8hkxsq","1440","900","de","fa05ea13","null","","","","learningBlock2","","","","That was a bim.","null","","","","",""
"","html-keyboard-response","352","500182","0.0-8.0-2.34","FL","zq7k8hkxsq","1440","900","de","fa05ea13","null","","","","learningBlock2","","","","<div style=""font-size:60px;""> </div>","null","FL","learning/Slide115.JPG","That was a bim.","",""
"","image-keyboard-response","353","500361","0.0-8.0-0.35","FL","zq7k8hkxsq","1440","900","de","fa05ea13","null","","","","","","","","learning/Slide116.JPG","null","","","","",""
"","html-keyboard-response","354","501516","0.0-8.0-1.35","FL","zq7k8hkxsq","1440","900","de","fa05ea13","null","","","","learningBlock2","","","","That was a dep.","null","","","","",""
"","html-keyboard-response","355","502519","0.0-8.0-2.35","FL","zq7k8hkxsq","1440","900","de","fa05ea13","null","","","","learningBlock2","","","","<div style=""font-size:60px;""> </div>","null","FL","learning/Slide116.JPG","That was a dep.","",""
"","image-keyboard-response","356","502700","0.0-8.0-0.36","FL","zq7k8hkxsq","1440","900","de","fa05ea13","null","","","","","","","","learning/Slide117.JPG","null","","","","",""
"","html-keyboard-response","357","503860","0.0-8.0-1.36","FL","zq7k8hkxsq","1440","900","de","fa05ea13","null","","","","learningBlock2","","","","That was a tob.","null","","","","",""
"","html-keyboard-response","358","504866","0.0-8.0-2.36","FL","zq7k8hkxsq","1440","900","de","fa05ea13","null","","","","learningBlock2","","","","<div style=""font-size:60px;""> </div>","null","FL","learning/Slide117.JPG","That was a tob.","",""
"","image-keyboard-response","359","505046","0.0-8.0-0.37","FL","zq7k8hkxsq","1440","900","de","fa05ea13","null","","","","","","","","learning/Slide118.JPG","null","","","","",""
"","html-keyboard-response","360","506199","0.0-8.0-1.37","FL","zq7k8hkxsq","1440","900","de","fa05ea13","null","","","","learningBlock2","","","","That was a dep.","null","","","","",""
"","html-keyboard-response","361","507200","0.0-8.0-2.37","FL","zq7k8hkxsq","1440","900","de","fa05ea13","null","","","","learningBlock2","","","","<div style=""font-size:60px;""> </div>","null","FL","learning/Slide118.JPG","That was a dep.","",""
"","image-keyboard-response","362","507382","0.0-8.0-0.38","FL","zq7k8hkxsq","1440","900","de","fa05ea13","null","","","","","","","","learning/Slide119.JPG","null","","","","",""
"","html-keyboard-response","363","508535","0.0-8.0-1.38","FL","zq7k8hkxsq","1440","900","de","fa05ea13","null","","","","learningBlock2","","","","That was a wug.","null","","","","",""
"","html-keyboard-response","364","509538","0.0-8.0-2.38","FL","zq7k8hkxsq","1440","900","de","fa05ea13","null","","","","learningBlock2","","","","<div style=""font-size:60px;""> </div>","null","FL","learning/Slide119.JPG","That was a wug.","",""
"","image-keyboard-response","365","509718","0.0-8.0-0.39","FL","zq7k8hkxsq","1440","900","de","fa05ea13","null","","","","","","","","learning/Slide120.JPG","null","","","","",""
"","html-keyboard-response","366","510871","0.0-8.0-1.39","FL","zq7k8hkxsq","1440","900","de","fa05ea13","null","","","","learningBlock2","","","","That was a dep.","null","","","","",""
"","html-keyboard-response","367","511874","0.0-8.0-2.39","FL","zq7k8hkxsq","1440","900","de","fa05ea13","null","","","","learningBlock2","","","","<div style=""font-size:60px;""> </div>","null","FL","learning/Slide120.JPG","That was a dep.","",""
"","image-keyboard-response","368","512055","0.0-8.0-0.40","FL","zq7k8hkxsq","1440","900","de","fa05ea13","null","","","","","","","","learning/Slide121.JPG","null","","","","",""
"","html-keyboard-response","369","513216","0.0-8.0-1.40","FL","zq7k8hkxsq","1440","900","de","fa05ea13","null","","","","learningBlock2","","","","That was a bim.","null","","","","",""
"","html-keyboard-response","370","514221","0.0-8.0-2.40","FL","zq7k8hkxsq","1440","900","de","fa05ea13","null","","","","learningBlock2","","","","<div style=""font-size:60px;""> </div>","null","FL","learning/Slide121.JPG","That was a bim.","",""
"","image-keyboard-response","371","514403","0.0-8.0-0.41","FL","zq7k8hkxsq","1440","900","de","fa05ea13","null","","","","","","","","learning/Slide122.JPG","null","","","","",""
"","html-keyboard-response","372","515562","0.0-8.0-1.41","FL","zq7k8hkxsq","1440","900","de","fa05ea13","null","","","","learningBlock2","","","","That was a wug.","null","","","","",""
"","html-keyboard-response","373","516567","0.0-8.0-2.41","FL","zq7k8hkxsq","1440","900","de","fa05ea13","null","","","","learningBlock2","","","","<div style=""font-size:60px;""> </div>","null","FL","learning/Slide122.JPG","That was a wug.","",""
"","image-keyboard-response","374","516749","0.0-8.0-0.42","FL","zq7k8hkxsq","1440","900","de","fa05ea13","null","","","","","","","","learning/Slide123.JPG","null","","","","",""
"","html-keyboard-response","375","517905","0.0-8.0-1.42","FL","zq7k8hkxsq","1440","900","de","fa05ea13","null","","","","learningBlock2","","","","That was a bim.","null","","","","",""
"","html-keyboard-response","376","518911","0.0-8.0-2.42","FL","zq7k8hkxsq","1440","900","de","fa05ea13","null","","","","learningBlock2","","","","<div style=""font-size:60px;""> </div>","null","FL","learning/Slide123.JPG","That was a bim.","",""
"","image-keyboard-response","377","519089","0.0-8.0-0.43","FL","zq7k8hkxsq","1440","900","de","fa05ea13","null","","","","","","","","learning/Slide124.JPG","null","","","","",""
"","html-keyboard-response","378","520250","0.0-8.0-1.43","FL","zq7k8hkxsq","1440","900","de","fa05ea13","null","","","","learningBlock2","","","","That was a tob.","null","","","","",""
"","html-keyboard-response","379","521255","0.0-8.0-2.43","FL","zq7k8hkxsq","1440","900","de","fa05ea13","null","","","","learningBlock2","","","","<div style=""font-size:60px;""> </div>","null","FL","learning/Slide124.JPG","That was a tob.","",""
"","image-keyboard-response","380","521437","0.0-8.0-0.44","FL","zq7k8hkxsq","1440","900","de","fa05ea13","null","","","","","","","","learning/Slide125.JPG","null","","","","",""
"","html-keyboard-response","381","522595","0.0-8.0-1.44","FL","zq7k8hkxsq","1440","900","de","fa05ea13","null","","","","learningBlock2","","","","That was a bim.","null","","","","",""
"","html-keyboard-response","382","523597","0.0-8.0-2.44","FL","zq7k8hkxsq","1440","900","de","fa05ea13","null","","","","learningBlock2","","","","<div style=""font-size:60px;""> </div>","null","FL","learning/Slide125.JPG","That was a bim.","",""
"","image-keyboard-response","383","523776","0.0-8.0-0.45","FL","zq7k8hkxsq","1440","900","de","fa05ea13","null","","","","","","","","learning/Slide126.JPG","null","","","","",""
"","html-keyboard-response","384","524930","0.0-8.0-1.45","FL","zq7k8hkxsq","1440","900","de","fa05ea13","null","","","","learningBlock2","","","","That was a tob.","null","","","","",""
"","html-keyboard-response","385","525934","0.0-8.0-2.45","FL","zq7k8hkxsq","1440","900","de","fa05ea13","null","","","","learningBlock2","","","","<div style=""font-size:60px;""> </div>","null","FL","learning/Slide126.JPG","That was a tob.","",""
"","image-keyboard-response","386","526115","0.0-8.0-0.46","FL","zq7k8hkxsq","1440","900","de","fa05ea13","null","","","","","","","","learning/Slide127.JPG","null","","","","",""
"","html-keyboard-response","387","527274","0.0-8.0-1.46","FL","zq7k8hkxsq","1440","900","de","fa05ea13","null","","","","learningBlock2","","","","That was a dep.","null","","","","",""
"","html-keyboard-response","388","528279","0.0-8.0-2.46","FL","zq7k8hkxsq","1440","900","de","fa05ea13","null","","","","learningBlock2","","","","<div style=""font-size:60px;""> </div>","null","FL","learning/Slide127.JPG","That was a dep.","",""
"","image-keyboard-response","389","528461","0.0-8.0-0.47","FL","zq7k8hkxsq","1440","900","de","fa05ea13","null","","","","","","","","learning/Slide128.JPG","null","","","","",""
"","html-keyboard-response","390","529620","0.0-8.0-1.47","FL","zq7k8hkxsq","1440","900","de","fa05ea13","null","","","","learningBlock2","","","","That was a wug.","null","","","","",""
"","html-keyboard-response","391","530625","0.0-8.0-2.47","FL","zq7k8hkxsq","1440","900","de","fa05ea13","null","","","","learningBlock2","","","","<div style=""font-size:60px;""> </div>","null","FL","learning/Slide128.JPG","That was a wug.","",""
"","image-keyboard-response","392","530804","0.0-8.0-0.48","FL","zq7k8hkxsq","1440","900","de","fa05ea13","null","","","","","","","","learning/Slide129.JPG","null","","","","",""
"","html-keyboard-response","393","531960","0.0-8.0-1.48","FL","zq7k8hkxsq","1440","900","de","fa05ea13","null","","","","learningBlock2","","","","That was a tob.","null","","","","",""
"","html-keyboard-response","394","532962","0.0-8.0-2.48","FL","zq7k8hkxsq","1440","900","de","fa05ea13","null","","","","learningBlock2","","","","<div style=""font-size:60px;""> </div>","null","FL","learning/Slide129.JPG","That was a tob.","",""
"","image-keyboard-response","395","533144","0.0-8.0-0.49","FL","zq7k8hkxsq","1440","900","de","fa05ea13","null","","","","","","","","learning/Slide130.JPG","null","","","","",""
"","html-keyboard-response","396","534305","0.0-8.0-1.49","FL","zq7k8hkxsq","1440","900","de","fa05ea13","null","","","","learningBlock2","","","","That was a wug.","null","","","","",""
"","html-keyboard-response","397","535309","0.0-8.0-2.49","FL","zq7k8hkxsq","1440","900","de","fa05ea13","null","","","","learningBlock2","","","","<div style=""font-size:60px;""> </div>","null","FL","learning/Slide130.JPG","That was a wug.","",""
"","image-keyboard-response","398","535488","0.0-8.0-0.50","FL","zq7k8hkxsq","1440","900","de","fa05ea13","null","","","","","","","","learning/Slide131.JPG","null","","","","",""
"","html-keyboard-response","399","536642","0.0-8.0-1.50","FL","zq7k8hkxsq","1440","900","de","fa05ea13","null","","","","learningBlock2","","","","That was a bim.","null","","","","",""
"","html-keyboard-response","400","537645","0.0-8.0-2.50","FL","zq7k8hkxsq","1440","900","de","fa05ea13","null","","","","learningBlock2","","","","<div style=""font-size:60px;""> </div>","null","FL","learning/Slide131.JPG","That was a bim.","",""
"","image-keyboard-response","401","537822","0.0-8.0-0.51","FL","zq7k8hkxsq","1440","900","de","fa05ea13","null","","","","","","","","learning/Slide132.JPG","null","","","","",""
"","html-keyboard-response","402","538977","0.0-8.0-1.51","FL","zq7k8hkxsq","1440","900","de","fa05ea13","null","","","","learningBlock2","","","","That was a dep.","null","","","","",""
"","html-keyboard-response","403","539981","0.0-8.0-2.51","FL","zq7k8hkxsq","1440","900","de","fa05ea13","null","","","","learningBlock2","","","","<div style=""font-size:60px;""> </div>","null","FL","learning/Slide132.JPG","That was a dep.","",""
"","image-keyboard-response","404","540160","0.0-8.0-0.52","FL","zq7k8hkxsq","1440","900","de","fa05ea13","null","","","","","","","","learning/Slide133.JPG","null","","","","",""
"","html-keyboard-response","405","541314","0.0-8.0-1.52","FL","zq7k8hkxsq","1440","900","de","fa05ea13","null","","","","learningBlock2","","","","That was a tob.","null","","","","",""
"","html-keyboard-response","406","542317","0.0-8.0-2.52","FL","zq7k8hkxsq","1440","900","de","fa05ea13","null","","","","learningBlock2","","","","<div style=""font-size:60px;""> </div>","null","FL","learning/Slide133.JPG","That was a tob.","",""
"","image-keyboard-response","407","542498","0.0-8.0-0.53","FL","zq7k8hkxsq","1440","900","de","fa05ea13","null","","","","","","","","learning/Slide134.JPG","null","","","","",""
"","html-keyboard-response","408","543660","0.0-8.0-1.53","FL","zq7k8hkxsq","1440","900","de","fa05ea13","null","","","","learningBlock2","","","","That was a dep.","null","","","","",""
"","html-keyboard-response","409","544664","0.0-8.0-2.53","FL","zq7k8hkxsq","1440","900","de","fa05ea13","null","","","","learningBlock2","","","","<div style=""font-size:60px;""> </div>","null","FL","learning/Slide134.JPG","That was a dep.","",""
"","image-keyboard-response","410","544846","0.0-8.0-0.54","FL","zq7k8hkxsq","1440","900","de","fa05ea13","null","","","","","","","","learning/Slide135.JPG","null","","","","",""
"","html-keyboard-response","411","545997","0.0-8.0-1.54","FL","zq7k8hkxsq","1440","900","de","fa05ea13","null","","","","learningBlock2","","","","That was a tob.","null","","","","",""
"","html-keyboard-response","412","547000","0.0-8.0-2.54","FL","zq7k8hkxsq","1440","900","de","fa05ea13","null","","","","learningBlock2","","","","<div style=""font-size:60px;""> </div>","null","FL","learning/Slide135.JPG","That was a tob.","",""
"","image-keyboard-response","413","547180","0.0-8.0-0.55","FL","zq7k8hkxsq","1440","900","de","fa05ea13","null","","","","","","","","learning/Slide136.JPG","null","","","","",""
"","html-keyboard-response","414","548341","0.0-8.0-1.55","FL","zq7k8hkxsq","1440","900","de","fa05ea13","null","","","","learningBlock2","","","","That was a wug.","null","","","","",""
"","html-keyboard-response","415","549347","0.0-8.0-2.55","FL","zq7k8hkxsq","1440","900","de","fa05ea13","null","","","","learningBlock2","","","","<div style=""font-size:60px;""> </div>","null","FL","learning/Slide136.JPG","That was a wug.","",""
"","image-keyboard-response","416","549528","0.0-8.0-0.56","FL","zq7k8hkxsq","1440","900","de","fa05ea13","null","","","","","","","","learning/Slide137.JPG","null","","","","",""
"","html-keyboard-response","417","550680","0.0-8.0-1.56","FL","zq7k8hkxsq","1440","900","de","fa05ea13","null","","","","learningBlock2","","","","That was a tob.","null","","","","",""
"","html-keyboard-response","418","551682","0.0-8.0-2.56","FL","zq7k8hkxsq","1440","900","de","fa05ea13","null","","","","learningBlock2","","","","<div style=""font-size:60px;""> </div>","null","FL","learning/Slide137.JPG","That was a tob.","",""
"","image-keyboard-response","419","551863","0.0-8.0-0.57","FL","zq7k8hkxsq","1440","900","de","fa05ea13","null","","","","","","","","learning/Slide138.JPG","null","","","","",""
"","html-keyboard-response","420","553016","0.0-8.0-1.57","FL","zq7k8hkxsq","1440","900","de","fa05ea13","null","","","","learningBlock2","","","","That was a bim.","null","","","","",""
"","html-keyboard-response","421","554019","0.0-8.0-2.57","FL","zq7k8hkxsq","1440","900","de","fa05ea13","null","","","","learningBlock2","","","","<div style=""font-size:60px;""> </div>","null","FL","learning/Slide138.JPG","That was a bim.","",""
"","image-keyboard-response","422","554200","0.0-8.0-0.58","FL","zq7k8hkxsq","1440","900","de","fa05ea13","null","","","","","","","","learning/Slide139.JPG","null","","","","",""
"","html-keyboard-response","423","555356","0.0-8.0-1.58","FL","zq7k8hkxsq","1440","900","de","fa05ea13","null","","","","learningBlock2","","","","That was a wug.","null","","","","",""
"","html-keyboard-response","424","556362","0.0-8.0-2.58","FL","zq7k8hkxsq","1440","900","de","fa05ea13","null","","","","learningBlock2","","","","<div style=""font-size:60px;""> </div>","null","FL","learning/Slide139.JPG","That was a wug.","",""
"","image-keyboard-response","425","556543","0.0-8.0-0.59","FL","zq7k8hkxsq","1440","900","de","fa05ea13","null","","","","","","","","learning/Slide140.JPG","null","","","","",""
"","html-keyboard-response","426","557699","0.0-8.0-1.59","FL","zq7k8hkxsq","1440","900","de","fa05ea13","null","","","","learningBlock2","","","","That was a dep.","null","","","","",""
"","html-keyboard-response","427","558701","0.0-8.0-2.59","FL","zq7k8hkxsq","1440","900","de","fa05ea13","null","","","","learningBlock2","","","","<div style=""font-size:60px;""> </div>","null","FL","learning/Slide140.JPG","That was a dep.","",""
"","image-keyboard-response","428","558883","0.0-8.0-0.60","FL","zq7k8hkxsq","1440","900","de","fa05ea13","null","","","","","","","","learning/Slide141.JPG","null","","","","",""
"","html-keyboard-response","429","560042","0.0-8.0-1.60","FL","zq7k8hkxsq","1440","900","de","fa05ea13","null","","","","learningBlock2","","","","That was a tob.","null","","","","",""
"","html-keyboard-response","430","561048","0.0-8.0-2.60","FL","zq7k8hkxsq","1440","900","de","fa05ea13","null","","","","learningBlock2","","","","<div style=""font-size:60px;""> </div>","null","FL","learning/Slide141.JPG","That was a tob.","",""
"","image-keyboard-response","431","561228","0.0-8.0-0.61","FL","zq7k8hkxsq","1440","900","de","fa05ea13","null","","","","","","","","learning/Slide142.JPG","null","","","","",""
"","html-keyboard-response","432","562381","0.0-8.0-1.61","FL","zq7k8hkxsq","1440","900","de","fa05ea13","null","","","","learningBlock2","","","","That was a wug.","null","","","","",""
"","html-keyboard-response","433","563384","0.0-8.0-2.61","FL","zq7k8hkxsq","1440","900","de","fa05ea13","null","","","","learningBlock2","","","","<div style=""font-size:60px;""> </div>","null","FL","learning/Slide142.JPG","That was a wug.","",""
"","image-keyboard-response","434","563566","0.0-8.0-0.62","FL","zq7k8hkxsq","1440","900","de","fa05ea13","null","","","","","","","","learning/Slide143.JPG","null","","","","",""
"","html-keyboard-response","435","564721","0.0-8.0-1.62","FL","zq7k8hkxsq","1440","900","de","fa05ea13","null","","","","learningBlock2","","","","That was a bim.","null","","","","",""
"","html-keyboard-response","436","565726","0.0-8.0-2.62","FL","zq7k8hkxsq","1440","900","de","fa05ea13","null","","","","learningBlock2","","","","<div style=""font-size:60px;""> </div>","null","FL","learning/Slide143.JPG","That was a bim.","",""
"","image-keyboard-response","437","565907","0.0-8.0-0.63","FL","zq7k8hkxsq","1440","900","de","fa05ea13","null","","","","","","","","learning/Slide144.JPG","null","","","","",""
"","html-keyboard-response","438","567064","0.0-8.0-1.63","FL","zq7k8hkxsq","1440","900","de","fa05ea13","null","","","","learningBlock2","","","","That was a dep.","null","","","","",""
"","html-keyboard-response","439","568067","0.0-8.0-2.63","FL","zq7k8hkxsq","1440","900","de","fa05ea13","null","","","","learningBlock2","","","","<div style=""font-size:60px;""> </div>","null","FL","learning/Slide144.JPG","That was a dep.","",""
"","image-keyboard-response","440","568244","0.0-8.0-0.64","FL","zq7k8hkxsq","1440","900","de","fa05ea13","null","","","","","","","","learning/Slide145.JPG","null","","","","",""
"","html-keyboard-response","441","569400","0.0-8.0-1.64","FL","zq7k8hkxsq","1440","900","de","fa05ea13","null","","","","learningBlock2","","","","That was a bim.","null","","","","",""
"","html-keyboard-response","442","570402","0.0-8.0-2.64","FL","zq7k8hkxsq","1440","900","de","fa05ea13","null","","","","learningBlock2","","","","<div style=""font-size:60px;""> </div>","null","FL","learning/Slide145.JPG","That was a bim.","",""
"","image-keyboard-response","443","570581","0.0-8.0-0.65","FL","zq7k8hkxsq","1440","900","de","fa05ea13","null","","","","","","","","learning/Slide146.JPG","null","","","","",""
"","html-keyboard-response","444","571736","0.0-8.0-1.65","FL","zq7k8hkxsq","1440","900","de","fa05ea13","null","","","","learningBlock2","","","","That was a tob.","null","","","","",""
"","html-keyboard-response","445","572739","0.0-8.0-2.65","FL","zq7k8hkxsq","1440","900","de","fa05ea13","null","","","","learningBlock2","","","","<div style=""font-size:60px;""> </div>","null","FL","learning/Slide146.JPG","That was a tob.","",""
"","image-keyboard-response","446","572920","0.0-8.0-0.66","FL","zq7k8hkxsq","1440","900","de","fa05ea13","null","","","","","","","","learning/Slide147.JPG","null","","","","",""
"","html-keyboard-response","447","574080","0.0-8.0-1.66","FL","zq7k8hkxsq","1440","900","de","fa05ea13","null","","","","learningBlock2","","","","That was a wug.","null","","","","",""
"","html-keyboard-response","448","575082","0.0-8.0-2.66","FL","zq7k8hkxsq","1440","900","de","fa05ea13","null","","","","learningBlock2","","","","<div style=""font-size:60px;""> </div>","null","FL","learning/Slide147.JPG","That was a wug.","",""
"","image-keyboard-response","449","575263","0.0-8.0-0.67","FL","zq7k8hkxsq","1440","900","de","fa05ea13","null","","","","","","","","learning/Slide148.JPG","null","","","","",""
"","html-keyboard-response","450","576419","0.0-8.0-1.67","FL","zq7k8hkxsq","1440","900","de","fa05ea13","null","","","","learningBlock2","","","","That was a bim.","null","","","","",""
"","html-keyboard-response","451","577422","0.0-8.0-2.67","FL","zq7k8hkxsq","1440","900","de","fa05ea13","null","","","","learningBlock2","","","","<div style=""font-size:60px;""> </div>","null","FL","learning/Slide148.JPG","That was a bim.","",""
"","image-keyboard-response","452","577603","0.0-8.0-0.68","FL","zq7k8hkxsq","1440","900","de","fa05ea13","null","","","","","","","","learning/Slide149.JPG","null","","","","",""
"","html-keyboard-response","453","578762","0.0-8.0-1.68","FL","zq7k8hkxsq","1440","900","de","fa05ea13","null","","","","learningBlock2","","","","That was a dep.","null","","","","",""
"","html-keyboard-response","454","579769","0.0-8.0-2.68","FL","zq7k8hkxsq","1440","900","de","fa05ea13","null","","","","learningBlock2","","","","<div style=""font-size:60px;""> </div>","null","FL","learning/Slide149.JPG","That was a dep.","",""
"","image-keyboard-response","455","579950","0.0-8.0-0.69","FL","zq7k8hkxsq","1440","900","de","fa05ea13","null","","","","","","","","learning/Slide150.JPG","null","","","","",""
"","html-keyboard-response","456","581111","0.0-8.0-1.69","FL","zq7k8hkxsq","1440","900","de","fa05ea13","null","","","","learningBlock2","","","","That was a wug.","null","","","","",""
"","html-keyboard-response","457","582116","0.0-8.0-2.69","FL","zq7k8hkxsq","1440","900","de","fa05ea13","null","","","","learningBlock2","","","","<div style=""font-size:60px;""> </div>","null","FL","learning/Slide150.JPG","That was a wug.","",""
"","image-keyboard-response","458","582293","0.0-8.0-0.70","FL","zq7k8hkxsq","1440","900","de","fa05ea13","null","","","","","","","","learning/Slide151.JPG","null","","","","",""
"","html-keyboard-response","459","583449","0.0-8.0-1.70","FL","zq7k8hkxsq","1440","900","de","fa05ea13","null","","","","learningBlock2","","","","That was a dep.","null","","","","",""
"","html-keyboard-response","460","584451","0.0-8.0-2.70","FL","zq7k8hkxsq","1440","900","de","fa05ea13","null","","","","learningBlock2","","","","<div style=""font-size:60px;""> </div>","null","FL","learning/Slide151.JPG","That was a dep.","",""
"","image-keyboard-response","461","584631","0.0-8.0-0.71","FL","zq7k8hkxsq","1440","900","de","fa05ea13","null","","","","","","","","learning/Slide152.JPG","null","","","","",""
"","html-keyboard-response","462","585785","0.0-8.0-1.71","FL","zq7k8hkxsq","1440","900","de","fa05ea13","null","","","","learningBlock2","","","","That was a wug.","null","","","","",""
"","html-keyboard-response","463","586787","0.0-8.0-2.71","FL","zq7k8hkxsq","1440","900","de","fa05ea13","null","","","","learningBlock2","","","","<div style=""font-size:60px;""> </div>","null","FL","learning/Slide152.JPG","That was a wug.","",""
"","image-keyboard-response","464","586969","0.0-8.0-0.72","FL","zq7k8hkxsq","1440","900","de","fa05ea13","null","","","","","","","","learning/Slide153.JPG","null","","","","",""
"","html-keyboard-response","465","588130","0.0-8.0-1.72","FL","zq7k8hkxsq","1440","900","de","fa05ea13","null","","","","learningBlock2","","","","That was a bim.","null","","","","",""
"","html-keyboard-response","466","589134","0.0-8.0-2.72","FL","zq7k8hkxsq","1440","900","de","fa05ea13","null","","","","learningBlock2","","","","<div style=""font-size:60px;""> </div>","null","FL","learning/Slide153.JPG","That was a bim.","",""
"","image-keyboard-response","467","589315","0.0-8.0-0.73","FL","zq7k8hkxsq","1440","900","de","fa05ea13","null","","","","","","","","learning/Slide154.JPG","null","","","","",""
"","html-keyboard-response","468","590471","0.0-8.0-1.73","FL","zq7k8hkxsq","1440","900","de","fa05ea13","null","","","","learningBlock2","","","","That was a tob.","null","","","","",""
"","html-keyboard-response","469","591472","0.0-8.0-2.73","FL","zq7k8hkxsq","1440","900","de","fa05ea13","null","","","","learningBlock2","","","","<div style=""font-size:60px;""> </div>","null","FL","learning/Slide154.JPG","That was a tob.","",""
"","image-keyboard-response","470","591653","0.0-8.0-0.74","FL","zq7k8hkxsq","1440","900","de","fa05ea13","null","","","","","","","","learning/Slide155.JPG","null","","","","",""
"","html-keyboard-response","471","592813","0.0-8.0-1.74","FL","zq7k8hkxsq","1440","900","de","fa05ea13","null","","","","learningBlock2","","","","That was a dep.","null","","","","",""
"","html-keyboard-response","472","593817","0.0-8.0-2.74","FL","zq7k8hkxsq","1440","900","de","fa05ea13","null","","","","learningBlock2","","","","<div style=""font-size:60px;""> </div>","null","FL","learning/Slide155.JPG","That was a dep.","",""
"","image-keyboard-response","473","593994","0.0-8.0-0.75","FL","zq7k8hkxsq","1440","900","de","fa05ea13","null","","","","","","","","learning/Slide156.JPG","null","","","","",""
"","html-keyboard-response","474","595149","0.0-8.0-1.75","FL","zq7k8hkxsq","1440","900","de","fa05ea13","null","","","","learningBlock2","","","","That was a bim.","null","","","","",""
"","html-keyboard-response","475","596153","0.0-8.0-2.75","FL","zq7k8hkxsq","1440","900","de","fa05ea13","null","","","","learningBlock2","","","","<div style=""font-size:60px;""> </div>","null","FL","learning/Slide156.JPG","That was a bim.","",""
"","image-keyboard-response","476","596335","0.0-8.0-0.76","FL","zq7k8hkxsq","1440","900","de","fa05ea13","null","","","","","","","","learning/Slide157.JPG","null","","","","",""
"","html-keyboard-response","477","597492","0.0-8.0-1.76","FL","zq7k8hkxsq","1440","900","de","fa05ea13","null","","","","learningBlock2","","","","That was a dep.","null","","","","",""
"","html-keyboard-response","478","598495","0.0-8.0-2.76","FL","zq7k8hkxsq","1440","900","de","fa05ea13","null","","","","learningBlock2","","","","<div style=""font-size:60px;""> </div>","null","FL","learning/Slide157.JPG","That was a dep.","",""
"","image-keyboard-response","479","598671","0.0-8.0-0.77","FL","zq7k8hkxsq","1440","900","de","fa05ea13","null","","","","","","","","learning/Slide158.JPG","null","","","","",""
"","html-keyboard-response","480","599823","0.0-8.0-1.77","FL","zq7k8hkxsq","1440","900","de","fa05ea13","null","","","","learningBlock2","","","","That was a tob.","null","","","","",""
"","html-keyboard-response","481","600824","0.0-8.0-2.77","FL","zq7k8hkxsq","1440","900","de","fa05ea13","null","","","","learningBlock2","","","","<div style=""font-size:60px;""> </div>","null","FL","learning/Slide158.JPG","That was a tob.","",""
"","image-keyboard-response","482","601004","0.0-8.0-0.78","FL","zq7k8hkxsq","1440","900","de","fa05ea13","null","","","","","","","","learning/Slide159.JPG","null","","","","",""
"","html-keyboard-response","483","602155","0.0-8.0-1.78","FL","zq7k8hkxsq","1440","900","de","fa05ea13","null","","","","learningBlock2","","","","That was a dep.","null","","","","",""
"","html-keyboard-response","484","603160","0.0-8.0-2.78","FL","zq7k8hkxsq","1440","900","de","fa05ea13","null","","","","learningBlock2","","","","<div style=""font-size:60px;""> </div>","null","FL","learning/Slide159.JPG","That was a dep.","",""
"","image-keyboard-response","485","603335","0.0-8.0-0.79","FL","zq7k8hkxsq","1440","900","de","fa05ea13","null","","","","","","","","learning/Slide160.JPG","null","","","","",""
"","html-keyboard-response","486","604488","0.0-8.0-1.79","FL","zq7k8hkxsq","1440","900","de","fa05ea13","null","","","","learningBlock2","","","","That was a wug.","null","","","","",""
"","html-keyboard-response","487","605490","0.0-8.0-2.79","FL","zq7k8hkxsq","1440","900","de","fa05ea13","null","","","","learningBlock2","","","","<div style=""font-size:60px;""> </div>","null","FL","learning/Slide160.JPG","That was a wug.","",""
"","resize2","488","608875","0.0-9.0","FL","zq7k8hkxsq","1440","900","de","fa05ea13","","","","","","","104","1.04","","","","","","",""
