"success","trial_type","trial_index","time_elapsed","internal_node_id","condition","subject","screen_width","screen_height","language","codeword","rt","responses","url","view_history","test_part","final_height_px","final_width_px","scale_factor","stimulus","key_press","learningType","presentedImage","presentedLabel","button_pressed","response"
"true","fullscreen","0","1084982","0.0-0.0","FL","7xgb6axxfk","1368","912","de","rf07as06","","","","","","","","","","","","","","",""
"","survey-html-form","1","1096118","0.0-1.0","FL","7xgb6axxfk","1368","912","de","rf07as06","11128.724999725819","{""language"":""de""}","","","","","","","","","","","","",""
"","external-html","2","1146558","0.0-2.0-0.0","FL","7xgb6axxfk","1368","912","de","rf07as06","49949.53499967232","","text/information.html","","","","","","","","","","","",""
"","external-html","3","1176657","0.0-2.0-1.0","FL","7xgb6axxfk","1368","912","de","rf07as06","29503.38499993086","","text/consent.html","","","","","","","","","","","",""
"","survey-html-form","4","1255521","0.0-2.0-2.0","FL","7xgb6axxfk","1368","912","de","rf07as06","78858.15500002354","{""codeword_enter"":""rf07as06""}","","","","","","","","","","","","",""
"","instructions","5","1305032","0.0-4.0","FL","7xgb6axxfk","1368","912","de","rf07as06","NA","","","[{""page_index"":0,""viewing_time"":20104.12499960512},{""page_index"":1,""viewing_time"":27897.415000014007}]","instructions","","","","","","","","","",""
"","resize","6","1511789","0.0-5.0","FL","7xgb6axxfk","1368","912","de","rf07as06","","","","","","","452","2.86984126984127","","","","","","",""
"","image-keyboard-response","7","1511978","0.0-6.0-0.0","FL","7xgb6axxfk","1368","912","de","rf07as06","null","","","","","","","","learning/Slide1.JPG","null","","","","",""
"","html-keyboard-response","8","1513150","0.0-6.0-1.0","FL","7xgb6axxfk","1368","912","de","rf07as06","null","","","","learningBlock1","","","","That was a tob.","null","","","","",""
"","html-keyboard-response","9","1514154","0.0-6.0-2.0","FL","7xgb6axxfk","1368","912","de","rf07as06","null","","","","learningBlock1","","","","<div style=""font-size:60px;""> </div>","null","FL","learning/Slide1.JPG","That was a tob.","",""
"","image-keyboard-response","10","1514342","0.0-6.0-0.1","FL","7xgb6axxfk","1368","912","de","rf07as06","null","","","","","","","","learning/Slide2.JPG","null","","","","",""
"","html-keyboard-response","11","1515515","0.0-6.0-1.1","FL","7xgb6axxfk","1368","912","de","rf07as06","null","","","","learningBlock1","","","","That was a wug.","null","","","","",""
"","html-keyboard-response","12","1516527","0.0-6.0-2.1","FL","7xgb6axxfk","1368","912","de","rf07as06","null","","","","learningBlock1","","","","<div style=""font-size:60px;""> </div>","null","FL","learning/Slide2.JPG","That was a wug.","",""
"","image-keyboard-response","13","1516714","0.0-6.0-0.2","FL","7xgb6axxfk","1368","912","de","rf07as06","null","","","","","","","","learning/Slide3.JPG","null","","","","",""
"","html-keyboard-response","14","1517872","0.0-6.0-1.2","FL","7xgb6axxfk","1368","912","de","rf07as06","null","","","","learningBlock1","","","","That was a bim.","null","","","","",""
"","html-keyboard-response","15","1518879","0.0-6.0-2.2","FL","7xgb6axxfk","1368","912","de","rf07as06","null","","","","learningBlock1","","","","<div style=""font-size:60px;""> </div>","null","FL","learning/Slide3.JPG","That was a bim.","",""
"","image-keyboard-response","16","1519066","0.0-6.0-0.3","FL","7xgb6axxfk","1368","912","de","rf07as06","null","","","","","","","","learning/Slide4.JPG","null","","","","",""
"","html-keyboard-response","17","1520241","0.0-6.0-1.3","FL","7xgb6axxfk","1368","912","de","rf07as06","null","","","","learningBlock1","","","","That was a dep.","null","","","","",""
"","html-keyboard-response","18","1521244","0.0-6.0-2.3","FL","7xgb6axxfk","1368","912","de","rf07as06","null","","","","learningBlock1","","","","<div style=""font-size:60px;""> </div>","null","FL","learning/Slide4.JPG","That was a dep.","",""
"","image-keyboard-response","19","1521433","0.0-6.0-0.4","FL","7xgb6axxfk","1368","912","de","rf07as06","null","","","","","","","","learning/Slide5.JPG","null","","","","",""
"","html-keyboard-response","20","1522609","0.0-6.0-1.4","FL","7xgb6axxfk","1368","912","de","rf07as06","null","","","","learningBlock1","","","","That was a wug.","null","","","","",""
"","html-keyboard-response","21","1523625","0.0-6.0-2.4","FL","7xgb6axxfk","1368","912","de","rf07as06","null","","","","learningBlock1","","","","<div style=""font-size:60px;""> </div>","null","FL","learning/Slide5.JPG","That was a wug.","",""
"","image-keyboard-response","22","1523814","0.0-6.0-0.5","FL","7xgb6axxfk","1368","912","de","rf07as06","null","","","","","","","","learning/Slide6.JPG","null","","","","",""
"","html-keyboard-response","23","1524980","0.0-6.0-1.5","FL","7xgb6axxfk","1368","912","de","rf07as06","null","","","","learningBlock1","","","","That was a dep.","null","","","","",""
"","html-keyboard-response","24","1525984","0.0-6.0-2.5","FL","7xgb6axxfk","1368","912","de","rf07as06","null","","","","learningBlock1","","","","<div style=""font-size:60px;""> </div>","null","FL","learning/Slide6.JPG","That was a dep.","",""
"","image-keyboard-response","25","1526174","0.0-6.0-0.6","FL","7xgb6axxfk","1368","912","de","rf07as06","null","","","","","","","","learning/Slide7.JPG","null","","","","",""
"","html-keyboard-response","26","1527344","0.0-6.0-1.6","FL","7xgb6axxfk","1368","912","de","rf07as06","null","","","","learningBlock1","","","","That was a wug.","null","","","","",""
"","html-keyboard-response","27","1528351","0.0-6.0-2.6","FL","7xgb6axxfk","1368","912","de","rf07as06","null","","","","learningBlock1","","","","<div style=""font-size:60px;""> </div>","null","FL","learning/Slide7.JPG","That was a wug.","",""
"","image-keyboard-response","28","1528532","0.0-6.0-0.7","FL","7xgb6axxfk","1368","912","de","rf07as06","null","","","","","","","","learning/Slide8.JPG","null","","","","",""
"","html-keyboard-response","29","1529698","0.0-6.0-1.7","FL","7xgb6axxfk","1368","912","de","rf07as06","null","","","","learningBlock1","","","","That was a bim.","null","","","","",""
"","html-keyboard-response","30","1530707","0.0-6.0-2.7","FL","7xgb6axxfk","1368","912","de","rf07as06","null","","","","learningBlock1","","","","<div style=""font-size:60px;""> </div>","null","FL","learning/Slide8.JPG","That was a bim.","",""
"","image-keyboard-response","31","1530893","0.0-6.0-0.8","FL","7xgb6axxfk","1368","912","de","rf07as06","null","","","","","","","","learning/Slide9.JPG","null","","","","",""
"","html-keyboard-response","32","1532051","0.0-6.0-1.8","FL","7xgb6axxfk","1368","912","de","rf07as06","null","","","","learningBlock1","","","","That was a wug.","null","","","","",""
"","html-keyboard-response","33","1533058","0.0-6.0-2.8","FL","7xgb6axxfk","1368","912","de","rf07as06","null","","","","learningBlock1","","","","<div style=""font-size:60px;""> </div>","null","FL","learning/Slide9.JPG","That was a wug.","",""
"","image-keyboard-response","34","1533248","0.0-6.0-0.9","FL","7xgb6axxfk","1368","912","de","rf07as06","null","","","","","","","","learning/Slide10.JPG","null","","","","",""
"","html-keyboard-response","35","1534403","0.0-6.0-1.9","FL","7xgb6axxfk","1368","912","de","rf07as06","null","","","","learningBlock1","","","","That was a dep.","null","","","","",""
"","html-keyboard-response","36","1535408","0.0-6.0-2.9","FL","7xgb6axxfk","1368","912","de","rf07as06","null","","","","learningBlock1","","","","<div style=""font-size:60px;""> </div>","null","FL","learning/Slide10.JPG","That was a dep.","",""
"","image-keyboard-response","37","1535595","0.0-6.0-0.10","FL","7xgb6axxfk","1368","912","de","rf07as06","null","","","","","","","","learning/Slide11.JPG","null","","","","",""
"","html-keyboard-response","38","1536762","0.0-6.0-1.10","FL","7xgb6axxfk","1368","912","de","rf07as06","null","","","","learningBlock1","","","","That was a tob.","null","","","","",""
"","html-keyboard-response","39","1537766","0.0-6.0-2.10","FL","7xgb6axxfk","1368","912","de","rf07as06","null","","","","learningBlock1","","","","<div style=""font-size:60px;""> </div>","null","FL","learning/Slide11.JPG","That was a tob.","",""
"","image-keyboard-response","40","1537952","0.0-6.0-0.11","FL","7xgb6axxfk","1368","912","de","rf07as06","null","","","","","","","","learning/Slide12.JPG","null","","","","",""
"","html-keyboard-response","41","1539129","0.0-6.0-1.11","FL","7xgb6axxfk","1368","912","de","rf07as06","null","","","","learningBlock1","","","","That was a dep.","null","","","","",""
"","html-keyboard-response","42","1540140","0.0-6.0-2.11","FL","7xgb6axxfk","1368","912","de","rf07as06","null","","","","learningBlock1","","","","<div style=""font-size:60px;""> </div>","null","FL","learning/Slide12.JPG","That was a dep.","",""
"","image-keyboard-response","43","1540327","0.0-6.0-0.12","FL","7xgb6axxfk","1368","912","de","rf07as06","null","","","","","","","","learning/Slide13.JPG","null","","","","",""
"","html-keyboard-response","44","1541496","0.0-6.0-1.12","FL","7xgb6axxfk","1368","912","de","rf07as06","null","","","","learningBlock1","","","","That was a bim.","null","","","","",""
"","html-keyboard-response","45","1542501","0.0-6.0-2.12","FL","7xgb6axxfk","1368","912","de","rf07as06","null","","","","learningBlock1","","","","<div style=""font-size:60px;""> </div>","null","FL","learning/Slide13.JPG","That was a bim.","",""
"","image-keyboard-response","46","1542689","0.0-6.0-0.13","FL","7xgb6axxfk","1368","912","de","rf07as06","null","","","","","","","","learning/Slide14.JPG","null","","","","",""
"","html-keyboard-response","47","1543870","0.0-6.0-1.13","FL","7xgb6axxfk","1368","912","de","rf07as06","null","","","","learningBlock1","","","","That was a wug.","null","","","","",""
"","html-keyboard-response","48","1544883","0.0-6.0-2.13","FL","7xgb6axxfk","1368","912","de","rf07as06","null","","","","learningBlock1","","","","<div style=""font-size:60px;""> </div>","null","FL","learning/Slide14.JPG","That was a wug.","",""
"","image-keyboard-response","49","1545066","0.0-6.0-0.14","FL","7xgb6axxfk","1368","912","de","rf07as06","null","","","","","","","","learning/Slide15.JPG","null","","","","",""
"","html-keyboard-response","50","1546235","0.0-6.0-1.14","FL","7xgb6axxfk","1368","912","de","rf07as06","null","","","","learningBlock1","","","","That was a tob.","null","","","","",""
"","html-keyboard-response","51","1547252","0.0-6.0-2.14","FL","7xgb6axxfk","1368","912","de","rf07as06","null","","","","learningBlock1","","","","<div style=""font-size:60px;""> </div>","null","FL","learning/Slide15.JPG","That was a tob.","",""
"","image-keyboard-response","52","1547441","0.0-6.0-0.15","FL","7xgb6axxfk","1368","912","de","rf07as06","null","","","","","","","","learning/Slide16.JPG","null","","","","",""
"","html-keyboard-response","53","1548612","0.0-6.0-1.15","FL","7xgb6axxfk","1368","912","de","rf07as06","null","","","","learningBlock1","","","","That was a dep.","null","","","","",""
"","html-keyboard-response","54","1549618","0.0-6.0-2.15","FL","7xgb6axxfk","1368","912","de","rf07as06","null","","","","learningBlock1","","","","<div style=""font-size:60px;""> </div>","null","FL","learning/Slide16.JPG","That was a dep.","",""
"","image-keyboard-response","55","1549802","0.0-6.0-0.16","FL","7xgb6axxfk","1368","912","de","rf07as06","null","","","","","","","","learning/Slide17.JPG","null","","","","",""
"","html-keyboard-response","56","1550967","0.0-6.0-1.16","FL","7xgb6axxfk","1368","912","de","rf07as06","null","","","","learningBlock1","","","","That was a bim.","null","","","","",""
"","html-keyboard-response","57","1551976","0.0-6.0-2.16","FL","7xgb6axxfk","1368","912","de","rf07as06","null","","","","learningBlock1","","","","<div style=""font-size:60px;""> </div>","null","FL","learning/Slide17.JPG","That was a bim.","",""
"","image-keyboard-response","58","1552164","0.0-6.0-0.17","FL","7xgb6axxfk","1368","912","de","rf07as06","null","","","","","","","","learning/Slide18.JPG","null","","","","",""
"","html-keyboard-response","59","1553319","0.0-6.0-1.17","FL","7xgb6axxfk","1368","912","de","rf07as06","null","","","","learningBlock1","","","","That was a tob.","null","","","","",""
"","html-keyboard-response","60","1554336","0.0-6.0-2.17","FL","7xgb6axxfk","1368","912","de","rf07as06","null","","","","learningBlock1","","","","<div style=""font-size:60px;""> </div>","null","FL","learning/Slide18.JPG","That was a tob.","",""
"","image-keyboard-response","61","1554524","0.0-6.0-0.18","FL","7xgb6axxfk","1368","912","de","rf07as06","null","","","","","","","","learning/Slide19.JPG","null","","","","",""
"","html-keyboard-response","62","1555699","0.0-6.0-1.18","FL","7xgb6axxfk","1368","912","de","rf07as06","null","","","","learningBlock1","","","","That was a wug.","null","","","","",""
"","html-keyboard-response","63","1556708","0.0-6.0-2.18","FL","7xgb6axxfk","1368","912","de","rf07as06","null","","","","learningBlock1","","","","<div style=""font-size:60px;""> </div>","null","FL","learning/Slide19.JPG","That was a wug.","",""
"","image-keyboard-response","64","1556899","0.0-6.0-0.19","FL","7xgb6axxfk","1368","912","de","rf07as06","null","","","","","","","","learning/Slide20.JPG","null","","","","",""
"","html-keyboard-response","65","1558056","0.0-6.0-1.19","FL","7xgb6axxfk","1368","912","de","rf07as06","null","","","","learningBlock1","","","","That was a bim.","null","","","","",""
"","html-keyboard-response","66","1559068","0.0-6.0-2.19","FL","7xgb6axxfk","1368","912","de","rf07as06","null","","","","learningBlock1","","","","<div style=""font-size:60px;""> </div>","null","FL","learning/Slide20.JPG","That was a bim.","",""
"","image-keyboard-response","67","1559253","0.0-6.0-0.20","FL","7xgb6axxfk","1368","912","de","rf07as06","null","","","","","","","","learning/Slide21.JPG","null","","","","",""
"","html-keyboard-response","68","1560440","0.0-6.0-1.20","FL","7xgb6axxfk","1368","912","de","rf07as06","null","","","","learningBlock1","","","","That was a dep.","null","","","","",""
"","html-keyboard-response","69","1561460","0.0-6.0-2.20","FL","7xgb6axxfk","1368","912","de","rf07as06","null","","","","learningBlock1","","","","<div style=""font-size:60px;""> </div>","null","FL","learning/Slide21.JPG","That was a dep.","",""
"","image-keyboard-response","70","1561646","0.0-6.0-0.21","FL","7xgb6axxfk","1368","912","de","rf07as06","null","","","","","","","","learning/Slide22.JPG","null","","","","",""
"","html-keyboard-response","71","1562805","0.0-6.0-1.21","FL","7xgb6axxfk","1368","912","de","rf07as06","null","","","","learningBlock1","","","","That was a bim.","null","","","","",""
"","html-keyboard-response","72","1563815","0.0-6.0-2.21","FL","7xgb6axxfk","1368","912","de","rf07as06","null","","","","learningBlock1","","","","<div style=""font-size:60px;""> </div>","null","FL","learning/Slide22.JPG","That was a bim.","",""
"","image-keyboard-response","73","1563999","0.0-6.0-0.22","FL","7xgb6axxfk","1368","912","de","rf07as06","null","","","","","","","","learning/Slide23.JPG","null","","","","",""
"","html-keyboard-response","74","1565178","0.0-6.0-1.22","FL","7xgb6axxfk","1368","912","de","rf07as06","null","","","","learningBlock1","","","","That was a tob.","null","","","","",""
"","html-keyboard-response","75","1566184","0.0-6.0-2.22","FL","7xgb6axxfk","1368","912","de","rf07as06","null","","","","learningBlock1","","","","<div style=""font-size:60px;""> </div>","null","FL","learning/Slide23.JPG","That was a tob.","",""
"","image-keyboard-response","76","1566370","0.0-6.0-0.23","FL","7xgb6axxfk","1368","912","de","rf07as06","null","","","","","","","","learning/Slide24.JPG","null","","","","",""
"","html-keyboard-response","77","1567529","0.0-6.0-1.23","FL","7xgb6axxfk","1368","912","de","rf07as06","null","","","","learningBlock1","","","","That was a wug.","null","","","","",""
"","html-keyboard-response","78","1568532","0.0-6.0-2.23","FL","7xgb6axxfk","1368","912","de","rf07as06","null","","","","learningBlock1","","","","<div style=""font-size:60px;""> </div>","null","FL","learning/Slide24.JPG","That was a wug.","",""
"","image-keyboard-response","79","1568720","0.0-6.0-0.24","FL","7xgb6axxfk","1368","912","de","rf07as06","null","","","","","","","","learning/Slide25.JPG","null","","","","",""
"","html-keyboard-response","80","1569888","0.0-6.0-1.24","FL","7xgb6axxfk","1368","912","de","rf07as06","null","","","","learningBlock1","","","","That was a dep.","null","","","","",""
"","html-keyboard-response","81","1570893","0.0-6.0-2.24","FL","7xgb6axxfk","1368","912","de","rf07as06","null","","","","learningBlock1","","","","<div style=""font-size:60px;""> </div>","null","FL","learning/Slide25.JPG","That was a dep.","",""
"","image-keyboard-response","82","1571078","0.0-6.0-0.25","FL","7xgb6axxfk","1368","912","de","rf07as06","null","","","","","","","","learning/Slide26.JPG","null","","","","",""
"","html-keyboard-response","83","1572240","0.0-6.0-1.25","FL","7xgb6axxfk","1368","912","de","rf07as06","null","","","","learningBlock1","","","","That was a wug.","null","","","","",""
"","html-keyboard-response","84","1573244","0.0-6.0-2.25","FL","7xgb6axxfk","1368","912","de","rf07as06","null","","","","learningBlock1","","","","<div style=""font-size:60px;""> </div>","null","FL","learning/Slide26.JPG","That was a wug.","",""
"","image-keyboard-response","85","1573447","0.0-6.0-0.26","FL","7xgb6axxfk","1368","912","de","rf07as06","null","","","","","","","","learning/Slide27.JPG","null","","","","",""
"","html-keyboard-response","86","1574612","0.0-6.0-1.26","FL","7xgb6axxfk","1368","912","de","rf07as06","null","","","","learningBlock1","","","","That was a bim.","null","","","","",""
"","html-keyboard-response","87","1575629","0.0-6.0-2.26","FL","7xgb6axxfk","1368","912","de","rf07as06","null","","","","learningBlock1","","","","<div style=""font-size:60px;""> </div>","null","FL","learning/Slide27.JPG","That was a bim.","",""
"","image-keyboard-response","88","1575819","0.0-6.0-0.27","FL","7xgb6axxfk","1368","912","de","rf07as06","null","","","","","","","","learning/Slide28.JPG","null","","","","",""
"","html-keyboard-response","89","1576985","0.0-6.0-1.27","FL","7xgb6axxfk","1368","912","de","rf07as06","null","","","","learningBlock1","","","","That was a dep.","null","","","","",""
"","html-keyboard-response","90","1578001","0.0-6.0-2.27","FL","7xgb6axxfk","1368","912","de","rf07as06","null","","","","learningBlock1","","","","<div style=""font-size:60px;""> </div>","null","FL","learning/Slide28.JPG","That was a dep.","",""
"","image-keyboard-response","91","1578187","0.0-6.0-0.28","FL","7xgb6axxfk","1368","912","de","rf07as06","null","","","","","","","","learning/Slide29.JPG","null","","","","",""
"","html-keyboard-response","92","1579375","0.0-6.0-1.28","FL","7xgb6axxfk","1368","912","de","rf07as06","null","","","","learningBlock1","","","","That was a tob.","null","","","","",""
"","html-keyboard-response","93","1580388","0.0-6.0-2.28","FL","7xgb6axxfk","1368","912","de","rf07as06","null","","","","learningBlock1","","","","<div style=""font-size:60px;""> </div>","null","FL","learning/Slide29.JPG","That was a tob.","",""
"","image-keyboard-response","94","1580574","0.0-6.0-0.29","FL","7xgb6axxfk","1368","912","de","rf07as06","null","","","","","","","","learning/Slide30.JPG","null","","","","",""
"","html-keyboard-response","95","1581739","0.0-6.0-1.29","FL","7xgb6axxfk","1368","912","de","rf07as06","null","","","","learningBlock1","","","","That was a dep.","null","","","","",""
"","html-keyboard-response","96","1582756","0.0-6.0-2.29","FL","7xgb6axxfk","1368","912","de","rf07as06","null","","","","learningBlock1","","","","<div style=""font-size:60px;""> </div>","null","FL","learning/Slide30.JPG","That was a dep.","",""
"","image-keyboard-response","97","1582938","0.0-6.0-0.30","FL","7xgb6axxfk","1368","912","de","rf07as06","null","","","","","","","","learning/Slide31.JPG","null","","","","",""
"","html-keyboard-response","98","1584110","0.0-6.0-1.30","FL","7xgb6axxfk","1368","912","de","rf07as06","null","","","","learningBlock1","","","","That was a wug.","null","","","","",""
"","html-keyboard-response","99","1585122","0.0-6.0-2.30","FL","7xgb6axxfk","1368","912","de","rf07as06","null","","","","learningBlock1","","","","<div style=""font-size:60px;""> </div>","null","FL","learning/Slide31.JPG","That was a wug.","",""
"","image-keyboard-response","100","1585309","0.0-6.0-0.31","FL","7xgb6axxfk","1368","912","de","rf07as06","null","","","","","","","","learning/Slide32.JPG","null","","","","",""
"","html-keyboard-response","101","1586491","0.0-6.0-1.31","FL","7xgb6axxfk","1368","912","de","rf07as06","null","","","","learningBlock1","","","","That was a tob.","null","","","","",""
"","html-keyboard-response","102","1587511","0.0-6.0-2.31","FL","7xgb6axxfk","1368","912","de","rf07as06","null","","","","learningBlock1","","","","<div style=""font-size:60px;""> </div>","null","FL","learning/Slide32.JPG","That was a tob.","",""
"","image-keyboard-response","103","1587695","0.0-6.0-0.32","FL","7xgb6axxfk","1368","912","de","rf07as06","null","","","","","","","","learning/Slide33.JPG","null","","","","",""
"","html-keyboard-response","104","1588857","0.0-6.0-1.32","FL","7xgb6axxfk","1368","912","de","rf07as06","null","","","","learningBlock1","","","","That was a bim.","null","","","","",""
"","html-keyboard-response","105","1589861","0.0-6.0-2.32","FL","7xgb6axxfk","1368","912","de","rf07as06","null","","","","learningBlock1","","","","<div style=""font-size:60px;""> </div>","null","FL","learning/Slide33.JPG","That was a bim.","",""
"","image-keyboard-response","106","1590047","0.0-6.0-0.33","FL","7xgb6axxfk","1368","912","de","rf07as06","null","","","","","","","","learning/Slide34.JPG","null","","","","",""
"","html-keyboard-response","107","1591227","0.0-6.0-1.33","FL","7xgb6axxfk","1368","912","de","rf07as06","null","","","","learningBlock1","","","","That was a tob.","null","","","","",""
"","html-keyboard-response","108","1592233","0.0-6.0-2.33","FL","7xgb6axxfk","1368","912","de","rf07as06","null","","","","learningBlock1","","","","<div style=""font-size:60px;""> </div>","null","FL","learning/Slide34.JPG","That was a tob.","",""
"","image-keyboard-response","109","1592410","0.0-6.0-0.34","FL","7xgb6axxfk","1368","912","de","rf07as06","null","","","","","","","","learning/Slide35.JPG","null","","","","",""
"","html-keyboard-response","110","1593582","0.0-6.0-1.34","FL","7xgb6axxfk","1368","912","de","rf07as06","null","","","","learningBlock1","","","","That was a bim.","null","","","","",""
"","html-keyboard-response","111","1594599","0.0-6.0-2.34","FL","7xgb6axxfk","1368","912","de","rf07as06","null","","","","learningBlock1","","","","<div style=""font-size:60px;""> </div>","null","FL","learning/Slide35.JPG","That was a bim.","",""
"","image-keyboard-response","112","1594787","0.0-6.0-0.35","FL","7xgb6axxfk","1368","912","de","rf07as06","null","","","","","","","","learning/Slide36.JPG","null","","","","",""
"","html-keyboard-response","113","1595945","0.0-6.0-1.35","FL","7xgb6axxfk","1368","912","de","rf07as06","null","","","","learningBlock1","","","","That was a dep.","null","","","","",""
"","html-keyboard-response","114","1596950","0.0-6.0-2.35","FL","7xgb6axxfk","1368","912","de","rf07as06","null","","","","learningBlock1","","","","<div style=""font-size:60px;""> </div>","null","FL","learning/Slide36.JPG","That was a dep.","",""
"","image-keyboard-response","115","1597136","0.0-6.0-0.36","FL","7xgb6axxfk","1368","912","de","rf07as06","null","","","","","","","","learning/Slide37.JPG","null","","","","",""
"","html-keyboard-response","116","1598299","0.0-6.0-1.36","FL","7xgb6axxfk","1368","912","de","rf07as06","null","","","","learningBlock1","","","","That was a tob.","null","","","","",""
"","html-keyboard-response","117","1599318","0.0-6.0-2.36","FL","7xgb6axxfk","1368","912","de","rf07as06","null","","","","learningBlock1","","","","<div style=""font-size:60px;""> </div>","null","FL","learning/Slide37.JPG","That was a tob.","",""
"","image-keyboard-response","118","1599505","0.0-6.0-0.37","FL","7xgb6axxfk","1368","912","de","rf07as06","null","","","","","","","","learning/Slide38.JPG","null","","","","",""
"","html-keyboard-response","119","1600676","0.0-6.0-1.37","FL","7xgb6axxfk","1368","912","de","rf07as06","null","","","","learningBlock1","","","","That was a wug.","null","","","","",""
"","html-keyboard-response","120","1601694","0.0-6.0-2.37","FL","7xgb6axxfk","1368","912","de","rf07as06","null","","","","learningBlock1","","","","<div style=""font-size:60px;""> </div>","null","FL","learning/Slide38.JPG","That was a wug.","",""
"","image-keyboard-response","121","1601881","0.0-6.0-0.38","FL","7xgb6axxfk","1368","912","de","rf07as06","null","","","","","","","","learning/Slide39.JPG","null","","","","",""
"","html-keyboard-response","122","1603034","0.0-6.0-1.38","FL","7xgb6axxfk","1368","912","de","rf07as06","null","","","","learningBlock1","","","","That was a bim.","null","","","","",""
"","html-keyboard-response","123","1604037","0.0-6.0-2.38","FL","7xgb6axxfk","1368","912","de","rf07as06","null","","","","learningBlock1","","","","<div style=""font-size:60px;""> </div>","null","FL","learning/Slide39.JPG","That was a bim.","",""
"","image-keyboard-response","124","1604222","0.0-6.0-0.39","FL","7xgb6axxfk","1368","912","de","rf07as06","null","","","","","","","","learning/Slide40.JPG","null","","","","",""
"","html-keyboard-response","125","1605393","0.0-6.0-1.39","FL","7xgb6axxfk","1368","912","de","rf07as06","null","","","","learningBlock1","","","","That was a tob.","null","","","","",""
"","html-keyboard-response","126","1606403","0.0-6.0-2.39","FL","7xgb6axxfk","1368","912","de","rf07as06","null","","","","learningBlock1","","","","<div style=""font-size:60px;""> </div>","null","FL","learning/Slide40.JPG","That was a tob.","",""
"","image-keyboard-response","127","1606592","0.0-6.0-0.40","FL","7xgb6axxfk","1368","912","de","rf07as06","null","","","","","","","","learning/Slide41.JPG","null","","","","",""
"","html-keyboard-response","128","1607759","0.0-6.0-1.40","FL","7xgb6axxfk","1368","912","de","rf07as06","null","","","","learningBlock1","","","","That was a bim.","null","","","","",""
"","html-keyboard-response","129","1608762","0.0-6.0-2.40","FL","7xgb6axxfk","1368","912","de","rf07as06","null","","","","learningBlock1","","","","<div style=""font-size:60px;""> </div>","null","FL","learning/Slide41.JPG","That was a bim.","",""
"","image-keyboard-response","130","1608951","0.0-6.0-0.41","FL","7xgb6axxfk","1368","912","de","rf07as06","null","","","","","","","","learning/Slide42.JPG","null","","","","",""
"","html-keyboard-response","131","1610108","0.0-6.0-1.41","FL","7xgb6axxfk","1368","912","de","rf07as06","null","","","","learningBlock1","","","","That was a dep.","null","","","","",""
"","html-keyboard-response","132","1611124","0.0-6.0-2.41","FL","7xgb6axxfk","1368","912","de","rf07as06","null","","","","learningBlock1","","","","<div style=""font-size:60px;""> </div>","null","FL","learning/Slide42.JPG","That was a dep.","",""
"","image-keyboard-response","133","1611309","0.0-6.0-0.42","FL","7xgb6axxfk","1368","912","de","rf07as06","null","","","","","","","","learning/Slide43.JPG","null","","","","",""
"","html-keyboard-response","134","1612473","0.0-6.0-1.42","FL","7xgb6axxfk","1368","912","de","rf07as06","null","","","","learningBlock1","","","","That was a wug.","null","","","","",""
"","html-keyboard-response","135","1613475","0.0-6.0-2.42","FL","7xgb6axxfk","1368","912","de","rf07as06","null","","","","learningBlock1","","","","<div style=""font-size:60px;""> </div>","null","FL","learning/Slide43.JPG","That was a wug.","",""
"","image-keyboard-response","136","1613660","0.0-6.0-0.43","FL","7xgb6axxfk","1368","912","de","rf07as06","null","","","","","","","","learning/Slide44.JPG","null","","","","",""
"","html-keyboard-response","137","1614820","0.0-6.0-1.43","FL","7xgb6axxfk","1368","912","de","rf07as06","null","","","","learningBlock1","","","","That was a bim.","null","","","","",""
"","html-keyboard-response","138","1615836","0.0-6.0-2.43","FL","7xgb6axxfk","1368","912","de","rf07as06","null","","","","learningBlock1","","","","<div style=""font-size:60px;""> </div>","null","FL","learning/Slide44.JPG","That was a bim.","",""
"","image-keyboard-response","139","1616022","0.0-6.0-0.44","FL","7xgb6axxfk","1368","912","de","rf07as06","null","","","","","","","","learning/Slide45.JPG","null","","","","",""
"","html-keyboard-response","140","1617182","0.0-6.0-1.44","FL","7xgb6axxfk","1368","912","de","rf07as06","null","","","","learningBlock1","","","","That was a wug.","null","","","","",""
"","html-keyboard-response","141","1618185","0.0-6.0-2.44","FL","7xgb6axxfk","1368","912","de","rf07as06","null","","","","learningBlock1","","","","<div style=""font-size:60px;""> </div>","null","FL","learning/Slide45.JPG","That was a wug.","",""
"","image-keyboard-response","142","1618367","0.0-6.0-0.45","FL","7xgb6axxfk","1368","912","de","rf07as06","null","","","","","","","","learning/Slide46.JPG","null","","","","",""
"","html-keyboard-response","143","1619537","0.0-6.0-1.45","FL","7xgb6axxfk","1368","912","de","rf07as06","null","","","","learningBlock1","","","","That was a dep.","null","","","","",""
"","html-keyboard-response","144","1620541","0.0-6.0-2.45","FL","7xgb6axxfk","1368","912","de","rf07as06","null","","","","learningBlock1","","","","<div style=""font-size:60px;""> </div>","null","FL","learning/Slide46.JPG","That was a dep.","",""
"","image-keyboard-response","145","1620726","0.0-6.0-0.46","FL","7xgb6axxfk","1368","912","de","rf07as06","null","","","","","","","","learning/Slide47.JPG","null","","","","",""
"","html-keyboard-response","146","1621898","0.0-6.0-1.46","FL","7xgb6axxfk","1368","912","de","rf07as06","null","","","","learningBlock1","","","","That was a tob.","null","","","","",""
"","html-keyboard-response","147","1622903","0.0-6.0-2.46","FL","7xgb6axxfk","1368","912","de","rf07as06","null","","","","learningBlock1","","","","<div style=""font-size:60px;""> </div>","null","FL","learning/Slide47.JPG","That was a tob.","",""
"","image-keyboard-response","148","1623089","0.0-6.0-0.47","FL","7xgb6axxfk","1368","912","de","rf07as06","null","","","","","","","","learning/Slide48.JPG","null","","","","",""
"","html-keyboard-response","149","1624257","0.0-6.0-1.47","FL","7xgb6axxfk","1368","912","de","rf07as06","null","","","","learningBlock1","","","","That was a bim.","null","","","","",""
"","html-keyboard-response","150","1625263","0.0-6.0-2.47","FL","7xgb6axxfk","1368","912","de","rf07as06","null","","","","learningBlock1","","","","<div style=""font-size:60px;""> </div>","null","FL","learning/Slide48.JPG","That was a bim.","",""
"","image-keyboard-response","151","1625451","0.0-6.0-0.48","FL","7xgb6axxfk","1368","912","de","rf07as06","null","","","","","","","","learning/Slide49.JPG","null","","","","",""
"","html-keyboard-response","152","1626616","0.0-6.0-1.48","FL","7xgb6axxfk","1368","912","de","rf07as06","null","","","","learningBlock1","","","","That was a dep.","null","","","","",""
"","html-keyboard-response","153","1627628","0.0-6.0-2.48","FL","7xgb6axxfk","1368","912","de","rf07as06","null","","","","learningBlock1","","","","<div style=""font-size:60px;""> </div>","null","FL","learning/Slide49.JPG","That was a dep.","",""
"","image-keyboard-response","154","1627814","0.0-6.0-0.49","FL","7xgb6axxfk","1368","912","de","rf07as06","null","","","","","","","","learning/Slide50.JPG","null","","","","",""
"","html-keyboard-response","155","1628985","0.0-6.0-1.49","FL","7xgb6axxfk","1368","912","de","rf07as06","null","","","","learningBlock1","","","","That was a tob.","null","","","","",""
"","html-keyboard-response","156","1629996","0.0-6.0-2.49","FL","7xgb6axxfk","1368","912","de","rf07as06","null","","","","learningBlock1","","","","<div style=""font-size:60px;""> </div>","null","FL","learning/Slide50.JPG","That was a tob.","",""
"","image-keyboard-response","157","1630184","0.0-6.0-0.50","FL","7xgb6axxfk","1368","912","de","rf07as06","null","","","","","","","","learning/Slide51.JPG","null","","","","",""
"","html-keyboard-response","158","1631339","0.0-6.0-1.50","FL","7xgb6axxfk","1368","912","de","rf07as06","null","","","","learningBlock1","","","","That was a bim.","null","","","","",""
"","html-keyboard-response","159","1632354","0.0-6.0-2.50","FL","7xgb6axxfk","1368","912","de","rf07as06","null","","","","learningBlock1","","","","<div style=""font-size:60px;""> </div>","null","FL","learning/Slide51.JPG","That was a bim.","",""
"","image-keyboard-response","160","1632535","0.0-6.0-0.51","FL","7xgb6axxfk","1368","912","de","rf07as06","null","","","","","","","","learning/Slide52.JPG","null","","","","",""
"","html-keyboard-response","161","1633704","0.0-6.0-1.51","FL","7xgb6axxfk","1368","912","de","rf07as06","null","","","","learningBlock1","","","","That was a wug.","null","","","","",""
"","html-keyboard-response","162","1634716","0.0-6.0-2.51","FL","7xgb6axxfk","1368","912","de","rf07as06","null","","","","learningBlock1","","","","<div style=""font-size:60px;""> </div>","null","FL","learning/Slide52.JPG","That was a wug.","",""
"","image-keyboard-response","163","1634902","0.0-6.0-0.52","FL","7xgb6axxfk","1368","912","de","rf07as06","null","","","","","","","","learning/Slide53.JPG","null","","","","",""
"","html-keyboard-response","164","1636066","0.0-6.0-1.52","FL","7xgb6axxfk","1368","912","de","rf07as06","null","","","","learningBlock1","","","","That was a tob.","null","","","","",""
"","html-keyboard-response","165","1637091","0.0-6.0-2.52","FL","7xgb6axxfk","1368","912","de","rf07as06","null","","","","learningBlock1","","","","<div style=""font-size:60px;""> </div>","null","FL","learning/Slide53.JPG","That was a tob.","",""
"","image-keyboard-response","166","1637278","0.0-6.0-0.53","FL","7xgb6axxfk","1368","912","de","rf07as06","null","","","","","","","","learning/Slide54.JPG","null","","","","",""
"","html-keyboard-response","167","1638436","0.0-6.0-1.53","FL","7xgb6axxfk","1368","912","de","rf07as06","null","","","","learningBlock1","","","","That was a dep.","null","","","","",""
"","html-keyboard-response","168","1639447","0.0-6.0-2.53","FL","7xgb6axxfk","1368","912","de","rf07as06","null","","","","learningBlock1","","","","<div style=""font-size:60px;""> </div>","null","FL","learning/Slide54.JPG","That was a dep.","",""
"","image-keyboard-response","169","1639634","0.0-6.0-0.54","FL","7xgb6axxfk","1368","912","de","rf07as06","null","","","","","","","","learning/Slide55.JPG","null","","","","",""
"","html-keyboard-response","170","1640807","0.0-6.0-1.54","FL","7xgb6axxfk","1368","912","de","rf07as06","null","","","","learningBlock1","","","","That was a bim.","null","","","","",""
"","html-keyboard-response","171","1641818","0.0-6.0-2.54","FL","7xgb6axxfk","1368","912","de","rf07as06","null","","","","learningBlock1","","","","<div style=""font-size:60px;""> </div>","null","FL","learning/Slide55.JPG","That was a bim.","",""
"","image-keyboard-response","172","1642007","0.0-6.0-0.55","FL","7xgb6axxfk","1368","912","de","rf07as06","null","","","","","","","","learning/Slide56.JPG","null","","","","",""
"","html-keyboard-response","173","1643171","0.0-6.0-1.55","FL","7xgb6axxfk","1368","912","de","rf07as06","null","","","","learningBlock1","","","","That was a tob.","null","","","","",""
"","html-keyboard-response","174","1644186","0.0-6.0-2.55","FL","7xgb6axxfk","1368","912","de","rf07as06","null","","","","learningBlock1","","","","<div style=""font-size:60px;""> </div>","null","FL","learning/Slide56.JPG","That was a tob.","",""
"","image-keyboard-response","175","1644371","0.0-6.0-0.56","FL","7xgb6axxfk","1368","912","de","rf07as06","null","","","","","","","","learning/Slide57.JPG","null","","","","",""
"","html-keyboard-response","176","1645529","0.0-6.0-1.56","FL","7xgb6axxfk","1368","912","de","rf07as06","null","","","","learningBlock1","","","","That was a dep.","null","","","","",""
"","html-keyboard-response","177","1646532","0.0-6.0-2.56","FL","7xgb6axxfk","1368","912","de","rf07as06","null","","","","learningBlock1","","","","<div style=""font-size:60px;""> </div>","null","FL","learning/Slide57.JPG","That was a dep.","",""
"","image-keyboard-response","178","1646719","0.0-6.0-0.57","FL","7xgb6axxfk","1368","912","de","rf07as06","null","","","","","","","","learning/Slide58.JPG","null","","","","",""
"","html-keyboard-response","179","1647878","0.0-6.0-1.57","FL","7xgb6axxfk","1368","912","de","rf07as06","null","","","","learningBlock1","","","","That was a wug.","null","","","","",""
"","html-keyboard-response","180","1648882","0.0-6.0-2.57","FL","7xgb6axxfk","1368","912","de","rf07as06","null","","","","learningBlock1","","","","<div style=""font-size:60px;""> </div>","null","FL","learning/Slide58.JPG","That was a wug.","",""
"","image-keyboard-response","181","1649071","0.0-6.0-0.58","FL","7xgb6axxfk","1368","912","de","rf07as06","null","","","","","","","","learning/Slide59.JPG","null","","","","",""
"","html-keyboard-response","182","1650250","0.0-6.0-1.58","FL","7xgb6axxfk","1368","912","de","rf07as06","null","","","","learningBlock1","","","","That was a dep.","null","","","","",""
"","html-keyboard-response","183","1651267","0.0-6.0-2.58","FL","7xgb6axxfk","1368","912","de","rf07as06","null","","","","learningBlock1","","","","<div style=""font-size:60px;""> </div>","null","FL","learning/Slide59.JPG","That was a dep.","",""
"","image-keyboard-response","184","1651452","0.0-6.0-0.59","FL","7xgb6axxfk","1368","912","de","rf07as06","null","","","","","","","","learning/Slide60.JPG","null","","","","",""
"","html-keyboard-response","185","1652610","0.0-6.0-1.59","FL","7xgb6axxfk","1368","912","de","rf07as06","null","","","","learningBlock1","","","","That was a wug.","null","","","","",""
"","html-keyboard-response","186","1653616","0.0-6.0-2.59","FL","7xgb6axxfk","1368","912","de","rf07as06","null","","","","learningBlock1","","","","<div style=""font-size:60px;""> </div>","null","FL","learning/Slide60.JPG","That was a wug.","",""
"","image-keyboard-response","187","1653803","0.0-6.0-0.60","FL","7xgb6axxfk","1368","912","de","rf07as06","null","","","","","","","","learning/Slide61.JPG","null","","","","",""
"","html-keyboard-response","188","1654972","0.0-6.0-1.60","FL","7xgb6axxfk","1368","912","de","rf07as06","null","","","","learningBlock1","","","","That was a bim.","null","","","","",""
"","html-keyboard-response","189","1655976","0.0-6.0-2.60","FL","7xgb6axxfk","1368","912","de","rf07as06","null","","","","learningBlock1","","","","<div style=""font-size:60px;""> </div>","null","FL","learning/Slide61.JPG","That was a bim.","",""
"","image-keyboard-response","190","1656165","0.0-6.0-0.61","FL","7xgb6axxfk","1368","912","de","rf07as06","null","","","","","","","","learning/Slide62.JPG","null","","","","",""
"","html-keyboard-response","191","1657338","0.0-6.0-1.61","FL","7xgb6axxfk","1368","912","de","rf07as06","null","","","","learningBlock1","","","","That was a dep.","null","","","","",""
"","html-keyboard-response","192","1658346","0.0-6.0-2.61","FL","7xgb6axxfk","1368","912","de","rf07as06","null","","","","learningBlock1","","","","<div style=""font-size:60px;""> </div>","null","FL","learning/Slide62.JPG","That was a dep.","",""
"","image-keyboard-response","193","1658534","0.0-6.0-0.62","FL","7xgb6axxfk","1368","912","de","rf07as06","null","","","","","","","","learning/Slide63.JPG","null","","","","",""
"","html-keyboard-response","194","1659711","0.0-6.0-1.62","FL","7xgb6axxfk","1368","912","de","rf07as06","null","","","","learningBlock1","","","","That was a bim.","null","","","","",""
"","html-keyboard-response","195","1660728","0.0-6.0-2.62","FL","7xgb6axxfk","1368","912","de","rf07as06","null","","","","learningBlock1","","","","<div style=""font-size:60px;""> </div>","null","FL","learning/Slide63.JPG","That was a bim.","",""
"","image-keyboard-response","196","1660916","0.0-6.0-0.63","FL","7xgb6axxfk","1368","912","de","rf07as06","null","","","","","","","","learning/Slide64.JPG","null","","","","",""
"","html-keyboard-response","197","1662072","0.0-6.0-1.63","FL","7xgb6axxfk","1368","912","de","rf07as06","null","","","","learningBlock1","","","","That was a tob.","null","","","","",""
"","html-keyboard-response","198","1663081","0.0-6.0-2.63","FL","7xgb6axxfk","1368","912","de","rf07as06","null","","","","learningBlock1","","","","<div style=""font-size:60px;""> </div>","null","FL","learning/Slide64.JPG","That was a tob.","",""
"","image-keyboard-response","199","1663268","0.0-6.0-0.64","FL","7xgb6axxfk","1368","912","de","rf07as06","null","","","","","","","","learning/Slide65.JPG","null","","","","",""
"","html-keyboard-response","200","1664433","0.0-6.0-1.64","FL","7xgb6axxfk","1368","912","de","rf07as06","null","","","","learningBlock1","","","","That was a wug.","null","","","","",""
"","html-keyboard-response","201","1665444","0.0-6.0-2.64","FL","7xgb6axxfk","1368","912","de","rf07as06","null","","","","learningBlock1","","","","<div style=""font-size:60px;""> </div>","null","FL","learning/Slide65.JPG","That was a wug.","",""
"","image-keyboard-response","202","1665631","0.0-6.0-0.65","FL","7xgb6axxfk","1368","912","de","rf07as06","null","","","","","","","","learning/Slide66.JPG","null","","","","",""
"","html-keyboard-response","203","1666807","0.0-6.0-1.65","FL","7xgb6axxfk","1368","912","de","rf07as06","null","","","","learningBlock1","","","","That was a dep.","null","","","","",""
"","html-keyboard-response","204","1667815","0.0-6.0-2.65","FL","7xgb6axxfk","1368","912","de","rf07as06","null","","","","learningBlock1","","","","<div style=""font-size:60px;""> </div>","null","FL","learning/Slide66.JPG","That was a dep.","",""
"","image-keyboard-response","205","1668002","0.0-6.0-0.66","FL","7xgb6axxfk","1368","912","de","rf07as06","null","","","","","","","","learning/Slide67.JPG","null","","","","",""
"","html-keyboard-response","206","1669162","0.0-6.0-1.66","FL","7xgb6axxfk","1368","912","de","rf07as06","null","","","","learningBlock1","","","","That was a tob.","null","","","","",""
"","html-keyboard-response","207","1670170","0.0-6.0-2.66","FL","7xgb6axxfk","1368","912","de","rf07as06","null","","","","learningBlock1","","","","<div style=""font-size:60px;""> </div>","null","FL","learning/Slide67.JPG","That was a tob.","",""
"","image-keyboard-response","208","1670356","0.0-6.0-0.67","FL","7xgb6axxfk","1368","912","de","rf07as06","null","","","","","","","","learning/Slide68.JPG","null","","","","",""
"","html-keyboard-response","209","1671517","0.0-6.0-1.67","FL","7xgb6axxfk","1368","912","de","rf07as06","null","","","","learningBlock1","","","","That was a wug.","null","","","","",""
"","html-keyboard-response","210","1672521","0.0-6.0-2.67","FL","7xgb6axxfk","1368","912","de","rf07as06","null","","","","learningBlock1","","","","<div style=""font-size:60px;""> </div>","null","FL","learning/Slide68.JPG","That was a wug.","",""
"","image-keyboard-response","211","1672709","0.0-6.0-0.68","FL","7xgb6axxfk","1368","912","de","rf07as06","null","","","","","","","","learning/Slide69.JPG","null","","","","",""
"","html-keyboard-response","212","1673877","0.0-6.0-1.68","FL","7xgb6axxfk","1368","912","de","rf07as06","null","","","","learningBlock1","","","","That was a tob.","null","","","","",""
"","html-keyboard-response","213","1674887","0.0-6.0-2.68","FL","7xgb6axxfk","1368","912","de","rf07as06","null","","","","learningBlock1","","","","<div style=""font-size:60px;""> </div>","null","FL","learning/Slide69.JPG","That was a tob.","",""
"","image-keyboard-response","214","1675080","0.0-6.0-0.69","FL","7xgb6axxfk","1368","912","de","rf07as06","null","","","","","","","","learning/Slide70.JPG","null","","","","",""
"","html-keyboard-response","215","1676248","0.0-6.0-1.69","FL","7xgb6axxfk","1368","912","de","rf07as06","null","","","","learningBlock1","","","","That was a dep.","null","","","","",""
"","html-keyboard-response","216","1677258","0.0-6.0-2.69","FL","7xgb6axxfk","1368","912","de","rf07as06","null","","","","learningBlock1","","","","<div style=""font-size:60px;""> </div>","null","FL","learning/Slide70.JPG","That was a dep.","",""
"","image-keyboard-response","217","1677444","0.0-6.0-0.70","FL","7xgb6axxfk","1368","912","de","rf07as06","null","","","","","","","","learning/Slide71.JPG","null","","","","",""
"","html-keyboard-response","218","1678598","0.0-6.0-1.70","FL","7xgb6axxfk","1368","912","de","rf07as06","null","","","","learningBlock1","","","","That was a wug.","null","","","","",""
"","html-keyboard-response","219","1679607","0.0-6.0-2.70","FL","7xgb6axxfk","1368","912","de","rf07as06","null","","","","learningBlock1","","","","<div style=""font-size:60px;""> </div>","null","FL","learning/Slide71.JPG","That was a wug.","",""
"","image-keyboard-response","220","1679791","0.0-6.0-0.71","FL","7xgb6axxfk","1368","912","de","rf07as06","null","","","","","","","","learning/Slide72.JPG","null","","","","",""
"","html-keyboard-response","221","1680964","0.0-6.0-1.71","FL","7xgb6axxfk","1368","912","de","rf07as06","null","","","","learningBlock1","","","","That was a bim.","null","","","","",""
"","html-keyboard-response","222","1681973","0.0-6.0-2.71","FL","7xgb6axxfk","1368","912","de","rf07as06","null","","","","learningBlock1","","","","<div style=""font-size:60px;""> </div>","null","FL","learning/Slide72.JPG","That was a bim.","",""
"","image-keyboard-response","223","1682157","0.0-6.0-0.72","FL","7xgb6axxfk","1368","912","de","rf07as06","null","","","","","","","","learning/Slide73.JPG","null","","","","",""
"","html-keyboard-response","224","1683322","0.0-6.0-1.72","FL","7xgb6axxfk","1368","912","de","rf07as06","null","","","","learningBlock1","","","","That was a wug.","null","","","","",""
"","html-keyboard-response","225","1684327","0.0-6.0-2.72","FL","7xgb6axxfk","1368","912","de","rf07as06","null","","","","learningBlock1","","","","<div style=""font-size:60px;""> </div>","null","FL","learning/Slide73.JPG","That was a wug.","",""
"","image-keyboard-response","226","1684515","0.0-6.0-0.73","FL","7xgb6axxfk","1368","912","de","rf07as06","null","","","","","","","","learning/Slide74.JPG","null","","","","",""
"","html-keyboard-response","227","1685686","0.0-6.0-1.73","FL","7xgb6axxfk","1368","912","de","rf07as06","null","","","","learningBlock1","","","","That was a dep.","null","","","","",""
"","html-keyboard-response","228","1686701","0.0-6.0-2.73","FL","7xgb6axxfk","1368","912","de","rf07as06","null","","","","learningBlock1","","","","<div style=""font-size:60px;""> </div>","null","FL","learning/Slide74.JPG","That was a dep.","",""
"","image-keyboard-response","229","1686893","0.0-6.0-0.74","FL","7xgb6axxfk","1368","912","de","rf07as06","null","","","","","","","","learning/Slide75.JPG","null","","","","",""
"","html-keyboard-response","230","1688050","0.0-6.0-1.74","FL","7xgb6axxfk","1368","912","de","rf07as06","null","","","","learningBlock1","","","","That was a tob.","null","","","","",""
"","html-keyboard-response","231","1689056","0.0-6.0-2.74","FL","7xgb6axxfk","1368","912","de","rf07as06","null","","","","learningBlock1","","","","<div style=""font-size:60px;""> </div>","null","FL","learning/Slide75.JPG","That was a tob.","",""
"","image-keyboard-response","232","1689241","0.0-6.0-0.75","FL","7xgb6axxfk","1368","912","de","rf07as06","null","","","","","","","","learning/Slide76.JPG","null","","","","",""
"","html-keyboard-response","233","1690408","0.0-6.0-1.75","FL","7xgb6axxfk","1368","912","de","rf07as06","null","","","","learningBlock1","","","","That was a bim.","null","","","","",""
"","html-keyboard-response","234","1691419","0.0-6.0-2.75","FL","7xgb6axxfk","1368","912","de","rf07as06","null","","","","learningBlock1","","","","<div style=""font-size:60px;""> </div>","null","FL","learning/Slide76.JPG","That was a bim.","",""
"","image-keyboard-response","235","1691605","0.0-6.0-0.76","FL","7xgb6axxfk","1368","912","de","rf07as06","null","","","","","","","","learning/Slide77.JPG","null","","","","",""
"","html-keyboard-response","236","1692775","0.0-6.0-1.76","FL","7xgb6axxfk","1368","912","de","rf07as06","null","","","","learningBlock1","","","","That was a tob.","null","","","","",""
"","html-keyboard-response","237","1693792","0.0-6.0-2.76","FL","7xgb6axxfk","1368","912","de","rf07as06","null","","","","learningBlock1","","","","<div style=""font-size:60px;""> </div>","null","FL","learning/Slide77.JPG","That was a tob.","",""
"","image-keyboard-response","238","1693979","0.0-6.0-0.77","FL","7xgb6axxfk","1368","912","de","rf07as06","null","","","","","","","","learning/Slide78.JPG","null","","","","",""
"","html-keyboard-response","239","1695147","0.0-6.0-1.77","FL","7xgb6axxfk","1368","912","de","rf07as06","null","","","","learningBlock1","","","","That was a wug.","null","","","","",""
"","html-keyboard-response","240","1696179","0.0-6.0-2.77","FL","7xgb6axxfk","1368","912","de","rf07as06","null","","","","learningBlock1","","","","<div style=""font-size:60px;""> </div>","null","FL","learning/Slide78.JPG","That was a wug.","",""
"","image-keyboard-response","241","1696366","0.0-6.0-0.78","FL","7xgb6axxfk","1368","912","de","rf07as06","null","","","","","","","","learning/Slide79.JPG","null","","","","",""
"","html-keyboard-response","242","1697542","0.0-6.0-1.78","FL","7xgb6axxfk","1368","912","de","rf07as06","null","","","","learningBlock1","","","","That was a bim.","null","","","","",""
"","html-keyboard-response","243","1698545","0.0-6.0-2.78","FL","7xgb6axxfk","1368","912","de","rf07as06","null","","","","learningBlock1","","","","<div style=""font-size:60px;""> </div>","null","FL","learning/Slide79.JPG","That was a bim.","",""
"","image-keyboard-response","244","1698735","0.0-6.0-0.79","FL","7xgb6axxfk","1368","912","de","rf07as06","null","","","","","","","","learning/Slide80.JPG","null","","","","",""
"","html-keyboard-response","245","1699895","0.0-6.0-1.79","FL","7xgb6axxfk","1368","912","de","rf07as06","null","","","","learningBlock1","","","","That was a tob.","null","","","","",""
"","html-keyboard-response","246","1700912","0.0-6.0-2.79","FL","7xgb6axxfk","1368","912","de","rf07as06","null","","","","learningBlock1","","","","<div style=""font-size:60px;""> </div>","null","FL","learning/Slide80.JPG","That was a tob.","",""
"","instructions","247","1719273","0.0-7.0","FL","7xgb6axxfk","1368","912","de","rf07as06","NA","","","[{""page_index"":0,""viewing_time"":18358.564999885857}]","instructions","","","","","","","","","",""
"","image-keyboard-response","248","1719462","0.0-8.0-0.0","FL","7xgb6axxfk","1368","912","de","rf07as06","null","","","","","","","","learning/Slide81.JPG","null","","","","",""
"","html-keyboard-response","249","1720628","0.0-8.0-1.0","FL","7xgb6axxfk","1368","912","de","rf07as06","null","","","","learningBlock2","","","","That was a wug.","null","","","","",""
"","html-keyboard-response","250","1721646","0.0-8.0-2.0","FL","7xgb6axxfk","1368","912","de","rf07as06","null","","","","learningBlock2","","","","<div style=""font-size:60px;""> </div>","null","FL","learning/Slide81.JPG","That was a wug.","",""
"","image-keyboard-response","251","1721833","0.0-8.0-0.1","FL","7xgb6axxfk","1368","912","de","rf07as06","null","","","","","","","","learning/Slide82.JPG","null","","","","",""
"","html-keyboard-response","252","1723013","0.0-8.0-1.1","FL","7xgb6axxfk","1368","912","de","rf07as06","null","","","","learningBlock2","","","","That was a bim.","null","","","","",""
"","html-keyboard-response","253","1724029","0.0-8.0-2.1","FL","7xgb6axxfk","1368","912","de","rf07as06","null","","","","learningBlock2","","","","<div style=""font-size:60px;""> </div>","null","FL","learning/Slide82.JPG","That was a bim.","",""
"","image-keyboard-response","254","1724215","0.0-8.0-0.2","FL","7xgb6axxfk","1368","912","de","rf07as06","null","","","","","","","","learning/Slide83.JPG","null","","","","",""
"","html-keyboard-response","255","1725372","0.0-8.0-1.2","FL","7xgb6axxfk","1368","912","de","rf07as06","null","","","","learningBlock2","","","","That was a wug.","null","","","","",""
"","html-keyboard-response","256","1726379","0.0-8.0-2.2","FL","7xgb6axxfk","1368","912","de","rf07as06","null","","","","learningBlock2","","","","<div style=""font-size:60px;""> </div>","null","FL","learning/Slide83.JPG","That was a wug.","",""
"","image-keyboard-response","257","1726564","0.0-8.0-0.3","FL","7xgb6axxfk","1368","912","de","rf07as06","null","","","","","","","","learning/Slide84.JPG","null","","","","",""
"","html-keyboard-response","258","1727729","0.0-8.0-1.3","FL","7xgb6axxfk","1368","912","de","rf07as06","null","","","","learningBlock2","","","","That was a dep.","null","","","","",""
"","html-keyboard-response","259","1728741","0.0-8.0-2.3","FL","7xgb6axxfk","1368","912","de","rf07as06","null","","","","learningBlock2","","","","<div style=""font-size:60px;""> </div>","null","FL","learning/Slide84.JPG","That was a dep.","",""
"","image-keyboard-response","260","1728931","0.0-8.0-0.4","FL","7xgb6axxfk","1368","912","de","rf07as06","null","","","","","","","","learning/Slide85.JPG","null","","","","",""
"","html-keyboard-response","261","1730111","0.0-8.0-1.4","FL","7xgb6axxfk","1368","912","de","rf07as06","null","","","","learningBlock2","","","","That was a bim.","null","","","","",""
"","html-keyboard-response","262","1731116","0.0-8.0-2.4","FL","7xgb6axxfk","1368","912","de","rf07as06","null","","","","learningBlock2","","","","<div style=""font-size:60px;""> </div>","null","FL","learning/Slide85.JPG","That was a bim.","",""
"","image-keyboard-response","263","1731304","0.0-8.0-0.5","FL","7xgb6axxfk","1368","912","de","rf07as06","null","","","","","","","","learning/Slide86.JPG","null","","","","",""
"","html-keyboard-response","264","1732472","0.0-8.0-1.5","FL","7xgb6axxfk","1368","912","de","rf07as06","null","","","","learningBlock2","","","","That was a tob.","null","","","","",""
"","html-keyboard-response","265","1733488","0.0-8.0-2.5","FL","7xgb6axxfk","1368","912","de","rf07as06","null","","","","learningBlock2","","","","<div style=""font-size:60px;""> </div>","null","FL","learning/Slide86.JPG","That was a tob.","",""
"","image-keyboard-response","266","1733672","0.0-8.0-0.6","FL","7xgb6axxfk","1368","912","de","rf07as06","null","","","","","","","","learning/Slide87.JPG","null","","","","",""
"","html-keyboard-response","267","1734843","0.0-8.0-1.6","FL","7xgb6axxfk","1368","912","de","rf07as06","null","","","","learningBlock2","","","","That was a wug.","null","","","","",""
"","html-keyboard-response","268","1735860","0.0-8.0-2.6","FL","7xgb6axxfk","1368","912","de","rf07as06","null","","","","learningBlock2","","","","<div style=""font-size:60px;""> </div>","null","FL","learning/Slide87.JPG","That was a wug.","",""
"","image-keyboard-response","269","1736049","0.0-8.0-0.7","FL","7xgb6axxfk","1368","912","de","rf07as06","null","","","","","","","","learning/Slide88.JPG","null","","","","",""
"","html-keyboard-response","270","1737218","0.0-8.0-1.7","FL","7xgb6axxfk","1368","912","de","rf07as06","null","","","","learningBlock2","","","","That was a tob.","null","","","","",""
"","html-keyboard-response","271","1738232","0.0-8.0-2.7","FL","7xgb6axxfk","1368","912","de","rf07as06","null","","","","learningBlock2","","","","<div style=""font-size:60px;""> </div>","null","FL","learning/Slide88.JPG","That was a tob.","",""
"","image-keyboard-response","272","1738423","0.0-8.0-0.8","FL","7xgb6axxfk","1368","912","de","rf07as06","null","","","","","","","","learning/Slide89.JPG","null","","","","",""
"","html-keyboard-response","273","1739592","0.0-8.0-1.8","FL","7xgb6axxfk","1368","912","de","rf07as06","null","","","","learningBlock2","","","","That was a bim.","null","","","","",""
"","html-keyboard-response","274","1740597","0.0-8.0-2.8","FL","7xgb6axxfk","1368","912","de","rf07as06","null","","","","learningBlock2","","","","<div style=""font-size:60px;""> </div>","null","FL","learning/Slide89.JPG","That was a bim.","",""
"","image-keyboard-response","275","1740784","0.0-8.0-0.9","FL","7xgb6axxfk","1368","912","de","rf07as06","null","","","","","","","","learning/Slide90.JPG","null","","","","",""
"","html-keyboard-response","276","1741952","0.0-8.0-1.9","FL","7xgb6axxfk","1368","912","de","rf07as06","null","","","","learningBlock2","","","","That was a dep.","null","","","","",""
"","html-keyboard-response","277","1742957","0.0-8.0-2.9","FL","7xgb6axxfk","1368","912","de","rf07as06","null","","","","learningBlock2","","","","<div style=""font-size:60px;""> </div>","null","FL","learning/Slide90.JPG","That was a dep.","",""
"","image-keyboard-response","278","1743143","0.0-8.0-0.10","FL","7xgb6axxfk","1368","912","de","rf07as06","null","","","","","","","","learning/Slide91.JPG","null","","","","",""
"","html-keyboard-response","279","1744303","0.0-8.0-1.10","FL","7xgb6axxfk","1368","912","de","rf07as06","null","","","","learningBlock2","","","","That was a wug.","null","","","","",""
"","html-keyboard-response","280","1745316","0.0-8.0-2.10","FL","7xgb6axxfk","1368","912","de","rf07as06","null","","","","learningBlock2","","","","<div style=""font-size:60px;""> </div>","null","FL","learning/Slide91.JPG","That was a wug.","",""
"","image-keyboard-response","281","1745494","0.0-8.0-0.11","FL","7xgb6axxfk","1368","912","de","rf07as06","null","","","","","","","","learning/Slide92.JPG","null","","","","",""
"","html-keyboard-response","282","1746668","0.0-8.0-1.11","FL","7xgb6axxfk","1368","912","de","rf07as06","null","","","","learningBlock2","","","","That was a tob.","null","","","","",""
"","html-keyboard-response","283","1747673","0.0-8.0-2.11","FL","7xgb6axxfk","1368","912","de","rf07as06","null","","","","learningBlock2","","","","<div style=""font-size:60px;""> </div>","null","FL","learning/Slide92.JPG","That was a tob.","",""
"","image-keyboard-response","284","1747862","0.0-8.0-0.12","FL","7xgb6axxfk","1368","912","de","rf07as06","null","","","","","","","","learning/Slide93.JPG","null","","","","",""
"","html-keyboard-response","285","1749041","0.0-8.0-1.12","FL","7xgb6axxfk","1368","912","de","rf07as06","null","","","","learningBlock2","","","","That was a bim.","null","","","","",""
"","html-keyboard-response","286","1750057","0.0-8.0-2.12","FL","7xgb6axxfk","1368","912","de","rf07as06","null","","","","learningBlock2","","","","<div style=""font-size:60px;""> </div>","null","FL","learning/Slide93.JPG","That was a bim.","",""
"","image-keyboard-response","287","1750246","0.0-8.0-0.13","FL","7xgb6axxfk","1368","912","de","rf07as06","null","","","","","","","","learning/Slide94.JPG","null","","","","",""
"","html-keyboard-response","288","1751419","0.0-8.0-1.13","FL","7xgb6axxfk","1368","912","de","rf07as06","null","","","","learningBlock2","","","","That was a tob.","null","","","","",""
"","html-keyboard-response","289","1752427","0.0-8.0-2.13","FL","7xgb6axxfk","1368","912","de","rf07as06","null","","","","learningBlock2","","","","<div style=""font-size:60px;""> </div>","null","FL","learning/Slide94.JPG","That was a tob.","",""
"","image-keyboard-response","290","1752611","0.0-8.0-0.14","FL","7xgb6axxfk","1368","912","de","rf07as06","null","","","","","","","","learning/Slide95.JPG","null","","","","",""
"","html-keyboard-response","291","1753776","0.0-8.0-1.14","FL","7xgb6axxfk","1368","912","de","rf07as06","null","","","","learningBlock2","","","","That was a wug.","null","","","","",""
"","html-keyboard-response","292","1754783","0.0-8.0-2.14","FL","7xgb6axxfk","1368","912","de","rf07as06","null","","","","learningBlock2","","","","<div style=""font-size:60px;""> </div>","null","FL","learning/Slide95.JPG","That was a wug.","",""
"","image-keyboard-response","293","1754969","0.0-8.0-0.15","FL","7xgb6axxfk","1368","912","de","rf07as06","null","","","","","","","","learning/Slide96.JPG","null","","","","",""
"","html-keyboard-response","294","1756126","0.0-8.0-1.15","FL","7xgb6axxfk","1368","912","de","rf07as06","null","","","","learningBlock2","","","","That was a tob.","null","","","","",""
"","html-keyboard-response","295","1757133","0.0-8.0-2.15","FL","7xgb6axxfk","1368","912","de","rf07as06","null","","","","learningBlock2","","","","<div style=""font-size:60px;""> </div>","null","FL","learning/Slide96.JPG","That was a tob.","",""
"","image-keyboard-response","296","1757322","0.0-8.0-0.16","FL","7xgb6axxfk","1368","912","de","rf07as06","null","","","","","","","","learning/Slide97.JPG","null","","","","",""
"","html-keyboard-response","297","1758492","0.0-8.0-1.16","FL","7xgb6axxfk","1368","912","de","rf07as06","null","","","","learningBlock2","","","","That was a dep.","null","","","","",""
"","html-keyboard-response","298","1759503","0.0-8.0-2.16","FL","7xgb6axxfk","1368","912","de","rf07as06","null","","","","learningBlock2","","","","<div style=""font-size:60px;""> </div>","null","FL","learning/Slide97.JPG","That was a dep.","",""
"","image-keyboard-response","299","1759691","0.0-8.0-0.17","FL","7xgb6axxfk","1368","912","de","rf07as06","null","","","","","","","","learning/Slide98.JPG","null","","","","",""
"","html-keyboard-response","300","1760861","0.0-8.0-1.17","FL","7xgb6axxfk","1368","912","de","rf07as06","null","","","","learningBlock2","","","","That was a bim.","null","","","","",""
"","html-keyboard-response","301","1761865","0.0-8.0-2.17","FL","7xgb6axxfk","1368","912","de","rf07as06","null","","","","learningBlock2","","","","<div style=""font-size:60px;""> </div>","null","FL","learning/Slide98.JPG","That was a bim.","",""
"","image-keyboard-response","302","1762052","0.0-8.0-0.18","FL","7xgb6axxfk","1368","912","de","rf07as06","null","","","","","","","","learning/Slide99.JPG","null","","","","",""
"","html-keyboard-response","303","1763208","0.0-8.0-1.18","FL","7xgb6axxfk","1368","912","de","rf07as06","null","","","","learningBlock2","","","","That was a dep.","null","","","","",""
"","html-keyboard-response","304","1764215","0.0-8.0-2.18","FL","7xgb6axxfk","1368","912","de","rf07as06","null","","","","learningBlock2","","","","<div style=""font-size:60px;""> </div>","null","FL","learning/Slide99.JPG","That was a dep.","",""
"","image-keyboard-response","305","1764405","0.0-8.0-0.19","FL","7xgb6axxfk","1368","912","de","rf07as06","null","","","","","","","","learning/Slide100.JPG","null","","","","",""
"","html-keyboard-response","306","1765585","0.0-8.0-1.19","FL","7xgb6axxfk","1368","912","de","rf07as06","null","","","","learningBlock2","","","","That was a bim.","null","","","","",""
"","html-keyboard-response","307","1766595","0.0-8.0-2.19","FL","7xgb6axxfk","1368","912","de","rf07as06","null","","","","learningBlock2","","","","<div style=""font-size:60px;""> </div>","null","FL","learning/Slide100.JPG","That was a bim.","",""
"","image-keyboard-response","308","1766786","0.0-8.0-0.20","FL","7xgb6axxfk","1368","912","de","rf07as06","null","","","","","","","","learning/Slide101.JPG","null","","","","",""
"","html-keyboard-response","309","1767962","0.0-8.0-1.20","FL","7xgb6axxfk","1368","912","de","rf07as06","null","","","","learningBlock2","","","","That was a tob.","null","","","","",""
"","html-keyboard-response","310","1768976","0.0-8.0-2.20","FL","7xgb6axxfk","1368","912","de","rf07as06","null","","","","learningBlock2","","","","<div style=""font-size:60px;""> </div>","null","FL","learning/Slide101.JPG","That was a tob.","",""
"","image-keyboard-response","311","1769164","0.0-8.0-0.21","FL","7xgb6axxfk","1368","912","de","rf07as06","null","","","","","","","","learning/Slide102.JPG","null","","","","",""
"","html-keyboard-response","312","1770321","0.0-8.0-1.21","FL","7xgb6axxfk","1368","912","de","rf07as06","null","","","","learningBlock2","","","","That was a bim.","null","","","","",""
"","html-keyboard-response","313","1771338","0.0-8.0-2.21","FL","7xgb6axxfk","1368","912","de","rf07as06","null","","","","learningBlock2","","","","<div style=""font-size:60px;""> </div>","null","FL","learning/Slide102.JPG","That was a bim.","",""
"","image-keyboard-response","314","1771528","0.0-8.0-0.22","FL","7xgb6axxfk","1368","912","de","rf07as06","null","","","","","","","","learning/Slide103.JPG","null","","","","",""
"","html-keyboard-response","315","1772690","0.0-8.0-1.22","FL","7xgb6axxfk","1368","912","de","rf07as06","null","","","","learningBlock2","","","","That was a dep.","null","","","","",""
"","html-keyboard-response","316","1773693","0.0-8.0-2.22","FL","7xgb6axxfk","1368","912","de","rf07as06","null","","","","learningBlock2","","","","<div style=""font-size:60px;""> </div>","null","FL","learning/Slide103.JPG","That was a dep.","",""
"","image-keyboard-response","317","1773874","0.0-8.0-0.23","FL","7xgb6axxfk","1368","912","de","rf07as06","null","","","","","","","","learning/Slide104.JPG","null","","","","",""
"","html-keyboard-response","318","1775036","0.0-8.0-1.23","FL","7xgb6axxfk","1368","912","de","rf07as06","null","","","","learningBlock2","","","","That was a tob.","null","","","","",""
"","html-keyboard-response","319","1776047","0.0-8.0-2.23","FL","7xgb6axxfk","1368","912","de","rf07as06","null","","","","learningBlock2","","","","<div style=""font-size:60px;""> </div>","null","FL","learning/Slide104.JPG","That was a tob.","",""
"","image-keyboard-response","320","1776234","0.0-8.0-0.24","FL","7xgb6axxfk","1368","912","de","rf07as06","null","","","","","","","","learning/Slide105.JPG","null","","","","",""
"","html-keyboard-response","321","1777395","0.0-8.0-1.24","FL","7xgb6axxfk","1368","912","de","rf07as06","null","","","","learningBlock2","","","","That was a dep.","null","","","","",""
"","html-keyboard-response","322","1778401","0.0-8.0-2.24","FL","7xgb6axxfk","1368","912","de","rf07as06","null","","","","learningBlock2","","","","<div style=""font-size:60px;""> </div>","null","FL","learning/Slide105.JPG","That was a dep.","",""
"","image-keyboard-response","323","1778588","0.0-8.0-0.25","FL","7xgb6axxfk","1368","912","de","rf07as06","null","","","","","","","","learning/Slide106.JPG","null","","","","",""
"","html-keyboard-response","324","1779765","0.0-8.0-1.25","FL","7xgb6axxfk","1368","912","de","rf07as06","null","","","","learningBlock2","","","","That was a wug.","null","","","","",""
"","html-keyboard-response","325","1780783","0.0-8.0-2.25","FL","7xgb6axxfk","1368","912","de","rf07as06","null","","","","learningBlock2","","","","<div style=""font-size:60px;""> </div>","null","FL","learning/Slide106.JPG","That was a wug.","",""
"","image-keyboard-response","326","1780970","0.0-8.0-0.26","FL","7xgb6axxfk","1368","912","de","rf07as06","null","","","","","","","","learning/Slide107.JPG","null","","","","",""
"","html-keyboard-response","327","1782140","0.0-8.0-1.26","FL","7xgb6axxfk","1368","912","de","rf07as06","null","","","","learningBlock2","","","","That was a bim.","null","","","","",""
"","html-keyboard-response","328","1783152","0.0-8.0-2.26","FL","7xgb6axxfk","1368","912","de","rf07as06","null","","","","learningBlock2","","","","<div style=""font-size:60px;""> </div>","null","FL","learning/Slide107.JPG","That was a bim.","",""
"","image-keyboard-response","329","1783337","0.0-8.0-0.27","FL","7xgb6axxfk","1368","912","de","rf07as06","null","","","","","","","","learning/Slide108.JPG","null","","","","",""
"","html-keyboard-response","330","1784503","0.0-8.0-1.27","FL","7xgb6axxfk","1368","912","de","rf07as06","null","","","","learningBlock2","","","","That was a dep.","null","","","","",""
"","html-keyboard-response","331","1785515","0.0-8.0-2.27","FL","7xgb6axxfk","1368","912","de","rf07as06","null","","","","learningBlock2","","","","<div style=""font-size:60px;""> </div>","null","FL","learning/Slide108.JPG","That was a dep.","",""
"","image-keyboard-response","332","1785701","0.0-8.0-0.28","FL","7xgb6axxfk","1368","912","de","rf07as06","null","","","","","","","","learning/Slide109.JPG","null","","","","",""
"","html-keyboard-response","333","1786871","0.0-8.0-1.28","FL","7xgb6axxfk","1368","912","de","rf07as06","null","","","","learningBlock2","","","","That was a wug.","null","","","","",""
"","html-keyboard-response","334","1787876","0.0-8.0-2.28","FL","7xgb6axxfk","1368","912","de","rf07as06","null","","","","learningBlock2","","","","<div style=""font-size:60px;""> </div>","null","FL","learning/Slide109.JPG","That was a wug.","",""
"","image-keyboard-response","335","1788062","0.0-8.0-0.29","FL","7xgb6axxfk","1368","912","de","rf07as06","null","","","","","","","","learning/Slide110.JPG","null","","","","",""
"","html-keyboard-response","336","1789229","0.0-8.0-1.29","FL","7xgb6axxfk","1368","912","de","rf07as06","null","","","","learningBlock2","","","","That was a bim.","null","","","","",""
"","html-keyboard-response","337","1790255","0.0-8.0-2.29","FL","7xgb6axxfk","1368","912","de","rf07as06","null","","","","learningBlock2","","","","<div style=""font-size:60px;""> </div>","null","FL","learning/Slide110.JPG","That was a bim.","",""
"","image-keyboard-response","338","1790459","0.0-8.0-0.30","FL","7xgb6axxfk","1368","912","de","rf07as06","null","","","","","","","","learning/Slide111.JPG","null","","","","",""
"","html-keyboard-response","339","1791629","0.0-8.0-1.30","FL","7xgb6axxfk","1368","912","de","rf07as06","null","","","","learningBlock2","","","","That was a tob.","null","","","","",""
"","html-keyboard-response","340","1792634","0.0-8.0-2.30","FL","7xgb6axxfk","1368","912","de","rf07as06","null","","","","learningBlock2","","","","<div style=""font-size:60px;""> </div>","null","FL","learning/Slide111.JPG","That was a tob.","",""
"","image-keyboard-response","341","1792822","0.0-8.0-0.31","FL","7xgb6axxfk","1368","912","de","rf07as06","null","","","","","","","","learning/Slide112.JPG","null","","","","",""
"","html-keyboard-response","342","1793981","0.0-8.0-1.31","FL","7xgb6axxfk","1368","912","de","rf07as06","null","","","","learningBlock2","","","","That was a wug.","null","","","","",""
"","html-keyboard-response","343","1795000","0.0-8.0-2.31","FL","7xgb6axxfk","1368","912","de","rf07as06","null","","","","learningBlock2","","","","<div style=""font-size:60px;""> </div>","null","FL","learning/Slide112.JPG","That was a wug.","",""
"","image-keyboard-response","344","1795186","0.0-8.0-0.32","FL","7xgb6axxfk","1368","912","de","rf07as06","null","","","","","","","","learning/Slide113.JPG","null","","","","",""
"","html-keyboard-response","345","1796352","0.0-8.0-1.32","FL","7xgb6axxfk","1368","912","de","rf07as06","null","","","","learningBlock2","","","","That was a tob.","null","","","","",""
"","html-keyboard-response","346","1797355","0.0-8.0-2.32","FL","7xgb6axxfk","1368","912","de","rf07as06","null","","","","learningBlock2","","","","<div style=""font-size:60px;""> </div>","null","FL","learning/Slide113.JPG","That was a tob.","",""
"","image-keyboard-response","347","1797542","0.0-8.0-0.33","FL","7xgb6axxfk","1368","912","de","rf07as06","null","","","","","","","","learning/Slide114.JPG","null","","","","",""
"","html-keyboard-response","348","1798706","0.0-8.0-1.33","FL","7xgb6axxfk","1368","912","de","rf07as06","null","","","","learningBlock2","","","","That was a wug.","null","","","","",""
"","html-keyboard-response","349","1799712","0.0-8.0-2.33","FL","7xgb6axxfk","1368","912","de","rf07as06","null","","","","learningBlock2","","","","<div style=""font-size:60px;""> </div>","null","FL","learning/Slide114.JPG","That was a wug.","",""
"","image-keyboard-response","350","1799904","0.0-8.0-0.34","FL","7xgb6axxfk","1368","912","de","rf07as06","null","","","","","","","","learning/Slide115.JPG","null","","","","",""
"","html-keyboard-response","351","1801075","0.0-8.0-1.34","FL","7xgb6axxfk","1368","912","de","rf07as06","null","","","","learningBlock2","","","","That was a bim.","null","","","","",""
"","html-keyboard-response","352","1802081","0.0-8.0-2.34","FL","7xgb6axxfk","1368","912","de","rf07as06","null","","","","learningBlock2","","","","<div style=""font-size:60px;""> </div>","null","FL","learning/Slide115.JPG","That was a bim.","",""
"","image-keyboard-response","353","1802264","0.0-8.0-0.35","FL","7xgb6axxfk","1368","912","de","rf07as06","null","","","","","","","","learning/Slide116.JPG","null","","","","",""
"","html-keyboard-response","354","1803424","0.0-8.0-1.35","FL","7xgb6axxfk","1368","912","de","rf07as06","null","","","","learningBlock2","","","","That was a dep.","null","","","","",""
"","html-keyboard-response","355","1804430","0.0-8.0-2.35","FL","7xgb6axxfk","1368","912","de","rf07as06","null","","","","learningBlock2","","","","<div style=""font-size:60px;""> </div>","null","FL","learning/Slide116.JPG","That was a dep.","",""
"","image-keyboard-response","356","1804621","0.0-8.0-0.36","FL","7xgb6axxfk","1368","912","de","rf07as06","null","","","","","","","","learning/Slide117.JPG","null","","","","",""
"","html-keyboard-response","357","1805787","0.0-8.0-1.36","FL","7xgb6axxfk","1368","912","de","rf07as06","null","","","","learningBlock2","","","","That was a tob.","null","","","","",""
"","html-keyboard-response","358","1806795","0.0-8.0-2.36","FL","7xgb6axxfk","1368","912","de","rf07as06","null","","","","learningBlock2","","","","<div style=""font-size:60px;""> </div>","null","FL","learning/Slide117.JPG","That was a tob.","",""
"","image-keyboard-response","359","1806983","0.0-8.0-0.37","FL","7xgb6axxfk","1368","912","de","rf07as06","null","","","","","","","","learning/Slide118.JPG","null","","","","",""
"","html-keyboard-response","360","1808147","0.0-8.0-1.37","FL","7xgb6axxfk","1368","912","de","rf07as06","null","","","","learningBlock2","","","","That was a dep.","null","","","","",""
"","html-keyboard-response","361","1809159","0.0-8.0-2.37","FL","7xgb6axxfk","1368","912","de","rf07as06","null","","","","learningBlock2","","","","<div style=""font-size:60px;""> </div>","null","FL","learning/Slide118.JPG","That was a dep.","",""
"","image-keyboard-response","362","1809343","0.0-8.0-0.38","FL","7xgb6axxfk","1368","912","de","rf07as06","null","","","","","","","","learning/Slide119.JPG","null","","","","",""
"","html-keyboard-response","363","1810505","0.0-8.0-1.38","FL","7xgb6axxfk","1368","912","de","rf07as06","null","","","","learningBlock2","","","","That was a wug.","null","","","","",""
"","html-keyboard-response","364","1811509","0.0-8.0-2.38","FL","7xgb6axxfk","1368","912","de","rf07as06","null","","","","learningBlock2","","","","<div style=""font-size:60px;""> </div>","null","FL","learning/Slide119.JPG","That was a wug.","",""
"","image-keyboard-response","365","1811696","0.0-8.0-0.39","FL","7xgb6axxfk","1368","912","de","rf07as06","null","","","","","","","","learning/Slide120.JPG","null","","","","",""
"","html-keyboard-response","366","1812860","0.0-8.0-1.39","FL","7xgb6axxfk","1368","912","de","rf07as06","null","","","","learningBlock2","","","","That was a dep.","null","","","","",""
"","html-keyboard-response","367","1813866","0.0-8.0-2.39","FL","7xgb6axxfk","1368","912","de","rf07as06","null","","","","learningBlock2","","","","<div style=""font-size:60px;""> </div>","null","FL","learning/Slide120.JPG","That was a dep.","",""
"","image-keyboard-response","368","1814054","0.0-8.0-0.40","FL","7xgb6axxfk","1368","912","de","rf07as06","null","","","","","","","","learning/Slide121.JPG","null","","","","",""
"","html-keyboard-response","369","1815222","0.0-8.0-1.40","FL","7xgb6axxfk","1368","912","de","rf07as06","null","","","","learningBlock2","","","","That was a bim.","null","","","","",""
"","html-keyboard-response","370","1816232","0.0-8.0-2.40","FL","7xgb6axxfk","1368","912","de","rf07as06","null","","","","learningBlock2","","","","<div style=""font-size:60px;""> </div>","null","FL","learning/Slide121.JPG","That was a bim.","",""
"","image-keyboard-response","371","1816417","0.0-8.0-0.41","FL","7xgb6axxfk","1368","912","de","rf07as06","null","","","","","","","","learning/Slide122.JPG","null","","","","",""
"","html-keyboard-response","372","1817575","0.0-8.0-1.41","FL","7xgb6axxfk","1368","912","de","rf07as06","null","","","","learningBlock2","","","","That was a wug.","null","","","","",""
"","html-keyboard-response","373","1818589","0.0-8.0-2.41","FL","7xgb6axxfk","1368","912","de","rf07as06","null","","","","learningBlock2","","","","<div style=""font-size:60px;""> </div>","null","FL","learning/Slide122.JPG","That was a wug.","",""
"","image-keyboard-response","374","1818773","0.0-8.0-0.42","FL","7xgb6axxfk","1368","912","de","rf07as06","null","","","","","","","","learning/Slide123.JPG","null","","","","",""
"","html-keyboard-response","375","1819930","0.0-8.0-1.42","FL","7xgb6axxfk","1368","912","de","rf07as06","null","","","","learningBlock2","","","","That was a bim.","null","","","","",""
"","html-keyboard-response","376","1820949","0.0-8.0-2.42","FL","7xgb6axxfk","1368","912","de","rf07as06","null","","","","learningBlock2","","","","<div style=""font-size:60px;""> </div>","null","FL","learning/Slide123.JPG","That was a bim.","",""
"","image-keyboard-response","377","1821132","0.0-8.0-0.43","FL","7xgb6axxfk","1368","912","de","rf07as06","null","","","","","","","","learning/Slide124.JPG","null","","","","",""
"","html-keyboard-response","378","1822294","0.0-8.0-1.43","FL","7xgb6axxfk","1368","912","de","rf07as06","null","","","","learningBlock2","","","","That was a tob.","null","","","","",""
"","html-keyboard-response","379","1823299","0.0-8.0-2.43","FL","7xgb6axxfk","1368","912","de","rf07as06","null","","","","learningBlock2","","","","<div style=""font-size:60px;""> </div>","null","FL","learning/Slide124.JPG","That was a tob.","",""
"","image-keyboard-response","380","1823482","0.0-8.0-0.44","FL","7xgb6axxfk","1368","912","de","rf07as06","null","","","","","","","","learning/Slide125.JPG","null","","","","",""
"","html-keyboard-response","381","1824649","0.0-8.0-1.44","FL","7xgb6axxfk","1368","912","de","rf07as06","null","","","","learningBlock2","","","","That was a bim.","null","","","","",""
"","html-keyboard-response","382","1825659","0.0-8.0-2.44","FL","7xgb6axxfk","1368","912","de","rf07as06","null","","","","learningBlock2","","","","<div style=""font-size:60px;""> </div>","null","FL","learning/Slide125.JPG","That was a bim.","",""
"","image-keyboard-response","383","1825847","0.0-8.0-0.45","FL","7xgb6axxfk","1368","912","de","rf07as06","null","","","","","","","","learning/Slide126.JPG","null","","","","",""
"","html-keyboard-response","384","1827008","0.0-8.0-1.45","FL","7xgb6axxfk","1368","912","de","rf07as06","null","","","","learningBlock2","","","","That was a tob.","null","","","","",""
"","html-keyboard-response","385","1828025","0.0-8.0-2.45","FL","7xgb6axxfk","1368","912","de","rf07as06","null","","","","learningBlock2","","","","<div style=""font-size:60px;""> </div>","null","FL","learning/Slide126.JPG","That was a tob.","",""
"","image-keyboard-response","386","1828214","0.0-8.0-0.46","FL","7xgb6axxfk","1368","912","de","rf07as06","null","","","","","","","","learning/Slide127.JPG","null","","","","",""
"","html-keyboard-response","387","1829375","0.0-8.0-1.46","FL","7xgb6axxfk","1368","912","de","rf07as06","null","","","","learningBlock2","","","","That was a dep.","null","","","","",""
"","html-keyboard-response","388","1830379","0.0-8.0-2.46","FL","7xgb6axxfk","1368","912","de","rf07as06","null","","","","learningBlock2","","","","<div style=""font-size:60px;""> </div>","null","FL","learning/Slide127.JPG","That was a dep.","",""
"","image-keyboard-response","389","1830566","0.0-8.0-0.47","FL","7xgb6axxfk","1368","912","de","rf07as06","null","","","","","","","","learning/Slide128.JPG","null","","","","",""
"","html-keyboard-response","390","1831725","0.0-8.0-1.47","FL","7xgb6axxfk","1368","912","de","rf07as06","null","","","","learningBlock2","","","","That was a wug.","null","","","","",""
"","html-keyboard-response","391","1832735","0.0-8.0-2.47","FL","7xgb6axxfk","1368","912","de","rf07as06","null","","","","learningBlock2","","","","<div style=""font-size:60px;""> </div>","null","FL","learning/Slide128.JPG","That was a wug.","",""
"","image-keyboard-response","392","1832922","0.0-8.0-0.48","FL","7xgb6axxfk","1368","912","de","rf07as06","null","","","","","","","","learning/Slide129.JPG","null","","","","",""
"","html-keyboard-response","393","1834102","0.0-8.0-1.48","FL","7xgb6axxfk","1368","912","de","rf07as06","null","","","","learningBlock2","","","","That was a tob.","null","","","","",""
"","html-keyboard-response","394","1835105","0.0-8.0-2.48","FL","7xgb6axxfk","1368","912","de","rf07as06","null","","","","learningBlock2","","","","<div style=""font-size:60px;""> </div>","null","FL","learning/Slide129.JPG","That was a tob.","",""
"","image-keyboard-response","395","1835291","0.0-8.0-0.49","FL","7xgb6axxfk","1368","912","de","rf07as06","null","","","","","","","","learning/Slide130.JPG","null","","","","",""
"","html-keyboard-response","396","1836460","0.0-8.0-1.49","FL","7xgb6axxfk","1368","912","de","rf07as06","null","","","","learningBlock2","","","","That was a wug.","null","","","","",""
"","html-keyboard-response","397","1837467","0.0-8.0-2.49","FL","7xgb6axxfk","1368","912","de","rf07as06","null","","","","learningBlock2","","","","<div style=""font-size:60px;""> </div>","null","FL","learning/Slide130.JPG","That was a wug.","",""
"","image-keyboard-response","398","1837656","0.0-8.0-0.50","FL","7xgb6axxfk","1368","912","de","rf07as06","null","","","","","","","","learning/Slide131.JPG","null","","","","",""
"","html-keyboard-response","399","1838824","0.0-8.0-1.50","FL","7xgb6axxfk","1368","912","de","rf07as06","null","","","","learningBlock2","","","","That was a bim.","null","","","","",""
"","html-keyboard-response","400","1839829","0.0-8.0-2.50","FL","7xgb6axxfk","1368","912","de","rf07as06","null","","","","learningBlock2","","","","<div style=""font-size:60px;""> </div>","null","FL","learning/Slide131.JPG","That was a bim.","",""
"","image-keyboard-response","401","1840016","0.0-8.0-0.51","FL","7xgb6axxfk","1368","912","de","rf07as06","null","","","","","","","","learning/Slide132.JPG","null","","","","",""
"","html-keyboard-response","402","1841176","0.0-8.0-1.51","FL","7xgb6axxfk","1368","912","de","rf07as06","null","","","","learningBlock2","","","","That was a dep.","null","","","","",""
"","html-keyboard-response","403","1842179","0.0-8.0-2.51","FL","7xgb6axxfk","1368","912","de","rf07as06","null","","","","learningBlock2","","","","<div style=""font-size:60px;""> </div>","null","FL","learning/Slide132.JPG","That was a dep.","",""
"","image-keyboard-response","404","1842371","0.0-8.0-0.52","FL","7xgb6axxfk","1368","912","de","rf07as06","null","","","","","","","","learning/Slide133.JPG","null","","","","",""
"","html-keyboard-response","405","1843534","0.0-8.0-1.52","FL","7xgb6axxfk","1368","912","de","rf07as06","null","","","","learningBlock2","","","","That was a tob.","null","","","","",""
"","html-keyboard-response","406","1844551","0.0-8.0-2.52","FL","7xgb6axxfk","1368","912","de","rf07as06","null","","","","learningBlock2","","","","<div style=""font-size:60px;""> </div>","null","FL","learning/Slide133.JPG","That was a tob.","",""
"","image-keyboard-response","407","1844736","0.0-8.0-0.53","FL","7xgb6axxfk","1368","912","de","rf07as06","null","","","","","","","","learning/Slide134.JPG","null","","","","",""
"","html-keyboard-response","408","1845896","0.0-8.0-1.53","FL","7xgb6axxfk","1368","912","de","rf07as06","null","","","","learningBlock2","","","","That was a dep.","null","","","","",""
"","html-keyboard-response","409","1846904","0.0-8.0-2.53","FL","7xgb6axxfk","1368","912","de","rf07as06","null","","","","learningBlock2","","","","<div style=""font-size:60px;""> </div>","null","FL","learning/Slide134.JPG","That was a dep.","",""
"","image-keyboard-response","410","1847092","0.0-8.0-0.54","FL","7xgb6axxfk","1368","912","de","rf07as06","null","","","","","","","","learning/Slide135.JPG","null","","","","",""
"","html-keyboard-response","411","1848259","0.0-8.0-1.54","FL","7xgb6axxfk","1368","912","de","rf07as06","null","","","","learningBlock2","","","","That was a tob.","null","","","","",""
"","html-keyboard-response","412","1849262","0.0-8.0-2.54","FL","7xgb6axxfk","1368","912","de","rf07as06","null","","","","learningBlock2","","","","<div style=""font-size:60px;""> </div>","null","FL","learning/Slide135.JPG","That was a tob.","",""
"","image-keyboard-response","413","1849448","0.0-8.0-0.55","FL","7xgb6axxfk","1368","912","de","rf07as06","null","","","","","","","","learning/Slide136.JPG","null","","","","",""
"","html-keyboard-response","414","1850603","0.0-8.0-1.55","FL","7xgb6axxfk","1368","912","de","rf07as06","null","","","","learningBlock2","","","","That was a wug.","null","","","","",""
"","html-keyboard-response","415","1851616","0.0-8.0-2.55","FL","7xgb6axxfk","1368","912","de","rf07as06","null","","","","learningBlock2","","","","<div style=""font-size:60px;""> </div>","null","FL","learning/Slide136.JPG","That was a wug.","",""
"","image-keyboard-response","416","1851805","0.0-8.0-0.56","FL","7xgb6axxfk","1368","912","de","rf07as06","null","","","","","","","","learning/Slide137.JPG","null","","","","",""
"","html-keyboard-response","417","1852959","0.0-8.0-1.56","FL","7xgb6axxfk","1368","912","de","rf07as06","null","","","","learningBlock2","","","","That was a tob.","null","","","","",""
"","html-keyboard-response","418","1853964","0.0-8.0-2.56","FL","7xgb6axxfk","1368","912","de","rf07as06","null","","","","learningBlock2","","","","<div style=""font-size:60px;""> </div>","null","FL","learning/Slide137.JPG","That was a tob.","",""
"","image-keyboard-response","419","1854152","0.0-8.0-0.57","FL","7xgb6axxfk","1368","912","de","rf07as06","null","","","","","","","","learning/Slide138.JPG","null","","","","",""
"","html-keyboard-response","420","1855306","0.0-8.0-1.57","FL","7xgb6axxfk","1368","912","de","rf07as06","null","","","","learningBlock2","","","","That was a bim.","null","","","","",""
"","html-keyboard-response","421","1856313","0.0-8.0-2.57","FL","7xgb6axxfk","1368","912","de","rf07as06","null","","","","learningBlock2","","","","<div style=""font-size:60px;""> </div>","null","FL","learning/Slide138.JPG","That was a bim.","",""
"","image-keyboard-response","422","1856499","0.0-8.0-0.58","FL","7xgb6axxfk","1368","912","de","rf07as06","null","","","","","","","","learning/Slide139.JPG","null","","","","",""
"","html-keyboard-response","423","1857664","0.0-8.0-1.58","FL","7xgb6axxfk","1368","912","de","rf07as06","null","","","","learningBlock2","","","","That was a wug.","null","","","","",""
"","html-keyboard-response","424","1858675","0.0-8.0-2.58","FL","7xgb6axxfk","1368","912","de","rf07as06","null","","","","learningBlock2","","","","<div style=""font-size:60px;""> </div>","null","FL","learning/Slide139.JPG","That was a wug.","",""
"","image-keyboard-response","425","1858853","0.0-8.0-0.59","FL","7xgb6axxfk","1368","912","de","rf07as06","null","","","","","","","","learning/Slide140.JPG","null","","","","",""
"","html-keyboard-response","426","1860024","0.0-8.0-1.59","FL","7xgb6axxfk","1368","912","de","rf07as06","null","","","","learningBlock2","","","","That was a dep.","null","","","","",""
"","html-keyboard-response","427","1861033","0.0-8.0-2.59","FL","7xgb6axxfk","1368","912","de","rf07as06","null","","","","learningBlock2","","","","<div style=""font-size:60px;""> </div>","null","FL","learning/Slide140.JPG","That was a dep.","",""
"","image-keyboard-response","428","1861219","0.0-8.0-0.60","FL","7xgb6axxfk","1368","912","de","rf07as06","null","","","","","","","","learning/Slide141.JPG","null","","","","",""
"","html-keyboard-response","429","1862376","0.0-8.0-1.60","FL","7xgb6axxfk","1368","912","de","rf07as06","null","","","","learningBlock2","","","","That was a tob.","null","","","","",""
"","html-keyboard-response","430","1863393","0.0-8.0-2.60","FL","7xgb6axxfk","1368","912","de","rf07as06","null","","","","learningBlock2","","","","<div style=""font-size:60px;""> </div>","null","FL","learning/Slide141.JPG","That was a tob.","",""
"","image-keyboard-response","431","1863580","0.0-8.0-0.61","FL","7xgb6axxfk","1368","912","de","rf07as06","null","","","","","","","","learning/Slide142.JPG","null","","","","",""
"","html-keyboard-response","432","1864735","0.0-8.0-1.61","FL","7xgb6axxfk","1368","912","de","rf07as06","null","","","","learningBlock2","","","","That was a wug.","null","","","","",""
"","html-keyboard-response","433","1865752","0.0-8.0-2.61","FL","7xgb6axxfk","1368","912","de","rf07as06","null","","","","learningBlock2","","","","<div style=""font-size:60px;""> </div>","null","FL","learning/Slide142.JPG","That was a wug.","",""
"","image-keyboard-response","434","1865941","0.0-8.0-0.62","FL","7xgb6axxfk","1368","912","de","rf07as06","null","","","","","","","","learning/Slide143.JPG","null","","","","",""
"","html-keyboard-response","435","1867098","0.0-8.0-1.62","FL","7xgb6axxfk","1368","912","de","rf07as06","null","","","","learningBlock2","","","","That was a bim.","null","","","","",""
"","html-keyboard-response","436","1868116","0.0-8.0-2.62","FL","7xgb6axxfk","1368","912","de","rf07as06","null","","","","learningBlock2","","","","<div style=""font-size:60px;""> </div>","null","FL","learning/Slide143.JPG","That was a bim.","",""
"","image-keyboard-response","437","1868298","0.0-8.0-0.63","FL","7xgb6axxfk","1368","912","de","rf07as06","null","","","","","","","","learning/Slide144.JPG","null","","","","",""
"","html-keyboard-response","438","1869458","0.0-8.0-1.63","FL","7xgb6axxfk","1368","912","de","rf07as06","null","","","","learningBlock2","","","","That was a dep.","null","","","","",""
"","html-keyboard-response","439","1870467","0.0-8.0-2.63","FL","7xgb6axxfk","1368","912","de","rf07as06","null","","","","learningBlock2","","","","<div style=""font-size:60px;""> </div>","null","FL","learning/Slide144.JPG","That was a dep.","",""
"","image-keyboard-response","440","1870652","0.0-8.0-0.64","FL","7xgb6axxfk","1368","912","de","rf07as06","null","","","","","","","","learning/Slide145.JPG","null","","","","",""
"","html-keyboard-response","441","1871811","0.0-8.0-1.64","FL","7xgb6axxfk","1368","912","de","rf07as06","null","","","","learningBlock2","","","","That was a bim.","null","","","","",""
"","html-keyboard-response","442","1872821","0.0-8.0-2.64","FL","7xgb6axxfk","1368","912","de","rf07as06","null","","","","learningBlock2","","","","<div style=""font-size:60px;""> </div>","null","FL","learning/Slide145.JPG","That was a bim.","",""
"","image-keyboard-response","443","1873009","0.0-8.0-0.65","FL","7xgb6axxfk","1368","912","de","rf07as06","null","","","","","","","","learning/Slide146.JPG","null","","","","",""
"","html-keyboard-response","444","1874173","0.0-8.0-1.65","FL","7xgb6axxfk","1368","912","de","rf07as06","null","","","","learningBlock2","","","","That was a tob.","null","","","","",""
"","html-keyboard-response","445","1875191","0.0-8.0-2.65","FL","7xgb6axxfk","1368","912","de","rf07as06","null","","","","learningBlock2","","","","<div style=""font-size:60px;""> </div>","null","FL","learning/Slide146.JPG","That was a tob.","",""
"","image-keyboard-response","446","1875380","0.0-8.0-0.66","FL","7xgb6axxfk","1368","912","de","rf07as06","null","","","","","","","","learning/Slide147.JPG","null","","","","",""
"","html-keyboard-response","447","1876552","0.0-8.0-1.66","FL","7xgb6axxfk","1368","912","de","rf07as06","null","","","","learningBlock2","","","","That was a wug.","null","","","","",""
"","html-keyboard-response","448","1877560","0.0-8.0-2.66","FL","7xgb6axxfk","1368","912","de","rf07as06","null","","","","learningBlock2","","","","<div style=""font-size:60px;""> </div>","null","FL","learning/Slide147.JPG","That was a wug.","",""
"","image-keyboard-response","449","1877745","0.0-8.0-0.67","FL","7xgb6axxfk","1368","912","de","rf07as06","null","","","","","","","","learning/Slide148.JPG","null","","","","",""
"","html-keyboard-response","450","1878916","0.0-8.0-1.67","FL","7xgb6axxfk","1368","912","de","rf07as06","null","","","","learningBlock2","","","","That was a bim.","null","","","","",""
"","html-keyboard-response","451","1879928","0.0-8.0-2.67","FL","7xgb6axxfk","1368","912","de","rf07as06","null","","","","learningBlock2","","","","<div style=""font-size:60px;""> </div>","null","FL","learning/Slide148.JPG","That was a bim.","",""
"","image-keyboard-response","452","1880116","0.0-8.0-0.68","FL","7xgb6axxfk","1368","912","de","rf07as06","null","","","","","","","","learning/Slide149.JPG","null","","","","",""
"","html-keyboard-response","453","1881282","0.0-8.0-1.68","FL","7xgb6axxfk","1368","912","de","rf07as06","null","","","","learningBlock2","","","","That was a dep.","null","","","","",""
"","html-keyboard-response","454","1882286","0.0-8.0-2.68","FL","7xgb6axxfk","1368","912","de","rf07as06","null","","","","learningBlock2","","","","<div style=""font-size:60px;""> </div>","null","FL","learning/Slide149.JPG","That was a dep.","",""
"","image-keyboard-response","455","1882472","0.0-8.0-0.69","FL","7xgb6axxfk","1368","912","de","rf07as06","null","","","","","","","","learning/Slide150.JPG","null","","","","",""
"","html-keyboard-response","456","1883632","0.0-8.0-1.69","FL","7xgb6axxfk","1368","912","de","rf07as06","null","","","","learningBlock2","","","","That was a wug.","null","","","","",""
"","html-keyboard-response","457","1884642","0.0-8.0-2.69","FL","7xgb6axxfk","1368","912","de","rf07as06","null","","","","learningBlock2","","","","<div style=""font-size:60px;""> </div>","null","FL","learning/Slide150.JPG","That was a wug.","",""
"","image-keyboard-response","458","1884832","0.0-8.0-0.70","FL","7xgb6axxfk","1368","912","de","rf07as06","null","","","","","","","","learning/Slide151.JPG","null","","","","",""
"","html-keyboard-response","459","1886005","0.0-8.0-1.70","FL","7xgb6axxfk","1368","912","de","rf07as06","null","","","","learningBlock2","","","","That was a dep.","null","","","","",""
"","html-keyboard-response","460","1887014","0.0-8.0-2.70","FL","7xgb6axxfk","1368","912","de","rf07as06","null","","","","learningBlock2","","","","<div style=""font-size:60px;""> </div>","null","FL","learning/Slide151.JPG","That was a dep.","",""
"","image-keyboard-response","461","1887194","0.0-8.0-0.71","FL","7xgb6axxfk","1368","912","de","rf07as06","null","","","","","","","","learning/Slide152.JPG","null","","","","",""
"","html-keyboard-response","462","1888367","0.0-8.0-1.71","FL","7xgb6axxfk","1368","912","de","rf07as06","null","","","","learningBlock2","","","","That was a wug.","null","","","","",""
"","html-keyboard-response","463","1889383","0.0-8.0-2.71","FL","7xgb6axxfk","1368","912","de","rf07as06","null","","","","learningBlock2","","","","<div style=""font-size:60px;""> </div>","null","FL","learning/Slide152.JPG","That was a wug.","",""
"","image-keyboard-response","464","1889572","0.0-8.0-0.72","FL","7xgb6axxfk","1368","912","de","rf07as06","null","","","","","","","","learning/Slide153.JPG","null","","","","",""
"","html-keyboard-response","465","1890727","0.0-8.0-1.72","FL","7xgb6axxfk","1368","912","de","rf07as06","null","","","","learningBlock2","","","","That was a bim.","null","","","","",""
"","html-keyboard-response","466","1891736","0.0-8.0-2.72","FL","7xgb6axxfk","1368","912","de","rf07as06","null","","","","learningBlock2","","","","<div style=""font-size:60px;""> </div>","null","FL","learning/Slide153.JPG","That was a bim.","",""
"","image-keyboard-response","467","1891927","0.0-8.0-0.73","FL","7xgb6axxfk","1368","912","de","rf07as06","null","","","","","","","","learning/Slide154.JPG","null","","","","",""
"","html-keyboard-response","468","1893086","0.0-8.0-1.73","FL","7xgb6axxfk","1368","912","de","rf07as06","null","","","","learningBlock2","","","","That was a tob.","null","","","","",""
"","html-keyboard-response","469","1894102","0.0-8.0-2.73","FL","7xgb6axxfk","1368","912","de","rf07as06","null","","","","learningBlock2","","","","<div style=""font-size:60px;""> </div>","null","FL","learning/Slide154.JPG","That was a tob.","",""
"","image-keyboard-response","470","1894290","0.0-8.0-0.74","FL","7xgb6axxfk","1368","912","de","rf07as06","null","","","","","","","","learning/Slide155.JPG","null","","","","",""
"","html-keyboard-response","471","1895456","0.0-8.0-1.74","FL","7xgb6axxfk","1368","912","de","rf07as06","null","","","","learningBlock2","","","","That was a dep.","null","","","","",""
"","html-keyboard-response","472","1896463","0.0-8.0-2.74","FL","7xgb6axxfk","1368","912","de","rf07as06","null","","","","learningBlock2","","","","<div style=""font-size:60px;""> </div>","null","FL","learning/Slide155.JPG","That was a dep.","",""
"","image-keyboard-response","473","1896655","0.0-8.0-0.75","FL","7xgb6axxfk","1368","912","de","rf07as06","null","","","","","","","","learning/Slide156.JPG","null","","","","",""
"","html-keyboard-response","474","1897817","0.0-8.0-1.75","FL","7xgb6axxfk","1368","912","de","rf07as06","null","","","","learningBlock2","","","","That was a bim.","null","","","","",""
"","html-keyboard-response","475","1898820","0.0-8.0-2.75","FL","7xgb6axxfk","1368","912","de","rf07as06","null","","","","learningBlock2","","","","<div style=""font-size:60px;""> </div>","null","FL","learning/Slide156.JPG","That was a bim.","",""
"","image-keyboard-response","476","1899012","0.0-8.0-0.76","FL","7xgb6axxfk","1368","912","de","rf07as06","null","","","","","","","","learning/Slide157.JPG","null","","","","",""
"","html-keyboard-response","477","1900168","0.0-8.0-1.76","FL","7xgb6axxfk","1368","912","de","rf07as06","null","","","","learningBlock2","","","","That was a dep.","null","","","","",""
"","html-keyboard-response","478","1901175","0.0-8.0-2.76","FL","7xgb6axxfk","1368","912","de","rf07as06","null","","","","learningBlock2","","","","<div style=""font-size:60px;""> </div>","null","FL","learning/Slide157.JPG","That was a dep.","",""
"","image-keyboard-response","479","1901363","0.0-8.0-0.77","FL","7xgb6axxfk","1368","912","de","rf07as06","null","","","","","","","","learning/Slide158.JPG","null","","","","",""
"","html-keyboard-response","480","1902530","0.0-8.0-1.77","FL","7xgb6axxfk","1368","912","de","rf07as06","null","","","","learningBlock2","","","","That was a tob.","null","","","","",""
"","html-keyboard-response","481","1903541","0.0-8.0-2.77","FL","7xgb6axxfk","1368","912","de","rf07as06","null","","","","learningBlock2","","","","<div style=""font-size:60px;""> </div>","null","FL","learning/Slide158.JPG","That was a tob.","",""
"","image-keyboard-response","482","1903728","0.0-8.0-0.78","FL","7xgb6axxfk","1368","912","de","rf07as06","null","","","","","","","","learning/Slide159.JPG","null","","","","",""
"","html-keyboard-response","483","1904896","0.0-8.0-1.78","FL","7xgb6axxfk","1368","912","de","rf07as06","null","","","","learningBlock2","","","","That was a dep.","null","","","","",""
"","html-keyboard-response","484","1905901","0.0-8.0-2.78","FL","7xgb6axxfk","1368","912","de","rf07as06","null","","","","learningBlock2","","","","<div style=""font-size:60px;""> </div>","null","FL","learning/Slide159.JPG","That was a dep.","",""
"","image-keyboard-response","485","1906090","0.0-8.0-0.79","FL","7xgb6axxfk","1368","912","de","rf07as06","null","","","","","","","","learning/Slide160.JPG","null","","","","",""
