"success","trial_type","trial_index","time_elapsed","internal_node_id","condition","subject","screen_width","screen_height","language","codeword","rt","responses","url","view_history","test_part","final_height_px","final_width_px","scale_factor","stimulus","key_press","learningType","presentedImage","presentedLabel","button_pressed","response"
"true","fullscreen","0","2989","0.0-0.0","LF","f64ncrzxu3","1920","1080","en","NS08US09","","","","","","","","","","","","","","",""
"","survey-html-form","1","11287","0.0-1.0","LF","f64ncrzxu3","1920","1080","en","NS08US09","8291.91999998875","{""language"":""en""}","","","","","","","","","","","","",""
"","external-html","2","26142","0.0-3.0-0.0","LF","f64ncrzxu3","1920","1080","en","NS08US09","14793.905000027735","","text/information_english.html","","","","","","","","","","","",""
"","external-html","3","38710","0.0-3.0-1.0","LF","f64ncrzxu3","1920","1080","en","NS08US09","12517.940000019735","","text/consent_english.html","","","","","","","","","","","",""
"","survey-html-form","4","121774","0.0-3.0-2.0","LF","f64ncrzxu3","1920","1080","en","NS08US09","83058.61499998719","{""codeword_enter"":""NS08US09""}","","","","","","","","","","","","",""
"","instructions","5","141742","0.0-4.0","LF","f64ncrzxu3","1920","1080","en","NS08US09","NA","","","[{""page_index"":0,""viewing_time"":4515.664999984438},{""page_index"":1,""viewing_time"":13943.430000013905}]","instructions","","","","","","","","","",""
"","resize","6","187286","0.0-5.0","LF","f64ncrzxu3","1920","1080","en","NS08US09","","","","","","","466","2.9587301587301584","","","","","","",""
"","html-keyboard-response","7","188289","0.0-6.0-0.0","LF","f64ncrzxu3","1920","1080","en","NS08US09","null","","","","learningBlock1","","","","This is a tob:","null","","","","",""
"","image-keyboard-response","8","188630","0.0-6.0-1.0","LF","f64ncrzxu3","1920","1080","en","NS08US09","null","","","","","","","","learning/Slide1.JPG","null","","","","",""
"","html-keyboard-response","9","189636","0.0-6.0-2.0","LF","f64ncrzxu3","1920","1080","en","NS08US09","null","","","","learningBlock1","","","","<div style=""font-size:60px;""> </div>","null","LF","learning/Slide1.JPG","This is a tob:","",""
"","html-keyboard-response","10","190652","0.0-6.0-0.1","LF","f64ncrzxu3","1920","1080","en","NS08US09","null","","","","learningBlock1","","","","This is a wug:","null","","","","",""
"","image-keyboard-response","11","190986","0.0-6.0-1.1","LF","f64ncrzxu3","1920","1080","en","NS08US09","null","","","","","","","","learning/Slide2.JPG","null","","","","",""
"","html-keyboard-response","12","191996","0.0-6.0-2.1","LF","f64ncrzxu3","1920","1080","en","NS08US09","null","","","","learningBlock1","","","","<div style=""font-size:60px;""> </div>","null","LF","learning/Slide2.JPG","This is a wug:","",""
"","html-keyboard-response","13","193003","0.0-6.0-0.2","LF","f64ncrzxu3","1920","1080","en","NS08US09","null","","","","learningBlock1","","","","This is a bim:","null","","","","",""
"","image-keyboard-response","14","193346","0.0-6.0-1.2","LF","f64ncrzxu3","1920","1080","en","NS08US09","null","","","","","","","","learning/Slide3.JPG","null","","","","",""
"","html-keyboard-response","15","194356","0.0-6.0-2.2","LF","f64ncrzxu3","1920","1080","en","NS08US09","null","","","","learningBlock1","","","","<div style=""font-size:60px;""> </div>","null","LF","learning/Slide3.JPG","This is a bim:","",""
"","html-keyboard-response","16","195374","0.0-6.0-0.3","LF","f64ncrzxu3","1920","1080","en","NS08US09","null","","","","learningBlock1","","","","This is a dep:","null","","","","",""
"","image-keyboard-response","17","195708","0.0-6.0-1.3","LF","f64ncrzxu3","1920","1080","en","NS08US09","null","","","","","","","","learning/Slide4.JPG","null","","","","",""
"","html-keyboard-response","18","196715","0.0-6.0-2.3","LF","f64ncrzxu3","1920","1080","en","NS08US09","null","","","","learningBlock1","","","","<div style=""font-size:60px;""> </div>","null","LF","learning/Slide4.JPG","This is a dep:","",""
"","html-keyboard-response","19","197727","0.0-6.0-0.4","LF","f64ncrzxu3","1920","1080","en","NS08US09","null","","","","learningBlock1","","","","This is a wug:","null","","","","",""
"","image-keyboard-response","20","198064","0.0-6.0-1.4","LF","f64ncrzxu3","1920","1080","en","NS08US09","null","","","","","","","","learning/Slide5.JPG","null","","","","",""
"","html-keyboard-response","21","199065","0.0-6.0-2.4","LF","f64ncrzxu3","1920","1080","en","NS08US09","null","","","","learningBlock1","","","","<div style=""font-size:60px;""> </div>","null","LF","learning/Slide5.JPG","This is a wug:","",""
"","html-keyboard-response","22","200073","0.0-6.0-0.5","LF","f64ncrzxu3","1920","1080","en","NS08US09","null","","","","learningBlock1","","","","This is a dep:","null","","","","",""
"","image-keyboard-response","23","200404","0.0-6.0-1.5","LF","f64ncrzxu3","1920","1080","en","NS08US09","null","","","","","","","","learning/Slide6.JPG","null","","","","",""
"","html-keyboard-response","24","201409","0.0-6.0-2.5","LF","f64ncrzxu3","1920","1080","en","NS08US09","null","","","","learningBlock1","","","","<div style=""font-size:60px;""> </div>","null","LF","learning/Slide6.JPG","This is a dep:","",""
"","html-keyboard-response","25","202426","0.0-6.0-0.6","LF","f64ncrzxu3","1920","1080","en","NS08US09","null","","","","learningBlock1","","","","This is a wug:","null","","","","",""
"","image-keyboard-response","26","202766","0.0-6.0-1.6","LF","f64ncrzxu3","1920","1080","en","NS08US09","null","","","","","","","","learning/Slide7.JPG","null","","","","",""
"","html-keyboard-response","27","203769","0.0-6.0-2.6","LF","f64ncrzxu3","1920","1080","en","NS08US09","null","","","","learningBlock1","","","","<div style=""font-size:60px;""> </div>","null","LF","learning/Slide7.JPG","This is a wug:","",""
"","html-keyboard-response","28","204774","0.0-6.0-0.7","LF","f64ncrzxu3","1920","1080","en","NS08US09","null","","","","learningBlock1","","","","This is a bim:","null","","","","",""
"","image-keyboard-response","29","205107","0.0-6.0-1.7","LF","f64ncrzxu3","1920","1080","en","NS08US09","null","","","","","","","","learning/Slide8.JPG","null","","","","",""
"","html-keyboard-response","30","206114","0.0-6.0-2.7","LF","f64ncrzxu3","1920","1080","en","NS08US09","null","","","","learningBlock1","","","","<div style=""font-size:60px;""> </div>","null","LF","learning/Slide8.JPG","This is a bim:","",""
"","html-keyboard-response","31","207122","0.0-6.0-0.8","LF","f64ncrzxu3","1920","1080","en","NS08US09","null","","","","learningBlock1","","","","This is a wug:","null","","","","",""
"","image-keyboard-response","32","207457","0.0-6.0-1.8","LF","f64ncrzxu3","1920","1080","en","NS08US09","null","","","","","","","","learning/Slide9.JPG","null","","","","",""
"","html-keyboard-response","33","208465","0.0-6.0-2.8","LF","f64ncrzxu3","1920","1080","en","NS08US09","null","","","","learningBlock1","","","","<div style=""font-size:60px;""> </div>","null","LF","learning/Slide9.JPG","This is a wug:","",""
"","html-keyboard-response","34","209470","0.0-6.0-0.9","LF","f64ncrzxu3","1920","1080","en","NS08US09","null","","","","learningBlock1","","","","This is a dep:","null","","","","",""
"","image-keyboard-response","35","209806","0.0-6.0-1.9","LF","f64ncrzxu3","1920","1080","en","NS08US09","null","","","","","","","","learning/Slide10.JPG","null","","","","",""
"","html-keyboard-response","36","210809","0.0-6.0-2.9","LF","f64ncrzxu3","1920","1080","en","NS08US09","null","","","","learningBlock1","","","","<div style=""font-size:60px;""> </div>","null","LF","learning/Slide10.JPG","This is a dep:","",""
"","html-keyboard-response","37","211814","0.0-6.0-0.10","LF","f64ncrzxu3","1920","1080","en","NS08US09","null","","","","learningBlock1","","","","This is a tob:","null","","","","",""
"","image-keyboard-response","38","212145","0.0-6.0-1.10","LF","f64ncrzxu3","1920","1080","en","NS08US09","null","","","","","","","","learning/Slide11.JPG","null","","","","",""
"","html-keyboard-response","39","213149","0.0-6.0-2.10","LF","f64ncrzxu3","1920","1080","en","NS08US09","null","","","","learningBlock1","","","","<div style=""font-size:60px;""> </div>","null","LF","learning/Slide11.JPG","This is a tob:","",""
"","html-keyboard-response","40","214164","0.0-6.0-0.11","LF","f64ncrzxu3","1920","1080","en","NS08US09","null","","","","learningBlock1","","","","This is a dep:","null","","","","",""
"","image-keyboard-response","41","214499","0.0-6.0-1.11","LF","f64ncrzxu3","1920","1080","en","NS08US09","null","","","","","","","","learning/Slide12.JPG","null","","","","",""
"","html-keyboard-response","42","215513","0.0-6.0-2.11","LF","f64ncrzxu3","1920","1080","en","NS08US09","null","","","","learningBlock1","","","","<div style=""font-size:60px;""> </div>","null","LF","learning/Slide12.JPG","This is a dep:","",""
"","html-keyboard-response","43","216527","0.0-6.0-0.12","LF","f64ncrzxu3","1920","1080","en","NS08US09","null","","","","learningBlock1","","","","This is a bim:","null","","","","",""
"","image-keyboard-response","44","216855","0.0-6.0-1.12","LF","f64ncrzxu3","1920","1080","en","NS08US09","null","","","","","","","","learning/Slide13.JPG","null","","","","",""
"","html-keyboard-response","45","217861","0.0-6.0-2.12","LF","f64ncrzxu3","1920","1080","en","NS08US09","null","","","","learningBlock1","","","","<div style=""font-size:60px;""> </div>","null","LF","learning/Slide13.JPG","This is a bim:","",""
"","html-keyboard-response","46","218873","0.0-6.0-0.13","LF","f64ncrzxu3","1920","1080","en","NS08US09","null","","","","learningBlock1","","","","This is a wug:","null","","","","",""
"","image-keyboard-response","47","219214","0.0-6.0-1.13","LF","f64ncrzxu3","1920","1080","en","NS08US09","null","","","","","","","","learning/Slide14.JPG","null","","","","",""
"","html-keyboard-response","48","220224","0.0-6.0-2.13","LF","f64ncrzxu3","1920","1080","en","NS08US09","null","","","","learningBlock1","","","","<div style=""font-size:60px;""> </div>","null","LF","learning/Slide14.JPG","This is a wug:","",""
"","html-keyboard-response","49","221229","0.0-6.0-0.14","LF","f64ncrzxu3","1920","1080","en","NS08US09","null","","","","learningBlock1","","","","This is a tob:","null","","","","",""
"","image-keyboard-response","50","221571","0.0-6.0-1.14","LF","f64ncrzxu3","1920","1080","en","NS08US09","null","","","","","","","","learning/Slide15.JPG","null","","","","",""
"","html-keyboard-response","51","222574","0.0-6.0-2.14","LF","f64ncrzxu3","1920","1080","en","NS08US09","null","","","","learningBlock1","","","","<div style=""font-size:60px;""> </div>","null","LF","learning/Slide15.JPG","This is a tob:","",""
"","html-keyboard-response","52","223578","0.0-6.0-0.15","LF","f64ncrzxu3","1920","1080","en","NS08US09","null","","","","learningBlock1","","","","This is a dep:","null","","","","",""
"","image-keyboard-response","53","223913","0.0-6.0-1.15","LF","f64ncrzxu3","1920","1080","en","NS08US09","null","","","","","","","","learning/Slide16.JPG","null","","","","",""
"","html-keyboard-response","54","224920","0.0-6.0-2.15","LF","f64ncrzxu3","1920","1080","en","NS08US09","null","","","","learningBlock1","","","","<div style=""font-size:60px;""> </div>","null","LF","learning/Slide16.JPG","This is a dep:","",""
"","html-keyboard-response","55","225922","0.0-6.0-0.16","LF","f64ncrzxu3","1920","1080","en","NS08US09","null","","","","learningBlock1","","","","This is a bim:","null","","","","",""
"","image-keyboard-response","56","226258","0.0-6.0-1.16","LF","f64ncrzxu3","1920","1080","en","NS08US09","null","","","","","","","","learning/Slide17.JPG","null","","","","",""
"","html-keyboard-response","57","227269","0.0-6.0-2.16","LF","f64ncrzxu3","1920","1080","en","NS08US09","null","","","","learningBlock1","","","","<div style=""font-size:60px;""> </div>","null","LF","learning/Slide17.JPG","This is a bim:","",""
"","html-keyboard-response","58","228274","0.0-6.0-0.17","LF","f64ncrzxu3","1920","1080","en","NS08US09","null","","","","learningBlock1","","","","This is a tob:","null","","","","",""
"","image-keyboard-response","59","228610","0.0-6.0-1.17","LF","f64ncrzxu3","1920","1080","en","NS08US09","null","","","","","","","","learning/Slide18.JPG","null","","","","",""
"","html-keyboard-response","60","229615","0.0-6.0-2.17","LF","f64ncrzxu3","1920","1080","en","NS08US09","null","","","","learningBlock1","","","","<div style=""font-size:60px;""> </div>","null","LF","learning/Slide18.JPG","This is a tob:","",""
"","html-keyboard-response","61","230630","0.0-6.0-0.18","LF","f64ncrzxu3","1920","1080","en","NS08US09","null","","","","learningBlock1","","","","This is a wug:","null","","","","",""
"","image-keyboard-response","62","230966","0.0-6.0-1.18","LF","f64ncrzxu3","1920","1080","en","NS08US09","null","","","","","","","","learning/Slide19.JPG","null","","","","",""
"","html-keyboard-response","63","231976","0.0-6.0-2.18","LF","f64ncrzxu3","1920","1080","en","NS08US09","null","","","","learningBlock1","","","","<div style=""font-size:60px;""> </div>","null","LF","learning/Slide19.JPG","This is a wug:","",""
"","html-keyboard-response","64","232986","0.0-6.0-0.19","LF","f64ncrzxu3","1920","1080","en","NS08US09","null","","","","learningBlock1","","","","This is a bim:","null","","","","",""
"","image-keyboard-response","65","233323","0.0-6.0-1.19","LF","f64ncrzxu3","1920","1080","en","NS08US09","null","","","","","","","","learning/Slide20.JPG","null","","","","",""
"","html-keyboard-response","66","234328","0.0-6.0-2.19","LF","f64ncrzxu3","1920","1080","en","NS08US09","null","","","","learningBlock1","","","","<div style=""font-size:60px;""> </div>","null","LF","learning/Slide20.JPG","This is a bim:","",""
"","html-keyboard-response","67","235330","0.0-6.0-0.20","LF","f64ncrzxu3","1920","1080","en","NS08US09","null","","","","learningBlock1","","","","This is a dep:","null","","","","",""
"","image-keyboard-response","68","235666","0.0-6.0-1.20","LF","f64ncrzxu3","1920","1080","en","NS08US09","null","","","","","","","","learning/Slide21.JPG","null","","","","",""
"","html-keyboard-response","69","236678","0.0-6.0-2.20","LF","f64ncrzxu3","1920","1080","en","NS08US09","null","","","","learningBlock1","","","","<div style=""font-size:60px;""> </div>","null","LF","learning/Slide21.JPG","This is a dep:","",""
"","html-keyboard-response","70","237685","0.0-6.0-0.21","LF","f64ncrzxu3","1920","1080","en","NS08US09","null","","","","learningBlock1","","","","This is a bim:","null","","","","",""
"","image-keyboard-response","71","238026","0.0-6.0-1.21","LF","f64ncrzxu3","1920","1080","en","NS08US09","null","","","","","","","","learning/Slide22.JPG","null","","","","",""
"","html-keyboard-response","72","239035","0.0-6.0-2.21","LF","f64ncrzxu3","1920","1080","en","NS08US09","null","","","","learningBlock1","","","","<div style=""font-size:60px;""> </div>","null","LF","learning/Slide22.JPG","This is a bim:","",""
"","html-keyboard-response","73","240051","0.0-6.0-0.22","LF","f64ncrzxu3","1920","1080","en","NS08US09","null","","","","learningBlock1","","","","This is a tob:","null","","","","",""
"","image-keyboard-response","74","240392","0.0-6.0-1.22","LF","f64ncrzxu3","1920","1080","en","NS08US09","null","","","","","","","","learning/Slide23.JPG","null","","","","",""
"","html-keyboard-response","75","241402","0.0-6.0-2.22","LF","f64ncrzxu3","1920","1080","en","NS08US09","null","","","","learningBlock1","","","","<div style=""font-size:60px;""> </div>","null","LF","learning/Slide23.JPG","This is a tob:","",""
"","html-keyboard-response","76","242409","0.0-6.0-0.23","LF","f64ncrzxu3","1920","1080","en","NS08US09","null","","","","learningBlock1","","","","This is a wug:","null","","","","",""
"","image-keyboard-response","77","242745","0.0-6.0-1.23","LF","f64ncrzxu3","1920","1080","en","NS08US09","null","","","","","","","","learning/Slide24.JPG","null","","","","",""
"","html-keyboard-response","78","243755","0.0-6.0-2.23","LF","f64ncrzxu3","1920","1080","en","NS08US09","null","","","","learningBlock1","","","","<div style=""font-size:60px;""> </div>","null","LF","learning/Slide24.JPG","This is a wug:","",""
"","html-keyboard-response","79","244759","0.0-6.0-0.24","LF","f64ncrzxu3","1920","1080","en","NS08US09","null","","","","learningBlock1","","","","This is a dep:","null","","","","",""
"","image-keyboard-response","80","245100","0.0-6.0-1.24","LF","f64ncrzxu3","1920","1080","en","NS08US09","null","","","","","","","","learning/Slide25.JPG","null","","","","",""
"","html-keyboard-response","81","246107","0.0-6.0-2.24","LF","f64ncrzxu3","1920","1080","en","NS08US09","null","","","","learningBlock1","","","","<div style=""font-size:60px;""> </div>","null","LF","learning/Slide25.JPG","This is a dep:","",""
"","html-keyboard-response","82","247119","0.0-6.0-0.25","LF","f64ncrzxu3","1920","1080","en","NS08US09","null","","","","learningBlock1","","","","This is a wug:","null","","","","",""
"","image-keyboard-response","83","247455","0.0-6.0-1.25","LF","f64ncrzxu3","1920","1080","en","NS08US09","null","","","","","","","","learning/Slide26.JPG","null","","","","",""
"","html-keyboard-response","84","248466","0.0-6.0-2.25","LF","f64ncrzxu3","1920","1080","en","NS08US09","null","","","","learningBlock1","","","","<div style=""font-size:60px;""> </div>","null","LF","learning/Slide26.JPG","This is a wug:","",""
"","html-keyboard-response","85","249478","0.0-6.0-0.26","LF","f64ncrzxu3","1920","1080","en","NS08US09","null","","","","learningBlock1","","","","This is a bim:","null","","","","",""
"","image-keyboard-response","86","249815","0.0-6.0-1.26","LF","f64ncrzxu3","1920","1080","en","NS08US09","null","","","","","","","","learning/Slide27.JPG","null","","","","",""
"","html-keyboard-response","87","250823","0.0-6.0-2.26","LF","f64ncrzxu3","1920","1080","en","NS08US09","null","","","","learningBlock1","","","","<div style=""font-size:60px;""> </div>","null","LF","learning/Slide27.JPG","This is a bim:","",""
"","html-keyboard-response","88","251825","0.0-6.0-0.27","LF","f64ncrzxu3","1920","1080","en","NS08US09","null","","","","learningBlock1","","","","This is a dep:","null","","","","",""
"","image-keyboard-response","89","252176","0.0-6.0-1.27","LF","f64ncrzxu3","1920","1080","en","NS08US09","null","","","","","","","","learning/Slide28.JPG","null","","","","",""
"","html-keyboard-response","90","253193","0.0-6.0-2.27","LF","f64ncrzxu3","1920","1080","en","NS08US09","null","","","","learningBlock1","","","","<div style=""font-size:60px;""> </div>","null","LF","learning/Slide28.JPG","This is a dep:","",""
"","html-keyboard-response","91","254200","0.0-6.0-0.28","LF","f64ncrzxu3","1920","1080","en","NS08US09","null","","","","learningBlock1","","","","This is a tob:","null","","","","",""
"","image-keyboard-response","92","254529","0.0-6.0-1.28","LF","f64ncrzxu3","1920","1080","en","NS08US09","null","","","","","","","","learning/Slide29.JPG","null","","","","",""
"","html-keyboard-response","93","255532","0.0-6.0-2.28","LF","f64ncrzxu3","1920","1080","en","NS08US09","null","","","","learningBlock1","","","","<div style=""font-size:60px;""> </div>","null","LF","learning/Slide29.JPG","This is a tob:","",""
"","html-keyboard-response","94","256536","0.0-6.0-0.29","LF","f64ncrzxu3","1920","1080","en","NS08US09","null","","","","learningBlock1","","","","This is a dep:","null","","","","",""
"","image-keyboard-response","95","256871","0.0-6.0-1.29","LF","f64ncrzxu3","1920","1080","en","NS08US09","null","","","","","","","","learning/Slide30.JPG","null","","","","",""
"","html-keyboard-response","96","257881","0.0-6.0-2.29","LF","f64ncrzxu3","1920","1080","en","NS08US09","null","","","","learningBlock1","","","","<div style=""font-size:60px;""> </div>","null","LF","learning/Slide30.JPG","This is a dep:","",""
"","html-keyboard-response","97","258890","0.0-6.0-0.30","LF","f64ncrzxu3","1920","1080","en","NS08US09","null","","","","learningBlock1","","","","This is a wug:","null","","","","",""
"","image-keyboard-response","98","259231","0.0-6.0-1.30","LF","f64ncrzxu3","1920","1080","en","NS08US09","null","","","","","","","","learning/Slide31.JPG","null","","","","",""
"","html-keyboard-response","99","260241","0.0-6.0-2.30","LF","f64ncrzxu3","1920","1080","en","NS08US09","null","","","","learningBlock1","","","","<div style=""font-size:60px;""> </div>","null","LF","learning/Slide31.JPG","This is a wug:","",""
"","html-keyboard-response","100","261250","0.0-6.0-0.31","LF","f64ncrzxu3","1920","1080","en","NS08US09","null","","","","learningBlock1","","","","This is a tob:","null","","","","",""
"","image-keyboard-response","101","261594","0.0-6.0-1.31","LF","f64ncrzxu3","1920","1080","en","NS08US09","null","","","","","","","","learning/Slide32.JPG","null","","","","",""
"","html-keyboard-response","102","262607","0.0-6.0-2.31","LF","f64ncrzxu3","1920","1080","en","NS08US09","null","","","","learningBlock1","","","","<div style=""font-size:60px;""> </div>","null","LF","learning/Slide32.JPG","This is a tob:","",""
"","html-keyboard-response","103","263613","0.0-6.0-0.32","LF","f64ncrzxu3","1920","1080","en","NS08US09","null","","","","learningBlock1","","","","This is a bim:","null","","","","",""
"","image-keyboard-response","104","263956","0.0-6.0-1.32","LF","f64ncrzxu3","1920","1080","en","NS08US09","null","","","","","","","","learning/Slide33.JPG","null","","","","",""
"","html-keyboard-response","105","264958","0.0-6.0-2.32","LF","f64ncrzxu3","1920","1080","en","NS08US09","null","","","","learningBlock1","","","","<div style=""font-size:60px;""> </div>","null","LF","learning/Slide33.JPG","This is a bim:","",""
"","html-keyboard-response","106","265969","0.0-6.0-0.33","LF","f64ncrzxu3","1920","1080","en","NS08US09","null","","","","learningBlock1","","","","This is a tob:","null","","","","",""
"","image-keyboard-response","107","266303","0.0-6.0-1.33","LF","f64ncrzxu3","1920","1080","en","NS08US09","null","","","","","","","","learning/Slide34.JPG","null","","","","",""
"","html-keyboard-response","108","267309","0.0-6.0-2.33","LF","f64ncrzxu3","1920","1080","en","NS08US09","null","","","","learningBlock1","","","","<div style=""font-size:60px;""> </div>","null","LF","learning/Slide34.JPG","This is a tob:","",""
"","html-keyboard-response","109","268314","0.0-6.0-0.34","LF","f64ncrzxu3","1920","1080","en","NS08US09","null","","","","learningBlock1","","","","This is a bim:","null","","","","",""
"","image-keyboard-response","110","268658","0.0-6.0-1.34","LF","f64ncrzxu3","1920","1080","en","NS08US09","null","","","","","","","","learning/Slide35.JPG","null","","","","",""
"","html-keyboard-response","111","269673","0.0-6.0-2.34","LF","f64ncrzxu3","1920","1080","en","NS08US09","null","","","","learningBlock1","","","","<div style=""font-size:60px;""> </div>","null","LF","learning/Slide35.JPG","This is a bim:","",""
"","html-keyboard-response","112","270677","0.0-6.0-0.35","LF","f64ncrzxu3","1920","1080","en","NS08US09","null","","","","learningBlock1","","","","This is a dep:","null","","","","",""
"","image-keyboard-response","113","271020","0.0-6.0-1.35","LF","f64ncrzxu3","1920","1080","en","NS08US09","null","","","","","","","","learning/Slide36.JPG","null","","","","",""
"","html-keyboard-response","114","272028","0.0-6.0-2.35","LF","f64ncrzxu3","1920","1080","en","NS08US09","null","","","","learningBlock1","","","","<div style=""font-size:60px;""> </div>","null","LF","learning/Slide36.JPG","This is a dep:","",""
"","html-keyboard-response","115","273032","0.0-6.0-0.36","LF","f64ncrzxu3","1920","1080","en","NS08US09","null","","","","learningBlock1","","","","This is a tob:","null","","","","",""
"","image-keyboard-response","116","273362","0.0-6.0-1.36","LF","f64ncrzxu3","1920","1080","en","NS08US09","null","","","","","","","","learning/Slide37.JPG","null","","","","",""
"","html-keyboard-response","117","274369","0.0-6.0-2.36","LF","f64ncrzxu3","1920","1080","en","NS08US09","null","","","","learningBlock1","","","","<div style=""font-size:60px;""> </div>","null","LF","learning/Slide37.JPG","This is a tob:","",""
"","html-keyboard-response","118","275381","0.0-6.0-0.37","LF","f64ncrzxu3","1920","1080","en","NS08US09","null","","","","learningBlock1","","","","This is a wug:","null","","","","",""
"","image-keyboard-response","119","275722","0.0-6.0-1.37","LF","f64ncrzxu3","1920","1080","en","NS08US09","null","","","","","","","","learning/Slide38.JPG","null","","","","",""
"","html-keyboard-response","120","276725","0.0-6.0-2.37","LF","f64ncrzxu3","1920","1080","en","NS08US09","null","","","","learningBlock1","","","","<div style=""font-size:60px;""> </div>","null","LF","learning/Slide38.JPG","This is a wug:","",""
"","html-keyboard-response","121","277736","0.0-6.0-0.38","LF","f64ncrzxu3","1920","1080","en","NS08US09","null","","","","learningBlock1","","","","This is a bim:","null","","","","",""
"","image-keyboard-response","122","278070","0.0-6.0-1.38","LF","f64ncrzxu3","1920","1080","en","NS08US09","null","","","","","","","","learning/Slide39.JPG","null","","","","",""
"","html-keyboard-response","123","279075","0.0-6.0-2.38","LF","f64ncrzxu3","1920","1080","en","NS08US09","null","","","","learningBlock1","","","","<div style=""font-size:60px;""> </div>","null","LF","learning/Slide39.JPG","This is a bim:","",""
"","html-keyboard-response","124","280084","0.0-6.0-0.39","LF","f64ncrzxu3","1920","1080","en","NS08US09","null","","","","learningBlock1","","","","This is a tob:","null","","","","",""
"","image-keyboard-response","125","280411","0.0-6.0-1.39","LF","f64ncrzxu3","1920","1080","en","NS08US09","null","","","","","","","","learning/Slide40.JPG","null","","","","",""
"","html-keyboard-response","126","281419","0.0-6.0-2.39","LF","f64ncrzxu3","1920","1080","en","NS08US09","null","","","","learningBlock1","","","","<div style=""font-size:60px;""> </div>","null","LF","learning/Slide40.JPG","This is a tob:","",""
"","html-keyboard-response","127","282425","0.0-6.0-0.40","LF","f64ncrzxu3","1920","1080","en","NS08US09","null","","","","learningBlock1","","","","This is a bim:","null","","","","",""
"","image-keyboard-response","128","282764","0.0-6.0-1.40","LF","f64ncrzxu3","1920","1080","en","NS08US09","null","","","","","","","","learning/Slide41.JPG","null","","","","",""
"","html-keyboard-response","129","283773","0.0-6.0-2.40","LF","f64ncrzxu3","1920","1080","en","NS08US09","null","","","","learningBlock1","","","","<div style=""font-size:60px;""> </div>","null","LF","learning/Slide41.JPG","This is a bim:","",""
"","html-keyboard-response","130","284775","0.0-6.0-0.41","LF","f64ncrzxu3","1920","1080","en","NS08US09","null","","","","learningBlock1","","","","This is a dep:","null","","","","",""
"","image-keyboard-response","131","285118","0.0-6.0-1.41","LF","f64ncrzxu3","1920","1080","en","NS08US09","null","","","","","","","","learning/Slide42.JPG","null","","","","",""
"","html-keyboard-response","132","286123","0.0-6.0-2.41","LF","f64ncrzxu3","1920","1080","en","NS08US09","null","","","","learningBlock1","","","","<div style=""font-size:60px;""> </div>","null","LF","learning/Slide42.JPG","This is a dep:","",""
"","html-keyboard-response","133","287127","0.0-6.0-0.42","LF","f64ncrzxu3","1920","1080","en","NS08US09","null","","","","learningBlock1","","","","This is a wug:","null","","","","",""
"","image-keyboard-response","134","287465","0.0-6.0-1.42","LF","f64ncrzxu3","1920","1080","en","NS08US09","null","","","","","","","","learning/Slide43.JPG","null","","","","",""
"","html-keyboard-response","135","288467","0.0-6.0-2.42","LF","f64ncrzxu3","1920","1080","en","NS08US09","null","","","","learningBlock1","","","","<div style=""font-size:60px;""> </div>","null","LF","learning/Slide43.JPG","This is a wug:","",""
"","html-keyboard-response","136","289473","0.0-6.0-0.43","LF","f64ncrzxu3","1920","1080","en","NS08US09","null","","","","learningBlock1","","","","This is a bim:","null","","","","",""
"","image-keyboard-response","137","289810","0.0-6.0-1.43","LF","f64ncrzxu3","1920","1080","en","NS08US09","null","","","","","","","","learning/Slide44.JPG","null","","","","",""
"","html-keyboard-response","138","290825","0.0-6.0-2.43","LF","f64ncrzxu3","1920","1080","en","NS08US09","null","","","","learningBlock1","","","","<div style=""font-size:60px;""> </div>","null","LF","learning/Slide44.JPG","This is a bim:","",""
"","html-keyboard-response","139","291844","0.0-6.0-0.44","LF","f64ncrzxu3","1920","1080","en","NS08US09","null","","","","learningBlock1","","","","This is a wug:","null","","","","",""
"","image-keyboard-response","140","292180","0.0-6.0-1.44","LF","f64ncrzxu3","1920","1080","en","NS08US09","null","","","","","","","","learning/Slide45.JPG","null","","","","",""
"","html-keyboard-response","141","293189","0.0-6.0-2.44","LF","f64ncrzxu3","1920","1080","en","NS08US09","null","","","","learningBlock1","","","","<div style=""font-size:60px;""> </div>","null","LF","learning/Slide45.JPG","This is a wug:","",""
"","html-keyboard-response","142","294201","0.0-6.0-0.45","LF","f64ncrzxu3","1920","1080","en","NS08US09","null","","","","learningBlock1","","","","This is a dep:","null","","","","",""
"","image-keyboard-response","143","294538","0.0-6.0-1.45","LF","f64ncrzxu3","1920","1080","en","NS08US09","null","","","","","","","","learning/Slide46.JPG","null","","","","",""
"","html-keyboard-response","144","295543","0.0-6.0-2.45","LF","f64ncrzxu3","1920","1080","en","NS08US09","null","","","","learningBlock1","","","","<div style=""font-size:60px;""> </div>","null","LF","learning/Slide46.JPG","This is a dep:","",""
"","html-keyboard-response","145","296545","0.0-6.0-0.46","LF","f64ncrzxu3","1920","1080","en","NS08US09","null","","","","learningBlock1","","","","This is a tob:","null","","","","",""
"","image-keyboard-response","146","296882","0.0-6.0-1.46","LF","f64ncrzxu3","1920","1080","en","NS08US09","null","","","","","","","","learning/Slide47.JPG","null","","","","",""
"","html-keyboard-response","147","297884","0.0-6.0-2.46","LF","f64ncrzxu3","1920","1080","en","NS08US09","null","","","","learningBlock1","","","","<div style=""font-size:60px;""> </div>","null","LF","learning/Slide47.JPG","This is a tob:","",""
"","html-keyboard-response","148","298893","0.0-6.0-0.47","LF","f64ncrzxu3","1920","1080","en","NS08US09","null","","","","learningBlock1","","","","This is a bim:","null","","","","",""
"","image-keyboard-response","149","299230","0.0-6.0-1.47","LF","f64ncrzxu3","1920","1080","en","NS08US09","null","","","","","","","","learning/Slide48.JPG","null","","","","",""
"","html-keyboard-response","150","300233","0.0-6.0-2.47","LF","f64ncrzxu3","1920","1080","en","NS08US09","null","","","","learningBlock1","","","","<div style=""font-size:60px;""> </div>","null","LF","learning/Slide48.JPG","This is a bim:","",""
"","html-keyboard-response","151","301236","0.0-6.0-0.48","LF","f64ncrzxu3","1920","1080","en","NS08US09","null","","","","learningBlock1","","","","This is a dep:","null","","","","",""
"","image-keyboard-response","152","301570","0.0-6.0-1.48","LF","f64ncrzxu3","1920","1080","en","NS08US09","null","","","","","","","","learning/Slide49.JPG","null","","","","",""
"","html-keyboard-response","153","302586","0.0-6.0-2.48","LF","f64ncrzxu3","1920","1080","en","NS08US09","null","","","","learningBlock1","","","","<div style=""font-size:60px;""> </div>","null","LF","learning/Slide49.JPG","This is a dep:","",""
"","html-keyboard-response","154","303593","0.0-6.0-0.49","LF","f64ncrzxu3","1920","1080","en","NS08US09","null","","","","learningBlock1","","","","This is a tob:","null","","","","",""
"","image-keyboard-response","155","303923","0.0-6.0-1.49","LF","f64ncrzxu3","1920","1080","en","NS08US09","null","","","","","","","","learning/Slide50.JPG","null","","","","",""
"","html-keyboard-response","156","304931","0.0-6.0-2.49","LF","f64ncrzxu3","1920","1080","en","NS08US09","null","","","","learningBlock1","","","","<div style=""font-size:60px;""> </div>","null","LF","learning/Slide50.JPG","This is a tob:","",""
"","html-keyboard-response","157","305944","0.0-6.0-0.50","LF","f64ncrzxu3","1920","1080","en","NS08US09","null","","","","learningBlock1","","","","This is a bim:","null","","","","",""
"","image-keyboard-response","158","306278","0.0-6.0-1.50","LF","f64ncrzxu3","1920","1080","en","NS08US09","null","","","","","","","","learning/Slide51.JPG","null","","","","",""
"","html-keyboard-response","159","307287","0.0-6.0-2.50","LF","f64ncrzxu3","1920","1080","en","NS08US09","null","","","","learningBlock1","","","","<div style=""font-size:60px;""> </div>","null","LF","learning/Slide51.JPG","This is a bim:","",""
"","html-keyboard-response","160","308293","0.0-6.0-0.51","LF","f64ncrzxu3","1920","1080","en","NS08US09","null","","","","learningBlock1","","","","This is a wug:","null","","","","",""
"","image-keyboard-response","161","308627","0.0-6.0-1.51","LF","f64ncrzxu3","1920","1080","en","NS08US09","null","","","","","","","","learning/Slide52.JPG","null","","","","",""
"","html-keyboard-response","162","309638","0.0-6.0-2.51","LF","f64ncrzxu3","1920","1080","en","NS08US09","null","","","","learningBlock1","","","","<div style=""font-size:60px;""> </div>","null","LF","learning/Slide52.JPG","This is a wug:","",""
"","html-keyboard-response","163","310647","0.0-6.0-0.52","LF","f64ncrzxu3","1920","1080","en","NS08US09","null","","","","learningBlock1","","","","This is a tob:","null","","","","",""
"","image-keyboard-response","164","310979","0.0-6.0-1.52","LF","f64ncrzxu3","1920","1080","en","NS08US09","null","","","","","","","","learning/Slide53.JPG","null","","","","",""
"","html-keyboard-response","165","311981","0.0-6.0-2.52","LF","f64ncrzxu3","1920","1080","en","NS08US09","null","","","","learningBlock1","","","","<div style=""font-size:60px;""> </div>","null","LF","learning/Slide53.JPG","This is a tob:","",""
"","html-keyboard-response","166","312986","0.0-6.0-0.53","LF","f64ncrzxu3","1920","1080","en","NS08US09","null","","","","learningBlock1","","","","This is a dep:","null","","","","",""
"","image-keyboard-response","167","313325","0.0-6.0-1.53","LF","f64ncrzxu3","1920","1080","en","NS08US09","null","","","","","","","","learning/Slide54.JPG","null","","","","",""
"","html-keyboard-response","168","314329","0.0-6.0-2.53","LF","f64ncrzxu3","1920","1080","en","NS08US09","null","","","","learningBlock1","","","","<div style=""font-size:60px;""> </div>","null","LF","learning/Slide54.JPG","This is a dep:","",""
"","html-keyboard-response","169","315341","0.0-6.0-0.54","LF","f64ncrzxu3","1920","1080","en","NS08US09","null","","","","learningBlock1","","","","This is a bim:","null","","","","",""
"","image-keyboard-response","170","315678","0.0-6.0-1.54","LF","f64ncrzxu3","1920","1080","en","NS08US09","null","","","","","","","","learning/Slide55.JPG","null","","","","",""
"","html-keyboard-response","171","316684","0.0-6.0-2.54","LF","f64ncrzxu3","1920","1080","en","NS08US09","null","","","","learningBlock1","","","","<div style=""font-size:60px;""> </div>","null","LF","learning/Slide55.JPG","This is a bim:","",""
"","html-keyboard-response","172","317689","0.0-6.0-0.55","LF","f64ncrzxu3","1920","1080","en","NS08US09","null","","","","learningBlock1","","","","This is a tob:","null","","","","",""
"","image-keyboard-response","173","318022","0.0-6.0-1.55","LF","f64ncrzxu3","1920","1080","en","NS08US09","null","","","","","","","","learning/Slide56.JPG","null","","","","",""
"","html-keyboard-response","174","319033","0.0-6.0-2.55","LF","f64ncrzxu3","1920","1080","en","NS08US09","null","","","","learningBlock1","","","","<div style=""font-size:60px;""> </div>","null","LF","learning/Slide56.JPG","This is a tob:","",""
"","html-keyboard-response","175","320039","0.0-6.0-0.56","LF","f64ncrzxu3","1920","1080","en","NS08US09","null","","","","learningBlock1","","","","This is a dep:","null","","","","",""
"","image-keyboard-response","176","320374","0.0-6.0-1.56","LF","f64ncrzxu3","1920","1080","en","NS08US09","null","","","","","","","","learning/Slide57.JPG","null","","","","",""
"","html-keyboard-response","177","321392","0.0-6.0-2.56","LF","f64ncrzxu3","1920","1080","en","NS08US09","null","","","","learningBlock1","","","","<div style=""font-size:60px;""> </div>","null","LF","learning/Slide57.JPG","This is a dep:","",""
"","html-keyboard-response","178","322400","0.0-6.0-0.57","LF","f64ncrzxu3","1920","1080","en","NS08US09","null","","","","learningBlock1","","","","This is a wug:","null","","","","",""
"","image-keyboard-response","179","322729","0.0-6.0-1.57","LF","f64ncrzxu3","1920","1080","en","NS08US09","null","","","","","","","","learning/Slide58.JPG","null","","","","",""
"","html-keyboard-response","180","323747","0.0-6.0-2.57","LF","f64ncrzxu3","1920","1080","en","NS08US09","null","","","","learningBlock1","","","","<div style=""font-size:60px;""> </div>","null","LF","learning/Slide58.JPG","This is a wug:","",""
"","html-keyboard-response","181","324750","0.0-6.0-0.58","LF","f64ncrzxu3","1920","1080","en","NS08US09","null","","","","learningBlock1","","","","This is a dep:","null","","","","",""
"","image-keyboard-response","182","325091","0.0-6.0-1.58","LF","f64ncrzxu3","1920","1080","en","NS08US09","null","","","","","","","","learning/Slide59.JPG","null","","","","",""
"","html-keyboard-response","183","326105","0.0-6.0-2.58","LF","f64ncrzxu3","1920","1080","en","NS08US09","null","","","","learningBlock1","","","","<div style=""font-size:60px;""> </div>","null","LF","learning/Slide59.JPG","This is a dep:","",""
"","html-keyboard-response","184","327123","0.0-6.0-0.59","LF","f64ncrzxu3","1920","1080","en","NS08US09","null","","","","learningBlock1","","","","This is a wug:","null","","","","",""
"","image-keyboard-response","185","327452","0.0-6.0-1.59","LF","f64ncrzxu3","1920","1080","en","NS08US09","null","","","","","","","","learning/Slide60.JPG","null","","","","",""
"","html-keyboard-response","186","328457","0.0-6.0-2.59","LF","f64ncrzxu3","1920","1080","en","NS08US09","null","","","","learningBlock1","","","","<div style=""font-size:60px;""> </div>","null","LF","learning/Slide60.JPG","This is a wug:","",""
"","html-keyboard-response","187","329463","0.0-6.0-0.60","LF","f64ncrzxu3","1920","1080","en","NS08US09","null","","","","learningBlock1","","","","This is a bim:","null","","","","",""
"","image-keyboard-response","188","329804","0.0-6.0-1.60","LF","f64ncrzxu3","1920","1080","en","NS08US09","null","","","","","","","","learning/Slide61.JPG","null","","","","",""
"","html-keyboard-response","189","330811","0.0-6.0-2.60","LF","f64ncrzxu3","1920","1080","en","NS08US09","null","","","","learningBlock1","","","","<div style=""font-size:60px;""> </div>","null","LF","learning/Slide61.JPG","This is a bim:","",""
"","html-keyboard-response","190","331823","0.0-6.0-0.61","LF","f64ncrzxu3","1920","1080","en","NS08US09","null","","","","learningBlock1","","","","This is a dep:","null","","","","",""
"","image-keyboard-response","191","332162","0.0-6.0-1.61","LF","f64ncrzxu3","1920","1080","en","NS08US09","null","","","","","","","","learning/Slide62.JPG","null","","","","",""
"","html-keyboard-response","192","333171","0.0-6.0-2.61","LF","f64ncrzxu3","1920","1080","en","NS08US09","null","","","","learningBlock1","","","","<div style=""font-size:60px;""> </div>","null","LF","learning/Slide62.JPG","This is a dep:","",""
"","html-keyboard-response","193","334175","0.0-6.0-0.62","LF","f64ncrzxu3","1920","1080","en","NS08US09","null","","","","learningBlock1","","","","This is a bim:","null","","","","",""
"","image-keyboard-response","194","334510","0.0-6.0-1.62","LF","f64ncrzxu3","1920","1080","en","NS08US09","null","","","","","","","","learning/Slide63.JPG","null","","","","",""
"","html-keyboard-response","195","335520","0.0-6.0-2.62","LF","f64ncrzxu3","1920","1080","en","NS08US09","null","","","","learningBlock1","","","","<div style=""font-size:60px;""> </div>","null","LF","learning/Slide63.JPG","This is a bim:","",""
"","html-keyboard-response","196","336527","0.0-6.0-0.63","LF","f64ncrzxu3","1920","1080","en","NS08US09","null","","","","learningBlock1","","","","This is a tob:","null","","","","",""
"","image-keyboard-response","197","336870","0.0-6.0-1.63","LF","f64ncrzxu3","1920","1080","en","NS08US09","null","","","","","","","","learning/Slide64.JPG","null","","","","",""
"","html-keyboard-response","198","337873","0.0-6.0-2.63","LF","f64ncrzxu3","1920","1080","en","NS08US09","null","","","","learningBlock1","","","","<div style=""font-size:60px;""> </div>","null","LF","learning/Slide64.JPG","This is a tob:","",""
"","html-keyboard-response","199","338877","0.0-6.0-0.64","LF","f64ncrzxu3","1920","1080","en","NS08US09","null","","","","learningBlock1","","","","This is a wug:","null","","","","",""
"","image-keyboard-response","200","339207","0.0-6.0-1.64","LF","f64ncrzxu3","1920","1080","en","NS08US09","null","","","","","","","","learning/Slide65.JPG","null","","","","",""
"","html-keyboard-response","201","340216","0.0-6.0-2.64","LF","f64ncrzxu3","1920","1080","en","NS08US09","null","","","","learningBlock1","","","","<div style=""font-size:60px;""> </div>","null","LF","learning/Slide65.JPG","This is a wug:","",""
"","html-keyboard-response","202","341222","0.0-6.0-0.65","LF","f64ncrzxu3","1920","1080","en","NS08US09","null","","","","learningBlock1","","","","This is a dep:","null","","","","",""
"","image-keyboard-response","203","341559","0.0-6.0-1.65","LF","f64ncrzxu3","1920","1080","en","NS08US09","null","","","","","","","","learning/Slide66.JPG","null","","","","",""
"","html-keyboard-response","204","342569","0.0-6.0-2.65","LF","f64ncrzxu3","1920","1080","en","NS08US09","null","","","","learningBlock1","","","","<div style=""font-size:60px;""> </div>","null","LF","learning/Slide66.JPG","This is a dep:","",""
"","html-keyboard-response","205","343572","0.0-6.0-0.66","LF","f64ncrzxu3","1920","1080","en","NS08US09","null","","","","learningBlock1","","","","This is a tob:","null","","","","",""
"","image-keyboard-response","206","343904","0.0-6.0-1.66","LF","f64ncrzxu3","1920","1080","en","NS08US09","null","","","","","","","","learning/Slide67.JPG","null","","","","",""
"","html-keyboard-response","207","344913","0.0-6.0-2.66","LF","f64ncrzxu3","1920","1080","en","NS08US09","null","","","","learningBlock1","","","","<div style=""font-size:60px;""> </div>","null","LF","learning/Slide67.JPG","This is a tob:","",""
"","html-keyboard-response","208","345922","0.0-6.0-0.67","LF","f64ncrzxu3","1920","1080","en","NS08US09","null","","","","learningBlock1","","","","This is a wug:","null","","","","",""
"","image-keyboard-response","209","346256","0.0-6.0-1.67","LF","f64ncrzxu3","1920","1080","en","NS08US09","null","","","","","","","","learning/Slide68.JPG","null","","","","",""
"","html-keyboard-response","210","347265","0.0-6.0-2.67","LF","f64ncrzxu3","1920","1080","en","NS08US09","null","","","","learningBlock1","","","","<div style=""font-size:60px;""> </div>","null","LF","learning/Slide68.JPG","This is a wug:","",""
"","html-keyboard-response","211","348273","0.0-6.0-0.68","LF","f64ncrzxu3","1920","1080","en","NS08US09","null","","","","learningBlock1","","","","This is a tob:","null","","","","",""
"","image-keyboard-response","212","348610","0.0-6.0-1.68","LF","f64ncrzxu3","1920","1080","en","NS08US09","null","","","","","","","","learning/Slide69.JPG","null","","","","",""
"","html-keyboard-response","213","349619","0.0-6.0-2.68","LF","f64ncrzxu3","1920","1080","en","NS08US09","null","","","","learningBlock1","","","","<div style=""font-size:60px;""> </div>","null","LF","learning/Slide69.JPG","This is a tob:","",""
"","html-keyboard-response","214","350622","0.0-6.0-0.69","LF","f64ncrzxu3","1920","1080","en","NS08US09","null","","","","learningBlock1","","","","This is a dep:","null","","","","",""
"","image-keyboard-response","215","350959","0.0-6.0-1.69","LF","f64ncrzxu3","1920","1080","en","NS08US09","null","","","","","","","","learning/Slide70.JPG","null","","","","",""
"","html-keyboard-response","216","351962","0.0-6.0-2.69","LF","f64ncrzxu3","1920","1080","en","NS08US09","null","","","","learningBlock1","","","","<div style=""font-size:60px;""> </div>","null","LF","learning/Slide70.JPG","This is a dep:","",""
"","html-keyboard-response","217","352972","0.0-6.0-0.70","LF","f64ncrzxu3","1920","1080","en","NS08US09","null","","","","learningBlock1","","","","This is a wug:","null","","","","",""
"","image-keyboard-response","218","353308","0.0-6.0-1.70","LF","f64ncrzxu3","1920","1080","en","NS08US09","null","","","","","","","","learning/Slide71.JPG","null","","","","",""
"","html-keyboard-response","219","354311","0.0-6.0-2.70","LF","f64ncrzxu3","1920","1080","en","NS08US09","null","","","","learningBlock1","","","","<div style=""font-size:60px;""> </div>","null","LF","learning/Slide71.JPG","This is a wug:","",""
"","html-keyboard-response","220","355317","0.0-6.0-0.71","LF","f64ncrzxu3","1920","1080","en","NS08US09","null","","","","learningBlock1","","","","This is a bim:","null","","","","",""
"","image-keyboard-response","221","355653","0.0-6.0-1.71","LF","f64ncrzxu3","1920","1080","en","NS08US09","null","","","","","","","","learning/Slide72.JPG","null","","","","",""
"","html-keyboard-response","222","356663","0.0-6.0-2.71","LF","f64ncrzxu3","1920","1080","en","NS08US09","null","","","","learningBlock1","","","","<div style=""font-size:60px;""> </div>","null","LF","learning/Slide72.JPG","This is a bim:","",""
"","html-keyboard-response","223","357668","0.0-6.0-0.72","LF","f64ncrzxu3","1920","1080","en","NS08US09","null","","","","learningBlock1","","","","This is a wug:","null","","","","",""
"","image-keyboard-response","224","358015","0.0-6.0-1.72","LF","f64ncrzxu3","1920","1080","en","NS08US09","null","","","","","","","","learning/Slide73.JPG","null","","","","",""
"","html-keyboard-response","225","359023","0.0-6.0-2.72","LF","f64ncrzxu3","1920","1080","en","NS08US09","null","","","","learningBlock1","","","","<div style=""font-size:60px;""> </div>","null","LF","learning/Slide73.JPG","This is a wug:","",""
"","html-keyboard-response","226","360027","0.0-6.0-0.73","LF","f64ncrzxu3","1920","1080","en","NS08US09","null","","","","learningBlock1","","","","This is a dep:","null","","","","",""
"","image-keyboard-response","227","360364","0.0-6.0-1.73","LF","f64ncrzxu3","1920","1080","en","NS08US09","null","","","","","","","","learning/Slide74.JPG","null","","","","",""
"","html-keyboard-response","228","361368","0.0-6.0-2.73","LF","f64ncrzxu3","1920","1080","en","NS08US09","null","","","","learningBlock1","","","","<div style=""font-size:60px;""> </div>","null","LF","learning/Slide74.JPG","This is a dep:","",""
"","html-keyboard-response","229","362374","0.0-6.0-0.74","LF","f64ncrzxu3","1920","1080","en","NS08US09","null","","","","learningBlock1","","","","This is a tob:","null","","","","",""
"","image-keyboard-response","230","362716","0.0-6.0-1.74","LF","f64ncrzxu3","1920","1080","en","NS08US09","null","","","","","","","","learning/Slide75.JPG","null","","","","",""
"","html-keyboard-response","231","363721","0.0-6.0-2.74","LF","f64ncrzxu3","1920","1080","en","NS08US09","null","","","","learningBlock1","","","","<div style=""font-size:60px;""> </div>","null","LF","learning/Slide75.JPG","This is a tob:","",""
"","html-keyboard-response","232","364728","0.0-6.0-0.75","LF","f64ncrzxu3","1920","1080","en","NS08US09","null","","","","learningBlock1","","","","This is a bim:","null","","","","",""
"","image-keyboard-response","233","365068","0.0-6.0-1.75","LF","f64ncrzxu3","1920","1080","en","NS08US09","null","","","","","","","","learning/Slide76.JPG","null","","","","",""
"","html-keyboard-response","234","366073","0.0-6.0-2.75","LF","f64ncrzxu3","1920","1080","en","NS08US09","null","","","","learningBlock1","","","","<div style=""font-size:60px;""> </div>","null","LF","learning/Slide76.JPG","This is a bim:","",""
"","html-keyboard-response","235","367076","0.0-6.0-0.76","LF","f64ncrzxu3","1920","1080","en","NS08US09","null","","","","learningBlock1","","","","This is a tob:","null","","","","",""
"","image-keyboard-response","236","367410","0.0-6.0-1.76","LF","f64ncrzxu3","1920","1080","en","NS08US09","null","","","","","","","","learning/Slide77.JPG","null","","","","",""
"","html-keyboard-response","237","368414","0.0-6.0-2.76","LF","f64ncrzxu3","1920","1080","en","NS08US09","null","","","","learningBlock1","","","","<div style=""font-size:60px;""> </div>","null","LF","learning/Slide77.JPG","This is a tob:","",""
"","html-keyboard-response","238","369418","0.0-6.0-0.77","LF","f64ncrzxu3","1920","1080","en","NS08US09","null","","","","learningBlock1","","","","This is a wug:","null","","","","",""
"","image-keyboard-response","239","369762","0.0-6.0-1.77","LF","f64ncrzxu3","1920","1080","en","NS08US09","null","","","","","","","","learning/Slide78.JPG","null","","","","",""
"","html-keyboard-response","240","370770","0.0-6.0-2.77","LF","f64ncrzxu3","1920","1080","en","NS08US09","null","","","","learningBlock1","","","","<div style=""font-size:60px;""> </div>","null","LF","learning/Slide78.JPG","This is a wug:","",""
"","html-keyboard-response","241","371780","0.0-6.0-0.78","LF","f64ncrzxu3","1920","1080","en","NS08US09","null","","","","learningBlock1","","","","This is a bim:","null","","","","",""
"","image-keyboard-response","242","372117","0.0-6.0-1.78","LF","f64ncrzxu3","1920","1080","en","NS08US09","null","","","","","","","","learning/Slide79.JPG","null","","","","",""
"","html-keyboard-response","243","373128","0.0-6.0-2.78","LF","f64ncrzxu3","1920","1080","en","NS08US09","null","","","","learningBlock1","","","","<div style=""font-size:60px;""> </div>","null","LF","learning/Slide79.JPG","This is a bim:","",""
"","html-keyboard-response","244","374138","0.0-6.0-0.79","LF","f64ncrzxu3","1920","1080","en","NS08US09","null","","","","learningBlock1","","","","This is a tob:","null","","","","",""
"","image-keyboard-response","245","374477","0.0-6.0-1.79","LF","f64ncrzxu3","1920","1080","en","NS08US09","null","","","","","","","","learning/Slide80.JPG","null","","","","",""
"","html-keyboard-response","246","375481","0.0-6.0-2.79","LF","f64ncrzxu3","1920","1080","en","NS08US09","null","","","","learningBlock1","","","","<div style=""font-size:60px;""> </div>","null","LF","learning/Slide80.JPG","This is a tob:","",""
"","instructions","247","377936","0.0-7.0","LF","f64ncrzxu3","1920","1080","en","NS08US09","NA","","","[{""page_index"":0,""viewing_time"":2453.7249999993946}]","instructions","","","","","","","","","",""
"","html-keyboard-response","248","378948","0.0-8.0-0.0","LF","f64ncrzxu3","1920","1080","en","NS08US09","null","","","","learningBlock2","","","","This is a wug:","null","","","","",""
"","image-keyboard-response","249","379277","0.0-8.0-1.0","LF","f64ncrzxu3","1920","1080","en","NS08US09","null","","","","","","","","learning/Slide81.JPG","null","","","","",""
"","html-keyboard-response","250","380286","0.0-8.0-2.0","LF","f64ncrzxu3","1920","1080","en","NS08US09","null","","","","learningBlock2","","","","<div style=""font-size:60px;""> </div>","null","LF","learning/Slide81.JPG","This is a wug:","",""
"","html-keyboard-response","251","381293","0.0-8.0-0.1","LF","f64ncrzxu3","1920","1080","en","NS08US09","null","","","","learningBlock2","","","","This is a bim:","null","","","","",""
"","image-keyboard-response","252","381625","0.0-8.0-1.1","LF","f64ncrzxu3","1920","1080","en","NS08US09","null","","","","","","","","learning/Slide82.JPG","null","","","","",""
"","html-keyboard-response","253","382639","0.0-8.0-2.1","LF","f64ncrzxu3","1920","1080","en","NS08US09","null","","","","learningBlock2","","","","<div style=""font-size:60px;""> </div>","null","LF","learning/Slide82.JPG","This is a bim:","",""
"","html-keyboard-response","254","383649","0.0-8.0-0.2","LF","f64ncrzxu3","1920","1080","en","NS08US09","null","","","","learningBlock2","","","","This is a wug:","null","","","","",""
"","image-keyboard-response","255","383990","0.0-8.0-1.2","LF","f64ncrzxu3","1920","1080","en","NS08US09","null","","","","","","","","learning/Slide83.JPG","null","","","","",""
"","html-keyboard-response","256","385000","0.0-8.0-2.2","LF","f64ncrzxu3","1920","1080","en","NS08US09","null","","","","learningBlock2","","","","<div style=""font-size:60px;""> </div>","null","LF","learning/Slide83.JPG","This is a wug:","",""
"","html-keyboard-response","257","386009","0.0-8.0-0.3","LF","f64ncrzxu3","1920","1080","en","NS08US09","null","","","","learningBlock2","","","","This is a dep:","null","","","","",""
"","image-keyboard-response","258","386350","0.0-8.0-1.3","LF","f64ncrzxu3","1920","1080","en","NS08US09","null","","","","","","","","learning/Slide84.JPG","null","","","","",""
"","html-keyboard-response","259","387360","0.0-8.0-2.3","LF","f64ncrzxu3","1920","1080","en","NS08US09","null","","","","learningBlock2","","","","<div style=""font-size:60px;""> </div>","null","LF","learning/Slide84.JPG","This is a dep:","",""
"","html-keyboard-response","260","388367","0.0-8.0-0.4","LF","f64ncrzxu3","1920","1080","en","NS08US09","null","","","","learningBlock2","","","","This is a bim:","null","","","","",""
"","image-keyboard-response","261","388704","0.0-8.0-1.4","LF","f64ncrzxu3","1920","1080","en","NS08US09","null","","","","","","","","learning/Slide85.JPG","null","","","","",""
"","html-keyboard-response","262","389719","0.0-8.0-2.4","LF","f64ncrzxu3","1920","1080","en","NS08US09","null","","","","learningBlock2","","","","<div style=""font-size:60px;""> </div>","null","LF","learning/Slide85.JPG","This is a bim:","",""
"","html-keyboard-response","263","390724","0.0-8.0-0.5","LF","f64ncrzxu3","1920","1080","en","NS08US09","null","","","","learningBlock2","","","","This is a tob:","null","","","","",""
"","image-keyboard-response","264","391057","0.0-8.0-1.5","LF","f64ncrzxu3","1920","1080","en","NS08US09","null","","","","","","","","learning/Slide86.JPG","null","","","","",""
"","html-keyboard-response","265","392062","0.0-8.0-2.5","LF","f64ncrzxu3","1920","1080","en","NS08US09","null","","","","learningBlock2","","","","<div style=""font-size:60px;""> </div>","null","LF","learning/Slide86.JPG","This is a tob:","",""
"","html-keyboard-response","266","393066","0.0-8.0-0.6","LF","f64ncrzxu3","1920","1080","en","NS08US09","null","","","","learningBlock2","","","","This is a wug:","null","","","","",""
"","image-keyboard-response","267","393398","0.0-8.0-1.6","LF","f64ncrzxu3","1920","1080","en","NS08US09","null","","","","","","","","learning/Slide87.JPG","null","","","","",""
"","html-keyboard-response","268","394406","0.0-8.0-2.6","LF","f64ncrzxu3","1920","1080","en","NS08US09","null","","","","learningBlock2","","","","<div style=""font-size:60px;""> </div>","null","LF","learning/Slide87.JPG","This is a wug:","",""
"","html-keyboard-response","269","395409","0.0-8.0-0.7","LF","f64ncrzxu3","1920","1080","en","NS08US09","null","","","","learningBlock2","","","","This is a tob:","null","","","","",""
"","image-keyboard-response","270","395742","0.0-8.0-1.7","LF","f64ncrzxu3","1920","1080","en","NS08US09","null","","","","","","","","learning/Slide88.JPG","null","","","","",""
"","html-keyboard-response","271","396757","0.0-8.0-2.7","LF","f64ncrzxu3","1920","1080","en","NS08US09","null","","","","learningBlock2","","","","<div style=""font-size:60px;""> </div>","null","LF","learning/Slide88.JPG","This is a tob:","",""
"","html-keyboard-response","272","397764","0.0-8.0-0.8","LF","f64ncrzxu3","1920","1080","en","NS08US09","null","","","","learningBlock2","","","","This is a bim:","null","","","","",""
"","image-keyboard-response","273","398097","0.0-8.0-1.8","LF","f64ncrzxu3","1920","1080","en","NS08US09","null","","","","","","","","learning/Slide89.JPG","null","","","","",""
"","html-keyboard-response","274","399106","0.0-8.0-2.8","LF","f64ncrzxu3","1920","1080","en","NS08US09","null","","","","learningBlock2","","","","<div style=""font-size:60px;""> </div>","null","LF","learning/Slide89.JPG","This is a bim:","",""
"","html-keyboard-response","275","400115","0.0-8.0-0.9","LF","f64ncrzxu3","1920","1080","en","NS08US09","null","","","","learningBlock2","","","","This is a dep:","null","","","","",""
"","image-keyboard-response","276","400448","0.0-8.0-1.9","LF","f64ncrzxu3","1920","1080","en","NS08US09","null","","","","","","","","learning/Slide90.JPG","null","","","","",""
"","html-keyboard-response","277","401453","0.0-8.0-2.9","LF","f64ncrzxu3","1920","1080","en","NS08US09","null","","","","learningBlock2","","","","<div style=""font-size:60px;""> </div>","null","LF","learning/Slide90.JPG","This is a dep:","",""
"","html-keyboard-response","278","402460","0.0-8.0-0.10","LF","f64ncrzxu3","1920","1080","en","NS08US09","null","","","","learningBlock2","","","","This is a wug:","null","","","","",""
"","image-keyboard-response","279","402796","0.0-8.0-1.10","LF","f64ncrzxu3","1920","1080","en","NS08US09","null","","","","","","","","learning/Slide91.JPG","null","","","","",""
"","html-keyboard-response","280","403803","0.0-8.0-2.10","LF","f64ncrzxu3","1920","1080","en","NS08US09","null","","","","learningBlock2","","","","<div style=""font-size:60px;""> </div>","null","LF","learning/Slide91.JPG","This is a wug:","",""
"","html-keyboard-response","281","404813","0.0-8.0-0.11","LF","f64ncrzxu3","1920","1080","en","NS08US09","null","","","","learningBlock2","","","","This is a tob:","null","","","","",""
"","image-keyboard-response","282","405144","0.0-8.0-1.11","LF","f64ncrzxu3","1920","1080","en","NS08US09","null","","","","","","","","learning/Slide92.JPG","null","","","","",""
"","html-keyboard-response","283","406151","0.0-8.0-2.11","LF","f64ncrzxu3","1920","1080","en","NS08US09","null","","","","learningBlock2","","","","<div style=""font-size:60px;""> </div>","null","LF","learning/Slide92.JPG","This is a tob:","",""
"","html-keyboard-response","284","407155","0.0-8.0-0.12","LF","f64ncrzxu3","1920","1080","en","NS08US09","null","","","","learningBlock2","","","","This is a bim:","null","","","","",""
"","image-keyboard-response","285","407490","0.0-8.0-1.12","LF","f64ncrzxu3","1920","1080","en","NS08US09","null","","","","","","","","learning/Slide93.JPG","null","","","","",""
"","html-keyboard-response","286","408492","0.0-8.0-2.12","LF","f64ncrzxu3","1920","1080","en","NS08US09","null","","","","learningBlock2","","","","<div style=""font-size:60px;""> </div>","null","LF","learning/Slide93.JPG","This is a bim:","",""
"","html-keyboard-response","287","409503","0.0-8.0-0.13","LF","f64ncrzxu3","1920","1080","en","NS08US09","null","","","","learningBlock2","","","","This is a tob:","null","","","","",""
"","image-keyboard-response","288","409845","0.0-8.0-1.13","LF","f64ncrzxu3","1920","1080","en","NS08US09","null","","","","","","","","learning/Slide94.JPG","null","","","","",""
"","html-keyboard-response","289","410856","0.0-8.0-2.13","LF","f64ncrzxu3","1920","1080","en","NS08US09","null","","","","learningBlock2","","","","<div style=""font-size:60px;""> </div>","null","LF","learning/Slide94.JPG","This is a tob:","",""
"","html-keyboard-response","290","411864","0.0-8.0-0.14","LF","f64ncrzxu3","1920","1080","en","NS08US09","null","","","","learningBlock2","","","","This is a wug:","null","","","","",""
"","image-keyboard-response","291","412200","0.0-8.0-1.14","LF","f64ncrzxu3","1920","1080","en","NS08US09","null","","","","","","","","learning/Slide95.JPG","null","","","","",""
"","html-keyboard-response","292","413210","0.0-8.0-2.14","LF","f64ncrzxu3","1920","1080","en","NS08US09","null","","","","learningBlock2","","","","<div style=""font-size:60px;""> </div>","null","LF","learning/Slide95.JPG","This is a wug:","",""
"","html-keyboard-response","293","414212","0.0-8.0-0.15","LF","f64ncrzxu3","1920","1080","en","NS08US09","null","","","","learningBlock2","","","","This is a tob:","null","","","","",""
"","image-keyboard-response","294","414549","0.0-8.0-1.15","LF","f64ncrzxu3","1920","1080","en","NS08US09","null","","","","","","","","learning/Slide96.JPG","null","","","","",""
"","html-keyboard-response","295","415554","0.0-8.0-2.15","LF","f64ncrzxu3","1920","1080","en","NS08US09","null","","","","learningBlock2","","","","<div style=""font-size:60px;""> </div>","null","LF","learning/Slide96.JPG","This is a tob:","",""
"","html-keyboard-response","296","416568","0.0-8.0-0.16","LF","f64ncrzxu3","1920","1080","en","NS08US09","null","","","","learningBlock2","","","","This is a dep:","null","","","","",""
"","image-keyboard-response","297","416904","0.0-8.0-1.16","LF","f64ncrzxu3","1920","1080","en","NS08US09","null","","","","","","","","learning/Slide97.JPG","null","","","","",""
"","html-keyboard-response","298","417915","0.0-8.0-2.16","LF","f64ncrzxu3","1920","1080","en","NS08US09","null","","","","learningBlock2","","","","<div style=""font-size:60px;""> </div>","null","LF","learning/Slide97.JPG","This is a dep:","",""
"","html-keyboard-response","299","418925","0.0-8.0-0.17","LF","f64ncrzxu3","1920","1080","en","NS08US09","null","","","","learningBlock2","","","","This is a bim:","null","","","","",""
"","image-keyboard-response","300","419262","0.0-8.0-1.17","LF","f64ncrzxu3","1920","1080","en","NS08US09","null","","","","","","","","learning/Slide98.JPG","null","","","","",""
"","html-keyboard-response","301","420272","0.0-8.0-2.17","LF","f64ncrzxu3","1920","1080","en","NS08US09","null","","","","learningBlock2","","","","<div style=""font-size:60px;""> </div>","null","LF","learning/Slide98.JPG","This is a bim:","",""
"","html-keyboard-response","302","421281","0.0-8.0-0.18","LF","f64ncrzxu3","1920","1080","en","NS08US09","null","","","","learningBlock2","","","","This is a dep:","null","","","","",""
"","image-keyboard-response","303","421617","0.0-8.0-1.18","LF","f64ncrzxu3","1920","1080","en","NS08US09","null","","","","","","","","learning/Slide99.JPG","null","","","","",""
"","html-keyboard-response","304","422622","0.0-8.0-2.18","LF","f64ncrzxu3","1920","1080","en","NS08US09","null","","","","learningBlock2","","","","<div style=""font-size:60px;""> </div>","null","LF","learning/Slide99.JPG","This is a dep:","",""
"","html-keyboard-response","305","423626","0.0-8.0-0.19","LF","f64ncrzxu3","1920","1080","en","NS08US09","null","","","","learningBlock2","","","","This is a bim:","null","","","","",""
"","image-keyboard-response","306","423963","0.0-8.0-1.19","LF","f64ncrzxu3","1920","1080","en","NS08US09","null","","","","","","","","learning/Slide100.JPG","null","","","","",""
"","html-keyboard-response","307","424972","0.0-8.0-2.19","LF","f64ncrzxu3","1920","1080","en","NS08US09","null","","","","learningBlock2","","","","<div style=""font-size:60px;""> </div>","null","LF","learning/Slide100.JPG","This is a bim:","",""
"","html-keyboard-response","308","425986","0.0-8.0-0.20","LF","f64ncrzxu3","1920","1080","en","NS08US09","null","","","","learningBlock2","","","","This is a tob:","null","","","","",""
"","image-keyboard-response","309","426324","0.0-8.0-1.20","LF","f64ncrzxu3","1920","1080","en","NS08US09","null","","","","","","","","learning/Slide101.JPG","null","","","","",""
"","html-keyboard-response","310","427329","0.0-8.0-2.20","LF","f64ncrzxu3","1920","1080","en","NS08US09","null","","","","learningBlock2","","","","<div style=""font-size:60px;""> </div>","null","LF","learning/Slide101.JPG","This is a tob:","",""
"","html-keyboard-response","311","428343","0.0-8.0-0.21","LF","f64ncrzxu3","1920","1080","en","NS08US09","null","","","","learningBlock2","","","","This is a bim:","null","","","","",""
"","image-keyboard-response","312","428684","0.0-8.0-1.21","LF","f64ncrzxu3","1920","1080","en","NS08US09","null","","","","","","","","learning/Slide102.JPG","null","","","","",""
"","html-keyboard-response","313","429689","0.0-8.0-2.21","LF","f64ncrzxu3","1920","1080","en","NS08US09","null","","","","learningBlock2","","","","<div style=""font-size:60px;""> </div>","null","LF","learning/Slide102.JPG","This is a bim:","",""
"","html-keyboard-response","314","430690","0.0-8.0-0.22","LF","f64ncrzxu3","1920","1080","en","NS08US09","null","","","","learningBlock2","","","","This is a dep:","null","","","","",""
"","image-keyboard-response","315","431032","0.0-8.0-1.22","LF","f64ncrzxu3","1920","1080","en","NS08US09","null","","","","","","","","learning/Slide103.JPG","null","","","","",""
"","html-keyboard-response","316","432038","0.0-8.0-2.22","LF","f64ncrzxu3","1920","1080","en","NS08US09","null","","","","learningBlock2","","","","<div style=""font-size:60px;""> </div>","null","LF","learning/Slide103.JPG","This is a dep:","",""
"","html-keyboard-response","317","433045","0.0-8.0-0.23","LF","f64ncrzxu3","1920","1080","en","NS08US09","null","","","","learningBlock2","","","","This is a tob:","null","","","","",""
"","image-keyboard-response","318","433374","0.0-8.0-1.23","LF","f64ncrzxu3","1920","1080","en","NS08US09","null","","","","","","","","learning/Slide104.JPG","null","","","","",""
"","html-keyboard-response","319","434384","0.0-8.0-2.23","LF","f64ncrzxu3","1920","1080","en","NS08US09","null","","","","learningBlock2","","","","<div style=""font-size:60px;""> </div>","null","LF","learning/Slide104.JPG","This is a tob:","",""
"","html-keyboard-response","320","435391","0.0-8.0-0.24","LF","f64ncrzxu3","1920","1080","en","NS08US09","null","","","","learningBlock2","","","","This is a dep:","null","","","","",""
"","image-keyboard-response","321","435724","0.0-8.0-1.24","LF","f64ncrzxu3","1920","1080","en","NS08US09","null","","","","","","","","learning/Slide105.JPG","null","","","","",""
"","html-keyboard-response","322","436739","0.0-8.0-2.24","LF","f64ncrzxu3","1920","1080","en","NS08US09","null","","","","learningBlock2","","","","<div style=""font-size:60px;""> </div>","null","LF","learning/Slide105.JPG","This is a dep:","",""
"","html-keyboard-response","323","437743","0.0-8.0-0.25","LF","f64ncrzxu3","1920","1080","en","NS08US09","null","","","","learningBlock2","","","","This is a wug:","null","","","","",""
"","image-keyboard-response","324","438074","0.0-8.0-1.25","LF","f64ncrzxu3","1920","1080","en","NS08US09","null","","","","","","","","learning/Slide106.JPG","null","","","","",""
"","html-keyboard-response","325","439082","0.0-8.0-2.25","LF","f64ncrzxu3","1920","1080","en","NS08US09","null","","","","learningBlock2","","","","<div style=""font-size:60px;""> </div>","null","LF","learning/Slide106.JPG","This is a wug:","",""
"","html-keyboard-response","326","440084","0.0-8.0-0.26","LF","f64ncrzxu3","1920","1080","en","NS08US09","null","","","","learningBlock2","","","","This is a bim:","null","","","","",""
"","image-keyboard-response","327","440425","0.0-8.0-1.26","LF","f64ncrzxu3","1920","1080","en","NS08US09","null","","","","","","","","learning/Slide107.JPG","null","","","","",""
"","html-keyboard-response","328","441441","0.0-8.0-2.26","LF","f64ncrzxu3","1920","1080","en","NS08US09","null","","","","learningBlock2","","","","<div style=""font-size:60px;""> </div>","null","LF","learning/Slide107.JPG","This is a bim:","",""
"","html-keyboard-response","329","442453","0.0-8.0-0.27","LF","f64ncrzxu3","1920","1080","en","NS08US09","null","","","","learningBlock2","","","","This is a dep:","null","","","","",""
"","image-keyboard-response","330","442795","0.0-8.0-1.27","LF","f64ncrzxu3","1920","1080","en","NS08US09","null","","","","","","","","learning/Slide108.JPG","null","","","","",""
"","html-keyboard-response","331","443803","0.0-8.0-2.27","LF","f64ncrzxu3","1920","1080","en","NS08US09","null","","","","learningBlock2","","","","<div style=""font-size:60px;""> </div>","null","LF","learning/Slide108.JPG","This is a dep:","",""
"","html-keyboard-response","332","444806","0.0-8.0-0.28","LF","f64ncrzxu3","1920","1080","en","NS08US09","null","","","","learningBlock2","","","","This is a wug:","null","","","","",""
"","image-keyboard-response","333","445142","0.0-8.0-1.28","LF","f64ncrzxu3","1920","1080","en","NS08US09","null","","","","","","","","learning/Slide109.JPG","null","","","","",""
"","html-keyboard-response","334","446145","0.0-8.0-2.28","LF","f64ncrzxu3","1920","1080","en","NS08US09","null","","","","learningBlock2","","","","<div style=""font-size:60px;""> </div>","null","LF","learning/Slide109.JPG","This is a wug:","",""
"","html-keyboard-response","335","447149","0.0-8.0-0.29","LF","f64ncrzxu3","1920","1080","en","NS08US09","null","","","","learningBlock2","","","","This is a bim:","null","","","","",""
"","image-keyboard-response","336","447484","0.0-8.0-1.29","LF","f64ncrzxu3","1920","1080","en","NS08US09","null","","","","","","","","learning/Slide110.JPG","null","","","","",""
"","html-keyboard-response","337","448493","0.0-8.0-2.29","LF","f64ncrzxu3","1920","1080","en","NS08US09","null","","","","learningBlock2","","","","<div style=""font-size:60px;""> </div>","null","LF","learning/Slide110.JPG","This is a bim:","",""
"","html-keyboard-response","338","449503","0.0-8.0-0.30","LF","f64ncrzxu3","1920","1080","en","NS08US09","null","","","","learningBlock2","","","","This is a tob:","null","","","","",""
"","image-keyboard-response","339","449831","0.0-8.0-1.30","LF","f64ncrzxu3","1920","1080","en","NS08US09","null","","","","","","","","learning/Slide111.JPG","null","","","","",""
"","html-keyboard-response","340","450837","0.0-8.0-2.30","LF","f64ncrzxu3","1920","1080","en","NS08US09","null","","","","learningBlock2","","","","<div style=""font-size:60px;""> </div>","null","LF","learning/Slide111.JPG","This is a tob:","",""
"","html-keyboard-response","341","451843","0.0-8.0-0.31","LF","f64ncrzxu3","1920","1080","en","NS08US09","null","","","","learningBlock2","","","","This is a wug:","null","","","","",""
"","image-keyboard-response","342","452189","0.0-8.0-1.31","LF","f64ncrzxu3","1920","1080","en","NS08US09","null","","","","","","","","learning/Slide112.JPG","null","","","","",""
"","html-keyboard-response","343","453197","0.0-8.0-2.31","LF","f64ncrzxu3","1920","1080","en","NS08US09","null","","","","learningBlock2","","","","<div style=""font-size:60px;""> </div>","null","LF","learning/Slide112.JPG","This is a wug:","",""
"","html-keyboard-response","344","454203","0.0-8.0-0.32","LF","f64ncrzxu3","1920","1080","en","NS08US09","null","","","","learningBlock2","","","","This is a tob:","null","","","","",""
"","image-keyboard-response","345","454555","0.0-8.0-1.32","LF","f64ncrzxu3","1920","1080","en","NS08US09","null","","","","","","","","learning/Slide113.JPG","null","","","","",""
"","html-keyboard-response","346","455563","0.0-8.0-2.32","LF","f64ncrzxu3","1920","1080","en","NS08US09","null","","","","learningBlock2","","","","<div style=""font-size:60px;""> </div>","null","LF","learning/Slide113.JPG","This is a tob:","",""
"","html-keyboard-response","347","456571","0.0-8.0-0.33","LF","f64ncrzxu3","1920","1080","en","NS08US09","null","","","","learningBlock2","","","","This is a wug:","null","","","","",""
"","image-keyboard-response","348","456913","0.0-8.0-1.33","LF","f64ncrzxu3","1920","1080","en","NS08US09","null","","","","","","","","learning/Slide114.JPG","null","","","","",""
"","html-keyboard-response","349","457922","0.0-8.0-2.33","LF","f64ncrzxu3","1920","1080","en","NS08US09","null","","","","learningBlock2","","","","<div style=""font-size:60px;""> </div>","null","LF","learning/Slide114.JPG","This is a wug:","",""
"","html-keyboard-response","350","458932","0.0-8.0-0.34","LF","f64ncrzxu3","1920","1080","en","NS08US09","null","","","","learningBlock2","","","","This is a bim:","null","","","","",""
"","image-keyboard-response","351","459271","0.0-8.0-1.34","LF","f64ncrzxu3","1920","1080","en","NS08US09","null","","","","","","","","learning/Slide115.JPG","null","","","","",""
"","html-keyboard-response","352","460277","0.0-8.0-2.34","LF","f64ncrzxu3","1920","1080","en","NS08US09","null","","","","learningBlock2","","","","<div style=""font-size:60px;""> </div>","null","LF","learning/Slide115.JPG","This is a bim:","",""
"","html-keyboard-response","353","461284","0.0-8.0-0.35","LF","f64ncrzxu3","1920","1080","en","NS08US09","null","","","","learningBlock2","","","","This is a dep:","null","","","","",""
"","image-keyboard-response","354","461621","0.0-8.0-1.35","LF","f64ncrzxu3","1920","1080","en","NS08US09","null","","","","","","","","learning/Slide116.JPG","null","","","","",""
"","html-keyboard-response","355","462629","0.0-8.0-2.35","LF","f64ncrzxu3","1920","1080","en","NS08US09","null","","","","learningBlock2","","","","<div style=""font-size:60px;""> </div>","null","LF","learning/Slide116.JPG","This is a dep:","",""
"","html-keyboard-response","356","463638","0.0-8.0-0.36","LF","f64ncrzxu3","1920","1080","en","NS08US09","null","","","","learningBlock2","","","","This is a tob:","null","","","","",""
"","image-keyboard-response","357","463973","0.0-8.0-1.36","LF","f64ncrzxu3","1920","1080","en","NS08US09","null","","","","","","","","learning/Slide117.JPG","null","","","","",""
"","html-keyboard-response","358","464982","0.0-8.0-2.36","LF","f64ncrzxu3","1920","1080","en","NS08US09","null","","","","learningBlock2","","","","<div style=""font-size:60px;""> </div>","null","LF","learning/Slide117.JPG","This is a tob:","",""
"","html-keyboard-response","359","465986","0.0-8.0-0.37","LF","f64ncrzxu3","1920","1080","en","NS08US09","null","","","","learningBlock2","","","","This is a dep:","null","","","","",""
"","image-keyboard-response","360","466321","0.0-8.0-1.37","LF","f64ncrzxu3","1920","1080","en","NS08US09","null","","","","","","","","learning/Slide118.JPG","null","","","","",""
"","html-keyboard-response","361","467332","0.0-8.0-2.37","LF","f64ncrzxu3","1920","1080","en","NS08US09","null","","","","learningBlock2","","","","<div style=""font-size:60px;""> </div>","null","LF","learning/Slide118.JPG","This is a dep:","",""
"","html-keyboard-response","362","468334","0.0-8.0-0.38","LF","f64ncrzxu3","1920","1080","en","NS08US09","null","","","","learningBlock2","","","","This is a wug:","null","","","","",""
"","image-keyboard-response","363","468671","0.0-8.0-1.38","LF","f64ncrzxu3","1920","1080","en","NS08US09","null","","","","","","","","learning/Slide119.JPG","null","","","","",""
"","html-keyboard-response","364","469676","0.0-8.0-2.38","LF","f64ncrzxu3","1920","1080","en","NS08US09","null","","","","learningBlock2","","","","<div style=""font-size:60px;""> </div>","null","LF","learning/Slide119.JPG","This is a wug:","",""
"","html-keyboard-response","365","470682","0.0-8.0-0.39","LF","f64ncrzxu3","1920","1080","en","NS08US09","null","","","","learningBlock2","","","","This is a dep:","null","","","","",""
"","image-keyboard-response","366","471017","0.0-8.0-1.39","LF","f64ncrzxu3","1920","1080","en","NS08US09","null","","","","","","","","learning/Slide120.JPG","null","","","","",""
"","html-keyboard-response","367","472029","0.0-8.0-2.39","LF","f64ncrzxu3","1920","1080","en","NS08US09","null","","","","learningBlock2","","","","<div style=""font-size:60px;""> </div>","null","LF","learning/Slide120.JPG","This is a dep:","",""
"","html-keyboard-response","368","473038","0.0-8.0-0.40","LF","f64ncrzxu3","1920","1080","en","NS08US09","null","","","","learningBlock2","","","","This is a bim:","null","","","","",""
"","image-keyboard-response","369","473380","0.0-8.0-1.40","LF","f64ncrzxu3","1920","1080","en","NS08US09","null","","","","","","","","learning/Slide121.JPG","null","","","","",""
"","html-keyboard-response","370","474389","0.0-8.0-2.40","LF","f64ncrzxu3","1920","1080","en","NS08US09","null","","","","learningBlock2","","","","<div style=""font-size:60px;""> </div>","null","LF","learning/Slide121.JPG","This is a bim:","",""
"","html-keyboard-response","371","475392","0.0-8.0-0.41","LF","f64ncrzxu3","1920","1080","en","NS08US09","null","","","","learningBlock2","","","","This is a wug:","null","","","","",""
"","image-keyboard-response","372","475722","0.0-8.0-1.41","LF","f64ncrzxu3","1920","1080","en","NS08US09","null","","","","","","","","learning/Slide122.JPG","null","","","","",""
"","html-keyboard-response","373","476729","0.0-8.0-2.41","LF","f64ncrzxu3","1920","1080","en","NS08US09","null","","","","learningBlock2","","","","<div style=""font-size:60px;""> </div>","null","LF","learning/Slide122.JPG","This is a wug:","",""
"","html-keyboard-response","374","477746","0.0-8.0-0.42","LF","f64ncrzxu3","1920","1080","en","NS08US09","null","","","","learningBlock2","","","","This is a bim:","null","","","","",""
"","image-keyboard-response","375","478086","0.0-8.0-1.42","LF","f64ncrzxu3","1920","1080","en","NS08US09","null","","","","","","","","learning/Slide123.JPG","null","","","","",""
"","html-keyboard-response","376","479092","0.0-8.0-2.42","LF","f64ncrzxu3","1920","1080","en","NS08US09","null","","","","learningBlock2","","","","<div style=""font-size:60px;""> </div>","null","LF","learning/Slide123.JPG","This is a bim:","",""
"","html-keyboard-response","377","480096","0.0-8.0-0.43","LF","f64ncrzxu3","1920","1080","en","NS08US09","null","","","","learningBlock2","","","","This is a tob:","null","","","","",""
"","image-keyboard-response","378","480432","0.0-8.0-1.43","LF","f64ncrzxu3","1920","1080","en","NS08US09","null","","","","","","","","learning/Slide124.JPG","null","","","","",""
"","html-keyboard-response","379","481443","0.0-8.0-2.43","LF","f64ncrzxu3","1920","1080","en","NS08US09","null","","","","learningBlock2","","","","<div style=""font-size:60px;""> </div>","null","LF","learning/Slide124.JPG","This is a tob:","",""
"","html-keyboard-response","380","482455","0.0-8.0-0.44","LF","f64ncrzxu3","1920","1080","en","NS08US09","null","","","","learningBlock2","","","","This is a bim:","null","","","","",""
"","image-keyboard-response","381","482797","0.0-8.0-1.44","LF","f64ncrzxu3","1920","1080","en","NS08US09","null","","","","","","","","learning/Slide125.JPG","null","","","","",""
"","html-keyboard-response","382","483802","0.0-8.0-2.44","LF","f64ncrzxu3","1920","1080","en","NS08US09","null","","","","learningBlock2","","","","<div style=""font-size:60px;""> </div>","null","LF","learning/Slide125.JPG","This is a bim:","",""
"","html-keyboard-response","383","484805","0.0-8.0-0.45","LF","f64ncrzxu3","1920","1080","en","NS08US09","null","","","","learningBlock2","","","","This is a tob:","null","","","","",""
"","image-keyboard-response","384","485134","0.0-8.0-1.45","LF","f64ncrzxu3","1920","1080","en","NS08US09","null","","","","","","","","learning/Slide126.JPG","null","","","","",""
"","html-keyboard-response","385","486149","0.0-8.0-2.45","LF","f64ncrzxu3","1920","1080","en","NS08US09","null","","","","learningBlock2","","","","<div style=""font-size:60px;""> </div>","null","LF","learning/Slide126.JPG","This is a tob:","",""
"","html-keyboard-response","386","487158","0.0-8.0-0.46","LF","f64ncrzxu3","1920","1080","en","NS08US09","null","","","","learningBlock2","","","","This is a dep:","null","","","","",""
"","image-keyboard-response","387","487495","0.0-8.0-1.46","LF","f64ncrzxu3","1920","1080","en","NS08US09","null","","","","","","","","learning/Slide127.JPG","null","","","","",""
"","html-keyboard-response","388","488502","0.0-8.0-2.46","LF","f64ncrzxu3","1920","1080","en","NS08US09","null","","","","learningBlock2","","","","<div style=""font-size:60px;""> </div>","null","LF","learning/Slide127.JPG","This is a dep:","",""
"","html-keyboard-response","389","489504","0.0-8.0-0.47","LF","f64ncrzxu3","1920","1080","en","NS08US09","null","","","","learningBlock2","","","","This is a wug:","null","","","","",""
"","image-keyboard-response","390","489842","0.0-8.0-1.47","LF","f64ncrzxu3","1920","1080","en","NS08US09","null","","","","","","","","learning/Slide128.JPG","null","","","","",""
"","html-keyboard-response","391","490850","0.0-8.0-2.47","LF","f64ncrzxu3","1920","1080","en","NS08US09","null","","","","learningBlock2","","","","<div style=""font-size:60px;""> </div>","null","LF","learning/Slide128.JPG","This is a wug:","",""
"","html-keyboard-response","392","491863","0.0-8.0-0.48","LF","f64ncrzxu3","1920","1080","en","NS08US09","null","","","","learningBlock2","","","","This is a tob:","null","","","","",""
"","image-keyboard-response","393","492192","0.0-8.0-1.48","LF","f64ncrzxu3","1920","1080","en","NS08US09","null","","","","","","","","learning/Slide129.JPG","null","","","","",""
"","html-keyboard-response","394","493200","0.0-8.0-2.48","LF","f64ncrzxu3","1920","1080","en","NS08US09","null","","","","learningBlock2","","","","<div style=""font-size:60px;""> </div>","null","LF","learning/Slide129.JPG","This is a tob:","",""
"","html-keyboard-response","395","494212","0.0-8.0-0.49","LF","f64ncrzxu3","1920","1080","en","NS08US09","null","","","","learningBlock2","","","","This is a wug:","null","","","","",""
"","image-keyboard-response","396","494540","0.0-8.0-1.49","LF","f64ncrzxu3","1920","1080","en","NS08US09","null","","","","","","","","learning/Slide130.JPG","null","","","","",""
"","html-keyboard-response","397","495548","0.0-8.0-2.49","LF","f64ncrzxu3","1920","1080","en","NS08US09","null","","","","learningBlock2","","","","<div style=""font-size:60px;""> </div>","null","LF","learning/Slide130.JPG","This is a wug:","",""
"","html-keyboard-response","398","496552","0.0-8.0-0.50","LF","f64ncrzxu3","1920","1080","en","NS08US09","null","","","","learningBlock2","","","","This is a bim:","null","","","","",""
"","image-keyboard-response","399","496884","0.0-8.0-1.50","LF","f64ncrzxu3","1920","1080","en","NS08US09","null","","","","","","","","learning/Slide131.JPG","null","","","","",""
"","html-keyboard-response","400","497889","0.0-8.0-2.50","LF","f64ncrzxu3","1920","1080","en","NS08US09","null","","","","learningBlock2","","","","<div style=""font-size:60px;""> </div>","null","LF","learning/Slide131.JPG","This is a bim:","",""
"","html-keyboard-response","401","498899","0.0-8.0-0.51","LF","f64ncrzxu3","1920","1080","en","NS08US09","null","","","","learningBlock2","","","","This is a dep:","null","","","","",""
"","image-keyboard-response","402","499240","0.0-8.0-1.51","LF","f64ncrzxu3","1920","1080","en","NS08US09","null","","","","","","","","learning/Slide132.JPG","null","","","","",""
"","html-keyboard-response","403","500247","0.0-8.0-2.51","LF","f64ncrzxu3","1920","1080","en","NS08US09","null","","","","learningBlock2","","","","<div style=""font-size:60px;""> </div>","null","LF","learning/Slide132.JPG","This is a dep:","",""
"","html-keyboard-response","404","501266","0.0-8.0-0.52","LF","f64ncrzxu3","1920","1080","en","NS08US09","null","","","","learningBlock2","","","","This is a tob:","null","","","","",""
"","image-keyboard-response","405","501609","0.0-8.0-1.52","LF","f64ncrzxu3","1920","1080","en","NS08US09","null","","","","","","","","learning/Slide133.JPG","null","","","","",""
"","html-keyboard-response","406","502617","0.0-8.0-2.52","LF","f64ncrzxu3","1920","1080","en","NS08US09","null","","","","learningBlock2","","","","<div style=""font-size:60px;""> </div>","null","LF","learning/Slide133.JPG","This is a tob:","",""
"","html-keyboard-response","407","503625","0.0-8.0-0.53","LF","f64ncrzxu3","1920","1080","en","NS08US09","null","","","","learningBlock2","","","","This is a dep:","null","","","","",""
"","image-keyboard-response","408","503967","0.0-8.0-1.53","LF","f64ncrzxu3","1920","1080","en","NS08US09","null","","","","","","","","learning/Slide134.JPG","null","","","","",""
"","html-keyboard-response","409","504983","0.0-8.0-2.53","LF","f64ncrzxu3","1920","1080","en","NS08US09","null","","","","learningBlock2","","","","<div style=""font-size:60px;""> </div>","null","LF","learning/Slide134.JPG","This is a dep:","",""
"","html-keyboard-response","410","505991","0.0-8.0-0.54","LF","f64ncrzxu3","1920","1080","en","NS08US09","null","","","","learningBlock2","","","","This is a tob:","null","","","","",""
"","image-keyboard-response","411","506328","0.0-8.0-1.54","LF","f64ncrzxu3","1920","1080","en","NS08US09","null","","","","","","","","learning/Slide135.JPG","null","","","","",""
"","html-keyboard-response","412","507339","0.0-8.0-2.54","LF","f64ncrzxu3","1920","1080","en","NS08US09","null","","","","learningBlock2","","","","<div style=""font-size:60px;""> </div>","null","LF","learning/Slide135.JPG","This is a tob:","",""
"","html-keyboard-response","413","508342","0.0-8.0-0.55","LF","f64ncrzxu3","1920","1080","en","NS08US09","null","","","","learningBlock2","","","","This is a wug:","null","","","","",""
"","image-keyboard-response","414","508678","0.0-8.0-1.55","LF","f64ncrzxu3","1920","1080","en","NS08US09","null","","","","","","","","learning/Slide136.JPG","null","","","","",""
"","html-keyboard-response","415","509684","0.0-8.0-2.55","LF","f64ncrzxu3","1920","1080","en","NS08US09","null","","","","learningBlock2","","","","<div style=""font-size:60px;""> </div>","null","LF","learning/Slide136.JPG","This is a wug:","",""
"","html-keyboard-response","416","510688","0.0-8.0-0.56","LF","f64ncrzxu3","1920","1080","en","NS08US09","null","","","","learningBlock2","","","","This is a tob:","null","","","","",""
"","image-keyboard-response","417","511015","0.0-8.0-1.56","LF","f64ncrzxu3","1920","1080","en","NS08US09","null","","","","","","","","learning/Slide137.JPG","null","","","","",""
"","html-keyboard-response","418","512019","0.0-8.0-2.56","LF","f64ncrzxu3","1920","1080","en","NS08US09","null","","","","learningBlock2","","","","<div style=""font-size:60px;""> </div>","null","LF","learning/Slide137.JPG","This is a tob:","",""
"","html-keyboard-response","419","513023","0.0-8.0-0.57","LF","f64ncrzxu3","1920","1080","en","NS08US09","null","","","","learningBlock2","","","","This is a bim:","null","","","","",""
"","image-keyboard-response","420","513358","0.0-8.0-1.57","LF","f64ncrzxu3","1920","1080","en","NS08US09","null","","","","","","","","learning/Slide138.JPG","null","","","","",""
"","html-keyboard-response","421","514373","0.0-8.0-2.57","LF","f64ncrzxu3","1920","1080","en","NS08US09","null","","","","learningBlock2","","","","<div style=""font-size:60px;""> </div>","null","LF","learning/Slide138.JPG","This is a bim:","",""
"","html-keyboard-response","422","515380","0.0-8.0-0.58","LF","f64ncrzxu3","1920","1080","en","NS08US09","null","","","","learningBlock2","","","","This is a wug:","null","","","","",""
"","image-keyboard-response","423","515720","0.0-8.0-1.58","LF","f64ncrzxu3","1920","1080","en","NS08US09","null","","","","","","","","learning/Slide139.JPG","null","","","","",""
"","html-keyboard-response","424","516725","0.0-8.0-2.58","LF","f64ncrzxu3","1920","1080","en","NS08US09","null","","","","learningBlock2","","","","<div style=""font-size:60px;""> </div>","null","LF","learning/Slide139.JPG","This is a wug:","",""
"","html-keyboard-response","425","517728","0.0-8.0-0.59","LF","f64ncrzxu3","1920","1080","en","NS08US09","null","","","","learningBlock2","","","","This is a dep:","null","","","","",""
"","image-keyboard-response","426","518066","0.0-8.0-1.59","LF","f64ncrzxu3","1920","1080","en","NS08US09","null","","","","","","","","learning/Slide140.JPG","null","","","","",""
"","html-keyboard-response","427","519069","0.0-8.0-2.59","LF","f64ncrzxu3","1920","1080","en","NS08US09","null","","","","learningBlock2","","","","<div style=""font-size:60px;""> </div>","null","LF","learning/Slide140.JPG","This is a dep:","",""
"","html-keyboard-response","428","520083","0.0-8.0-0.60","LF","f64ncrzxu3","1920","1080","en","NS08US09","null","","","","learningBlock2","","","","This is a tob:","null","","","","",""
"","image-keyboard-response","429","520420","0.0-8.0-1.60","LF","f64ncrzxu3","1920","1080","en","NS08US09","null","","","","","","","","learning/Slide141.JPG","null","","","","",""
"","html-keyboard-response","430","521426","0.0-8.0-2.60","LF","f64ncrzxu3","1920","1080","en","NS08US09","null","","","","learningBlock2","","","","<div style=""font-size:60px;""> </div>","null","LF","learning/Slide141.JPG","This is a tob:","",""
"","html-keyboard-response","431","522430","0.0-8.0-0.61","LF","f64ncrzxu3","1920","1080","en","NS08US09","null","","","","learningBlock2","","","","This is a wug:","null","","","","",""
"","image-keyboard-response","432","522765","0.0-8.0-1.61","LF","f64ncrzxu3","1920","1080","en","NS08US09","null","","","","","","","","learning/Slide142.JPG","null","","","","",""
"","html-keyboard-response","433","523775","0.0-8.0-2.61","LF","f64ncrzxu3","1920","1080","en","NS08US09","null","","","","learningBlock2","","","","<div style=""font-size:60px;""> </div>","null","LF","learning/Slide142.JPG","This is a wug:","",""
"","html-keyboard-response","434","524787","0.0-8.0-0.62","LF","f64ncrzxu3","1920","1080","en","NS08US09","null","","","","learningBlock2","","","","This is a bim:","null","","","","",""
"","image-keyboard-response","435","525127","0.0-8.0-1.62","LF","f64ncrzxu3","1920","1080","en","NS08US09","null","","","","","","","","learning/Slide143.JPG","null","","","","",""
"","html-keyboard-response","436","526132","0.0-8.0-2.62","LF","f64ncrzxu3","1920","1080","en","NS08US09","null","","","","learningBlock2","","","","<div style=""font-size:60px;""> </div>","null","LF","learning/Slide143.JPG","This is a bim:","",""
"","html-keyboard-response","437","527141","0.0-8.0-0.63","LF","f64ncrzxu3","1920","1080","en","NS08US09","null","","","","learningBlock2","","","","This is a dep:","null","","","","",""
"","image-keyboard-response","438","527482","0.0-8.0-1.63","LF","f64ncrzxu3","1920","1080","en","NS08US09","null","","","","","","","","learning/Slide144.JPG","null","","","","",""
"","html-keyboard-response","439","528491","0.0-8.0-2.63","LF","f64ncrzxu3","1920","1080","en","NS08US09","null","","","","learningBlock2","","","","<div style=""font-size:60px;""> </div>","null","LF","learning/Slide144.JPG","This is a dep:","",""
"","html-keyboard-response","440","529498","0.0-8.0-0.64","LF","f64ncrzxu3","1920","1080","en","NS08US09","null","","","","learningBlock2","","","","This is a bim:","null","","","","",""
"","image-keyboard-response","441","529838","0.0-8.0-1.64","LF","f64ncrzxu3","1920","1080","en","NS08US09","null","","","","","","","","learning/Slide145.JPG","null","","","","",""
"","html-keyboard-response","442","530843","0.0-8.0-2.64","LF","f64ncrzxu3","1920","1080","en","NS08US09","null","","","","learningBlock2","","","","<div style=""font-size:60px;""> </div>","null","LF","learning/Slide145.JPG","This is a bim:","",""
"","html-keyboard-response","443","531849","0.0-8.0-0.65","LF","f64ncrzxu3","1920","1080","en","NS08US09","null","","","","learningBlock2","","","","This is a tob:","null","","","","",""
"","image-keyboard-response","444","532186","0.0-8.0-1.65","LF","f64ncrzxu3","1920","1080","en","NS08US09","null","","","","","","","","learning/Slide146.JPG","null","","","","",""
"","html-keyboard-response","445","533196","0.0-8.0-2.65","LF","f64ncrzxu3","1920","1080","en","NS08US09","null","","","","learningBlock2","","","","<div style=""font-size:60px;""> </div>","null","LF","learning/Slide146.JPG","This is a tob:","",""
"","html-keyboard-response","446","534204","0.0-8.0-0.66","LF","f64ncrzxu3","1920","1080","en","NS08US09","null","","","","learningBlock2","","","","This is a wug:","null","","","","",""
"","image-keyboard-response","447","534534","0.0-8.0-1.66","LF","f64ncrzxu3","1920","1080","en","NS08US09","null","","","","","","","","learning/Slide147.JPG","null","","","","",""
"","html-keyboard-response","448","535540","0.0-8.0-2.66","LF","f64ncrzxu3","1920","1080","en","NS08US09","null","","","","learningBlock2","","","","<div style=""font-size:60px;""> </div>","null","LF","learning/Slide147.JPG","This is a wug:","",""
"","html-keyboard-response","449","536545","0.0-8.0-0.67","LF","f64ncrzxu3","1920","1080","en","NS08US09","null","","","","learningBlock2","","","","This is a bim:","null","","","","",""
"","image-keyboard-response","450","536880","0.0-8.0-1.67","LF","f64ncrzxu3","1920","1080","en","NS08US09","null","","","","","","","","learning/Slide148.JPG","null","","","","",""
"","html-keyboard-response","451","537883","0.0-8.0-2.67","LF","f64ncrzxu3","1920","1080","en","NS08US09","null","","","","learningBlock2","","","","<div style=""font-size:60px;""> </div>","null","LF","learning/Slide148.JPG","This is a bim:","",""
"","html-keyboard-response","452","538886","0.0-8.0-0.68","LF","f64ncrzxu3","1920","1080","en","NS08US09","null","","","","learningBlock2","","","","This is a dep:","null","","","","",""
"","image-keyboard-response","453","539227","0.0-8.0-1.68","LF","f64ncrzxu3","1920","1080","en","NS08US09","null","","","","","","","","learning/Slide149.JPG","null","","","","",""
"","html-keyboard-response","454","540235","0.0-8.0-2.68","LF","f64ncrzxu3","1920","1080","en","NS08US09","null","","","","learningBlock2","","","","<div style=""font-size:60px;""> </div>","null","LF","learning/Slide149.JPG","This is a dep:","",""
"","html-keyboard-response","455","541247","0.0-8.0-0.69","LF","f64ncrzxu3","1920","1080","en","NS08US09","null","","","","learningBlock2","","","","This is a wug:","null","","","","",""
"","image-keyboard-response","456","541582","0.0-8.0-1.69","LF","f64ncrzxu3","1920","1080","en","NS08US09","null","","","","","","","","learning/Slide150.JPG","null","","","","",""
"","html-keyboard-response","457","542586","0.0-8.0-2.69","LF","f64ncrzxu3","1920","1080","en","NS08US09","null","","","","learningBlock2","","","","<div style=""font-size:60px;""> </div>","null","LF","learning/Slide150.JPG","This is a wug:","",""
"","html-keyboard-response","458","543604","0.0-8.0-0.70","LF","f64ncrzxu3","1920","1080","en","NS08US09","null","","","","learningBlock2","","","","This is a dep:","null","","","","",""
"","image-keyboard-response","459","543939","0.0-8.0-1.70","LF","f64ncrzxu3","1920","1080","en","NS08US09","null","","","","","","","","learning/Slide151.JPG","null","","","","",""
"","html-keyboard-response","460","544942","0.0-8.0-2.70","LF","f64ncrzxu3","1920","1080","en","NS08US09","null","","","","learningBlock2","","","","<div style=""font-size:60px;""> </div>","null","LF","learning/Slide151.JPG","This is a dep:","",""
"","html-keyboard-response","461","545954","0.0-8.0-0.71","LF","f64ncrzxu3","1920","1080","en","NS08US09","null","","","","learningBlock2","","","","This is a wug:","null","","","","",""
"","image-keyboard-response","462","546291","0.0-8.0-1.71","LF","f64ncrzxu3","1920","1080","en","NS08US09","null","","","","","","","","learning/Slide152.JPG","null","","","","",""
"","html-keyboard-response","463","547309","0.0-8.0-2.71","LF","f64ncrzxu3","1920","1080","en","NS08US09","null","","","","learningBlock2","","","","<div style=""font-size:60px;""> </div>","null","LF","learning/Slide152.JPG","This is a wug:","",""
"","html-keyboard-response","464","548326","0.0-8.0-0.72","LF","f64ncrzxu3","1920","1080","en","NS08US09","null","","","","learningBlock2","","","","This is a bim:","null","","","","",""
"","image-keyboard-response","465","548670","0.0-8.0-1.72","LF","f64ncrzxu3","1920","1080","en","NS08US09","null","","","","","","","","learning/Slide153.JPG","null","","","","",""
"","html-keyboard-response","466","549676","0.0-8.0-2.72","LF","f64ncrzxu3","1920","1080","en","NS08US09","null","","","","learningBlock2","","","","<div style=""font-size:60px;""> </div>","null","LF","learning/Slide153.JPG","This is a bim:","",""
"","html-keyboard-response","467","550686","0.0-8.0-0.73","LF","f64ncrzxu3","1920","1080","en","NS08US09","null","","","","learningBlock2","","","","This is a tob:","null","","","","",""
"","image-keyboard-response","468","551028","0.0-8.0-1.73","LF","f64ncrzxu3","1920","1080","en","NS08US09","null","","","","","","","","learning/Slide154.JPG","null","","","","",""
"","html-keyboard-response","469","552036","0.0-8.0-2.73","LF","f64ncrzxu3","1920","1080","en","NS08US09","null","","","","learningBlock2","","","","<div style=""font-size:60px;""> </div>","null","LF","learning/Slide154.JPG","This is a tob:","",""
"","html-keyboard-response","470","553042","0.0-8.0-0.74","LF","f64ncrzxu3","1920","1080","en","NS08US09","null","","","","learningBlock2","","","","This is a dep:","null","","","","",""
"","image-keyboard-response","471","553384","0.0-8.0-1.74","LF","f64ncrzxu3","1920","1080","en","NS08US09","null","","","","","","","","learning/Slide155.JPG","null","","","","",""
"","html-keyboard-response","472","554388","0.0-8.0-2.74","LF","f64ncrzxu3","1920","1080","en","NS08US09","null","","","","learningBlock2","","","","<div style=""font-size:60px;""> </div>","null","LF","learning/Slide155.JPG","This is a dep:","",""
"","html-keyboard-response","473","555393","0.0-8.0-0.75","LF","f64ncrzxu3","1920","1080","en","NS08US09","null","","","","learningBlock2","","","","This is a bim:","null","","","","",""
"","image-keyboard-response","474","555722","0.0-8.0-1.75","LF","f64ncrzxu3","1920","1080","en","NS08US09","null","","","","","","","","learning/Slide156.JPG","null","","","","",""
"","html-keyboard-response","475","556729","0.0-8.0-2.75","LF","f64ncrzxu3","1920","1080","en","NS08US09","null","","","","learningBlock2","","","","<div style=""font-size:60px;""> </div>","null","LF","learning/Slide156.JPG","This is a bim:","",""
"","html-keyboard-response","476","557734","0.0-8.0-0.76","LF","f64ncrzxu3","1920","1080","en","NS08US09","null","","","","learningBlock2","","","","This is a dep:","null","","","","",""
"","image-keyboard-response","477","558071","0.0-8.0-1.76","LF","f64ncrzxu3","1920","1080","en","NS08US09","null","","","","","","","","learning/Slide157.JPG","null","","","","",""
"","html-keyboard-response","478","559074","0.0-8.0-2.76","LF","f64ncrzxu3","1920","1080","en","NS08US09","null","","","","learningBlock2","","","","<div style=""font-size:60px;""> </div>","null","LF","learning/Slide157.JPG","This is a dep:","",""
"","html-keyboard-response","479","560083","0.0-8.0-0.77","LF","f64ncrzxu3","1920","1080","en","NS08US09","null","","","","learningBlock2","","","","This is a tob:","null","","","","",""
"","image-keyboard-response","480","560426","0.0-8.0-1.77","LF","f64ncrzxu3","1920","1080","en","NS08US09","null","","","","","","","","learning/Slide158.JPG","null","","","","",""
"","html-keyboard-response","481","561428","0.0-8.0-2.77","LF","f64ncrzxu3","1920","1080","en","NS08US09","null","","","","learningBlock2","","","","<div style=""font-size:60px;""> </div>","null","LF","learning/Slide158.JPG","This is a tob:","",""
"","html-keyboard-response","482","562442","0.0-8.0-0.78","LF","f64ncrzxu3","1920","1080","en","NS08US09","null","","","","learningBlock2","","","","This is a dep:","null","","","","",""
"","image-keyboard-response","483","562783","0.0-8.0-1.78","LF","f64ncrzxu3","1920","1080","en","NS08US09","null","","","","","","","","learning/Slide159.JPG","null","","","","",""
"","html-keyboard-response","484","563792","0.0-8.0-2.78","LF","f64ncrzxu3","1920","1080","en","NS08US09","null","","","","learningBlock2","","","","<div style=""font-size:60px;""> </div>","null","LF","learning/Slide159.JPG","This is a dep:","",""
"","html-keyboard-response","485","564800","0.0-8.0-0.79","LF","f64ncrzxu3","1920","1080","en","NS08US09","null","","","","learningBlock2","","","","This is a wug:","null","","","","",""
"","image-keyboard-response","486","565141","0.0-8.0-1.79","LF","f64ncrzxu3","1920","1080","en","NS08US09","null","","","","","","","","learning/Slide160.JPG","null","","","","",""
