"success","trial_type","trial_index","time_elapsed","internal_node_id","condition","subject","screen_width","screen_height","language","codeword","rt","responses","url","view_history","test_part","final_height_px","final_width_px","scale_factor","stimulus","key_press","learningType","presentedImage","presentedLabel","button_pressed","response"
"true","fullscreen","0","4461","0.0-0.0","FL","bhjyudy7kq","1536","864","de","IC06IR09","","","","","","","","","","","","","","",""
"","survey-html-form","1","14153","0.0-1.0","FL","bhjyudy7kq","1536","864","de","IC06IR09","9687.29000003077","{""language"":""de""}","","","","","","","","","","","","",""
"","external-html","2","21801","0.0-2.0-0.0","FL","bhjyudy7kq","1536","864","de","IC06IR09","7574.374999967404","","text/information.html","","","","","","","","","","","",""
"","external-html","3","31471","0.0-2.0-1.0","FL","bhjyudy7kq","1536","864","de","IC06IR09","9622.959999949671","","text/consent.html","","","","","","","","","","","",""
"","survey-html-form","4","124225","0.0-2.0-2.0","FL","bhjyudy7kq","1536","864","de","IC06IR09","92752.47000006493","{""codeword_enter"":""IC06IR09""}","","","","","","","","","","","","",""
"","instructions","5","144706","0.0-4.0","FL","bhjyudy7kq","1536","864","de","IC06IR09","NA","","","[{""page_index"":0,""viewing_time"":5185.300000011921},{""page_index"":1,""viewing_time"":13791.450000018813}]","instructions","","","","","","","","","",""
"","resize","6","216419","0.0-5.0","FL","bhjyudy7kq","1536","864","de","IC06IR09","","","","","","","373","2.3682539682539683","","","","","","",""
"","image-keyboard-response","7","216597","0.0-6.0-0.0","FL","bhjyudy7kq","1536","864","de","IC06IR09","null","","","","","","","","learning/Slide1.JPG","null","","","","",""
"","html-keyboard-response","8","217750","0.0-6.0-1.0","FL","bhjyudy7kq","1536","864","de","IC06IR09","null","","","","learningBlock1","","","","That was a tob.","null","","","","",""
"","html-keyboard-response","9","218754","0.0-6.0-2.0","FL","bhjyudy7kq","1536","864","de","IC06IR09","null","","","","learningBlock1","","","","<div style=""font-size:60px;""> </div>","null","FL","learning/Slide1.JPG","That was a tob.","",""
"","image-keyboard-response","10","218931","0.0-6.0-0.1","FL","bhjyudy7kq","1536","864","de","IC06IR09","null","","","","","","","","learning/Slide2.JPG","null","","","","",""
"","html-keyboard-response","11","220084","0.0-6.0-1.1","FL","bhjyudy7kq","1536","864","de","IC06IR09","null","","","","learningBlock1","","","","That was a wug.","null","","","","",""
"","html-keyboard-response","12","221086","0.0-6.0-2.1","FL","bhjyudy7kq","1536","864","de","IC06IR09","null","","","","learningBlock1","","","","<div style=""font-size:60px;""> </div>","null","FL","learning/Slide2.JPG","That was a wug.","",""
"","image-keyboard-response","13","221263","0.0-6.0-0.2","FL","bhjyudy7kq","1536","864","de","IC06IR09","null","","","","","","","","learning/Slide3.JPG","null","","","","",""
"","html-keyboard-response","14","222415","0.0-6.0-1.2","FL","bhjyudy7kq","1536","864","de","IC06IR09","null","","","","learningBlock1","","","","That was a bim.","null","","","","",""
"","html-keyboard-response","15","223417","0.0-6.0-2.2","FL","bhjyudy7kq","1536","864","de","IC06IR09","null","","","","learningBlock1","","","","<div style=""font-size:60px;""> </div>","null","FL","learning/Slide3.JPG","That was a bim.","",""
"","image-keyboard-response","16","223595","0.0-6.0-0.3","FL","bhjyudy7kq","1536","864","de","IC06IR09","null","","","","","","","","learning/Slide4.JPG","null","","","","",""
"","html-keyboard-response","17","224748","0.0-6.0-1.3","FL","bhjyudy7kq","1536","864","de","IC06IR09","null","","","","learningBlock1","","","","That was a dep.","null","","","","",""
"","html-keyboard-response","18","225750","0.0-6.0-2.3","FL","bhjyudy7kq","1536","864","de","IC06IR09","null","","","","learningBlock1","","","","<div style=""font-size:60px;""> </div>","null","FL","learning/Slide4.JPG","That was a dep.","",""
"","image-keyboard-response","19","225927","0.0-6.0-0.4","FL","bhjyudy7kq","1536","864","de","IC06IR09","null","","","","","","","","learning/Slide5.JPG","null","","","","",""
"","html-keyboard-response","20","227079","0.0-6.0-1.4","FL","bhjyudy7kq","1536","864","de","IC06IR09","null","","","","learningBlock1","","","","That was a wug.","null","","","","",""
"","html-keyboard-response","21","228080","0.0-6.0-2.4","FL","bhjyudy7kq","1536","864","de","IC06IR09","null","","","","learningBlock1","","","","<div style=""font-size:60px;""> </div>","null","FL","learning/Slide5.JPG","That was a wug.","",""
"","image-keyboard-response","22","228258","0.0-6.0-0.5","FL","bhjyudy7kq","1536","864","de","IC06IR09","null","","","","","","","","learning/Slide6.JPG","null","","","","",""
"","html-keyboard-response","23","229410","0.0-6.0-1.5","FL","bhjyudy7kq","1536","864","de","IC06IR09","null","","","","learningBlock1","","","","That was a dep.","null","","","","",""
"","html-keyboard-response","24","230413","0.0-6.0-2.5","FL","bhjyudy7kq","1536","864","de","IC06IR09","null","","","","learningBlock1","","","","<div style=""font-size:60px;""> </div>","null","FL","learning/Slide6.JPG","That was a dep.","",""
"","image-keyboard-response","25","230589","0.0-6.0-0.6","FL","bhjyudy7kq","1536","864","de","IC06IR09","null","","","","","","","","learning/Slide7.JPG","null","","","","",""
"","html-keyboard-response","26","231742","0.0-6.0-1.6","FL","bhjyudy7kq","1536","864","de","IC06IR09","null","","","","learningBlock1","","","","That was a wug.","null","","","","",""
"","html-keyboard-response","27","232743","0.0-6.0-2.6","FL","bhjyudy7kq","1536","864","de","IC06IR09","null","","","","learningBlock1","","","","<div style=""font-size:60px;""> </div>","null","FL","learning/Slide7.JPG","That was a wug.","",""
"","image-keyboard-response","28","232920","0.0-6.0-0.7","FL","bhjyudy7kq","1536","864","de","IC06IR09","null","","","","","","","","learning/Slide8.JPG","null","","","","",""
"","html-keyboard-response","29","234074","0.0-6.0-1.7","FL","bhjyudy7kq","1536","864","de","IC06IR09","null","","","","learningBlock1","","","","That was a bim.","null","","","","",""
"","html-keyboard-response","30","235075","0.0-6.0-2.7","FL","bhjyudy7kq","1536","864","de","IC06IR09","null","","","","learningBlock1","","","","<div style=""font-size:60px;""> </div>","null","FL","learning/Slide8.JPG","That was a bim.","",""
"","image-keyboard-response","31","235253","0.0-6.0-0.8","FL","bhjyudy7kq","1536","864","de","IC06IR09","null","","","","","","","","learning/Slide9.JPG","null","","","","",""
"","html-keyboard-response","32","236404","0.0-6.0-1.8","FL","bhjyudy7kq","1536","864","de","IC06IR09","null","","","","learningBlock1","","","","That was a wug.","null","","","","",""
"","html-keyboard-response","33","237406","0.0-6.0-2.8","FL","bhjyudy7kq","1536","864","de","IC06IR09","null","","","","learningBlock1","","","","<div style=""font-size:60px;""> </div>","null","FL","learning/Slide9.JPG","That was a wug.","",""
"","image-keyboard-response","34","237585","0.0-6.0-0.9","FL","bhjyudy7kq","1536","864","de","IC06IR09","null","","","","","","","","learning/Slide10.JPG","null","","","","",""
"","html-keyboard-response","35","238739","0.0-6.0-1.9","FL","bhjyudy7kq","1536","864","de","IC06IR09","null","","","","learningBlock1","","","","That was a dep.","null","","","","",""
"","html-keyboard-response","36","239740","0.0-6.0-2.9","FL","bhjyudy7kq","1536","864","de","IC06IR09","null","","","","learningBlock1","","","","<div style=""font-size:60px;""> </div>","null","FL","learning/Slide10.JPG","That was a dep.","",""
"","image-keyboard-response","37","239918","0.0-6.0-0.10","FL","bhjyudy7kq","1536","864","de","IC06IR09","null","","","","","","","","learning/Slide11.JPG","null","","","","",""
"","html-keyboard-response","38","241071","0.0-6.0-1.10","FL","bhjyudy7kq","1536","864","de","IC06IR09","null","","","","learningBlock1","","","","That was a tob.","null","","","","",""
"","html-keyboard-response","39","242073","0.0-6.0-2.10","FL","bhjyudy7kq","1536","864","de","IC06IR09","null","","","","learningBlock1","","","","<div style=""font-size:60px;""> </div>","null","FL","learning/Slide11.JPG","That was a tob.","",""
"","image-keyboard-response","40","242250","0.0-6.0-0.11","FL","bhjyudy7kq","1536","864","de","IC06IR09","null","","","","","","","","learning/Slide12.JPG","null","","","","",""
"","html-keyboard-response","41","243403","0.0-6.0-1.11","FL","bhjyudy7kq","1536","864","de","IC06IR09","null","","","","learningBlock1","","","","That was a dep.","null","","","","",""
"","html-keyboard-response","42","244405","0.0-6.0-2.11","FL","bhjyudy7kq","1536","864","de","IC06IR09","null","","","","learningBlock1","","","","<div style=""font-size:60px;""> </div>","null","FL","learning/Slide12.JPG","That was a dep.","",""
"","image-keyboard-response","43","244583","0.0-6.0-0.12","FL","bhjyudy7kq","1536","864","de","IC06IR09","null","","","","","","","","learning/Slide13.JPG","null","","","","",""
"","html-keyboard-response","44","245735","0.0-6.0-1.12","FL","bhjyudy7kq","1536","864","de","IC06IR09","null","","","","learningBlock1","","","","That was a bim.","null","","","","",""
"","html-keyboard-response","45","246736","0.0-6.0-2.12","FL","bhjyudy7kq","1536","864","de","IC06IR09","null","","","","learningBlock1","","","","<div style=""font-size:60px;""> </div>","null","FL","learning/Slide13.JPG","That was a bim.","",""
"","image-keyboard-response","46","246913","0.0-6.0-0.13","FL","bhjyudy7kq","1536","864","de","IC06IR09","null","","","","","","","","learning/Slide14.JPG","null","","","","",""
"","html-keyboard-response","47","248066","0.0-6.0-1.13","FL","bhjyudy7kq","1536","864","de","IC06IR09","null","","","","learningBlock1","","","","That was a wug.","null","","","","",""
"","html-keyboard-response","48","249068","0.0-6.0-2.13","FL","bhjyudy7kq","1536","864","de","IC06IR09","null","","","","learningBlock1","","","","<div style=""font-size:60px;""> </div>","null","FL","learning/Slide14.JPG","That was a wug.","",""
"","image-keyboard-response","49","249246","0.0-6.0-0.14","FL","bhjyudy7kq","1536","864","de","IC06IR09","null","","","","","","","","learning/Slide15.JPG","null","","","","",""
"","html-keyboard-response","50","250398","0.0-6.0-1.14","FL","bhjyudy7kq","1536","864","de","IC06IR09","null","","","","learningBlock1","","","","That was a tob.","null","","","","",""
"","html-keyboard-response","51","251400","0.0-6.0-2.14","FL","bhjyudy7kq","1536","864","de","IC06IR09","null","","","","learningBlock1","","","","<div style=""font-size:60px;""> </div>","null","FL","learning/Slide15.JPG","That was a tob.","",""
"","image-keyboard-response","52","251578","0.0-6.0-0.15","FL","bhjyudy7kq","1536","864","de","IC06IR09","null","","","","","","","","learning/Slide16.JPG","null","","","","",""
"","html-keyboard-response","53","252729","0.0-6.0-1.15","FL","bhjyudy7kq","1536","864","de","IC06IR09","null","","","","learningBlock1","","","","That was a dep.","null","","","","",""
"","html-keyboard-response","54","253731","0.0-6.0-2.15","FL","bhjyudy7kq","1536","864","de","IC06IR09","null","","","","learningBlock1","","","","<div style=""font-size:60px;""> </div>","null","FL","learning/Slide16.JPG","That was a dep.","",""
"","image-keyboard-response","55","253907","0.0-6.0-0.16","FL","bhjyudy7kq","1536","864","de","IC06IR09","null","","","","","","","","learning/Slide17.JPG","null","","","","",""
"","html-keyboard-response","56","255060","0.0-6.0-1.16","FL","bhjyudy7kq","1536","864","de","IC06IR09","null","","","","learningBlock1","","","","That was a bim.","null","","","","",""
"","html-keyboard-response","57","256061","0.0-6.0-2.16","FL","bhjyudy7kq","1536","864","de","IC06IR09","null","","","","learningBlock1","","","","<div style=""font-size:60px;""> </div>","null","FL","learning/Slide17.JPG","That was a bim.","",""
"","image-keyboard-response","58","256238","0.0-6.0-0.17","FL","bhjyudy7kq","1536","864","de","IC06IR09","null","","","","","","","","learning/Slide18.JPG","null","","","","",""
"","html-keyboard-response","59","257390","0.0-6.0-1.17","FL","bhjyudy7kq","1536","864","de","IC06IR09","null","","","","learningBlock1","","","","That was a tob.","null","","","","",""
"","html-keyboard-response","60","258392","0.0-6.0-2.17","FL","bhjyudy7kq","1536","864","de","IC06IR09","null","","","","learningBlock1","","","","<div style=""font-size:60px;""> </div>","null","FL","learning/Slide18.JPG","That was a tob.","",""
"","image-keyboard-response","61","258570","0.0-6.0-0.18","FL","bhjyudy7kq","1536","864","de","IC06IR09","null","","","","","","","","learning/Slide19.JPG","null","","","","",""
"","html-keyboard-response","62","259723","0.0-6.0-1.18","FL","bhjyudy7kq","1536","864","de","IC06IR09","null","","","","learningBlock1","","","","That was a wug.","null","","","","",""
"","html-keyboard-response","63","260724","0.0-6.0-2.18","FL","bhjyudy7kq","1536","864","de","IC06IR09","null","","","","learningBlock1","","","","<div style=""font-size:60px;""> </div>","null","FL","learning/Slide19.JPG","That was a wug.","",""
"","image-keyboard-response","64","260901","0.0-6.0-0.19","FL","bhjyudy7kq","1536","864","de","IC06IR09","null","","","","","","","","learning/Slide20.JPG","null","","","","",""
"","html-keyboard-response","65","262054","0.0-6.0-1.19","FL","bhjyudy7kq","1536","864","de","IC06IR09","null","","","","learningBlock1","","","","That was a bim.","null","","","","",""
"","html-keyboard-response","66","263056","0.0-6.0-2.19","FL","bhjyudy7kq","1536","864","de","IC06IR09","null","","","","learningBlock1","","","","<div style=""font-size:60px;""> </div>","null","FL","learning/Slide20.JPG","That was a bim.","",""
"","image-keyboard-response","67","263234","0.0-6.0-0.20","FL","bhjyudy7kq","1536","864","de","IC06IR09","null","","","","","","","","learning/Slide21.JPG","null","","","","",""
"","html-keyboard-response","68","264387","0.0-6.0-1.20","FL","bhjyudy7kq","1536","864","de","IC06IR09","null","","","","learningBlock1","","","","That was a dep.","null","","","","",""
"","html-keyboard-response","69","265391","0.0-6.0-2.20","FL","bhjyudy7kq","1536","864","de","IC06IR09","null","","","","learningBlock1","","","","<div style=""font-size:60px;""> </div>","null","FL","learning/Slide21.JPG","That was a dep.","",""
"","image-keyboard-response","70","265568","0.0-6.0-0.21","FL","bhjyudy7kq","1536","864","de","IC06IR09","null","","","","","","","","learning/Slide22.JPG","null","","","","",""
"","html-keyboard-response","71","266720","0.0-6.0-1.21","FL","bhjyudy7kq","1536","864","de","IC06IR09","null","","","","learningBlock1","","","","That was a bim.","null","","","","",""
"","html-keyboard-response","72","267721","0.0-6.0-2.21","FL","bhjyudy7kq","1536","864","de","IC06IR09","null","","","","learningBlock1","","","","<div style=""font-size:60px;""> </div>","null","FL","learning/Slide22.JPG","That was a bim.","",""
"","image-keyboard-response","73","267899","0.0-6.0-0.22","FL","bhjyudy7kq","1536","864","de","IC06IR09","null","","","","","","","","learning/Slide23.JPG","null","","","","",""
"","html-keyboard-response","74","269052","0.0-6.0-1.22","FL","bhjyudy7kq","1536","864","de","IC06IR09","null","","","","learningBlock1","","","","That was a tob.","null","","","","",""
"","html-keyboard-response","75","270054","0.0-6.0-2.22","FL","bhjyudy7kq","1536","864","de","IC06IR09","null","","","","learningBlock1","","","","<div style=""font-size:60px;""> </div>","null","FL","learning/Slide23.JPG","That was a tob.","",""
"","image-keyboard-response","76","270231","0.0-6.0-0.23","FL","bhjyudy7kq","1536","864","de","IC06IR09","null","","","","","","","","learning/Slide24.JPG","null","","","","",""
"","html-keyboard-response","77","271384","0.0-6.0-1.23","FL","bhjyudy7kq","1536","864","de","IC06IR09","null","","","","learningBlock1","","","","That was a wug.","null","","","","",""
"","html-keyboard-response","78","272386","0.0-6.0-2.23","FL","bhjyudy7kq","1536","864","de","IC06IR09","null","","","","learningBlock1","","","","<div style=""font-size:60px;""> </div>","null","FL","learning/Slide24.JPG","That was a wug.","",""
"","image-keyboard-response","79","272562","0.0-6.0-0.24","FL","bhjyudy7kq","1536","864","de","IC06IR09","null","","","","","","","","learning/Slide25.JPG","null","","","","",""
"","html-keyboard-response","80","273715","0.0-6.0-1.24","FL","bhjyudy7kq","1536","864","de","IC06IR09","null","","","","learningBlock1","","","","That was a dep.","null","","","","",""
"","html-keyboard-response","81","274717","0.0-6.0-2.24","FL","bhjyudy7kq","1536","864","de","IC06IR09","null","","","","learningBlock1","","","","<div style=""font-size:60px;""> </div>","null","FL","learning/Slide25.JPG","That was a dep.","",""
"","image-keyboard-response","82","274895","0.0-6.0-0.25","FL","bhjyudy7kq","1536","864","de","IC06IR09","null","","","","","","","","learning/Slide26.JPG","null","","","","",""
"","html-keyboard-response","83","276048","0.0-6.0-1.25","FL","bhjyudy7kq","1536","864","de","IC06IR09","null","","","","learningBlock1","","","","That was a wug.","null","","","","",""
"","html-keyboard-response","84","277050","0.0-6.0-2.25","FL","bhjyudy7kq","1536","864","de","IC06IR09","null","","","","learningBlock1","","","","<div style=""font-size:60px;""> </div>","null","FL","learning/Slide26.JPG","That was a wug.","",""
"","image-keyboard-response","85","277227","0.0-6.0-0.26","FL","bhjyudy7kq","1536","864","de","IC06IR09","null","","","","","","","","learning/Slide27.JPG","null","","","","",""
"","html-keyboard-response","86","278380","0.0-6.0-1.26","FL","bhjyudy7kq","1536","864","de","IC06IR09","null","","","","learningBlock1","","","","That was a bim.","null","","","","",""
"","html-keyboard-response","87","279382","0.0-6.0-2.26","FL","bhjyudy7kq","1536","864","de","IC06IR09","null","","","","learningBlock1","","","","<div style=""font-size:60px;""> </div>","null","FL","learning/Slide27.JPG","That was a bim.","",""
"","image-keyboard-response","88","279559","0.0-6.0-0.27","FL","bhjyudy7kq","1536","864","de","IC06IR09","null","","","","","","","","learning/Slide28.JPG","null","","","","",""
"","html-keyboard-response","89","280711","0.0-6.0-1.27","FL","bhjyudy7kq","1536","864","de","IC06IR09","null","","","","learningBlock1","","","","That was a dep.","null","","","","",""
"","html-keyboard-response","90","281713","0.0-6.0-2.27","FL","bhjyudy7kq","1536","864","de","IC06IR09","null","","","","learningBlock1","","","","<div style=""font-size:60px;""> </div>","null","FL","learning/Slide28.JPG","That was a dep.","",""
"","image-keyboard-response","91","281890","0.0-6.0-0.28","FL","bhjyudy7kq","1536","864","de","IC06IR09","null","","","","","","","","learning/Slide29.JPG","null","","","","",""
"","html-keyboard-response","92","283042","0.0-6.0-1.28","FL","bhjyudy7kq","1536","864","de","IC06IR09","null","","","","learningBlock1","","","","That was a tob.","null","","","","",""
"","html-keyboard-response","93","284044","0.0-6.0-2.28","FL","bhjyudy7kq","1536","864","de","IC06IR09","null","","","","learningBlock1","","","","<div style=""font-size:60px;""> </div>","null","FL","learning/Slide29.JPG","That was a tob.","",""
"","image-keyboard-response","94","284221","0.0-6.0-0.29","FL","bhjyudy7kq","1536","864","de","IC06IR09","null","","","","","","","","learning/Slide30.JPG","null","","","","",""
"","html-keyboard-response","95","285374","0.0-6.0-1.29","FL","bhjyudy7kq","1536","864","de","IC06IR09","null","","","","learningBlock1","","","","That was a dep.","null","","","","",""
"","html-keyboard-response","96","286376","0.0-6.0-2.29","FL","bhjyudy7kq","1536","864","de","IC06IR09","null","","","","learningBlock1","","","","<div style=""font-size:60px;""> </div>","null","FL","learning/Slide30.JPG","That was a dep.","",""
"","image-keyboard-response","97","286554","0.0-6.0-0.30","FL","bhjyudy7kq","1536","864","de","IC06IR09","null","","","","","","","","learning/Slide31.JPG","null","","","","",""
"","html-keyboard-response","98","287706","0.0-6.0-1.30","FL","bhjyudy7kq","1536","864","de","IC06IR09","null","","","","learningBlock1","","","","That was a wug.","null","","","","",""
"","html-keyboard-response","99","288708","0.0-6.0-2.30","FL","bhjyudy7kq","1536","864","de","IC06IR09","null","","","","learningBlock1","","","","<div style=""font-size:60px;""> </div>","null","FL","learning/Slide31.JPG","That was a wug.","",""
"","image-keyboard-response","100","288885","0.0-6.0-0.31","FL","bhjyudy7kq","1536","864","de","IC06IR09","null","","","","","","","","learning/Slide32.JPG","null","","","","",""
"","html-keyboard-response","101","290038","0.0-6.0-1.31","FL","bhjyudy7kq","1536","864","de","IC06IR09","null","","","","learningBlock1","","","","That was a tob.","null","","","","",""
"","html-keyboard-response","102","291040","0.0-6.0-2.31","FL","bhjyudy7kq","1536","864","de","IC06IR09","null","","","","learningBlock1","","","","<div style=""font-size:60px;""> </div>","null","FL","learning/Slide32.JPG","That was a tob.","",""
"","image-keyboard-response","103","291217","0.0-6.0-0.32","FL","bhjyudy7kq","1536","864","de","IC06IR09","null","","","","","","","","learning/Slide33.JPG","null","","","","",""
"","html-keyboard-response","104","292370","0.0-6.0-1.32","FL","bhjyudy7kq","1536","864","de","IC06IR09","null","","","","learningBlock1","","","","That was a bim.","null","","","","",""
"","html-keyboard-response","105","293372","0.0-6.0-2.32","FL","bhjyudy7kq","1536","864","de","IC06IR09","null","","","","learningBlock1","","","","<div style=""font-size:60px;""> </div>","null","FL","learning/Slide33.JPG","That was a bim.","",""
"","image-keyboard-response","106","293549","0.0-6.0-0.33","FL","bhjyudy7kq","1536","864","de","IC06IR09","null","","","","","","","","learning/Slide34.JPG","null","","","","",""
"","html-keyboard-response","107","294701","0.0-6.0-1.33","FL","bhjyudy7kq","1536","864","de","IC06IR09","null","","","","learningBlock1","","","","That was a tob.","null","","","","",""
"","html-keyboard-response","108","295702","0.0-6.0-2.33","FL","bhjyudy7kq","1536","864","de","IC06IR09","null","","","","learningBlock1","","","","<div style=""font-size:60px;""> </div>","null","FL","learning/Slide34.JPG","That was a tob.","",""
"","image-keyboard-response","109","295879","0.0-6.0-0.34","FL","bhjyudy7kq","1536","864","de","IC06IR09","null","","","","","","","","learning/Slide35.JPG","null","","","","",""
"","html-keyboard-response","110","297031","0.0-6.0-1.34","FL","bhjyudy7kq","1536","864","de","IC06IR09","null","","","","learningBlock1","","","","That was a bim.","null","","","","",""
"","html-keyboard-response","111","298032","0.0-6.0-2.34","FL","bhjyudy7kq","1536","864","de","IC06IR09","null","","","","learningBlock1","","","","<div style=""font-size:60px;""> </div>","null","FL","learning/Slide35.JPG","That was a bim.","",""
"","image-keyboard-response","112","298209","0.0-6.0-0.35","FL","bhjyudy7kq","1536","864","de","IC06IR09","null","","","","","","","","learning/Slide36.JPG","null","","","","",""
"","html-keyboard-response","113","299361","0.0-6.0-1.35","FL","bhjyudy7kq","1536","864","de","IC06IR09","null","","","","learningBlock1","","","","That was a dep.","null","","","","",""
"","html-keyboard-response","114","300363","0.0-6.0-2.35","FL","bhjyudy7kq","1536","864","de","IC06IR09","null","","","","learningBlock1","","","","<div style=""font-size:60px;""> </div>","null","FL","learning/Slide36.JPG","That was a dep.","",""
"","image-keyboard-response","115","300541","0.0-6.0-0.36","FL","bhjyudy7kq","1536","864","de","IC06IR09","null","","","","","","","","learning/Slide37.JPG","null","","","","",""
"","html-keyboard-response","116","301693","0.0-6.0-1.36","FL","bhjyudy7kq","1536","864","de","IC06IR09","null","","","","learningBlock1","","","","That was a tob.","null","","","","",""
"","html-keyboard-response","117","302695","0.0-6.0-2.36","FL","bhjyudy7kq","1536","864","de","IC06IR09","null","","","","learningBlock1","","","","<div style=""font-size:60px;""> </div>","null","FL","learning/Slide37.JPG","That was a tob.","",""
"","image-keyboard-response","118","302872","0.0-6.0-0.37","FL","bhjyudy7kq","1536","864","de","IC06IR09","null","","","","","","","","learning/Slide38.JPG","null","","","","",""
"","html-keyboard-response","119","304025","0.0-6.0-1.37","FL","bhjyudy7kq","1536","864","de","IC06IR09","null","","","","learningBlock1","","","","That was a wug.","null","","","","",""
"","html-keyboard-response","120","305027","0.0-6.0-2.37","FL","bhjyudy7kq","1536","864","de","IC06IR09","null","","","","learningBlock1","","","","<div style=""font-size:60px;""> </div>","null","FL","learning/Slide38.JPG","That was a wug.","",""
"","image-keyboard-response","121","305203","0.0-6.0-0.38","FL","bhjyudy7kq","1536","864","de","IC06IR09","null","","","","","","","","learning/Slide39.JPG","null","","","","",""
"","html-keyboard-response","122","306355","0.0-6.0-1.38","FL","bhjyudy7kq","1536","864","de","IC06IR09","null","","","","learningBlock1","","","","That was a bim.","null","","","","",""
"","html-keyboard-response","123","307357","0.0-6.0-2.38","FL","bhjyudy7kq","1536","864","de","IC06IR09","null","","","","learningBlock1","","","","<div style=""font-size:60px;""> </div>","null","FL","learning/Slide39.JPG","That was a bim.","",""
"","image-keyboard-response","124","307534","0.0-6.0-0.39","FL","bhjyudy7kq","1536","864","de","IC06IR09","null","","","","","","","","learning/Slide40.JPG","null","","","","",""
"","html-keyboard-response","125","308687","0.0-6.0-1.39","FL","bhjyudy7kq","1536","864","de","IC06IR09","null","","","","learningBlock1","","","","That was a tob.","null","","","","",""
"","html-keyboard-response","126","309688","0.0-6.0-2.39","FL","bhjyudy7kq","1536","864","de","IC06IR09","null","","","","learningBlock1","","","","<div style=""font-size:60px;""> </div>","null","FL","learning/Slide40.JPG","That was a tob.","",""
"","image-keyboard-response","127","309865","0.0-6.0-0.40","FL","bhjyudy7kq","1536","864","de","IC06IR09","null","","","","","","","","learning/Slide41.JPG","null","","","","",""
"","html-keyboard-response","128","311018","0.0-6.0-1.40","FL","bhjyudy7kq","1536","864","de","IC06IR09","null","","","","learningBlock1","","","","That was a bim.","null","","","","",""
"","html-keyboard-response","129","312019","0.0-6.0-2.40","FL","bhjyudy7kq","1536","864","de","IC06IR09","null","","","","learningBlock1","","","","<div style=""font-size:60px;""> </div>","null","FL","learning/Slide41.JPG","That was a bim.","",""
"","image-keyboard-response","130","312196","0.0-6.0-0.41","FL","bhjyudy7kq","1536","864","de","IC06IR09","null","","","","","","","","learning/Slide42.JPG","null","","","","",""
"","html-keyboard-response","131","313349","0.0-6.0-1.41","FL","bhjyudy7kq","1536","864","de","IC06IR09","null","","","","learningBlock1","","","","That was a dep.","null","","","","",""
"","html-keyboard-response","132","314351","0.0-6.0-2.41","FL","bhjyudy7kq","1536","864","de","IC06IR09","null","","","","learningBlock1","","","","<div style=""font-size:60px;""> </div>","null","FL","learning/Slide42.JPG","That was a dep.","",""
"","image-keyboard-response","133","314528","0.0-6.0-0.42","FL","bhjyudy7kq","1536","864","de","IC06IR09","null","","","","","","","","learning/Slide43.JPG","null","","","","",""
"","html-keyboard-response","134","315680","0.0-6.0-1.42","FL","bhjyudy7kq","1536","864","de","IC06IR09","null","","","","learningBlock1","","","","That was a wug.","null","","","","",""
"","html-keyboard-response","135","316682","0.0-6.0-2.42","FL","bhjyudy7kq","1536","864","de","IC06IR09","null","","","","learningBlock1","","","","<div style=""font-size:60px;""> </div>","null","FL","learning/Slide43.JPG","That was a wug.","",""
"","image-keyboard-response","136","316859","0.0-6.0-0.43","FL","bhjyudy7kq","1536","864","de","IC06IR09","null","","","","","","","","learning/Slide44.JPG","null","","","","",""
"","html-keyboard-response","137","318011","0.0-6.0-1.43","FL","bhjyudy7kq","1536","864","de","IC06IR09","null","","","","learningBlock1","","","","That was a bim.","null","","","","",""
"","html-keyboard-response","138","319013","0.0-6.0-2.43","FL","bhjyudy7kq","1536","864","de","IC06IR09","null","","","","learningBlock1","","","","<div style=""font-size:60px;""> </div>","null","FL","learning/Slide44.JPG","That was a bim.","",""
"","image-keyboard-response","139","319191","0.0-6.0-0.44","FL","bhjyudy7kq","1536","864","de","IC06IR09","null","","","","","","","","learning/Slide45.JPG","null","","","","",""
"","html-keyboard-response","140","320344","0.0-6.0-1.44","FL","bhjyudy7kq","1536","864","de","IC06IR09","null","","","","learningBlock1","","","","That was a wug.","null","","","","",""
"","html-keyboard-response","141","321345","0.0-6.0-2.44","FL","bhjyudy7kq","1536","864","de","IC06IR09","null","","","","learningBlock1","","","","<div style=""font-size:60px;""> </div>","null","FL","learning/Slide45.JPG","That was a wug.","",""
"","image-keyboard-response","142","321523","0.0-6.0-0.45","FL","bhjyudy7kq","1536","864","de","IC06IR09","null","","","","","","","","learning/Slide46.JPG","null","","","","",""
"","html-keyboard-response","143","322675","0.0-6.0-1.45","FL","bhjyudy7kq","1536","864","de","IC06IR09","null","","","","learningBlock1","","","","That was a dep.","null","","","","",""
"","html-keyboard-response","144","323677","0.0-6.0-2.45","FL","bhjyudy7kq","1536","864","de","IC06IR09","null","","","","learningBlock1","","","","<div style=""font-size:60px;""> </div>","null","FL","learning/Slide46.JPG","That was a dep.","",""
"","image-keyboard-response","145","323855","0.0-6.0-0.46","FL","bhjyudy7kq","1536","864","de","IC06IR09","null","","","","","","","","learning/Slide47.JPG","null","","","","",""
"","html-keyboard-response","146","325006","0.0-6.0-1.46","FL","bhjyudy7kq","1536","864","de","IC06IR09","null","","","","learningBlock1","","","","That was a tob.","null","","","","",""
"","html-keyboard-response","147","326008","0.0-6.0-2.46","FL","bhjyudy7kq","1536","864","de","IC06IR09","null","","","","learningBlock1","","","","<div style=""font-size:60px;""> </div>","null","FL","learning/Slide47.JPG","That was a tob.","",""
"","image-keyboard-response","148","326185","0.0-6.0-0.47","FL","bhjyudy7kq","1536","864","de","IC06IR09","null","","","","","","","","learning/Slide48.JPG","null","","","","",""
"","html-keyboard-response","149","327338","0.0-6.0-1.47","FL","bhjyudy7kq","1536","864","de","IC06IR09","null","","","","learningBlock1","","","","That was a bim.","null","","","","",""
"","html-keyboard-response","150","328339","0.0-6.0-2.47","FL","bhjyudy7kq","1536","864","de","IC06IR09","null","","","","learningBlock1","","","","<div style=""font-size:60px;""> </div>","null","FL","learning/Slide48.JPG","That was a bim.","",""
"","image-keyboard-response","151","328516","0.0-6.0-0.48","FL","bhjyudy7kq","1536","864","de","IC06IR09","null","","","","","","","","learning/Slide49.JPG","null","","","","",""
"","html-keyboard-response","152","329668","0.0-6.0-1.48","FL","bhjyudy7kq","1536","864","de","IC06IR09","null","","","","learningBlock1","","","","That was a dep.","null","","","","",""
"","html-keyboard-response","153","330669","0.0-6.0-2.48","FL","bhjyudy7kq","1536","864","de","IC06IR09","null","","","","learningBlock1","","","","<div style=""font-size:60px;""> </div>","null","FL","learning/Slide49.JPG","That was a dep.","",""
"","image-keyboard-response","154","330846","0.0-6.0-0.49","FL","bhjyudy7kq","1536","864","de","IC06IR09","null","","","","","","","","learning/Slide50.JPG","null","","","","",""
"","html-keyboard-response","155","331999","0.0-6.0-1.49","FL","bhjyudy7kq","1536","864","de","IC06IR09","null","","","","learningBlock1","","","","That was a tob.","null","","","","",""
"","html-keyboard-response","156","333000","0.0-6.0-2.49","FL","bhjyudy7kq","1536","864","de","IC06IR09","null","","","","learningBlock1","","","","<div style=""font-size:60px;""> </div>","null","FL","learning/Slide50.JPG","That was a tob.","",""
"","image-keyboard-response","157","333177","0.0-6.0-0.50","FL","bhjyudy7kq","1536","864","de","IC06IR09","null","","","","","","","","learning/Slide51.JPG","null","","","","",""
"","html-keyboard-response","158","334330","0.0-6.0-1.50","FL","bhjyudy7kq","1536","864","de","IC06IR09","null","","","","learningBlock1","","","","That was a bim.","null","","","","",""
"","html-keyboard-response","159","335332","0.0-6.0-2.50","FL","bhjyudy7kq","1536","864","de","IC06IR09","null","","","","learningBlock1","","","","<div style=""font-size:60px;""> </div>","null","FL","learning/Slide51.JPG","That was a bim.","",""
"","image-keyboard-response","160","335509","0.0-6.0-0.51","FL","bhjyudy7kq","1536","864","de","IC06IR09","null","","","","","","","","learning/Slide52.JPG","null","","","","",""
"","html-keyboard-response","161","336662","0.0-6.0-1.51","FL","bhjyudy7kq","1536","864","de","IC06IR09","null","","","","learningBlock1","","","","That was a wug.","null","","","","",""
"","html-keyboard-response","162","337663","0.0-6.0-2.51","FL","bhjyudy7kq","1536","864","de","IC06IR09","null","","","","learningBlock1","","","","<div style=""font-size:60px;""> </div>","null","FL","learning/Slide52.JPG","That was a wug.","",""
"","image-keyboard-response","163","337840","0.0-6.0-0.52","FL","bhjyudy7kq","1536","864","de","IC06IR09","null","","","","","","","","learning/Slide53.JPG","null","","","","",""
"","html-keyboard-response","164","338992","0.0-6.0-1.52","FL","bhjyudy7kq","1536","864","de","IC06IR09","null","","","","learningBlock1","","","","That was a tob.","null","","","","",""
"","html-keyboard-response","165","339994","0.0-6.0-2.52","FL","bhjyudy7kq","1536","864","de","IC06IR09","null","","","","learningBlock1","","","","<div style=""font-size:60px;""> </div>","null","FL","learning/Slide53.JPG","That was a tob.","",""
"","image-keyboard-response","166","340172","0.0-6.0-0.53","FL","bhjyudy7kq","1536","864","de","IC06IR09","null","","","","","","","","learning/Slide54.JPG","null","","","","",""
"","html-keyboard-response","167","341325","0.0-6.0-1.53","FL","bhjyudy7kq","1536","864","de","IC06IR09","null","","","","learningBlock1","","","","That was a dep.","null","","","","",""
"","html-keyboard-response","168","342327","0.0-6.0-2.53","FL","bhjyudy7kq","1536","864","de","IC06IR09","null","","","","learningBlock1","","","","<div style=""font-size:60px;""> </div>","null","FL","learning/Slide54.JPG","That was a dep.","",""
"","image-keyboard-response","169","342504","0.0-6.0-0.54","FL","bhjyudy7kq","1536","864","de","IC06IR09","null","","","","","","","","learning/Slide55.JPG","null","","","","",""
"","html-keyboard-response","170","343656","0.0-6.0-1.54","FL","bhjyudy7kq","1536","864","de","IC06IR09","null","","","","learningBlock1","","","","That was a bim.","null","","","","",""
"","html-keyboard-response","171","344658","0.0-6.0-2.54","FL","bhjyudy7kq","1536","864","de","IC06IR09","null","","","","learningBlock1","","","","<div style=""font-size:60px;""> </div>","null","FL","learning/Slide55.JPG","That was a bim.","",""
"","image-keyboard-response","172","344836","0.0-6.0-0.55","FL","bhjyudy7kq","1536","864","de","IC06IR09","null","","","","","","","","learning/Slide56.JPG","null","","","","",""
"","html-keyboard-response","173","345989","0.0-6.0-1.55","FL","bhjyudy7kq","1536","864","de","IC06IR09","null","","","","learningBlock1","","","","That was a tob.","null","","","","",""
"","html-keyboard-response","174","346990","0.0-6.0-2.55","FL","bhjyudy7kq","1536","864","de","IC06IR09","null","","","","learningBlock1","","","","<div style=""font-size:60px;""> </div>","null","FL","learning/Slide56.JPG","That was a tob.","",""
"","image-keyboard-response","175","347167","0.0-6.0-0.56","FL","bhjyudy7kq","1536","864","de","IC06IR09","null","","","","","","","","learning/Slide57.JPG","null","","","","",""
"","html-keyboard-response","176","348319","0.0-6.0-1.56","FL","bhjyudy7kq","1536","864","de","IC06IR09","null","","","","learningBlock1","","","","That was a dep.","null","","","","",""
"","html-keyboard-response","177","349321","0.0-6.0-2.56","FL","bhjyudy7kq","1536","864","de","IC06IR09","null","","","","learningBlock1","","","","<div style=""font-size:60px;""> </div>","null","FL","learning/Slide57.JPG","That was a dep.","",""
"","image-keyboard-response","178","349498","0.0-6.0-0.57","FL","bhjyudy7kq","1536","864","de","IC06IR09","null","","","","","","","","learning/Slide58.JPG","null","","","","",""
"","html-keyboard-response","179","350651","0.0-6.0-1.57","FL","bhjyudy7kq","1536","864","de","IC06IR09","null","","","","learningBlock1","","","","That was a wug.","null","","","","",""
"","html-keyboard-response","180","351652","0.0-6.0-2.57","FL","bhjyudy7kq","1536","864","de","IC06IR09","null","","","","learningBlock1","","","","<div style=""font-size:60px;""> </div>","null","FL","learning/Slide58.JPG","That was a wug.","",""
"","image-keyboard-response","181","351829","0.0-6.0-0.58","FL","bhjyudy7kq","1536","864","de","IC06IR09","null","","","","","","","","learning/Slide59.JPG","null","","","","",""
"","html-keyboard-response","182","352982","0.0-6.0-1.58","FL","bhjyudy7kq","1536","864","de","IC06IR09","null","","","","learningBlock1","","","","That was a dep.","null","","","","",""
"","html-keyboard-response","183","353983","0.0-6.0-2.58","FL","bhjyudy7kq","1536","864","de","IC06IR09","null","","","","learningBlock1","","","","<div style=""font-size:60px;""> </div>","null","FL","learning/Slide59.JPG","That was a dep.","",""
"","image-keyboard-response","184","354160","0.0-6.0-0.59","FL","bhjyudy7kq","1536","864","de","IC06IR09","null","","","","","","","","learning/Slide60.JPG","null","","","","",""
"","html-keyboard-response","185","355312","0.0-6.0-1.59","FL","bhjyudy7kq","1536","864","de","IC06IR09","null","","","","learningBlock1","","","","That was a wug.","null","","","","",""
"","html-keyboard-response","186","356315","0.0-6.0-2.59","FL","bhjyudy7kq","1536","864","de","IC06IR09","null","","","","learningBlock1","","","","<div style=""font-size:60px;""> </div>","null","FL","learning/Slide60.JPG","That was a wug.","",""
"","image-keyboard-response","187","356491","0.0-6.0-0.60","FL","bhjyudy7kq","1536","864","de","IC06IR09","null","","","","","","","","learning/Slide61.JPG","null","","","","",""
"","html-keyboard-response","188","357644","0.0-6.0-1.60","FL","bhjyudy7kq","1536","864","de","IC06IR09","null","","","","learningBlock1","","","","That was a bim.","null","","","","",""
"","html-keyboard-response","189","358646","0.0-6.0-2.60","FL","bhjyudy7kq","1536","864","de","IC06IR09","null","","","","learningBlock1","","","","<div style=""font-size:60px;""> </div>","null","FL","learning/Slide61.JPG","That was a bim.","",""
"","image-keyboard-response","190","358822","0.0-6.0-0.61","FL","bhjyudy7kq","1536","864","de","IC06IR09","null","","","","","","","","learning/Slide62.JPG","null","","","","",""
"","html-keyboard-response","191","359975","0.0-6.0-1.61","FL","bhjyudy7kq","1536","864","de","IC06IR09","null","","","","learningBlock1","","","","That was a dep.","null","","","","",""
"","html-keyboard-response","192","360977","0.0-6.0-2.61","FL","bhjyudy7kq","1536","864","de","IC06IR09","null","","","","learningBlock1","","","","<div style=""font-size:60px;""> </div>","null","FL","learning/Slide62.JPG","That was a dep.","",""
"","image-keyboard-response","193","361153","0.0-6.0-0.62","FL","bhjyudy7kq","1536","864","de","IC06IR09","null","","","","","","","","learning/Slide63.JPG","null","","","","",""
"","html-keyboard-response","194","362306","0.0-6.0-1.62","FL","bhjyudy7kq","1536","864","de","IC06IR09","null","","","","learningBlock1","","","","That was a bim.","null","","","","",""
"","html-keyboard-response","195","363308","0.0-6.0-2.62","FL","bhjyudy7kq","1536","864","de","IC06IR09","null","","","","learningBlock1","","","","<div style=""font-size:60px;""> </div>","null","FL","learning/Slide63.JPG","That was a bim.","",""
"","image-keyboard-response","196","363485","0.0-6.0-0.63","FL","bhjyudy7kq","1536","864","de","IC06IR09","null","","","","","","","","learning/Slide64.JPG","null","","","","",""
"","html-keyboard-response","197","364637","0.0-6.0-1.63","FL","bhjyudy7kq","1536","864","de","IC06IR09","null","","","","learningBlock1","","","","That was a tob.","null","","","","",""
"","html-keyboard-response","198","365639","0.0-6.0-2.63","FL","bhjyudy7kq","1536","864","de","IC06IR09","null","","","","learningBlock1","","","","<div style=""font-size:60px;""> </div>","null","FL","learning/Slide64.JPG","That was a tob.","",""
"","image-keyboard-response","199","365816","0.0-6.0-0.64","FL","bhjyudy7kq","1536","864","de","IC06IR09","null","","","","","","","","learning/Slide65.JPG","null","","","","",""
"","html-keyboard-response","200","366968","0.0-6.0-1.64","FL","bhjyudy7kq","1536","864","de","IC06IR09","null","","","","learningBlock1","","","","That was a wug.","null","","","","",""
"","html-keyboard-response","201","367970","0.0-6.0-2.64","FL","bhjyudy7kq","1536","864","de","IC06IR09","null","","","","learningBlock1","","","","<div style=""font-size:60px;""> </div>","null","FL","learning/Slide65.JPG","That was a wug.","",""
"","image-keyboard-response","202","368147","0.0-6.0-0.65","FL","bhjyudy7kq","1536","864","de","IC06IR09","null","","","","","","","","learning/Slide66.JPG","null","","","","",""
"","html-keyboard-response","203","369300","0.0-6.0-1.65","FL","bhjyudy7kq","1536","864","de","IC06IR09","null","","","","learningBlock1","","","","That was a dep.","null","","","","",""
"","html-keyboard-response","204","370302","0.0-6.0-2.65","FL","bhjyudy7kq","1536","864","de","IC06IR09","null","","","","learningBlock1","","","","<div style=""font-size:60px;""> </div>","null","FL","learning/Slide66.JPG","That was a dep.","",""
"","image-keyboard-response","205","370478","0.0-6.0-0.66","FL","bhjyudy7kq","1536","864","de","IC06IR09","null","","","","","","","","learning/Slide67.JPG","null","","","","",""
"","html-keyboard-response","206","371630","0.0-6.0-1.66","FL","bhjyudy7kq","1536","864","de","IC06IR09","null","","","","learningBlock1","","","","That was a tob.","null","","","","",""
"","html-keyboard-response","207","372633","0.0-6.0-2.66","FL","bhjyudy7kq","1536","864","de","IC06IR09","null","","","","learningBlock1","","","","<div style=""font-size:60px;""> </div>","null","FL","learning/Slide67.JPG","That was a tob.","",""
"","image-keyboard-response","208","372810","0.0-6.0-0.67","FL","bhjyudy7kq","1536","864","de","IC06IR09","null","","","","","","","","learning/Slide68.JPG","null","","","","",""
"","html-keyboard-response","209","373963","0.0-6.0-1.67","FL","bhjyudy7kq","1536","864","de","IC06IR09","null","","","","learningBlock1","","","","That was a wug.","null","","","","",""
"","html-keyboard-response","210","374965","0.0-6.0-2.67","FL","bhjyudy7kq","1536","864","de","IC06IR09","null","","","","learningBlock1","","","","<div style=""font-size:60px;""> </div>","null","FL","learning/Slide68.JPG","That was a wug.","",""
"","image-keyboard-response","211","375141","0.0-6.0-0.68","FL","bhjyudy7kq","1536","864","de","IC06IR09","null","","","","","","","","learning/Slide69.JPG","null","","","","",""
"","html-keyboard-response","212","376294","0.0-6.0-1.68","FL","bhjyudy7kq","1536","864","de","IC06IR09","null","","","","learningBlock1","","","","That was a tob.","null","","","","",""
"","html-keyboard-response","213","377296","0.0-6.0-2.68","FL","bhjyudy7kq","1536","864","de","IC06IR09","null","","","","learningBlock1","","","","<div style=""font-size:60px;""> </div>","null","FL","learning/Slide69.JPG","That was a tob.","",""
"","image-keyboard-response","214","377472","0.0-6.0-0.69","FL","bhjyudy7kq","1536","864","de","IC06IR09","null","","","","","","","","learning/Slide70.JPG","null","","","","",""
"","html-keyboard-response","215","378624","0.0-6.0-1.69","FL","bhjyudy7kq","1536","864","de","IC06IR09","null","","","","learningBlock1","","","","That was a dep.","null","","","","",""
"","html-keyboard-response","216","379626","0.0-6.0-2.69","FL","bhjyudy7kq","1536","864","de","IC06IR09","null","","","","learningBlock1","","","","<div style=""font-size:60px;""> </div>","null","FL","learning/Slide70.JPG","That was a dep.","",""
"","image-keyboard-response","217","379803","0.0-6.0-0.70","FL","bhjyudy7kq","1536","864","de","IC06IR09","null","","","","","","","","learning/Slide71.JPG","null","","","","",""
"","html-keyboard-response","218","380955","0.0-6.0-1.70","FL","bhjyudy7kq","1536","864","de","IC06IR09","null","","","","learningBlock1","","","","That was a wug.","null","","","","",""
"","html-keyboard-response","219","381956","0.0-6.0-2.70","FL","bhjyudy7kq","1536","864","de","IC06IR09","null","","","","learningBlock1","","","","<div style=""font-size:60px;""> </div>","null","FL","learning/Slide71.JPG","That was a wug.","",""
"","image-keyboard-response","220","382133","0.0-6.0-0.71","FL","bhjyudy7kq","1536","864","de","IC06IR09","null","","","","","","","","learning/Slide72.JPG","null","","","","",""
"","html-keyboard-response","221","383284","0.0-6.0-1.71","FL","bhjyudy7kq","1536","864","de","IC06IR09","null","","","","learningBlock1","","","","That was a bim.","null","","","","",""
"","html-keyboard-response","222","384286","0.0-6.0-2.71","FL","bhjyudy7kq","1536","864","de","IC06IR09","null","","","","learningBlock1","","","","<div style=""font-size:60px;""> </div>","null","FL","learning/Slide72.JPG","That was a bim.","",""
"","image-keyboard-response","223","384464","0.0-6.0-0.72","FL","bhjyudy7kq","1536","864","de","IC06IR09","null","","","","","","","","learning/Slide73.JPG","null","","","","",""
"","html-keyboard-response","224","385616","0.0-6.0-1.72","FL","bhjyudy7kq","1536","864","de","IC06IR09","null","","","","learningBlock1","","","","That was a wug.","null","","","","",""
"","html-keyboard-response","225","386618","0.0-6.0-2.72","FL","bhjyudy7kq","1536","864","de","IC06IR09","null","","","","learningBlock1","","","","<div style=""font-size:60px;""> </div>","null","FL","learning/Slide73.JPG","That was a wug.","",""
"","image-keyboard-response","226","386795","0.0-6.0-0.73","FL","bhjyudy7kq","1536","864","de","IC06IR09","null","","","","","","","","learning/Slide74.JPG","null","","","","",""
"","html-keyboard-response","227","387948","0.0-6.0-1.73","FL","bhjyudy7kq","1536","864","de","IC06IR09","null","","","","learningBlock1","","","","That was a dep.","null","","","","",""
"","html-keyboard-response","228","388950","0.0-6.0-2.73","FL","bhjyudy7kq","1536","864","de","IC06IR09","null","","","","learningBlock1","","","","<div style=""font-size:60px;""> </div>","null","FL","learning/Slide74.JPG","That was a dep.","",""
"","image-keyboard-response","229","389127","0.0-6.0-0.74","FL","bhjyudy7kq","1536","864","de","IC06IR09","null","","","","","","","","learning/Slide75.JPG","null","","","","",""
"","html-keyboard-response","230","390279","0.0-6.0-1.74","FL","bhjyudy7kq","1536","864","de","IC06IR09","null","","","","learningBlock1","","","","That was a tob.","null","","","","",""
"","html-keyboard-response","231","391281","0.0-6.0-2.74","FL","bhjyudy7kq","1536","864","de","IC06IR09","null","","","","learningBlock1","","","","<div style=""font-size:60px;""> </div>","null","FL","learning/Slide75.JPG","That was a tob.","",""
"","image-keyboard-response","232","391458","0.0-6.0-0.75","FL","bhjyudy7kq","1536","864","de","IC06IR09","null","","","","","","","","learning/Slide76.JPG","null","","","","",""
"","html-keyboard-response","233","392612","0.0-6.0-1.75","FL","bhjyudy7kq","1536","864","de","IC06IR09","null","","","","learningBlock1","","","","That was a bim.","null","","","","",""
"","html-keyboard-response","234","393614","0.0-6.0-2.75","FL","bhjyudy7kq","1536","864","de","IC06IR09","null","","","","learningBlock1","","","","<div style=""font-size:60px;""> </div>","null","FL","learning/Slide76.JPG","That was a bim.","",""
"","image-keyboard-response","235","393791","0.0-6.0-0.76","FL","bhjyudy7kq","1536","864","de","IC06IR09","null","","","","","","","","learning/Slide77.JPG","null","","","","",""
"","html-keyboard-response","236","394943","0.0-6.0-1.76","FL","bhjyudy7kq","1536","864","de","IC06IR09","null","","","","learningBlock1","","","","That was a tob.","null","","","","",""
"","html-keyboard-response","237","395945","0.0-6.0-2.76","FL","bhjyudy7kq","1536","864","de","IC06IR09","null","","","","learningBlock1","","","","<div style=""font-size:60px;""> </div>","null","FL","learning/Slide77.JPG","That was a tob.","",""
"","image-keyboard-response","238","396123","0.0-6.0-0.77","FL","bhjyudy7kq","1536","864","de","IC06IR09","null","","","","","","","","learning/Slide78.JPG","null","","","","",""
"","html-keyboard-response","239","397276","0.0-6.0-1.77","FL","bhjyudy7kq","1536","864","de","IC06IR09","null","","","","learningBlock1","","","","That was a wug.","null","","","","",""
"","html-keyboard-response","240","398278","0.0-6.0-2.77","FL","bhjyudy7kq","1536","864","de","IC06IR09","null","","","","learningBlock1","","","","<div style=""font-size:60px;""> </div>","null","FL","learning/Slide78.JPG","That was a wug.","",""
"","image-keyboard-response","241","398455","0.0-6.0-0.78","FL","bhjyudy7kq","1536","864","de","IC06IR09","null","","","","","","","","learning/Slide79.JPG","null","","","","",""
"","html-keyboard-response","242","399607","0.0-6.0-1.78","FL","bhjyudy7kq","1536","864","de","IC06IR09","null","","","","learningBlock1","","","","That was a bim.","null","","","","",""
"","html-keyboard-response","243","400609","0.0-6.0-2.78","FL","bhjyudy7kq","1536","864","de","IC06IR09","null","","","","learningBlock1","","","","<div style=""font-size:60px;""> </div>","null","FL","learning/Slide79.JPG","That was a bim.","",""
"","image-keyboard-response","244","400787","0.0-6.0-0.79","FL","bhjyudy7kq","1536","864","de","IC06IR09","null","","","","","","","","learning/Slide80.JPG","null","","","","",""
"","html-keyboard-response","245","401940","0.0-6.0-1.79","FL","bhjyudy7kq","1536","864","de","IC06IR09","null","","","","learningBlock1","","","","That was a tob.","null","","","","",""
"","html-keyboard-response","246","402942","0.0-6.0-2.79","FL","bhjyudy7kq","1536","864","de","IC06IR09","null","","","","learningBlock1","","","","<div style=""font-size:60px;""> </div>","null","FL","learning/Slide80.JPG","That was a tob.","",""
"","instructions","247","411386","0.0-7.0","FL","bhjyudy7kq","1536","864","de","IC06IR09","NA","","","[{""page_index"":0,""viewing_time"":8443.050000001676}]","instructions","","","","","","","","","",""
"","image-keyboard-response","248","411563","0.0-8.0-0.0","FL","bhjyudy7kq","1536","864","de","IC06IR09","null","","","","","","","","learning/Slide81.JPG","null","","","","",""
"","html-keyboard-response","249","412717","0.0-8.0-1.0","FL","bhjyudy7kq","1536","864","de","IC06IR09","null","","","","learningBlock2","","","","That was a wug.","null","","","","",""
"","html-keyboard-response","250","413719","0.0-8.0-2.0","FL","bhjyudy7kq","1536","864","de","IC06IR09","null","","","","learningBlock2","","","","<div style=""font-size:60px;""> </div>","null","FL","learning/Slide81.JPG","That was a wug.","",""
"","image-keyboard-response","251","413896","0.0-8.0-0.1","FL","bhjyudy7kq","1536","864","de","IC06IR09","null","","","","","","","","learning/Slide82.JPG","null","","","","",""
"","html-keyboard-response","252","415049","0.0-8.0-1.1","FL","bhjyudy7kq","1536","864","de","IC06IR09","null","","","","learningBlock2","","","","That was a bim.","null","","","","",""
"","html-keyboard-response","253","416051","0.0-8.0-2.1","FL","bhjyudy7kq","1536","864","de","IC06IR09","null","","","","learningBlock2","","","","<div style=""font-size:60px;""> </div>","null","FL","learning/Slide82.JPG","That was a bim.","",""
"","image-keyboard-response","254","416229","0.0-8.0-0.2","FL","bhjyudy7kq","1536","864","de","IC06IR09","null","","","","","","","","learning/Slide83.JPG","null","","","","",""
"","html-keyboard-response","255","417381","0.0-8.0-1.2","FL","bhjyudy7kq","1536","864","de","IC06IR09","null","","","","learningBlock2","","","","That was a wug.","null","","","","",""
"","html-keyboard-response","256","418382","0.0-8.0-2.2","FL","bhjyudy7kq","1536","864","de","IC06IR09","null","","","","learningBlock2","","","","<div style=""font-size:60px;""> </div>","null","FL","learning/Slide83.JPG","That was a wug.","",""
"","image-keyboard-response","257","418559","0.0-8.0-0.3","FL","bhjyudy7kq","1536","864","de","IC06IR09","null","","","","","","","","learning/Slide84.JPG","null","","","","",""
"","html-keyboard-response","258","419711","0.0-8.0-1.3","FL","bhjyudy7kq","1536","864","de","IC06IR09","null","","","","learningBlock2","","","","That was a dep.","null","","","","",""
"","html-keyboard-response","259","420713","0.0-8.0-2.3","FL","bhjyudy7kq","1536","864","de","IC06IR09","null","","","","learningBlock2","","","","<div style=""font-size:60px;""> </div>","null","FL","learning/Slide84.JPG","That was a dep.","",""
"","image-keyboard-response","260","420890","0.0-8.0-0.4","FL","bhjyudy7kq","1536","864","de","IC06IR09","null","","","","","","","","learning/Slide85.JPG","null","","","","",""
"","html-keyboard-response","261","422042","0.0-8.0-1.4","FL","bhjyudy7kq","1536","864","de","IC06IR09","null","","","","learningBlock2","","","","That was a bim.","null","","","","",""
"","html-keyboard-response","262","423044","0.0-8.0-2.4","FL","bhjyudy7kq","1536","864","de","IC06IR09","null","","","","learningBlock2","","","","<div style=""font-size:60px;""> </div>","null","FL","learning/Slide85.JPG","That was a bim.","",""
"","image-keyboard-response","263","423221","0.0-8.0-0.5","FL","bhjyudy7kq","1536","864","de","IC06IR09","null","","","","","","","","learning/Slide86.JPG","null","","","","",""
"","html-keyboard-response","264","424374","0.0-8.0-1.5","FL","bhjyudy7kq","1536","864","de","IC06IR09","null","","","","learningBlock2","","","","That was a tob.","null","","","","",""
"","html-keyboard-response","265","425376","0.0-8.0-2.5","FL","bhjyudy7kq","1536","864","de","IC06IR09","null","","","","learningBlock2","","","","<div style=""font-size:60px;""> </div>","null","FL","learning/Slide86.JPG","That was a tob.","",""
"","image-keyboard-response","266","425554","0.0-8.0-0.6","FL","bhjyudy7kq","1536","864","de","IC06IR09","null","","","","","","","","learning/Slide87.JPG","null","","","","",""
"","html-keyboard-response","267","426707","0.0-8.0-1.6","FL","bhjyudy7kq","1536","864","de","IC06IR09","null","","","","learningBlock2","","","","That was a wug.","null","","","","",""
"","html-keyboard-response","268","427709","0.0-8.0-2.6","FL","bhjyudy7kq","1536","864","de","IC06IR09","null","","","","learningBlock2","","","","<div style=""font-size:60px;""> </div>","null","FL","learning/Slide87.JPG","That was a wug.","",""
"","image-keyboard-response","269","427887","0.0-8.0-0.7","FL","bhjyudy7kq","1536","864","de","IC06IR09","null","","","","","","","","learning/Slide88.JPG","null","","","","",""
"","html-keyboard-response","270","429041","0.0-8.0-1.7","FL","bhjyudy7kq","1536","864","de","IC06IR09","null","","","","learningBlock2","","","","That was a tob.","null","","","","",""
"","html-keyboard-response","271","430042","0.0-8.0-2.7","FL","bhjyudy7kq","1536","864","de","IC06IR09","null","","","","learningBlock2","","","","<div style=""font-size:60px;""> </div>","null","FL","learning/Slide88.JPG","That was a tob.","",""
"","image-keyboard-response","272","430220","0.0-8.0-0.8","FL","bhjyudy7kq","1536","864","de","IC06IR09","null","","","","","","","","learning/Slide89.JPG","null","","","","",""
"","html-keyboard-response","273","431373","0.0-8.0-1.8","FL","bhjyudy7kq","1536","864","de","IC06IR09","null","","","","learningBlock2","","","","That was a bim.","null","","","","",""
"","html-keyboard-response","274","432375","0.0-8.0-2.8","FL","bhjyudy7kq","1536","864","de","IC06IR09","null","","","","learningBlock2","","","","<div style=""font-size:60px;""> </div>","null","FL","learning/Slide89.JPG","That was a bim.","",""
"","image-keyboard-response","275","432552","0.0-8.0-0.9","FL","bhjyudy7kq","1536","864","de","IC06IR09","null","","","","","","","","learning/Slide90.JPG","null","","","","",""
"","html-keyboard-response","276","433705","0.0-8.0-1.9","FL","bhjyudy7kq","1536","864","de","IC06IR09","null","","","","learningBlock2","","","","That was a dep.","null","","","","",""
"","html-keyboard-response","277","434706","0.0-8.0-2.9","FL","bhjyudy7kq","1536","864","de","IC06IR09","null","","","","learningBlock2","","","","<div style=""font-size:60px;""> </div>","null","FL","learning/Slide90.JPG","That was a dep.","",""
"","image-keyboard-response","278","434883","0.0-8.0-0.10","FL","bhjyudy7kq","1536","864","de","IC06IR09","null","","","","","","","","learning/Slide91.JPG","null","","","","",""
"","html-keyboard-response","279","436035","0.0-8.0-1.10","FL","bhjyudy7kq","1536","864","de","IC06IR09","null","","","","learningBlock2","","","","That was a wug.","null","","","","",""
"","html-keyboard-response","280","437037","0.0-8.0-2.10","FL","bhjyudy7kq","1536","864","de","IC06IR09","null","","","","learningBlock2","","","","<div style=""font-size:60px;""> </div>","null","FL","learning/Slide91.JPG","That was a wug.","",""
"","image-keyboard-response","281","437213","0.0-8.0-0.11","FL","bhjyudy7kq","1536","864","de","IC06IR09","null","","","","","","","","learning/Slide92.JPG","null","","","","",""
"","html-keyboard-response","282","438366","0.0-8.0-1.11","FL","bhjyudy7kq","1536","864","de","IC06IR09","null","","","","learningBlock2","","","","That was a tob.","null","","","","",""
"","html-keyboard-response","283","439368","0.0-8.0-2.11","FL","bhjyudy7kq","1536","864","de","IC06IR09","null","","","","learningBlock2","","","","<div style=""font-size:60px;""> </div>","null","FL","learning/Slide92.JPG","That was a tob.","",""
"","image-keyboard-response","284","439545","0.0-8.0-0.12","FL","bhjyudy7kq","1536","864","de","IC06IR09","null","","","","","","","","learning/Slide93.JPG","null","","","","",""
"","html-keyboard-response","285","440698","0.0-8.0-1.12","FL","bhjyudy7kq","1536","864","de","IC06IR09","null","","","","learningBlock2","","","","That was a bim.","null","","","","",""
"","html-keyboard-response","286","441699","0.0-8.0-2.12","FL","bhjyudy7kq","1536","864","de","IC06IR09","null","","","","learningBlock2","","","","<div style=""font-size:60px;""> </div>","null","FL","learning/Slide93.JPG","That was a bim.","",""
"","image-keyboard-response","287","441877","0.0-8.0-0.13","FL","bhjyudy7kq","1536","864","de","IC06IR09","null","","","","","","","","learning/Slide94.JPG","null","","","","",""
"","html-keyboard-response","288","443029","0.0-8.0-1.13","FL","bhjyudy7kq","1536","864","de","IC06IR09","null","","","","learningBlock2","","","","That was a tob.","null","","","","",""
"","html-keyboard-response","289","444031","0.0-8.0-2.13","FL","bhjyudy7kq","1536","864","de","IC06IR09","null","","","","learningBlock2","","","","<div style=""font-size:60px;""> </div>","null","FL","learning/Slide94.JPG","That was a tob.","",""
"","image-keyboard-response","290","444208","0.0-8.0-0.14","FL","bhjyudy7kq","1536","864","de","IC06IR09","null","","","","","","","","learning/Slide95.JPG","null","","","","",""
"","html-keyboard-response","291","445361","0.0-8.0-1.14","FL","bhjyudy7kq","1536","864","de","IC06IR09","null","","","","learningBlock2","","","","That was a wug.","null","","","","",""
"","html-keyboard-response","292","446362","0.0-8.0-2.14","FL","bhjyudy7kq","1536","864","de","IC06IR09","null","","","","learningBlock2","","","","<div style=""font-size:60px;""> </div>","null","FL","learning/Slide95.JPG","That was a wug.","",""
"","image-keyboard-response","293","446539","0.0-8.0-0.15","FL","bhjyudy7kq","1536","864","de","IC06IR09","null","","","","","","","","learning/Slide96.JPG","null","","","","",""
"","html-keyboard-response","294","447692","0.0-8.0-1.15","FL","bhjyudy7kq","1536","864","de","IC06IR09","null","","","","learningBlock2","","","","That was a tob.","null","","","","",""
"","html-keyboard-response","295","448694","0.0-8.0-2.15","FL","bhjyudy7kq","1536","864","de","IC06IR09","null","","","","learningBlock2","","","","<div style=""font-size:60px;""> </div>","null","FL","learning/Slide96.JPG","That was a tob.","",""
"","image-keyboard-response","296","448871","0.0-8.0-0.16","FL","bhjyudy7kq","1536","864","de","IC06IR09","null","","","","","","","","learning/Slide97.JPG","null","","","","",""
"","html-keyboard-response","297","450024","0.0-8.0-1.16","FL","bhjyudy7kq","1536","864","de","IC06IR09","null","","","","learningBlock2","","","","That was a dep.","null","","","","",""
"","html-keyboard-response","298","451027","0.0-8.0-2.16","FL","bhjyudy7kq","1536","864","de","IC06IR09","null","","","","learningBlock2","","","","<div style=""font-size:60px;""> </div>","null","FL","learning/Slide97.JPG","That was a dep.","",""
"","image-keyboard-response","299","451203","0.0-8.0-0.17","FL","bhjyudy7kq","1536","864","de","IC06IR09","null","","","","","","","","learning/Slide98.JPG","null","","","","",""
"","html-keyboard-response","300","452357","0.0-8.0-1.17","FL","bhjyudy7kq","1536","864","de","IC06IR09","null","","","","learningBlock2","","","","That was a bim.","null","","","","",""
"","html-keyboard-response","301","453358","0.0-8.0-2.17","FL","bhjyudy7kq","1536","864","de","IC06IR09","null","","","","learningBlock2","","","","<div style=""font-size:60px;""> </div>","null","FL","learning/Slide98.JPG","That was a bim.","",""
"","image-keyboard-response","302","453535","0.0-8.0-0.18","FL","bhjyudy7kq","1536","864","de","IC06IR09","null","","","","","","","","learning/Slide99.JPG","null","","","","",""
"","html-keyboard-response","303","454688","0.0-8.0-1.18","FL","bhjyudy7kq","1536","864","de","IC06IR09","null","","","","learningBlock2","","","","That was a dep.","null","","","","",""
"","html-keyboard-response","304","455690","0.0-8.0-2.18","FL","bhjyudy7kq","1536","864","de","IC06IR09","null","","","","learningBlock2","","","","<div style=""font-size:60px;""> </div>","null","FL","learning/Slide99.JPG","That was a dep.","",""
"","image-keyboard-response","305","455867","0.0-8.0-0.19","FL","bhjyudy7kq","1536","864","de","IC06IR09","null","","","","","","","","learning/Slide100.JPG","null","","","","",""
"","html-keyboard-response","306","457019","0.0-8.0-1.19","FL","bhjyudy7kq","1536","864","de","IC06IR09","null","","","","learningBlock2","","","","That was a bim.","null","","","","",""
"","html-keyboard-response","307","458021","0.0-8.0-2.19","FL","bhjyudy7kq","1536","864","de","IC06IR09","null","","","","learningBlock2","","","","<div style=""font-size:60px;""> </div>","null","FL","learning/Slide100.JPG","That was a bim.","",""
"","image-keyboard-response","308","458198","0.0-8.0-0.20","FL","bhjyudy7kq","1536","864","de","IC06IR09","null","","","","","","","","learning/Slide101.JPG","null","","","","",""
"","html-keyboard-response","309","459351","0.0-8.0-1.20","FL","bhjyudy7kq","1536","864","de","IC06IR09","null","","","","learningBlock2","","","","That was a tob.","null","","","","",""
"","html-keyboard-response","310","460353","0.0-8.0-2.20","FL","bhjyudy7kq","1536","864","de","IC06IR09","null","","","","learningBlock2","","","","<div style=""font-size:60px;""> </div>","null","FL","learning/Slide101.JPG","That was a tob.","",""
"","image-keyboard-response","311","460530","0.0-8.0-0.21","FL","bhjyudy7kq","1536","864","de","IC06IR09","null","","","","","","","","learning/Slide102.JPG","null","","","","",""
"","html-keyboard-response","312","461683","0.0-8.0-1.21","FL","bhjyudy7kq","1536","864","de","IC06IR09","null","","","","learningBlock2","","","","That was a bim.","null","","","","",""
"","html-keyboard-response","313","462685","0.0-8.0-2.21","FL","bhjyudy7kq","1536","864","de","IC06IR09","null","","","","learningBlock2","","","","<div style=""font-size:60px;""> </div>","null","FL","learning/Slide102.JPG","That was a bim.","",""
"","image-keyboard-response","314","462862","0.0-8.0-0.22","FL","bhjyudy7kq","1536","864","de","IC06IR09","null","","","","","","","","learning/Slide103.JPG","null","","","","",""
"","html-keyboard-response","315","464014","0.0-8.0-1.22","FL","bhjyudy7kq","1536","864","de","IC06IR09","null","","","","learningBlock2","","","","That was a dep.","null","","","","",""
"","html-keyboard-response","316","465015","0.0-8.0-2.22","FL","bhjyudy7kq","1536","864","de","IC06IR09","null","","","","learningBlock2","","","","<div style=""font-size:60px;""> </div>","null","FL","learning/Slide103.JPG","That was a dep.","",""
"","image-keyboard-response","317","465193","0.0-8.0-0.23","FL","bhjyudy7kq","1536","864","de","IC06IR09","null","","","","","","","","learning/Slide104.JPG","null","","","","",""
"","html-keyboard-response","318","466345","0.0-8.0-1.23","FL","bhjyudy7kq","1536","864","de","IC06IR09","null","","","","learningBlock2","","","","That was a tob.","null","","","","",""
"","html-keyboard-response","319","467346","0.0-8.0-2.23","FL","bhjyudy7kq","1536","864","de","IC06IR09","null","","","","learningBlock2","","","","<div style=""font-size:60px;""> </div>","null","FL","learning/Slide104.JPG","That was a tob.","",""
"","image-keyboard-response","320","467523","0.0-8.0-0.24","FL","bhjyudy7kq","1536","864","de","IC06IR09","null","","","","","","","","learning/Slide105.JPG","null","","","","",""
"","html-keyboard-response","321","468677","0.0-8.0-1.24","FL","bhjyudy7kq","1536","864","de","IC06IR09","null","","","","learningBlock2","","","","That was a dep.","null","","","","",""
"","html-keyboard-response","322","469678","0.0-8.0-2.24","FL","bhjyudy7kq","1536","864","de","IC06IR09","null","","","","learningBlock2","","","","<div style=""font-size:60px;""> </div>","null","FL","learning/Slide105.JPG","That was a dep.","",""
"","image-keyboard-response","323","469855","0.0-8.0-0.25","FL","bhjyudy7kq","1536","864","de","IC06IR09","null","","","","","","","","learning/Slide106.JPG","null","","","","",""
"","html-keyboard-response","324","471007","0.0-8.0-1.25","FL","bhjyudy7kq","1536","864","de","IC06IR09","null","","","","learningBlock2","","","","That was a wug.","null","","","","",""
"","html-keyboard-response","325","472008","0.0-8.0-2.25","FL","bhjyudy7kq","1536","864","de","IC06IR09","null","","","","learningBlock2","","","","<div style=""font-size:60px;""> </div>","null","FL","learning/Slide106.JPG","That was a wug.","",""
"","image-keyboard-response","326","472185","0.0-8.0-0.26","FL","bhjyudy7kq","1536","864","de","IC06IR09","null","","","","","","","","learning/Slide107.JPG","null","","","","",""
"","html-keyboard-response","327","473337","0.0-8.0-1.26","FL","bhjyudy7kq","1536","864","de","IC06IR09","null","","","","learningBlock2","","","","That was a bim.","null","","","","",""
"","html-keyboard-response","328","474339","0.0-8.0-2.26","FL","bhjyudy7kq","1536","864","de","IC06IR09","null","","","","learningBlock2","","","","<div style=""font-size:60px;""> </div>","null","FL","learning/Slide107.JPG","That was a bim.","",""
"","image-keyboard-response","329","474516","0.0-8.0-0.27","FL","bhjyudy7kq","1536","864","de","IC06IR09","null","","","","","","","","learning/Slide108.JPG","null","","","","",""
"","html-keyboard-response","330","475668","0.0-8.0-1.27","FL","bhjyudy7kq","1536","864","de","IC06IR09","null","","","","learningBlock2","","","","That was a dep.","null","","","","",""
"","html-keyboard-response","331","476670","0.0-8.0-2.27","FL","bhjyudy7kq","1536","864","de","IC06IR09","null","","","","learningBlock2","","","","<div style=""font-size:60px;""> </div>","null","FL","learning/Slide108.JPG","That was a dep.","",""
"","image-keyboard-response","332","476847","0.0-8.0-0.28","FL","bhjyudy7kq","1536","864","de","IC06IR09","null","","","","","","","","learning/Slide109.JPG","null","","","","",""
"","html-keyboard-response","333","478001","0.0-8.0-1.28","FL","bhjyudy7kq","1536","864","de","IC06IR09","null","","","","learningBlock2","","","","That was a wug.","null","","","","",""
"","html-keyboard-response","334","479002","0.0-8.0-2.28","FL","bhjyudy7kq","1536","864","de","IC06IR09","null","","","","learningBlock2","","","","<div style=""font-size:60px;""> </div>","null","FL","learning/Slide109.JPG","That was a wug.","",""
"","image-keyboard-response","335","479179","0.0-8.0-0.29","FL","bhjyudy7kq","1536","864","de","IC06IR09","null","","","","","","","","learning/Slide110.JPG","null","","","","",""
"","html-keyboard-response","336","480331","0.0-8.0-1.29","FL","bhjyudy7kq","1536","864","de","IC06IR09","null","","","","learningBlock2","","","","That was a bim.","null","","","","",""
"","html-keyboard-response","337","481333","0.0-8.0-2.29","FL","bhjyudy7kq","1536","864","de","IC06IR09","null","","","","learningBlock2","","","","<div style=""font-size:60px;""> </div>","null","FL","learning/Slide110.JPG","That was a bim.","",""
"","image-keyboard-response","338","481509","0.0-8.0-0.30","FL","bhjyudy7kq","1536","864","de","IC06IR09","null","","","","","","","","learning/Slide111.JPG","null","","","","",""
"","html-keyboard-response","339","482662","0.0-8.0-1.30","FL","bhjyudy7kq","1536","864","de","IC06IR09","null","","","","learningBlock2","","","","That was a tob.","null","","","","",""
"","html-keyboard-response","340","483663","0.0-8.0-2.30","FL","bhjyudy7kq","1536","864","de","IC06IR09","null","","","","learningBlock2","","","","<div style=""font-size:60px;""> </div>","null","FL","learning/Slide111.JPG","That was a tob.","",""
"","image-keyboard-response","341","483840","0.0-8.0-0.31","FL","bhjyudy7kq","1536","864","de","IC06IR09","null","","","","","","","","learning/Slide112.JPG","null","","","","",""
"","html-keyboard-response","342","484994","0.0-8.0-1.31","FL","bhjyudy7kq","1536","864","de","IC06IR09","null","","","","learningBlock2","","","","That was a wug.","null","","","","",""
"","html-keyboard-response","343","485996","0.0-8.0-2.31","FL","bhjyudy7kq","1536","864","de","IC06IR09","null","","","","learningBlock2","","","","<div style=""font-size:60px;""> </div>","null","FL","learning/Slide112.JPG","That was a wug.","",""
"","image-keyboard-response","344","486174","0.0-8.0-0.32","FL","bhjyudy7kq","1536","864","de","IC06IR09","null","","","","","","","","learning/Slide113.JPG","null","","","","",""
"","html-keyboard-response","345","487326","0.0-8.0-1.32","FL","bhjyudy7kq","1536","864","de","IC06IR09","null","","","","learningBlock2","","","","That was a tob.","null","","","","",""
"","html-keyboard-response","346","488327","0.0-8.0-2.32","FL","bhjyudy7kq","1536","864","de","IC06IR09","null","","","","learningBlock2","","","","<div style=""font-size:60px;""> </div>","null","FL","learning/Slide113.JPG","That was a tob.","",""
"","image-keyboard-response","347","488505","0.0-8.0-0.33","FL","bhjyudy7kq","1536","864","de","IC06IR09","null","","","","","","","","learning/Slide114.JPG","null","","","","",""
"","html-keyboard-response","348","489658","0.0-8.0-1.33","FL","bhjyudy7kq","1536","864","de","IC06IR09","null","","","","learningBlock2","","","","That was a wug.","null","","","","",""
"","html-keyboard-response","349","490659","0.0-8.0-2.33","FL","bhjyudy7kq","1536","864","de","IC06IR09","null","","","","learningBlock2","","","","<div style=""font-size:60px;""> </div>","null","FL","learning/Slide114.JPG","That was a wug.","",""
"","image-keyboard-response","350","490837","0.0-8.0-0.34","FL","bhjyudy7kq","1536","864","de","IC06IR09","null","","","","","","","","learning/Slide115.JPG","null","","","","",""
"","html-keyboard-response","351","491990","0.0-8.0-1.34","FL","bhjyudy7kq","1536","864","de","IC06IR09","null","","","","learningBlock2","","","","That was a bim.","null","","","","",""
"","html-keyboard-response","352","492992","0.0-8.0-2.34","FL","bhjyudy7kq","1536","864","de","IC06IR09","null","","","","learningBlock2","","","","<div style=""font-size:60px;""> </div>","null","FL","learning/Slide115.JPG","That was a bim.","",""
"","image-keyboard-response","353","493169","0.0-8.0-0.35","FL","bhjyudy7kq","1536","864","de","IC06IR09","null","","","","","","","","learning/Slide116.JPG","null","","","","",""
"","html-keyboard-response","354","494321","0.0-8.0-1.35","FL","bhjyudy7kq","1536","864","de","IC06IR09","null","","","","learningBlock2","","","","That was a dep.","null","","","","",""
"","html-keyboard-response","355","495323","0.0-8.0-2.35","FL","bhjyudy7kq","1536","864","de","IC06IR09","null","","","","learningBlock2","","","","<div style=""font-size:60px;""> </div>","null","FL","learning/Slide116.JPG","That was a dep.","",""
"","image-keyboard-response","356","495499","0.0-8.0-0.36","FL","bhjyudy7kq","1536","864","de","IC06IR09","null","","","","","","","","learning/Slide117.JPG","null","","","","",""
"","html-keyboard-response","357","496652","0.0-8.0-1.36","FL","bhjyudy7kq","1536","864","de","IC06IR09","null","","","","learningBlock2","","","","That was a tob.","null","","","","",""
"","html-keyboard-response","358","497654","0.0-8.0-2.36","FL","bhjyudy7kq","1536","864","de","IC06IR09","null","","","","learningBlock2","","","","<div style=""font-size:60px;""> </div>","null","FL","learning/Slide117.JPG","That was a tob.","",""
"","image-keyboard-response","359","497831","0.0-8.0-0.37","FL","bhjyudy7kq","1536","864","de","IC06IR09","null","","","","","","","","learning/Slide118.JPG","null","","","","",""
"","html-keyboard-response","360","498983","0.0-8.0-1.37","FL","bhjyudy7kq","1536","864","de","IC06IR09","null","","","","learningBlock2","","","","That was a dep.","null","","","","",""
"","html-keyboard-response","361","499984","0.0-8.0-2.37","FL","bhjyudy7kq","1536","864","de","IC06IR09","null","","","","learningBlock2","","","","<div style=""font-size:60px;""> </div>","null","FL","learning/Slide118.JPG","That was a dep.","",""
"","image-keyboard-response","362","500162","0.0-8.0-0.38","FL","bhjyudy7kq","1536","864","de","IC06IR09","null","","","","","","","","learning/Slide119.JPG","null","","","","",""
"","html-keyboard-response","363","501315","0.0-8.0-1.38","FL","bhjyudy7kq","1536","864","de","IC06IR09","null","","","","learningBlock2","","","","That was a wug.","null","","","","",""
"","html-keyboard-response","364","502317","0.0-8.0-2.38","FL","bhjyudy7kq","1536","864","de","IC06IR09","null","","","","learningBlock2","","","","<div style=""font-size:60px;""> </div>","null","FL","learning/Slide119.JPG","That was a wug.","",""
"","image-keyboard-response","365","502494","0.0-8.0-0.39","FL","bhjyudy7kq","1536","864","de","IC06IR09","null","","","","","","","","learning/Slide120.JPG","null","","","","",""
"","html-keyboard-response","366","503646","0.0-8.0-1.39","FL","bhjyudy7kq","1536","864","de","IC06IR09","null","","","","learningBlock2","","","","That was a dep.","null","","","","",""
"","html-keyboard-response","367","504648","0.0-8.0-2.39","FL","bhjyudy7kq","1536","864","de","IC06IR09","null","","","","learningBlock2","","","","<div style=""font-size:60px;""> </div>","null","FL","learning/Slide120.JPG","That was a dep.","",""
"","image-keyboard-response","368","504825","0.0-8.0-0.40","FL","bhjyudy7kq","1536","864","de","IC06IR09","null","","","","","","","","learning/Slide121.JPG","null","","","","",""
"","html-keyboard-response","369","505977","0.0-8.0-1.40","FL","bhjyudy7kq","1536","864","de","IC06IR09","null","","","","learningBlock2","","","","That was a bim.","null","","","","",""
"","html-keyboard-response","370","506979","0.0-8.0-2.40","FL","bhjyudy7kq","1536","864","de","IC06IR09","null","","","","learningBlock2","","","","<div style=""font-size:60px;""> </div>","null","FL","learning/Slide121.JPG","That was a bim.","",""
"","image-keyboard-response","371","507155","0.0-8.0-0.41","FL","bhjyudy7kq","1536","864","de","IC06IR09","null","","","","","","","","learning/Slide122.JPG","null","","","","",""
"","html-keyboard-response","372","508308","0.0-8.0-1.41","FL","bhjyudy7kq","1536","864","de","IC06IR09","null","","","","learningBlock2","","","","That was a wug.","null","","","","",""
"","html-keyboard-response","373","509309","0.0-8.0-2.41","FL","bhjyudy7kq","1536","864","de","IC06IR09","null","","","","learningBlock2","","","","<div style=""font-size:60px;""> </div>","null","FL","learning/Slide122.JPG","That was a wug.","",""
"","image-keyboard-response","374","509487","0.0-8.0-0.42","FL","bhjyudy7kq","1536","864","de","IC06IR09","null","","","","","","","","learning/Slide123.JPG","null","","","","",""
"","html-keyboard-response","375","510640","0.0-8.0-1.42","FL","bhjyudy7kq","1536","864","de","IC06IR09","null","","","","learningBlock2","","","","That was a bim.","null","","","","",""
"","html-keyboard-response","376","511641","0.0-8.0-2.42","FL","bhjyudy7kq","1536","864","de","IC06IR09","null","","","","learningBlock2","","","","<div style=""font-size:60px;""> </div>","null","FL","learning/Slide123.JPG","That was a bim.","",""
"","image-keyboard-response","377","511818","0.0-8.0-0.43","FL","bhjyudy7kq","1536","864","de","IC06IR09","null","","","","","","","","learning/Slide124.JPG","null","","","","",""
"","html-keyboard-response","378","512970","0.0-8.0-1.43","FL","bhjyudy7kq","1536","864","de","IC06IR09","null","","","","learningBlock2","","","","That was a tob.","null","","","","",""
"","html-keyboard-response","379","513972","0.0-8.0-2.43","FL","bhjyudy7kq","1536","864","de","IC06IR09","null","","","","learningBlock2","","","","<div style=""font-size:60px;""> </div>","null","FL","learning/Slide124.JPG","That was a tob.","",""
"","image-keyboard-response","380","514149","0.0-8.0-0.44","FL","bhjyudy7kq","1536","864","de","IC06IR09","null","","","","","","","","learning/Slide125.JPG","null","","","","",""
"","html-keyboard-response","381","515303","0.0-8.0-1.44","FL","bhjyudy7kq","1536","864","de","IC06IR09","null","","","","learningBlock2","","","","That was a bim.","null","","","","",""
"","html-keyboard-response","382","516305","0.0-8.0-2.44","FL","bhjyudy7kq","1536","864","de","IC06IR09","null","","","","learningBlock2","","","","<div style=""font-size:60px;""> </div>","null","FL","learning/Slide125.JPG","That was a bim.","",""
"","image-keyboard-response","383","516482","0.0-8.0-0.45","FL","bhjyudy7kq","1536","864","de","IC06IR09","null","","","","","","","","learning/Slide126.JPG","null","","","","",""
"","html-keyboard-response","384","517635","0.0-8.0-1.45","FL","bhjyudy7kq","1536","864","de","IC06IR09","null","","","","learningBlock2","","","","That was a tob.","null","","","","",""
"","html-keyboard-response","385","518637","0.0-8.0-2.45","FL","bhjyudy7kq","1536","864","de","IC06IR09","null","","","","learningBlock2","","","","<div style=""font-size:60px;""> </div>","null","FL","learning/Slide126.JPG","That was a tob.","",""
"","image-keyboard-response","386","518813","0.0-8.0-0.46","FL","bhjyudy7kq","1536","864","de","IC06IR09","null","","","","","","","","learning/Slide127.JPG","null","","","","",""
"","html-keyboard-response","387","519966","0.0-8.0-1.46","FL","bhjyudy7kq","1536","864","de","IC06IR09","null","","","","learningBlock2","","","","That was a dep.","null","","","","",""
"","html-keyboard-response","388","520967","0.0-8.0-2.46","FL","bhjyudy7kq","1536","864","de","IC06IR09","null","","","","learningBlock2","","","","<div style=""font-size:60px;""> </div>","null","FL","learning/Slide127.JPG","That was a dep.","",""
"","image-keyboard-response","389","521144","0.0-8.0-0.47","FL","bhjyudy7kq","1536","864","de","IC06IR09","null","","","","","","","","learning/Slide128.JPG","null","","","","",""
"","html-keyboard-response","390","522297","0.0-8.0-1.47","FL","bhjyudy7kq","1536","864","de","IC06IR09","null","","","","learningBlock2","","","","That was a wug.","null","","","","",""
"","html-keyboard-response","391","523298","0.0-8.0-2.47","FL","bhjyudy7kq","1536","864","de","IC06IR09","null","","","","learningBlock2","","","","<div style=""font-size:60px;""> </div>","null","FL","learning/Slide128.JPG","That was a wug.","",""
"","image-keyboard-response","392","523475","0.0-8.0-0.48","FL","bhjyudy7kq","1536","864","de","IC06IR09","null","","","","","","","","learning/Slide129.JPG","null","","","","",""
"","html-keyboard-response","393","524627","0.0-8.0-1.48","FL","bhjyudy7kq","1536","864","de","IC06IR09","null","","","","learningBlock2","","","","That was a tob.","null","","","","",""
"","html-keyboard-response","394","525629","0.0-8.0-2.48","FL","bhjyudy7kq","1536","864","de","IC06IR09","null","","","","learningBlock2","","","","<div style=""font-size:60px;""> </div>","null","FL","learning/Slide129.JPG","That was a tob.","",""
"","image-keyboard-response","395","525806","0.0-8.0-0.49","FL","bhjyudy7kq","1536","864","de","IC06IR09","null","","","","","","","","learning/Slide130.JPG","null","","","","",""
"","html-keyboard-response","396","526960","0.0-8.0-1.49","FL","bhjyudy7kq","1536","864","de","IC06IR09","null","","","","learningBlock2","","","","That was a wug.","null","","","","",""
"","html-keyboard-response","397","527962","0.0-8.0-2.49","FL","bhjyudy7kq","1536","864","de","IC06IR09","null","","","","learningBlock2","","","","<div style=""font-size:60px;""> </div>","null","FL","learning/Slide130.JPG","That was a wug.","",""
"","image-keyboard-response","398","528138","0.0-8.0-0.50","FL","bhjyudy7kq","1536","864","de","IC06IR09","null","","","","","","","","learning/Slide131.JPG","null","","","","",""
"","html-keyboard-response","399","529290","0.0-8.0-1.50","FL","bhjyudy7kq","1536","864","de","IC06IR09","null","","","","learningBlock2","","","","That was a bim.","null","","","","",""
"","html-keyboard-response","400","530293","0.0-8.0-2.50","FL","bhjyudy7kq","1536","864","de","IC06IR09","null","","","","learningBlock2","","","","<div style=""font-size:60px;""> </div>","null","FL","learning/Slide131.JPG","That was a bim.","",""
"","image-keyboard-response","401","530470","0.0-8.0-0.51","FL","bhjyudy7kq","1536","864","de","IC06IR09","null","","","","","","","","learning/Slide132.JPG","null","","","","",""
"","html-keyboard-response","402","531624","0.0-8.0-1.51","FL","bhjyudy7kq","1536","864","de","IC06IR09","null","","","","learningBlock2","","","","That was a dep.","null","","","","",""
"","html-keyboard-response","403","532626","0.0-8.0-2.51","FL","bhjyudy7kq","1536","864","de","IC06IR09","null","","","","learningBlock2","","","","<div style=""font-size:60px;""> </div>","null","FL","learning/Slide132.JPG","That was a dep.","",""
"","image-keyboard-response","404","532806","0.0-8.0-0.52","FL","bhjyudy7kq","1536","864","de","IC06IR09","null","","","","","","","","learning/Slide133.JPG","null","","","","",""
"","html-keyboard-response","405","533958","0.0-8.0-1.52","FL","bhjyudy7kq","1536","864","de","IC06IR09","null","","","","learningBlock2","","","","That was a tob.","null","","","","",""
"","html-keyboard-response","406","534960","0.0-8.0-2.52","FL","bhjyudy7kq","1536","864","de","IC06IR09","null","","","","learningBlock2","","","","<div style=""font-size:60px;""> </div>","null","FL","learning/Slide133.JPG","That was a tob.","",""
"","image-keyboard-response","407","535138","0.0-8.0-0.53","FL","bhjyudy7kq","1536","864","de","IC06IR09","null","","","","","","","","learning/Slide134.JPG","null","","","","",""
"","html-keyboard-response","408","536291","0.0-8.0-1.53","FL","bhjyudy7kq","1536","864","de","IC06IR09","null","","","","learningBlock2","","","","That was a dep.","null","","","","",""
"","html-keyboard-response","409","537292","0.0-8.0-2.53","FL","bhjyudy7kq","1536","864","de","IC06IR09","null","","","","learningBlock2","","","","<div style=""font-size:60px;""> </div>","null","FL","learning/Slide134.JPG","That was a dep.","",""
"","image-keyboard-response","410","537470","0.0-8.0-0.54","FL","bhjyudy7kq","1536","864","de","IC06IR09","null","","","","","","","","learning/Slide135.JPG","null","","","","",""
"","html-keyboard-response","411","538623","0.0-8.0-1.54","FL","bhjyudy7kq","1536","864","de","IC06IR09","null","","","","learningBlock2","","","","That was a tob.","null","","","","",""
"","html-keyboard-response","412","539625","0.0-8.0-2.54","FL","bhjyudy7kq","1536","864","de","IC06IR09","null","","","","learningBlock2","","","","<div style=""font-size:60px;""> </div>","null","FL","learning/Slide135.JPG","That was a tob.","",""
"","image-keyboard-response","413","539802","0.0-8.0-0.55","FL","bhjyudy7kq","1536","864","de","IC06IR09","null","","","","","","","","learning/Slide136.JPG","null","","","","",""
"","html-keyboard-response","414","540954","0.0-8.0-1.55","FL","bhjyudy7kq","1536","864","de","IC06IR09","null","","","","learningBlock2","","","","That was a wug.","null","","","","",""
"","html-keyboard-response","415","541955","0.0-8.0-2.55","FL","bhjyudy7kq","1536","864","de","IC06IR09","null","","","","learningBlock2","","","","<div style=""font-size:60px;""> </div>","null","FL","learning/Slide136.JPG","That was a wug.","",""
"","image-keyboard-response","416","542132","0.0-8.0-0.56","FL","bhjyudy7kq","1536","864","de","IC06IR09","null","","","","","","","","learning/Slide137.JPG","null","","","","",""
"","html-keyboard-response","417","543285","0.0-8.0-1.56","FL","bhjyudy7kq","1536","864","de","IC06IR09","null","","","","learningBlock2","","","","That was a tob.","null","","","","",""
"","html-keyboard-response","418","544286","0.0-8.0-2.56","FL","bhjyudy7kq","1536","864","de","IC06IR09","null","","","","learningBlock2","","","","<div style=""font-size:60px;""> </div>","null","FL","learning/Slide137.JPG","That was a tob.","",""
"","image-keyboard-response","419","544464","0.0-8.0-0.57","FL","bhjyudy7kq","1536","864","de","IC06IR09","null","","","","","","","","learning/Slide138.JPG","null","","","","",""
"","html-keyboard-response","420","545616","0.0-8.0-1.57","FL","bhjyudy7kq","1536","864","de","IC06IR09","null","","","","learningBlock2","","","","That was a bim.","null","","","","",""
"","html-keyboard-response","421","546617","0.0-8.0-2.57","FL","bhjyudy7kq","1536","864","de","IC06IR09","null","","","","learningBlock2","","","","<div style=""font-size:60px;""> </div>","null","FL","learning/Slide138.JPG","That was a bim.","",""
"","image-keyboard-response","422","546794","0.0-8.0-0.58","FL","bhjyudy7kq","1536","864","de","IC06IR09","null","","","","","","","","learning/Slide139.JPG","null","","","","",""
"","html-keyboard-response","423","547947","0.0-8.0-1.58","FL","bhjyudy7kq","1536","864","de","IC06IR09","null","","","","learningBlock2","","","","That was a wug.","null","","","","",""
"","html-keyboard-response","424","548948","0.0-8.0-2.58","FL","bhjyudy7kq","1536","864","de","IC06IR09","null","","","","learningBlock2","","","","<div style=""font-size:60px;""> </div>","null","FL","learning/Slide139.JPG","That was a wug.","",""
"","image-keyboard-response","425","549126","0.0-8.0-0.59","FL","bhjyudy7kq","1536","864","de","IC06IR09","null","","","","","","","","learning/Slide140.JPG","null","","","","",""
"","html-keyboard-response","426","550279","0.0-8.0-1.59","FL","bhjyudy7kq","1536","864","de","IC06IR09","null","","","","learningBlock2","","","","That was a dep.","null","","","","",""
"","html-keyboard-response","427","551280","0.0-8.0-2.59","FL","bhjyudy7kq","1536","864","de","IC06IR09","null","","","","learningBlock2","","","","<div style=""font-size:60px;""> </div>","null","FL","learning/Slide140.JPG","That was a dep.","",""
"","image-keyboard-response","428","551457","0.0-8.0-0.60","FL","bhjyudy7kq","1536","864","de","IC06IR09","null","","","","","","","","learning/Slide141.JPG","null","","","","",""
"","html-keyboard-response","429","552610","0.0-8.0-1.60","FL","bhjyudy7kq","1536","864","de","IC06IR09","null","","","","learningBlock2","","","","That was a tob.","null","","","","",""
"","html-keyboard-response","430","553613","0.0-8.0-2.60","FL","bhjyudy7kq","1536","864","de","IC06IR09","null","","","","learningBlock2","","","","<div style=""font-size:60px;""> </div>","null","FL","learning/Slide141.JPG","That was a tob.","",""
"","image-keyboard-response","431","553789","0.0-8.0-0.61","FL","bhjyudy7kq","1536","864","de","IC06IR09","null","","","","","","","","learning/Slide142.JPG","null","","","","",""
"","html-keyboard-response","432","554941","0.0-8.0-1.61","FL","bhjyudy7kq","1536","864","de","IC06IR09","null","","","","learningBlock2","","","","That was a wug.","null","","","","",""
"","html-keyboard-response","433","555944","0.0-8.0-2.61","FL","bhjyudy7kq","1536","864","de","IC06IR09","null","","","","learningBlock2","","","","<div style=""font-size:60px;""> </div>","null","FL","learning/Slide142.JPG","That was a wug.","",""
"","image-keyboard-response","434","556121","0.0-8.0-0.62","FL","bhjyudy7kq","1536","864","de","IC06IR09","null","","","","","","","","learning/Slide143.JPG","null","","","","",""
"","html-keyboard-response","435","557274","0.0-8.0-1.62","FL","bhjyudy7kq","1536","864","de","IC06IR09","null","","","","learningBlock2","","","","That was a bim.","null","","","","",""
"","html-keyboard-response","436","558275","0.0-8.0-2.62","FL","bhjyudy7kq","1536","864","de","IC06IR09","null","","","","learningBlock2","","","","<div style=""font-size:60px;""> </div>","null","FL","learning/Slide143.JPG","That was a bim.","",""
"","image-keyboard-response","437","558452","0.0-8.0-0.63","FL","bhjyudy7kq","1536","864","de","IC06IR09","null","","","","","","","","learning/Slide144.JPG","null","","","","",""
"","html-keyboard-response","438","559604","0.0-8.0-1.63","FL","bhjyudy7kq","1536","864","de","IC06IR09","null","","","","learningBlock2","","","","That was a dep.","null","","","","",""
"","html-keyboard-response","439","560606","0.0-8.0-2.63","FL","bhjyudy7kq","1536","864","de","IC06IR09","null","","","","learningBlock2","","","","<div style=""font-size:60px;""> </div>","null","FL","learning/Slide144.JPG","That was a dep.","",""
"","image-keyboard-response","440","560782","0.0-8.0-0.64","FL","bhjyudy7kq","1536","864","de","IC06IR09","null","","","","","","","","learning/Slide145.JPG","null","","","","",""
"","html-keyboard-response","441","561936","0.0-8.0-1.64","FL","bhjyudy7kq","1536","864","de","IC06IR09","null","","","","learningBlock2","","","","That was a bim.","null","","","","",""
"","html-keyboard-response","442","562937","0.0-8.0-2.64","FL","bhjyudy7kq","1536","864","de","IC06IR09","null","","","","learningBlock2","","","","<div style=""font-size:60px;""> </div>","null","FL","learning/Slide145.JPG","That was a bim.","",""
"","image-keyboard-response","443","563114","0.0-8.0-0.65","FL","bhjyudy7kq","1536","864","de","IC06IR09","null","","","","","","","","learning/Slide146.JPG","null","","","","",""
"","html-keyboard-response","444","564267","0.0-8.0-1.65","FL","bhjyudy7kq","1536","864","de","IC06IR09","null","","","","learningBlock2","","","","That was a tob.","null","","","","",""
"","html-keyboard-response","445","565268","0.0-8.0-2.65","FL","bhjyudy7kq","1536","864","de","IC06IR09","null","","","","learningBlock2","","","","<div style=""font-size:60px;""> </div>","null","FL","learning/Slide146.JPG","That was a tob.","",""
"","image-keyboard-response","446","565446","0.0-8.0-0.66","FL","bhjyudy7kq","1536","864","de","IC06IR09","null","","","","","","","","learning/Slide147.JPG","null","","","","",""
"","html-keyboard-response","447","566600","0.0-8.0-1.66","FL","bhjyudy7kq","1536","864","de","IC06IR09","null","","","","learningBlock2","","","","That was a wug.","null","","","","",""
"","html-keyboard-response","448","567601","0.0-8.0-2.66","FL","bhjyudy7kq","1536","864","de","IC06IR09","null","","","","learningBlock2","","","","<div style=""font-size:60px;""> </div>","null","FL","learning/Slide147.JPG","That was a wug.","",""
"","image-keyboard-response","449","567778","0.0-8.0-0.67","FL","bhjyudy7kq","1536","864","de","IC06IR09","null","","","","","","","","learning/Slide148.JPG","null","","","","",""
"","html-keyboard-response","450","568932","0.0-8.0-1.67","FL","bhjyudy7kq","1536","864","de","IC06IR09","null","","","","learningBlock2","","","","That was a bim.","null","","","","",""
"","html-keyboard-response","451","569934","0.0-8.0-2.67","FL","bhjyudy7kq","1536","864","de","IC06IR09","null","","","","learningBlock2","","","","<div style=""font-size:60px;""> </div>","null","FL","learning/Slide148.JPG","That was a bim.","",""
"","image-keyboard-response","452","570111","0.0-8.0-0.68","FL","bhjyudy7kq","1536","864","de","IC06IR09","null","","","","","","","","learning/Slide149.JPG","null","","","","",""
"","html-keyboard-response","453","571264","0.0-8.0-1.68","FL","bhjyudy7kq","1536","864","de","IC06IR09","null","","","","learningBlock2","","","","That was a dep.","null","","","","",""
"","html-keyboard-response","454","572266","0.0-8.0-2.68","FL","bhjyudy7kq","1536","864","de","IC06IR09","null","","","","learningBlock2","","","","<div style=""font-size:60px;""> </div>","null","FL","learning/Slide149.JPG","That was a dep.","",""
"","image-keyboard-response","455","572444","0.0-8.0-0.69","FL","bhjyudy7kq","1536","864","de","IC06IR09","null","","","","","","","","learning/Slide150.JPG","null","","","","",""
"","html-keyboard-response","456","573597","0.0-8.0-1.69","FL","bhjyudy7kq","1536","864","de","IC06IR09","null","","","","learningBlock2","","","","That was a wug.","null","","","","",""
"","html-keyboard-response","457","574599","0.0-8.0-2.69","FL","bhjyudy7kq","1536","864","de","IC06IR09","null","","","","learningBlock2","","","","<div style=""font-size:60px;""> </div>","null","FL","learning/Slide150.JPG","That was a wug.","",""
"","image-keyboard-response","458","574776","0.0-8.0-0.70","FL","bhjyudy7kq","1536","864","de","IC06IR09","null","","","","","","","","learning/Slide151.JPG","null","","","","",""
"","html-keyboard-response","459","575929","0.0-8.0-1.70","FL","bhjyudy7kq","1536","864","de","IC06IR09","null","","","","learningBlock2","","","","That was a dep.","null","","","","",""
"","html-keyboard-response","460","576931","0.0-8.0-2.70","FL","bhjyudy7kq","1536","864","de","IC06IR09","null","","","","learningBlock2","","","","<div style=""font-size:60px;""> </div>","null","FL","learning/Slide151.JPG","That was a dep.","",""
"","image-keyboard-response","461","577108","0.0-8.0-0.71","FL","bhjyudy7kq","1536","864","de","IC06IR09","null","","","","","","","","learning/Slide152.JPG","null","","","","",""
"","html-keyboard-response","462","578261","0.0-8.0-1.71","FL","bhjyudy7kq","1536","864","de","IC06IR09","null","","","","learningBlock2","","","","That was a wug.","null","","","","",""
"","html-keyboard-response","463","579262","0.0-8.0-2.71","FL","bhjyudy7kq","1536","864","de","IC06IR09","null","","","","learningBlock2","","","","<div style=""font-size:60px;""> </div>","null","FL","learning/Slide152.JPG","That was a wug.","",""
"","image-keyboard-response","464","579440","0.0-8.0-0.72","FL","bhjyudy7kq","1536","864","de","IC06IR09","null","","","","","","","","learning/Slide153.JPG","null","","","","",""
"","html-keyboard-response","465","580592","0.0-8.0-1.72","FL","bhjyudy7kq","1536","864","de","IC06IR09","null","","","","learningBlock2","","","","That was a bim.","null","","","","",""
"","html-keyboard-response","466","581594","0.0-8.0-2.72","FL","bhjyudy7kq","1536","864","de","IC06IR09","null","","","","learningBlock2","","","","<div style=""font-size:60px;""> </div>","null","FL","learning/Slide153.JPG","That was a bim.","",""
"","image-keyboard-response","467","581771","0.0-8.0-0.73","FL","bhjyudy7kq","1536","864","de","IC06IR09","null","","","","","","","","learning/Slide154.JPG","null","","","","",""
"","html-keyboard-response","468","582923","0.0-8.0-1.73","FL","bhjyudy7kq","1536","864","de","IC06IR09","null","","","","learningBlock2","","","","That was a tob.","null","","","","",""
"","html-keyboard-response","469","583925","0.0-8.0-2.73","FL","bhjyudy7kq","1536","864","de","IC06IR09","null","","","","learningBlock2","","","","<div style=""font-size:60px;""> </div>","null","FL","learning/Slide154.JPG","That was a tob.","",""
"","image-keyboard-response","470","584103","0.0-8.0-0.74","FL","bhjyudy7kq","1536","864","de","IC06IR09","null","","","","","","","","learning/Slide155.JPG","null","","","","",""
"","html-keyboard-response","471","585256","0.0-8.0-1.74","FL","bhjyudy7kq","1536","864","de","IC06IR09","null","","","","learningBlock2","","","","That was a dep.","null","","","","",""
"","html-keyboard-response","472","586257","0.0-8.0-2.74","FL","bhjyudy7kq","1536","864","de","IC06IR09","null","","","","learningBlock2","","","","<div style=""font-size:60px;""> </div>","null","FL","learning/Slide155.JPG","That was a dep.","",""
"","image-keyboard-response","473","586435","0.0-8.0-0.75","FL","bhjyudy7kq","1536","864","de","IC06IR09","null","","","","","","","","learning/Slide156.JPG","null","","","","",""
"","html-keyboard-response","474","587589","0.0-8.0-1.75","FL","bhjyudy7kq","1536","864","de","IC06IR09","null","","","","learningBlock2","","","","That was a bim.","null","","","","",""
"","html-keyboard-response","475","588590","0.0-8.0-2.75","FL","bhjyudy7kq","1536","864","de","IC06IR09","null","","","","learningBlock2","","","","<div style=""font-size:60px;""> </div>","null","FL","learning/Slide156.JPG","That was a bim.","",""
"","image-keyboard-response","476","588767","0.0-8.0-0.76","FL","bhjyudy7kq","1536","864","de","IC06IR09","null","","","","","","","","learning/Slide157.JPG","null","","","","",""
"","html-keyboard-response","477","589920","0.0-8.0-1.76","FL","bhjyudy7kq","1536","864","de","IC06IR09","null","","","","learningBlock2","","","","That was a dep.","null","","","","",""
"","html-keyboard-response","478","590923","0.0-8.0-2.76","FL","bhjyudy7kq","1536","864","de","IC06IR09","null","","","","learningBlock2","","","","<div style=""font-size:60px;""> </div>","null","FL","learning/Slide157.JPG","That was a dep.","",""
"","image-keyboard-response","479","591099","0.0-8.0-0.77","FL","bhjyudy7kq","1536","864","de","IC06IR09","null","","","","","","","","learning/Slide158.JPG","null","","","","",""
"","html-keyboard-response","480","592251","0.0-8.0-1.77","FL","bhjyudy7kq","1536","864","de","IC06IR09","null","","","","learningBlock2","","","","That was a tob.","null","","","","",""
"","html-keyboard-response","481","593253","0.0-8.0-2.77","FL","bhjyudy7kq","1536","864","de","IC06IR09","null","","","","learningBlock2","","","","<div style=""font-size:60px;""> </div>","null","FL","learning/Slide158.JPG","That was a tob.","",""
"","image-keyboard-response","482","593430","0.0-8.0-0.78","FL","bhjyudy7kq","1536","864","de","IC06IR09","null","","","","","","","","learning/Slide159.JPG","null","","","","",""
"","html-keyboard-response","483","594583","0.0-8.0-1.78","FL","bhjyudy7kq","1536","864","de","IC06IR09","null","","","","learningBlock2","","","","That was a dep.","null","","","","",""
"","html-keyboard-response","484","595585","0.0-8.0-2.78","FL","bhjyudy7kq","1536","864","de","IC06IR09","null","","","","learningBlock2","","","","<div style=""font-size:60px;""> </div>","null","FL","learning/Slide159.JPG","That was a dep.","",""
"","image-keyboard-response","485","595762","0.0-8.0-0.79","FL","bhjyudy7kq","1536","864","de","IC06IR09","null","","","","","","","","learning/Slide160.JPG","null","","","","",""
"","html-keyboard-response","486","596915","0.0-8.0-1.79","FL","bhjyudy7kq","1536","864","de","IC06IR09","null","","","","learningBlock2","","","","That was a wug.","null","","","","",""
"","html-keyboard-response","487","597916","0.0-8.0-2.79","FL","bhjyudy7kq","1536","864","de","IC06IR09","null","","","","learningBlock2","","","","<div style=""font-size:60px;""> </div>","null","FL","learning/Slide160.JPG","That was a wug.","",""
"","resize2","488","608431","0.0-9.0","FL","bhjyudy7kq","1536","864","de","IC06IR09","","","","","","","104","1.04","","","","","","",""
