"success","trial_type","trial_index","time_elapsed","internal_node_id","condition","subject","screen_width","screen_height","language","codeword","rt","responses","url","view_history","test_part","final_height_px","final_width_px","scale_factor","stimulus","key_press","learningType","presentedImage","presentedLabel","button_pressed","response"
"true","fullscreen","0","6032","0.0-0.0","FL","zm0cozjsh6","1440","900","en","al05rt16","","","","","","","","","","","","","","",""
"","survey-html-form","1","11820","0.0-1.0","FL","zm0cozjsh6","1440","900","en","al05rt16","5783.5699999995995","{""language"":""en""}","","","","","","","","","","","","",""
"","external-html","2","26888","0.0-3.0-0.0","FL","zm0cozjsh6","1440","900","en","al05rt16","15006.524999975227","","text/information_english.html","","","","","","","","","","","",""
"","external-html","3","31586","0.0-3.0-1.0","FL","zm0cozjsh6","1440","900","en","al05rt16","4640.030000009574","","text/consent_english.html","","","","","","","","","","","",""
"","survey-html-form","4","69089","0.0-3.0-2.0","FL","zm0cozjsh6","1440","900","en","al05rt16","37494.61500000325","{""codeword_enter"":""al05rt16""}","","","","","","","","","","","","",""
"","instructions","5","84225","0.0-4.0","FL","zm0cozjsh6","1440","900","en","al05rt16","NA","","","[{""page_index"":0,""viewing_time"":2127.4149999953806},{""page_index"":1,""viewing_time"":11502.500000002328}]","instructions","","","","","","","","","",""
"","resize","6","151475","0.0-5.0","FL","zm0cozjsh6","1440","900","en","al05rt16","","","","","","","430","2.7301587301587302","","","","","","",""
"","image-keyboard-response","7","151656","0.0-6.0-0.0","FL","zm0cozjsh6","1440","900","en","al05rt16","null","","","","","","","","learning/Slide1.JPG","null","","","","",""
"","html-keyboard-response","8","152811","0.0-6.0-1.0","FL","zm0cozjsh6","1440","900","en","al05rt16","null","","","","learningBlock1","","","","That was a tob.","null","","","","",""
"","html-keyboard-response","9","153815","0.0-6.0-2.0","FL","zm0cozjsh6","1440","900","en","al05rt16","null","","","","learningBlock1","","","","<div style=""font-size:60px;""> </div>","null","FL","learning/Slide1.JPG","That was a tob.","",""
"","image-keyboard-response","10","153995","0.0-6.0-0.1","FL","zm0cozjsh6","1440","900","en","al05rt16","null","","","","","","","","learning/Slide2.JPG","null","","","","",""
"","html-keyboard-response","11","155150","0.0-6.0-1.1","FL","zm0cozjsh6","1440","900","en","al05rt16","null","","","","learningBlock1","","","","That was a wug.","null","","","","",""
"","html-keyboard-response","12","156155","0.0-6.0-2.1","FL","zm0cozjsh6","1440","900","en","al05rt16","null","","","","learningBlock1","","","","<div style=""font-size:60px;""> </div>","null","FL","learning/Slide2.JPG","That was a wug.","",""
"","image-keyboard-response","13","156334","0.0-6.0-0.2","FL","zm0cozjsh6","1440","900","en","al05rt16","null","","","","","","","","learning/Slide3.JPG","null","","","","",""
"","html-keyboard-response","14","157486","0.0-6.0-1.2","FL","zm0cozjsh6","1440","900","en","al05rt16","null","","","","learningBlock1","","","","That was a bim.","null","","","","",""
"","html-keyboard-response","15","158491","0.0-6.0-2.2","FL","zm0cozjsh6","1440","900","en","al05rt16","null","","","","learningBlock1","","","","<div style=""font-size:60px;""> </div>","null","FL","learning/Slide3.JPG","That was a bim.","",""
"","image-keyboard-response","16","158670","0.0-6.0-0.3","FL","zm0cozjsh6","1440","900","en","al05rt16","null","","","","","","","","learning/Slide4.JPG","null","","","","",""
"","html-keyboard-response","17","159827","0.0-6.0-1.3","FL","zm0cozjsh6","1440","900","en","al05rt16","null","","","","learningBlock1","","","","That was a dep.","null","","","","",""
"","html-keyboard-response","18","160832","0.0-6.0-2.3","FL","zm0cozjsh6","1440","900","en","al05rt16","null","","","","learningBlock1","","","","<div style=""font-size:60px;""> </div>","null","FL","learning/Slide4.JPG","That was a dep.","",""
"","image-keyboard-response","19","161013","0.0-6.0-0.4","FL","zm0cozjsh6","1440","900","en","al05rt16","null","","","","","","","","learning/Slide5.JPG","null","","","","",""
"","html-keyboard-response","20","162165","0.0-6.0-1.4","FL","zm0cozjsh6","1440","900","en","al05rt16","null","","","","learningBlock1","","","","That was a wug.","null","","","","",""
"","html-keyboard-response","21","163170","0.0-6.0-2.4","FL","zm0cozjsh6","1440","900","en","al05rt16","null","","","","learningBlock1","","","","<div style=""font-size:60px;""> </div>","null","FL","learning/Slide5.JPG","That was a wug.","",""
"","image-keyboard-response","22","163347","0.0-6.0-0.5","FL","zm0cozjsh6","1440","900","en","al05rt16","null","","","","","","","","learning/Slide6.JPG","null","","","","",""
"","html-keyboard-response","23","164501","0.0-6.0-1.5","FL","zm0cozjsh6","1440","900","en","al05rt16","null","","","","learningBlock1","","","","That was a dep.","null","","","","",""
"","html-keyboard-response","24","165502","0.0-6.0-2.5","FL","zm0cozjsh6","1440","900","en","al05rt16","null","","","","learningBlock1","","","","<div style=""font-size:60px;""> </div>","null","FL","learning/Slide6.JPG","That was a dep.","",""
"","image-keyboard-response","25","165681","0.0-6.0-0.6","FL","zm0cozjsh6","1440","900","en","al05rt16","null","","","","","","","","learning/Slide7.JPG","null","","","","",""
"","html-keyboard-response","26","166836","0.0-6.0-1.6","FL","zm0cozjsh6","1440","900","en","al05rt16","null","","","","learningBlock1","","","","That was a wug.","null","","","","",""
"","html-keyboard-response","27","167840","0.0-6.0-2.6","FL","zm0cozjsh6","1440","900","en","al05rt16","null","","","","learningBlock1","","","","<div style=""font-size:60px;""> </div>","null","FL","learning/Slide7.JPG","That was a wug.","",""
"","image-keyboard-response","28","168020","0.0-6.0-0.7","FL","zm0cozjsh6","1440","900","en","al05rt16","null","","","","","","","","learning/Slide8.JPG","null","","","","",""
"","html-keyboard-response","29","169175","0.0-6.0-1.7","FL","zm0cozjsh6","1440","900","en","al05rt16","null","","","","learningBlock1","","","","That was a bim.","null","","","","",""
"","html-keyboard-response","30","170180","0.0-6.0-2.7","FL","zm0cozjsh6","1440","900","en","al05rt16","null","","","","learningBlock1","","","","<div style=""font-size:60px;""> </div>","null","FL","learning/Slide8.JPG","That was a bim.","",""
"","image-keyboard-response","31","170360","0.0-6.0-0.8","FL","zm0cozjsh6","1440","900","en","al05rt16","null","","","","","","","","learning/Slide9.JPG","null","","","","",""
"","html-keyboard-response","32","171513","0.0-6.0-1.8","FL","zm0cozjsh6","1440","900","en","al05rt16","null","","","","learningBlock1","","","","That was a wug.","null","","","","",""
"","html-keyboard-response","33","172518","0.0-6.0-2.8","FL","zm0cozjsh6","1440","900","en","al05rt16","null","","","","learningBlock1","","","","<div style=""font-size:60px;""> </div>","null","FL","learning/Slide9.JPG","That was a wug.","",""
"","image-keyboard-response","34","172699","0.0-6.0-0.9","FL","zm0cozjsh6","1440","900","en","al05rt16","null","","","","","","","","learning/Slide10.JPG","null","","","","",""
"","html-keyboard-response","35","173854","0.0-6.0-1.9","FL","zm0cozjsh6","1440","900","en","al05rt16","null","","","","learningBlock1","","","","That was a dep.","null","","","","",""
"","html-keyboard-response","36","174859","0.0-6.0-2.9","FL","zm0cozjsh6","1440","900","en","al05rt16","null","","","","learningBlock1","","","","<div style=""font-size:60px;""> </div>","null","FL","learning/Slide10.JPG","That was a dep.","",""
"","image-keyboard-response","37","175039","0.0-6.0-0.10","FL","zm0cozjsh6","1440","900","en","al05rt16","null","","","","","","","","learning/Slide11.JPG","null","","","","",""
"","html-keyboard-response","38","176194","0.0-6.0-1.10","FL","zm0cozjsh6","1440","900","en","al05rt16","null","","","","learningBlock1","","","","That was a tob.","null","","","","",""
"","html-keyboard-response","39","177198","0.0-6.0-2.10","FL","zm0cozjsh6","1440","900","en","al05rt16","null","","","","learningBlock1","","","","<div style=""font-size:60px;""> </div>","null","FL","learning/Slide11.JPG","That was a tob.","",""
"","image-keyboard-response","40","177378","0.0-6.0-0.11","FL","zm0cozjsh6","1440","900","en","al05rt16","null","","","","","","","","learning/Slide12.JPG","null","","","","",""
"","html-keyboard-response","41","178532","0.0-6.0-1.11","FL","zm0cozjsh6","1440","900","en","al05rt16","null","","","","learningBlock1","","","","That was a dep.","null","","","","",""
"","html-keyboard-response","42","179534","0.0-6.0-2.11","FL","zm0cozjsh6","1440","900","en","al05rt16","null","","","","learningBlock1","","","","<div style=""font-size:60px;""> </div>","null","FL","learning/Slide12.JPG","That was a dep.","",""
"","image-keyboard-response","43","179712","0.0-6.0-0.12","FL","zm0cozjsh6","1440","900","en","al05rt16","null","","","","","","","","learning/Slide13.JPG","null","","","","",""
"","html-keyboard-response","44","180867","0.0-6.0-1.12","FL","zm0cozjsh6","1440","900","en","al05rt16","null","","","","learningBlock1","","","","That was a bim.","null","","","","",""
"","html-keyboard-response","45","181871","0.0-6.0-2.12","FL","zm0cozjsh6","1440","900","en","al05rt16","null","","","","learningBlock1","","","","<div style=""font-size:60px;""> </div>","null","FL","learning/Slide13.JPG","That was a bim.","",""
"","image-keyboard-response","46","182051","0.0-6.0-0.13","FL","zm0cozjsh6","1440","900","en","al05rt16","null","","","","","","","","learning/Slide14.JPG","null","","","","",""
"","html-keyboard-response","47","183206","0.0-6.0-1.13","FL","zm0cozjsh6","1440","900","en","al05rt16","null","","","","learningBlock1","","","","That was a wug.","null","","","","",""
"","html-keyboard-response","48","184211","0.0-6.0-2.13","FL","zm0cozjsh6","1440","900","en","al05rt16","null","","","","learningBlock1","","","","<div style=""font-size:60px;""> </div>","null","FL","learning/Slide14.JPG","That was a wug.","",""
"","image-keyboard-response","49","184391","0.0-6.0-0.14","FL","zm0cozjsh6","1440","900","en","al05rt16","null","","","","","","","","learning/Slide15.JPG","null","","","","",""
"","html-keyboard-response","50","185546","0.0-6.0-1.14","FL","zm0cozjsh6","1440","900","en","al05rt16","null","","","","learningBlock1","","","","That was a tob.","null","","","","",""
"","html-keyboard-response","51","186550","0.0-6.0-2.14","FL","zm0cozjsh6","1440","900","en","al05rt16","null","","","","learningBlock1","","","","<div style=""font-size:60px;""> </div>","null","FL","learning/Slide15.JPG","That was a tob.","",""
"","image-keyboard-response","52","186727","0.0-6.0-0.15","FL","zm0cozjsh6","1440","900","en","al05rt16","null","","","","","","","","learning/Slide16.JPG","null","","","","",""
"","html-keyboard-response","53","187885","0.0-6.0-1.15","FL","zm0cozjsh6","1440","900","en","al05rt16","null","","","","learningBlock1","","","","That was a dep.","null","","","","",""
"","html-keyboard-response","54","188890","0.0-6.0-2.15","FL","zm0cozjsh6","1440","900","en","al05rt16","null","","","","learningBlock1","","","","<div style=""font-size:60px;""> </div>","null","FL","learning/Slide16.JPG","That was a dep.","",""
"","image-keyboard-response","55","189069","0.0-6.0-0.16","FL","zm0cozjsh6","1440","900","en","al05rt16","null","","","","","","","","learning/Slide17.JPG","null","","","","",""
"","html-keyboard-response","56","190225","0.0-6.0-1.16","FL","zm0cozjsh6","1440","900","en","al05rt16","null","","","","learningBlock1","","","","That was a bim.","null","","","","",""
"","html-keyboard-response","57","191229","0.0-6.0-2.16","FL","zm0cozjsh6","1440","900","en","al05rt16","null","","","","learningBlock1","","","","<div style=""font-size:60px;""> </div>","null","FL","learning/Slide17.JPG","That was a bim.","",""
"","image-keyboard-response","58","191406","0.0-6.0-0.17","FL","zm0cozjsh6","1440","900","en","al05rt16","null","","","","","","","","learning/Slide18.JPG","null","","","","",""
"","html-keyboard-response","59","192561","0.0-6.0-1.17","FL","zm0cozjsh6","1440","900","en","al05rt16","null","","","","learningBlock1","","","","That was a tob.","null","","","","",""
"","html-keyboard-response","60","193565","0.0-6.0-2.17","FL","zm0cozjsh6","1440","900","en","al05rt16","null","","","","learningBlock1","","","","<div style=""font-size:60px;""> </div>","null","FL","learning/Slide18.JPG","That was a tob.","",""
"","image-keyboard-response","61","193743","0.0-6.0-0.18","FL","zm0cozjsh6","1440","900","en","al05rt16","null","","","","","","","","learning/Slide19.JPG","null","","","","",""
"","html-keyboard-response","62","194898","0.0-6.0-1.18","FL","zm0cozjsh6","1440","900","en","al05rt16","null","","","","learningBlock1","","","","That was a wug.","null","","","","",""
"","html-keyboard-response","63","195902","0.0-6.0-2.18","FL","zm0cozjsh6","1440","900","en","al05rt16","null","","","","learningBlock1","","","","<div style=""font-size:60px;""> </div>","null","FL","learning/Slide19.JPG","That was a wug.","",""
"","image-keyboard-response","64","196082","0.0-6.0-0.19","FL","zm0cozjsh6","1440","900","en","al05rt16","null","","","","","","","","learning/Slide20.JPG","null","","","","",""
"","html-keyboard-response","65","197237","0.0-6.0-1.19","FL","zm0cozjsh6","1440","900","en","al05rt16","null","","","","learningBlock1","","","","That was a bim.","null","","","","",""
"","html-keyboard-response","66","198242","0.0-6.0-2.19","FL","zm0cozjsh6","1440","900","en","al05rt16","null","","","","learningBlock1","","","","<div style=""font-size:60px;""> </div>","null","FL","learning/Slide20.JPG","That was a bim.","",""
"","image-keyboard-response","67","198422","0.0-6.0-0.20","FL","zm0cozjsh6","1440","900","en","al05rt16","null","","","","","","","","learning/Slide21.JPG","null","","","","",""
"","html-keyboard-response","68","199577","0.0-6.0-1.20","FL","zm0cozjsh6","1440","900","en","al05rt16","null","","","","learningBlock1","","","","That was a dep.","null","","","","",""
"","html-keyboard-response","69","200583","0.0-6.0-2.20","FL","zm0cozjsh6","1440","900","en","al05rt16","null","","","","learningBlock1","","","","<div style=""font-size:60px;""> </div>","null","FL","learning/Slide21.JPG","That was a dep.","",""
"","image-keyboard-response","70","200765","0.0-6.0-0.21","FL","zm0cozjsh6","1440","900","en","al05rt16","null","","","","","","","","learning/Slide22.JPG","null","","","","",""
"","html-keyboard-response","71","201922","0.0-6.0-1.21","FL","zm0cozjsh6","1440","900","en","al05rt16","null","","","","learningBlock1","","","","That was a bim.","null","","","","",""
"","html-keyboard-response","72","202927","0.0-6.0-2.21","FL","zm0cozjsh6","1440","900","en","al05rt16","null","","","","learningBlock1","","","","<div style=""font-size:60px;""> </div>","null","FL","learning/Slide22.JPG","That was a bim.","",""
"","image-keyboard-response","73","203106","0.0-6.0-0.22","FL","zm0cozjsh6","1440","900","en","al05rt16","null","","","","","","","","learning/Slide23.JPG","null","","","","",""
"","html-keyboard-response","74","204262","0.0-6.0-1.22","FL","zm0cozjsh6","1440","900","en","al05rt16","null","","","","learningBlock1","","","","That was a tob.","null","","","","",""
"","html-keyboard-response","75","205266","0.0-6.0-2.22","FL","zm0cozjsh6","1440","900","en","al05rt16","null","","","","learningBlock1","","","","<div style=""font-size:60px;""> </div>","null","FL","learning/Slide23.JPG","That was a tob.","",""
"","image-keyboard-response","76","205446","0.0-6.0-0.23","FL","zm0cozjsh6","1440","900","en","al05rt16","null","","","","","","","","learning/Slide24.JPG","null","","","","",""
"","html-keyboard-response","77","206601","0.0-6.0-1.23","FL","zm0cozjsh6","1440","900","en","al05rt16","null","","","","learningBlock1","","","","That was a wug.","null","","","","",""
"","html-keyboard-response","78","207605","0.0-6.0-2.23","FL","zm0cozjsh6","1440","900","en","al05rt16","null","","","","learningBlock1","","","","<div style=""font-size:60px;""> </div>","null","FL","learning/Slide24.JPG","That was a wug.","",""
"","image-keyboard-response","79","207785","0.0-6.0-0.24","FL","zm0cozjsh6","1440","900","en","al05rt16","null","","","","","","","","learning/Slide25.JPG","null","","","","",""
"","html-keyboard-response","80","208940","0.0-6.0-1.24","FL","zm0cozjsh6","1440","900","en","al05rt16","null","","","","learningBlock1","","","","That was a dep.","null","","","","",""
"","html-keyboard-response","81","209945","0.0-6.0-2.24","FL","zm0cozjsh6","1440","900","en","al05rt16","null","","","","learningBlock1","","","","<div style=""font-size:60px;""> </div>","null","FL","learning/Slide25.JPG","That was a dep.","",""
"","image-keyboard-response","82","210125","0.0-6.0-0.25","FL","zm0cozjsh6","1440","900","en","al05rt16","null","","","","","","","","learning/Slide26.JPG","null","","","","",""
"","html-keyboard-response","83","211278","0.0-6.0-1.25","FL","zm0cozjsh6","1440","900","en","al05rt16","null","","","","learningBlock1","","","","That was a wug.","null","","","","",""
"","html-keyboard-response","84","212282","0.0-6.0-2.25","FL","zm0cozjsh6","1440","900","en","al05rt16","null","","","","learningBlock1","","","","<div style=""font-size:60px;""> </div>","null","FL","learning/Slide26.JPG","That was a wug.","",""
"","image-keyboard-response","85","212459","0.0-6.0-0.26","FL","zm0cozjsh6","1440","900","en","al05rt16","null","","","","","","","","learning/Slide27.JPG","null","","","","",""
"","html-keyboard-response","86","213614","0.0-6.0-1.26","FL","zm0cozjsh6","1440","900","en","al05rt16","null","","","","learningBlock1","","","","That was a bim.","null","","","","",""
"","html-keyboard-response","87","214617","0.0-6.0-2.26","FL","zm0cozjsh6","1440","900","en","al05rt16","null","","","","learningBlock1","","","","<div style=""font-size:60px;""> </div>","null","FL","learning/Slide27.JPG","That was a bim.","",""
"","image-keyboard-response","88","214798","0.0-6.0-0.27","FL","zm0cozjsh6","1440","900","en","al05rt16","null","","","","","","","","learning/Slide28.JPG","null","","","","",""
"","html-keyboard-response","89","215953","0.0-6.0-1.27","FL","zm0cozjsh6","1440","900","en","al05rt16","null","","","","learningBlock1","","","","That was a dep.","null","","","","",""
"","html-keyboard-response","90","216957","0.0-6.0-2.27","FL","zm0cozjsh6","1440","900","en","al05rt16","null","","","","learningBlock1","","","","<div style=""font-size:60px;""> </div>","null","FL","learning/Slide28.JPG","That was a dep.","",""
"","image-keyboard-response","91","217137","0.0-6.0-0.28","FL","zm0cozjsh6","1440","900","en","al05rt16","null","","","","","","","","learning/Slide29.JPG","null","","","","",""
"","html-keyboard-response","92","218290","0.0-6.0-1.28","FL","zm0cozjsh6","1440","900","en","al05rt16","null","","","","learningBlock1","","","","That was a tob.","null","","","","",""
"","html-keyboard-response","93","219295","0.0-6.0-2.28","FL","zm0cozjsh6","1440","900","en","al05rt16","null","","","","learningBlock1","","","","<div style=""font-size:60px;""> </div>","null","FL","learning/Slide29.JPG","That was a tob.","",""
"","image-keyboard-response","94","219476","0.0-6.0-0.29","FL","zm0cozjsh6","1440","900","en","al05rt16","null","","","","","","","","learning/Slide30.JPG","null","","","","",""
"","html-keyboard-response","95","220629","0.0-6.0-1.29","FL","zm0cozjsh6","1440","900","en","al05rt16","null","","","","learningBlock1","","","","That was a dep.","null","","","","",""
"","html-keyboard-response","96","221633","0.0-6.0-2.29","FL","zm0cozjsh6","1440","900","en","al05rt16","null","","","","learningBlock1","","","","<div style=""font-size:60px;""> </div>","null","FL","learning/Slide30.JPG","That was a dep.","",""
"","image-keyboard-response","97","221812","0.0-6.0-0.30","FL","zm0cozjsh6","1440","900","en","al05rt16","null","","","","","","","","learning/Slide31.JPG","null","","","","",""
"","html-keyboard-response","98","222971","0.0-6.0-1.30","FL","zm0cozjsh6","1440","900","en","al05rt16","null","","","","learningBlock1","","","","That was a wug.","null","","","","",""
"","html-keyboard-response","99","223975","0.0-6.0-2.30","FL","zm0cozjsh6","1440","900","en","al05rt16","null","","","","learningBlock1","","","","<div style=""font-size:60px;""> </div>","null","FL","learning/Slide31.JPG","That was a wug.","",""
"","image-keyboard-response","100","224153","0.0-6.0-0.31","FL","zm0cozjsh6","1440","900","en","al05rt16","null","","","","","","","","learning/Slide32.JPG","null","","","","",""
"","html-keyboard-response","101","225305","0.0-6.0-1.31","FL","zm0cozjsh6","1440","900","en","al05rt16","null","","","","learningBlock1","","","","That was a tob.","null","","","","",""
"","html-keyboard-response","102","226310","0.0-6.0-2.31","FL","zm0cozjsh6","1440","900","en","al05rt16","null","","","","learningBlock1","","","","<div style=""font-size:60px;""> </div>","null","FL","learning/Slide32.JPG","That was a tob.","",""
"","image-keyboard-response","103","226490","0.0-6.0-0.32","FL","zm0cozjsh6","1440","900","en","al05rt16","null","","","","","","","","learning/Slide33.JPG","null","","","","",""
"","html-keyboard-response","104","227645","0.0-6.0-1.32","FL","zm0cozjsh6","1440","900","en","al05rt16","null","","","","learningBlock1","","","","That was a bim.","null","","","","",""
"","html-keyboard-response","105","228648","0.0-6.0-2.32","FL","zm0cozjsh6","1440","900","en","al05rt16","null","","","","learningBlock1","","","","<div style=""font-size:60px;""> </div>","null","FL","learning/Slide33.JPG","That was a bim.","",""
"","image-keyboard-response","106","228825","0.0-6.0-0.33","FL","zm0cozjsh6","1440","900","en","al05rt16","null","","","","","","","","learning/Slide34.JPG","null","","","","",""
"","html-keyboard-response","107","229981","0.0-6.0-1.33","FL","zm0cozjsh6","1440","900","en","al05rt16","null","","","","learningBlock1","","","","That was a tob.","null","","","","",""
"","html-keyboard-response","108","230985","0.0-6.0-2.33","FL","zm0cozjsh6","1440","900","en","al05rt16","null","","","","learningBlock1","","","","<div style=""font-size:60px;""> </div>","null","FL","learning/Slide34.JPG","That was a tob.","",""
"","image-keyboard-response","109","231163","0.0-6.0-0.34","FL","zm0cozjsh6","1440","900","en","al05rt16","null","","","","","","","","learning/Slide35.JPG","null","","","","",""
"","html-keyboard-response","110","232319","0.0-6.0-1.34","FL","zm0cozjsh6","1440","900","en","al05rt16","null","","","","learningBlock1","","","","That was a bim.","null","","","","",""
"","html-keyboard-response","111","233324","0.0-6.0-2.34","FL","zm0cozjsh6","1440","900","en","al05rt16","null","","","","learningBlock1","","","","<div style=""font-size:60px;""> </div>","null","FL","learning/Slide35.JPG","That was a bim.","",""
"","image-keyboard-response","112","233502","0.0-6.0-0.35","FL","zm0cozjsh6","1440","900","en","al05rt16","null","","","","","","","","learning/Slide36.JPG","null","","","","",""
"","html-keyboard-response","113","234657","0.0-6.0-1.35","FL","zm0cozjsh6","1440","900","en","al05rt16","null","","","","learningBlock1","","","","That was a dep.","null","","","","",""
"","html-keyboard-response","114","235662","0.0-6.0-2.35","FL","zm0cozjsh6","1440","900","en","al05rt16","null","","","","learningBlock1","","","","<div style=""font-size:60px;""> </div>","null","FL","learning/Slide36.JPG","That was a dep.","",""
"","image-keyboard-response","115","235842","0.0-6.0-0.36","FL","zm0cozjsh6","1440","900","en","al05rt16","null","","","","","","","","learning/Slide37.JPG","null","","","","",""
"","html-keyboard-response","116","237003","0.0-6.0-1.36","FL","zm0cozjsh6","1440","900","en","al05rt16","null","","","","learningBlock1","","","","That was a tob.","null","","","","",""
"","html-keyboard-response","117","238006","0.0-6.0-2.36","FL","zm0cozjsh6","1440","900","en","al05rt16","null","","","","learningBlock1","","","","<div style=""font-size:60px;""> </div>","null","FL","learning/Slide37.JPG","That was a tob.","",""
"","image-keyboard-response","118","238187","0.0-6.0-0.37","FL","zm0cozjsh6","1440","900","en","al05rt16","null","","","","","","","","learning/Slide38.JPG","null","","","","",""
"","html-keyboard-response","119","239341","0.0-6.0-1.37","FL","zm0cozjsh6","1440","900","en","al05rt16","null","","","","learningBlock1","","","","That was a wug.","null","","","","",""
"","html-keyboard-response","120","240346","0.0-6.0-2.37","FL","zm0cozjsh6","1440","900","en","al05rt16","null","","","","learningBlock1","","","","<div style=""font-size:60px;""> </div>","null","FL","learning/Slide38.JPG","That was a wug.","",""
"","image-keyboard-response","121","240526","0.0-6.0-0.38","FL","zm0cozjsh6","1440","900","en","al05rt16","null","","","","","","","","learning/Slide39.JPG","null","","","","",""
"","html-keyboard-response","122","241682","0.0-6.0-1.38","FL","zm0cozjsh6","1440","900","en","al05rt16","null","","","","learningBlock1","","","","That was a bim.","null","","","","",""
"","html-keyboard-response","123","242686","0.0-6.0-2.38","FL","zm0cozjsh6","1440","900","en","al05rt16","null","","","","learningBlock1","","","","<div style=""font-size:60px;""> </div>","null","FL","learning/Slide39.JPG","That was a bim.","",""
"","image-keyboard-response","124","242866","0.0-6.0-0.39","FL","zm0cozjsh6","1440","900","en","al05rt16","null","","","","","","","","learning/Slide40.JPG","null","","","","",""
"","html-keyboard-response","125","244021","0.0-6.0-1.39","FL","zm0cozjsh6","1440","900","en","al05rt16","null","","","","learningBlock1","","","","That was a tob.","null","","","","",""
"","html-keyboard-response","126","245025","0.0-6.0-2.39","FL","zm0cozjsh6","1440","900","en","al05rt16","null","","","","learningBlock1","","","","<div style=""font-size:60px;""> </div>","null","FL","learning/Slide40.JPG","That was a tob.","",""
"","image-keyboard-response","127","245205","0.0-6.0-0.40","FL","zm0cozjsh6","1440","900","en","al05rt16","null","","","","","","","","learning/Slide41.JPG","null","","","","",""
"","html-keyboard-response","128","246360","0.0-6.0-1.40","FL","zm0cozjsh6","1440","900","en","al05rt16","null","","","","learningBlock1","","","","That was a bim.","null","","","","",""
"","html-keyboard-response","129","247365","0.0-6.0-2.40","FL","zm0cozjsh6","1440","900","en","al05rt16","null","","","","learningBlock1","","","","<div style=""font-size:60px;""> </div>","null","FL","learning/Slide41.JPG","That was a bim.","",""
"","image-keyboard-response","130","247545","0.0-6.0-0.41","FL","zm0cozjsh6","1440","900","en","al05rt16","null","","","","","","","","learning/Slide42.JPG","null","","","","",""
"","html-keyboard-response","131","248700","0.0-6.0-1.41","FL","zm0cozjsh6","1440","900","en","al05rt16","null","","","","learningBlock1","","","","That was a dep.","null","","","","",""
"","html-keyboard-response","132","249704","0.0-6.0-2.41","FL","zm0cozjsh6","1440","900","en","al05rt16","null","","","","learningBlock1","","","","<div style=""font-size:60px;""> </div>","null","FL","learning/Slide42.JPG","That was a dep.","",""
"","image-keyboard-response","133","249884","0.0-6.0-0.42","FL","zm0cozjsh6","1440","900","en","al05rt16","null","","","","","","","","learning/Slide43.JPG","null","","","","",""
"","html-keyboard-response","134","251039","0.0-6.0-1.42","FL","zm0cozjsh6","1440","900","en","al05rt16","null","","","","learningBlock1","","","","That was a wug.","null","","","","",""
"","html-keyboard-response","135","252044","0.0-6.0-2.42","FL","zm0cozjsh6","1440","900","en","al05rt16","null","","","","learningBlock1","","","","<div style=""font-size:60px;""> </div>","null","FL","learning/Slide43.JPG","That was a wug.","",""
"","image-keyboard-response","136","252224","0.0-6.0-0.43","FL","zm0cozjsh6","1440","900","en","al05rt16","null","","","","","","","","learning/Slide44.JPG","null","","","","",""
"","html-keyboard-response","137","253379","0.0-6.0-1.43","FL","zm0cozjsh6","1440","900","en","al05rt16","null","","","","learningBlock1","","","","That was a bim.","null","","","","",""
"","html-keyboard-response","138","254383","0.0-6.0-2.43","FL","zm0cozjsh6","1440","900","en","al05rt16","null","","","","learningBlock1","","","","<div style=""font-size:60px;""> </div>","null","FL","learning/Slide44.JPG","That was a bim.","",""
"","image-keyboard-response","139","254563","0.0-6.0-0.44","FL","zm0cozjsh6","1440","900","en","al05rt16","null","","","","","","","","learning/Slide45.JPG","null","","","","",""
"","html-keyboard-response","140","255718","0.0-6.0-1.44","FL","zm0cozjsh6","1440","900","en","al05rt16","null","","","","learningBlock1","","","","That was a wug.","null","","","","",""
"","html-keyboard-response","141","256723","0.0-6.0-2.44","FL","zm0cozjsh6","1440","900","en","al05rt16","null","","","","learningBlock1","","","","<div style=""font-size:60px;""> </div>","null","FL","learning/Slide45.JPG","That was a wug.","",""
"","image-keyboard-response","142","256903","0.0-6.0-0.45","FL","zm0cozjsh6","1440","900","en","al05rt16","null","","","","","","","","learning/Slide46.JPG","null","","","","",""
"","html-keyboard-response","143","258058","0.0-6.0-1.45","FL","zm0cozjsh6","1440","900","en","al05rt16","null","","","","learningBlock1","","","","That was a dep.","null","","","","",""
"","html-keyboard-response","144","259062","0.0-6.0-2.45","FL","zm0cozjsh6","1440","900","en","al05rt16","null","","","","learningBlock1","","","","<div style=""font-size:60px;""> </div>","null","FL","learning/Slide46.JPG","That was a dep.","",""
"","image-keyboard-response","145","259241","0.0-6.0-0.46","FL","zm0cozjsh6","1440","900","en","al05rt16","null","","","","","","","","learning/Slide47.JPG","null","","","","",""
"","html-keyboard-response","146","260397","0.0-6.0-1.46","FL","zm0cozjsh6","1440","900","en","al05rt16","null","","","","learningBlock1","","","","That was a tob.","null","","","","",""
"","html-keyboard-response","147","261401","0.0-6.0-2.46","FL","zm0cozjsh6","1440","900","en","al05rt16","null","","","","learningBlock1","","","","<div style=""font-size:60px;""> </div>","null","FL","learning/Slide47.JPG","That was a tob.","",""
"","image-keyboard-response","148","261582","0.0-6.0-0.47","FL","zm0cozjsh6","1440","900","en","al05rt16","null","","","","","","","","learning/Slide48.JPG","null","","","","",""
"","html-keyboard-response","149","262737","0.0-6.0-1.47","FL","zm0cozjsh6","1440","900","en","al05rt16","null","","","","learningBlock1","","","","That was a bim.","null","","","","",""
"","html-keyboard-response","150","263741","0.0-6.0-2.47","FL","zm0cozjsh6","1440","900","en","al05rt16","null","","","","learningBlock1","","","","<div style=""font-size:60px;""> </div>","null","FL","learning/Slide48.JPG","That was a bim.","",""
"","image-keyboard-response","151","263918","0.0-6.0-0.48","FL","zm0cozjsh6","1440","900","en","al05rt16","null","","","","","","","","learning/Slide49.JPG","null","","","","",""
"","html-keyboard-response","152","265076","0.0-6.0-1.48","FL","zm0cozjsh6","1440","900","en","al05rt16","null","","","","learningBlock1","","","","That was a dep.","null","","","","",""
"","html-keyboard-response","153","266081","0.0-6.0-2.48","FL","zm0cozjsh6","1440","900","en","al05rt16","null","","","","learningBlock1","","","","<div style=""font-size:60px;""> </div>","null","FL","learning/Slide49.JPG","That was a dep.","",""
"","image-keyboard-response","154","266261","0.0-6.0-0.49","FL","zm0cozjsh6","1440","900","en","al05rt16","null","","","","","","","","learning/Slide50.JPG","null","","","","",""
"","html-keyboard-response","155","267416","0.0-6.0-1.49","FL","zm0cozjsh6","1440","900","en","al05rt16","null","","","","learningBlock1","","","","That was a tob.","null","","","","",""
"","html-keyboard-response","156","268420","0.0-6.0-2.49","FL","zm0cozjsh6","1440","900","en","al05rt16","null","","","","learningBlock1","","","","<div style=""font-size:60px;""> </div>","null","FL","learning/Slide50.JPG","That was a tob.","",""
"","image-keyboard-response","157","268599","0.0-6.0-0.50","FL","zm0cozjsh6","1440","900","en","al05rt16","null","","","","","","","","learning/Slide51.JPG","null","","","","",""
"","html-keyboard-response","158","269757","0.0-6.0-1.50","FL","zm0cozjsh6","1440","900","en","al05rt16","null","","","","learningBlock1","","","","That was a bim.","null","","","","",""
"","html-keyboard-response","159","270762","0.0-6.0-2.50","FL","zm0cozjsh6","1440","900","en","al05rt16","null","","","","learningBlock1","","","","<div style=""font-size:60px;""> </div>","null","FL","learning/Slide51.JPG","That was a bim.","",""
"","image-keyboard-response","160","270939","0.0-6.0-0.51","FL","zm0cozjsh6","1440","900","en","al05rt16","null","","","","","","","","learning/Slide52.JPG","null","","","","",""
"","html-keyboard-response","161","272095","0.0-6.0-1.51","FL","zm0cozjsh6","1440","900","en","al05rt16","null","","","","learningBlock1","","","","That was a wug.","null","","","","",""
"","html-keyboard-response","162","273099","0.0-6.0-2.51","FL","zm0cozjsh6","1440","900","en","al05rt16","null","","","","learningBlock1","","","","<div style=""font-size:60px;""> </div>","null","FL","learning/Slide52.JPG","That was a wug.","",""
"","image-keyboard-response","163","273279","0.0-6.0-0.52","FL","zm0cozjsh6","1440","900","en","al05rt16","null","","","","","","","","learning/Slide53.JPG","null","","","","",""
"","html-keyboard-response","164","274434","0.0-6.0-1.52","FL","zm0cozjsh6","1440","900","en","al05rt16","null","","","","learningBlock1","","","","That was a tob.","null","","","","",""
"","html-keyboard-response","165","275439","0.0-6.0-2.52","FL","zm0cozjsh6","1440","900","en","al05rt16","null","","","","learningBlock1","","","","<div style=""font-size:60px;""> </div>","null","FL","learning/Slide53.JPG","That was a tob.","",""
"","image-keyboard-response","166","275619","0.0-6.0-0.53","FL","zm0cozjsh6","1440","900","en","al05rt16","null","","","","","","","","learning/Slide54.JPG","null","","","","",""
"","html-keyboard-response","167","276779","0.0-6.0-1.53","FL","zm0cozjsh6","1440","900","en","al05rt16","null","","","","learningBlock1","","","","That was a dep.","null","","","","",""
"","html-keyboard-response","168","277784","0.0-6.0-2.53","FL","zm0cozjsh6","1440","900","en","al05rt16","null","","","","learningBlock1","","","","<div style=""font-size:60px;""> </div>","null","FL","learning/Slide54.JPG","That was a dep.","",""
"","image-keyboard-response","169","277963","0.0-6.0-0.54","FL","zm0cozjsh6","1440","900","en","al05rt16","null","","","","","","","","learning/Slide55.JPG","null","","","","",""
"","html-keyboard-response","170","279119","0.0-6.0-1.54","FL","zm0cozjsh6","1440","900","en","al05rt16","null","","","","learningBlock1","","","","That was a bim.","null","","","","",""
"","html-keyboard-response","171","280123","0.0-6.0-2.54","FL","zm0cozjsh6","1440","900","en","al05rt16","null","","","","learningBlock1","","","","<div style=""font-size:60px;""> </div>","null","FL","learning/Slide55.JPG","That was a bim.","",""
"","image-keyboard-response","172","280303","0.0-6.0-0.55","FL","zm0cozjsh6","1440","900","en","al05rt16","null","","","","","","","","learning/Slide56.JPG","null","","","","",""
"","html-keyboard-response","173","281458","0.0-6.0-1.55","FL","zm0cozjsh6","1440","900","en","al05rt16","null","","","","learningBlock1","","","","That was a tob.","null","","","","",""
"","html-keyboard-response","174","282463","0.0-6.0-2.55","FL","zm0cozjsh6","1440","900","en","al05rt16","null","","","","learningBlock1","","","","<div style=""font-size:60px;""> </div>","null","FL","learning/Slide56.JPG","That was a tob.","",""
"","image-keyboard-response","175","282643","0.0-6.0-0.56","FL","zm0cozjsh6","1440","900","en","al05rt16","null","","","","","","","","learning/Slide57.JPG","null","","","","",""
"","html-keyboard-response","176","283794","0.0-6.0-1.56","FL","zm0cozjsh6","1440","900","en","al05rt16","null","","","","learningBlock1","","","","That was a dep.","null","","","","",""
"","html-keyboard-response","177","284798","0.0-6.0-2.56","FL","zm0cozjsh6","1440","900","en","al05rt16","null","","","","learningBlock1","","","","<div style=""font-size:60px;""> </div>","null","FL","learning/Slide57.JPG","That was a dep.","",""
"","image-keyboard-response","178","284976","0.0-6.0-0.57","FL","zm0cozjsh6","1440","900","en","al05rt16","null","","","","","","","","learning/Slide58.JPG","null","","","","",""
"","html-keyboard-response","179","286137","0.0-6.0-1.57","FL","zm0cozjsh6","1440","900","en","al05rt16","null","","","","learningBlock1","","","","That was a wug.","null","","","","",""
"","html-keyboard-response","180","287141","0.0-6.0-2.57","FL","zm0cozjsh6","1440","900","en","al05rt16","null","","","","learningBlock1","","","","<div style=""font-size:60px;""> </div>","null","FL","learning/Slide58.JPG","That was a wug.","",""
"","image-keyboard-response","181","287322","0.0-6.0-0.58","FL","zm0cozjsh6","1440","900","en","al05rt16","null","","","","","","","","learning/Slide59.JPG","null","","","","",""
"","html-keyboard-response","182","288477","0.0-6.0-1.58","FL","zm0cozjsh6","1440","900","en","al05rt16","null","","","","learningBlock1","","","","That was a dep.","null","","","","",""
"","html-keyboard-response","183","289481","0.0-6.0-2.58","FL","zm0cozjsh6","1440","900","en","al05rt16","null","","","","learningBlock1","","","","<div style=""font-size:60px;""> </div>","null","FL","learning/Slide59.JPG","That was a dep.","",""
"","image-keyboard-response","184","289661","0.0-6.0-0.59","FL","zm0cozjsh6","1440","900","en","al05rt16","null","","","","","","","","learning/Slide60.JPG","null","","","","",""
"","html-keyboard-response","185","290817","0.0-6.0-1.59","FL","zm0cozjsh6","1440","900","en","al05rt16","null","","","","learningBlock1","","","","That was a wug.","null","","","","",""
"","html-keyboard-response","186","291821","0.0-6.0-2.59","FL","zm0cozjsh6","1440","900","en","al05rt16","null","","","","learningBlock1","","","","<div style=""font-size:60px;""> </div>","null","FL","learning/Slide60.JPG","That was a wug.","",""
"","image-keyboard-response","187","292001","0.0-6.0-0.60","FL","zm0cozjsh6","1440","900","en","al05rt16","null","","","","","","","","learning/Slide61.JPG","null","","","","",""
"","html-keyboard-response","188","293152","0.0-6.0-1.60","FL","zm0cozjsh6","1440","900","en","al05rt16","null","","","","learningBlock1","","","","That was a bim.","null","","","","",""
"","html-keyboard-response","189","294157","0.0-6.0-2.60","FL","zm0cozjsh6","1440","900","en","al05rt16","null","","","","learningBlock1","","","","<div style=""font-size:60px;""> </div>","null","FL","learning/Slide61.JPG","That was a bim.","",""
"","image-keyboard-response","190","294334","0.0-6.0-0.61","FL","zm0cozjsh6","1440","900","en","al05rt16","null","","","","","","","","learning/Slide62.JPG","null","","","","",""
"","html-keyboard-response","191","295489","0.0-6.0-1.61","FL","zm0cozjsh6","1440","900","en","al05rt16","null","","","","learningBlock1","","","","That was a dep.","null","","","","",""
"","html-keyboard-response","192","296494","0.0-6.0-2.61","FL","zm0cozjsh6","1440","900","en","al05rt16","null","","","","learningBlock1","","","","<div style=""font-size:60px;""> </div>","null","FL","learning/Slide62.JPG","That was a dep.","",""
"","image-keyboard-response","193","296674","0.0-6.0-0.62","FL","zm0cozjsh6","1440","900","en","al05rt16","null","","","","","","","","learning/Slide63.JPG","null","","","","",""
"","html-keyboard-response","194","297829","0.0-6.0-1.62","FL","zm0cozjsh6","1440","900","en","al05rt16","null","","","","learningBlock1","","","","That was a bim.","null","","","","",""
"","html-keyboard-response","195","298833","0.0-6.0-2.62","FL","zm0cozjsh6","1440","900","en","al05rt16","null","","","","learningBlock1","","","","<div style=""font-size:60px;""> </div>","null","FL","learning/Slide63.JPG","That was a bim.","",""
"","image-keyboard-response","196","299013","0.0-6.0-0.63","FL","zm0cozjsh6","1440","900","en","al05rt16","null","","","","","","","","learning/Slide64.JPG","null","","","","",""
"","html-keyboard-response","197","300168","0.0-6.0-1.63","FL","zm0cozjsh6","1440","900","en","al05rt16","null","","","","learningBlock1","","","","That was a tob.","null","","","","",""
"","html-keyboard-response","198","301173","0.0-6.0-2.63","FL","zm0cozjsh6","1440","900","en","al05rt16","null","","","","learningBlock1","","","","<div style=""font-size:60px;""> </div>","null","FL","learning/Slide64.JPG","That was a tob.","",""
"","image-keyboard-response","199","301353","0.0-6.0-0.64","FL","zm0cozjsh6","1440","900","en","al05rt16","null","","","","","","","","learning/Slide65.JPG","null","","","","",""
"","html-keyboard-response","200","302508","0.0-6.0-1.64","FL","zm0cozjsh6","1440","900","en","al05rt16","null","","","","learningBlock1","","","","That was a wug.","null","","","","",""
"","html-keyboard-response","201","303512","0.0-6.0-2.64","FL","zm0cozjsh6","1440","900","en","al05rt16","null","","","","learningBlock1","","","","<div style=""font-size:60px;""> </div>","null","FL","learning/Slide65.JPG","That was a wug.","",""
"","image-keyboard-response","202","303689","0.0-6.0-0.65","FL","zm0cozjsh6","1440","900","en","al05rt16","null","","","","","","","","learning/Slide66.JPG","null","","","","",""
"","html-keyboard-response","203","304842","0.0-6.0-1.65","FL","zm0cozjsh6","1440","900","en","al05rt16","null","","","","learningBlock1","","","","That was a dep.","null","","","","",""
"","html-keyboard-response","204","305846","0.0-6.0-2.65","FL","zm0cozjsh6","1440","900","en","al05rt16","null","","","","learningBlock1","","","","<div style=""font-size:60px;""> </div>","null","FL","learning/Slide66.JPG","That was a dep.","",""
"","image-keyboard-response","205","306023","0.0-6.0-0.66","FL","zm0cozjsh6","1440","900","en","al05rt16","null","","","","","","","","learning/Slide67.JPG","null","","","","",""
"","html-keyboard-response","206","307181","0.0-6.0-1.66","FL","zm0cozjsh6","1440","900","en","al05rt16","null","","","","learningBlock1","","","","That was a tob.","null","","","","",""
"","html-keyboard-response","207","308185","0.0-6.0-2.66","FL","zm0cozjsh6","1440","900","en","al05rt16","null","","","","learningBlock1","","","","<div style=""font-size:60px;""> </div>","null","FL","learning/Slide67.JPG","That was a tob.","",""
"","image-keyboard-response","208","308365","0.0-6.0-0.67","FL","zm0cozjsh6","1440","900","en","al05rt16","null","","","","","","","","learning/Slide68.JPG","null","","","","",""
"","html-keyboard-response","209","309520","0.0-6.0-1.67","FL","zm0cozjsh6","1440","900","en","al05rt16","null","","","","learningBlock1","","","","That was a wug.","null","","","","",""
"","html-keyboard-response","210","310525","0.0-6.0-2.67","FL","zm0cozjsh6","1440","900","en","al05rt16","null","","","","learningBlock1","","","","<div style=""font-size:60px;""> </div>","null","FL","learning/Slide68.JPG","That was a wug.","",""
"","image-keyboard-response","211","310705","0.0-6.0-0.68","FL","zm0cozjsh6","1440","900","en","al05rt16","null","","","","","","","","learning/Slide69.JPG","null","","","","",""
"","html-keyboard-response","212","311858","0.0-6.0-1.68","FL","zm0cozjsh6","1440","900","en","al05rt16","null","","","","learningBlock1","","","","That was a tob.","null","","","","",""
"","html-keyboard-response","213","312863","0.0-6.0-2.68","FL","zm0cozjsh6","1440","900","en","al05rt16","null","","","","learningBlock1","","","","<div style=""font-size:60px;""> </div>","null","FL","learning/Slide69.JPG","That was a tob.","",""
"","image-keyboard-response","214","313041","0.0-6.0-0.69","FL","zm0cozjsh6","1440","900","en","al05rt16","null","","","","","","","","learning/Slide70.JPG","null","","","","",""
"","html-keyboard-response","215","314197","0.0-6.0-1.69","FL","zm0cozjsh6","1440","900","en","al05rt16","null","","","","learningBlock1","","","","That was a dep.","null","","","","",""
"","html-keyboard-response","216","315203","0.0-6.0-2.69","FL","zm0cozjsh6","1440","900","en","al05rt16","null","","","","learningBlock1","","","","<div style=""font-size:60px;""> </div>","null","FL","learning/Slide70.JPG","That was a dep.","",""
"","image-keyboard-response","217","315384","0.0-6.0-0.70","FL","zm0cozjsh6","1440","900","en","al05rt16","null","","","","","","","","learning/Slide71.JPG","null","","","","",""
"","html-keyboard-response","218","316539","0.0-6.0-1.70","FL","zm0cozjsh6","1440","900","en","al05rt16","null","","","","learningBlock1","","","","That was a wug.","null","","","","",""
"","html-keyboard-response","219","317543","0.0-6.0-2.70","FL","zm0cozjsh6","1440","900","en","al05rt16","null","","","","learningBlock1","","","","<div style=""font-size:60px;""> </div>","null","FL","learning/Slide71.JPG","That was a wug.","",""
"","image-keyboard-response","220","317723","0.0-6.0-0.71","FL","zm0cozjsh6","1440","900","en","al05rt16","null","","","","","","","","learning/Slide72.JPG","null","","","","",""
"","html-keyboard-response","221","318878","0.0-6.0-1.71","FL","zm0cozjsh6","1440","900","en","al05rt16","null","","","","learningBlock1","","","","That was a bim.","null","","","","",""
"","html-keyboard-response","222","319883","0.0-6.0-2.71","FL","zm0cozjsh6","1440","900","en","al05rt16","null","","","","learningBlock1","","","","<div style=""font-size:60px;""> </div>","null","FL","learning/Slide72.JPG","That was a bim.","",""
"","image-keyboard-response","223","320063","0.0-6.0-0.72","FL","zm0cozjsh6","1440","900","en","al05rt16","null","","","","","","","","learning/Slide73.JPG","null","","","","",""
"","html-keyboard-response","224","321218","0.0-6.0-1.72","FL","zm0cozjsh6","1440","900","en","al05rt16","null","","","","learningBlock1","","","","That was a wug.","null","","","","",""
"","html-keyboard-response","225","322222","0.0-6.0-2.72","FL","zm0cozjsh6","1440","900","en","al05rt16","null","","","","learningBlock1","","","","<div style=""font-size:60px;""> </div>","null","FL","learning/Slide73.JPG","That was a wug.","",""
"","image-keyboard-response","226","322399","0.0-6.0-0.73","FL","zm0cozjsh6","1440","900","en","al05rt16","null","","","","","","","","learning/Slide74.JPG","null","","","","",""
"","html-keyboard-response","227","323554","0.0-6.0-1.73","FL","zm0cozjsh6","1440","900","en","al05rt16","null","","","","learningBlock1","","","","That was a dep.","null","","","","",""
"","html-keyboard-response","228","324557","0.0-6.0-2.73","FL","zm0cozjsh6","1440","900","en","al05rt16","null","","","","learningBlock1","","","","<div style=""font-size:60px;""> </div>","null","FL","learning/Slide74.JPG","That was a dep.","",""
"","image-keyboard-response","229","324736","0.0-6.0-0.74","FL","zm0cozjsh6","1440","900","en","al05rt16","null","","","","","","","","learning/Slide75.JPG","null","","","","",""
"","html-keyboard-response","230","325891","0.0-6.0-1.74","FL","zm0cozjsh6","1440","900","en","al05rt16","null","","","","learningBlock1","","","","That was a tob.","null","","","","",""
"","html-keyboard-response","231","326895","0.0-6.0-2.74","FL","zm0cozjsh6","1440","900","en","al05rt16","null","","","","learningBlock1","","","","<div style=""font-size:60px;""> </div>","null","FL","learning/Slide75.JPG","That was a tob.","",""
"","image-keyboard-response","232","327075","0.0-6.0-0.75","FL","zm0cozjsh6","1440","900","en","al05rt16","null","","","","","","","","learning/Slide76.JPG","null","","","","",""
"","html-keyboard-response","233","328230","0.0-6.0-1.75","FL","zm0cozjsh6","1440","900","en","al05rt16","null","","","","learningBlock1","","","","That was a bim.","null","","","","",""
"","html-keyboard-response","234","329235","0.0-6.0-2.75","FL","zm0cozjsh6","1440","900","en","al05rt16","null","","","","learningBlock1","","","","<div style=""font-size:60px;""> </div>","null","FL","learning/Slide76.JPG","That was a bim.","",""
"","image-keyboard-response","235","329415","0.0-6.0-0.76","FL","zm0cozjsh6","1440","900","en","al05rt16","null","","","","","","","","learning/Slide77.JPG","null","","","","",""
"","html-keyboard-response","236","330570","0.0-6.0-1.76","FL","zm0cozjsh6","1440","900","en","al05rt16","null","","","","learningBlock1","","","","That was a tob.","null","","","","",""
"","html-keyboard-response","237","331574","0.0-6.0-2.76","FL","zm0cozjsh6","1440","900","en","al05rt16","null","","","","learningBlock1","","","","<div style=""font-size:60px;""> </div>","null","FL","learning/Slide77.JPG","That was a tob.","",""
"","image-keyboard-response","238","331754","0.0-6.0-0.77","FL","zm0cozjsh6","1440","900","en","al05rt16","null","","","","","","","","learning/Slide78.JPG","null","","","","",""
"","html-keyboard-response","239","332909","0.0-6.0-1.77","FL","zm0cozjsh6","1440","900","en","al05rt16","null","","","","learningBlock1","","","","That was a wug.","null","","","","",""
"","html-keyboard-response","240","333914","0.0-6.0-2.77","FL","zm0cozjsh6","1440","900","en","al05rt16","null","","","","learningBlock1","","","","<div style=""font-size:60px;""> </div>","null","FL","learning/Slide78.JPG","That was a wug.","",""
"","image-keyboard-response","241","334094","0.0-6.0-0.78","FL","zm0cozjsh6","1440","900","en","al05rt16","null","","","","","","","","learning/Slide79.JPG","null","","","","",""
"","html-keyboard-response","242","335245","0.0-6.0-1.78","FL","zm0cozjsh6","1440","900","en","al05rt16","null","","","","learningBlock1","","","","That was a bim.","null","","","","",""
"","html-keyboard-response","243","336250","0.0-6.0-2.78","FL","zm0cozjsh6","1440","900","en","al05rt16","null","","","","learningBlock1","","","","<div style=""font-size:60px;""> </div>","null","FL","learning/Slide79.JPG","That was a bim.","",""
"","image-keyboard-response","244","336429","0.0-6.0-0.79","FL","zm0cozjsh6","1440","900","en","al05rt16","null","","","","","","","","learning/Slide80.JPG","null","","","","",""
"","html-keyboard-response","245","337588","0.0-6.0-1.79","FL","zm0cozjsh6","1440","900","en","al05rt16","null","","","","learningBlock1","","","","That was a tob.","null","","","","",""
"","html-keyboard-response","246","338593","0.0-6.0-2.79","FL","zm0cozjsh6","1440","900","en","al05rt16","null","","","","learningBlock1","","","","<div style=""font-size:60px;""> </div>","null","FL","learning/Slide80.JPG","That was a tob.","",""
"","instructions","247","362234","0.0-7.0","FL","zm0cozjsh6","1440","900","en","al05rt16","NA","","","[{""page_index"":0,""viewing_time"":23639.704999979585}]","instructions","","","","","","","","","",""
"","image-keyboard-response","248","362411","0.0-8.0-0.0","FL","zm0cozjsh6","1440","900","en","al05rt16","null","","","","","","","","learning/Slide81.JPG","null","","","","",""
"","html-keyboard-response","249","363566","0.0-8.0-1.0","FL","zm0cozjsh6","1440","900","en","al05rt16","null","","","","learningBlock2","","","","That was a wug.","null","","","","",""
"","html-keyboard-response","250","364571","0.0-8.0-2.0","FL","zm0cozjsh6","1440","900","en","al05rt16","null","","","","learningBlock2","","","","<div style=""font-size:60px;""> </div>","null","FL","learning/Slide81.JPG","That was a wug.","",""
"","image-keyboard-response","251","364747","0.0-8.0-0.1","FL","zm0cozjsh6","1440","900","en","al05rt16","null","","","","","","","","learning/Slide82.JPG","null","","","","",""
"","html-keyboard-response","252","365906","0.0-8.0-1.1","FL","zm0cozjsh6","1440","900","en","al05rt16","null","","","","learningBlock2","","","","That was a bim.","null","","","","",""
"","html-keyboard-response","253","366910","0.0-8.0-2.1","FL","zm0cozjsh6","1440","900","en","al05rt16","null","","","","learningBlock2","","","","<div style=""font-size:60px;""> </div>","null","FL","learning/Slide82.JPG","That was a bim.","",""
"","image-keyboard-response","254","367090","0.0-8.0-0.2","FL","zm0cozjsh6","1440","900","en","al05rt16","null","","","","","","","","learning/Slide83.JPG","null","","","","",""
"","html-keyboard-response","255","368245","0.0-8.0-1.2","FL","zm0cozjsh6","1440","900","en","al05rt16","null","","","","learningBlock2","","","","That was a wug.","null","","","","",""
"","html-keyboard-response","256","369249","0.0-8.0-2.2","FL","zm0cozjsh6","1440","900","en","al05rt16","null","","","","learningBlock2","","","","<div style=""font-size:60px;""> </div>","null","FL","learning/Slide83.JPG","That was a wug.","",""
"","image-keyboard-response","257","369429","0.0-8.0-0.3","FL","zm0cozjsh6","1440","900","en","al05rt16","null","","","","","","","","learning/Slide84.JPG","null","","","","",""
"","html-keyboard-response","258","370585","0.0-8.0-1.3","FL","zm0cozjsh6","1440","900","en","al05rt16","null","","","","learningBlock2","","","","That was a dep.","null","","","","",""
"","html-keyboard-response","259","371589","0.0-8.0-2.3","FL","zm0cozjsh6","1440","900","en","al05rt16","null","","","","learningBlock2","","","","<div style=""font-size:60px;""> </div>","null","FL","learning/Slide84.JPG","That was a dep.","",""
"","image-keyboard-response","260","371766","0.0-8.0-0.4","FL","zm0cozjsh6","1440","900","en","al05rt16","null","","","","","","","","learning/Slide85.JPG","null","","","","",""
"","html-keyboard-response","261","372924","0.0-8.0-1.4","FL","zm0cozjsh6","1440","900","en","al05rt16","null","","","","learningBlock2","","","","That was a bim.","null","","","","",""
"","html-keyboard-response","262","373929","0.0-8.0-2.4","FL","zm0cozjsh6","1440","900","en","al05rt16","null","","","","learningBlock2","","","","<div style=""font-size:60px;""> </div>","null","FL","learning/Slide85.JPG","That was a bim.","",""
"","image-keyboard-response","263","374108","0.0-8.0-0.5","FL","zm0cozjsh6","1440","900","en","al05rt16","null","","","","","","","","learning/Slide86.JPG","null","","","","",""
"","html-keyboard-response","264","375264","0.0-8.0-1.5","FL","zm0cozjsh6","1440","900","en","al05rt16","null","","","","learningBlock2","","","","That was a tob.","null","","","","",""
"","html-keyboard-response","265","376267","0.0-8.0-2.5","FL","zm0cozjsh6","1440","900","en","al05rt16","null","","","","learningBlock2","","","","<div style=""font-size:60px;""> </div>","null","FL","learning/Slide86.JPG","That was a tob.","",""
"","image-keyboard-response","266","376448","0.0-8.0-0.6","FL","zm0cozjsh6","1440","900","en","al05rt16","null","","","","","","","","learning/Slide87.JPG","null","","","","",""
"","html-keyboard-response","267","377599","0.0-8.0-1.6","FL","zm0cozjsh6","1440","900","en","al05rt16","null","","","","learningBlock2","","","","That was a wug.","null","","","","",""
"","html-keyboard-response","268","378604","0.0-8.0-2.6","FL","zm0cozjsh6","1440","900","en","al05rt16","null","","","","learningBlock2","","","","<div style=""font-size:60px;""> </div>","null","FL","learning/Slide87.JPG","That was a wug.","",""
"","image-keyboard-response","269","378782","0.0-8.0-0.7","FL","zm0cozjsh6","1440","900","en","al05rt16","null","","","","","","","","learning/Slide88.JPG","null","","","","",""
"","html-keyboard-response","270","379937","0.0-8.0-1.7","FL","zm0cozjsh6","1440","900","en","al05rt16","null","","","","learningBlock2","","","","That was a tob.","null","","","","",""
"","html-keyboard-response","271","380941","0.0-8.0-2.7","FL","zm0cozjsh6","1440","900","en","al05rt16","null","","","","learningBlock2","","","","<div style=""font-size:60px;""> </div>","null","FL","learning/Slide88.JPG","That was a tob.","",""
"","image-keyboard-response","272","381121","0.0-8.0-0.8","FL","zm0cozjsh6","1440","900","en","al05rt16","null","","","","","","","","learning/Slide89.JPG","null","","","","",""
"","html-keyboard-response","273","382273","0.0-8.0-1.8","FL","zm0cozjsh6","1440","900","en","al05rt16","null","","","","learningBlock2","","","","That was a bim.","null","","","","",""
"","html-keyboard-response","274","383277","0.0-8.0-2.8","FL","zm0cozjsh6","1440","900","en","al05rt16","null","","","","learningBlock2","","","","<div style=""font-size:60px;""> </div>","null","FL","learning/Slide89.JPG","That was a bim.","",""
"","image-keyboard-response","275","383455","0.0-8.0-0.9","FL","zm0cozjsh6","1440","900","en","al05rt16","null","","","","","","","","learning/Slide90.JPG","null","","","","",""
"","html-keyboard-response","276","384610","0.0-8.0-1.9","FL","zm0cozjsh6","1440","900","en","al05rt16","null","","","","learningBlock2","","","","That was a dep.","null","","","","",""
"","html-keyboard-response","277","385614","0.0-8.0-2.9","FL","zm0cozjsh6","1440","900","en","al05rt16","null","","","","learningBlock2","","","","<div style=""font-size:60px;""> </div>","null","FL","learning/Slide90.JPG","That was a dep.","",""
"","image-keyboard-response","278","385791","0.0-8.0-0.10","FL","zm0cozjsh6","1440","900","en","al05rt16","null","","","","","","","","learning/Slide91.JPG","null","","","","",""
"","html-keyboard-response","279","386950","0.0-8.0-1.10","FL","zm0cozjsh6","1440","900","en","al05rt16","null","","","","learningBlock2","","","","That was a wug.","null","","","","",""
"","html-keyboard-response","280","387954","0.0-8.0-2.10","FL","zm0cozjsh6","1440","900","en","al05rt16","null","","","","learningBlock2","","","","<div style=""font-size:60px;""> </div>","null","FL","learning/Slide91.JPG","That was a wug.","",""
"","image-keyboard-response","281","388134","0.0-8.0-0.11","FL","zm0cozjsh6","1440","900","en","al05rt16","null","","","","","","","","learning/Slide92.JPG","null","","","","",""
"","html-keyboard-response","282","389289","0.0-8.0-1.11","FL","zm0cozjsh6","1440","900","en","al05rt16","null","","","","learningBlock2","","","","That was a tob.","null","","","","",""
"","html-keyboard-response","283","390293","0.0-8.0-2.11","FL","zm0cozjsh6","1440","900","en","al05rt16","null","","","","learningBlock2","","","","<div style=""font-size:60px;""> </div>","null","FL","learning/Slide92.JPG","That was a tob.","",""
"","image-keyboard-response","284","390473","0.0-8.0-0.12","FL","zm0cozjsh6","1440","900","en","al05rt16","null","","","","","","","","learning/Slide93.JPG","null","","","","",""
"","html-keyboard-response","285","391628","0.0-8.0-1.12","FL","zm0cozjsh6","1440","900","en","al05rt16","null","","","","learningBlock2","","","","That was a bim.","null","","","","",""
"","html-keyboard-response","286","392633","0.0-8.0-2.12","FL","zm0cozjsh6","1440","900","en","al05rt16","null","","","","learningBlock2","","","","<div style=""font-size:60px;""> </div>","null","FL","learning/Slide93.JPG","That was a bim.","",""
"","image-keyboard-response","287","392810","0.0-8.0-0.13","FL","zm0cozjsh6","1440","900","en","al05rt16","null","","","","","","","","learning/Slide94.JPG","null","","","","",""
"","html-keyboard-response","288","393968","0.0-8.0-1.13","FL","zm0cozjsh6","1440","900","en","al05rt16","null","","","","learningBlock2","","","","That was a tob.","null","","","","",""
"","html-keyboard-response","289","394972","0.0-8.0-2.13","FL","zm0cozjsh6","1440","900","en","al05rt16","null","","","","learningBlock2","","","","<div style=""font-size:60px;""> </div>","null","FL","learning/Slide94.JPG","That was a tob.","",""
"","image-keyboard-response","290","395152","0.0-8.0-0.14","FL","zm0cozjsh6","1440","900","en","al05rt16","null","","","","","","","","learning/Slide95.JPG","null","","","","",""
"","html-keyboard-response","291","396305","0.0-8.0-1.14","FL","zm0cozjsh6","1440","900","en","al05rt16","null","","","","learningBlock2","","","","That was a wug.","null","","","","",""
"","html-keyboard-response","292","397309","0.0-8.0-2.14","FL","zm0cozjsh6","1440","900","en","al05rt16","null","","","","learningBlock2","","","","<div style=""font-size:60px;""> </div>","null","FL","learning/Slide95.JPG","That was a wug.","",""
"","image-keyboard-response","293","397486","0.0-8.0-0.15","FL","zm0cozjsh6","1440","900","en","al05rt16","null","","","","","","","","learning/Slide96.JPG","null","","","","",""
"","html-keyboard-response","294","398641","0.0-8.0-1.15","FL","zm0cozjsh6","1440","900","en","al05rt16","null","","","","learningBlock2","","","","That was a tob.","null","","","","",""
"","html-keyboard-response","295","399646","0.0-8.0-2.15","FL","zm0cozjsh6","1440","900","en","al05rt16","null","","","","learningBlock2","","","","<div style=""font-size:60px;""> </div>","null","FL","learning/Slide96.JPG","That was a tob.","",""
"","image-keyboard-response","296","399825","0.0-8.0-0.16","FL","zm0cozjsh6","1440","900","en","al05rt16","null","","","","","","","","learning/Slide97.JPG","null","","","","",""
"","html-keyboard-response","297","400981","0.0-8.0-1.16","FL","zm0cozjsh6","1440","900","en","al05rt16","null","","","","learningBlock2","","","","That was a dep.","null","","","","",""
"","html-keyboard-response","298","401985","0.0-8.0-2.16","FL","zm0cozjsh6","1440","900","en","al05rt16","null","","","","learningBlock2","","","","<div style=""font-size:60px;""> </div>","null","FL","learning/Slide97.JPG","That was a dep.","",""
"","image-keyboard-response","299","402164","0.0-8.0-0.17","FL","zm0cozjsh6","1440","900","en","al05rt16","null","","","","","","","","learning/Slide98.JPG","null","","","","",""
"","html-keyboard-response","300","403320","0.0-8.0-1.17","FL","zm0cozjsh6","1440","900","en","al05rt16","null","","","","learningBlock2","","","","That was a bim.","null","","","","",""
"","html-keyboard-response","301","404324","0.0-8.0-2.17","FL","zm0cozjsh6","1440","900","en","al05rt16","null","","","","learningBlock2","","","","<div style=""font-size:60px;""> </div>","null","FL","learning/Slide98.JPG","That was a bim.","",""
"","image-keyboard-response","302","404504","0.0-8.0-0.18","FL","zm0cozjsh6","1440","900","en","al05rt16","null","","","","","","","","learning/Slide99.JPG","null","","","","",""
"","html-keyboard-response","303","405657","0.0-8.0-1.18","FL","zm0cozjsh6","1440","900","en","al05rt16","null","","","","learningBlock2","","","","That was a dep.","null","","","","",""
"","html-keyboard-response","304","406662","0.0-8.0-2.18","FL","zm0cozjsh6","1440","900","en","al05rt16","null","","","","learningBlock2","","","","<div style=""font-size:60px;""> </div>","null","FL","learning/Slide99.JPG","That was a dep.","",""
"","image-keyboard-response","305","406843","0.0-8.0-0.19","FL","zm0cozjsh6","1440","900","en","al05rt16","null","","","","","","","","learning/Slide100.JPG","null","","","","",""
"","html-keyboard-response","306","408005","0.0-8.0-1.19","FL","zm0cozjsh6","1440","900","en","al05rt16","null","","","","learningBlock2","","","","That was a bim.","null","","","","",""
"","html-keyboard-response","307","409009","0.0-8.0-2.19","FL","zm0cozjsh6","1440","900","en","al05rt16","null","","","","learningBlock2","","","","<div style=""font-size:60px;""> </div>","null","FL","learning/Slide100.JPG","That was a bim.","",""
"","image-keyboard-response","308","409189","0.0-8.0-0.20","FL","zm0cozjsh6","1440","900","en","al05rt16","null","","","","","","","","learning/Slide101.JPG","null","","","","",""
"","html-keyboard-response","309","410344","0.0-8.0-1.20","FL","zm0cozjsh6","1440","900","en","al05rt16","null","","","","learningBlock2","","","","That was a tob.","null","","","","",""
"","html-keyboard-response","310","411350","0.0-8.0-2.20","FL","zm0cozjsh6","1440","900","en","al05rt16","null","","","","learningBlock2","","","","<div style=""font-size:60px;""> </div>","null","FL","learning/Slide101.JPG","That was a tob.","",""
"","image-keyboard-response","311","411528","0.0-8.0-0.21","FL","zm0cozjsh6","1440","900","en","al05rt16","null","","","","","","","","learning/Slide102.JPG","null","","","","",""
"","html-keyboard-response","312","412684","0.0-8.0-1.21","FL","zm0cozjsh6","1440","900","en","al05rt16","null","","","","learningBlock2","","","","That was a bim.","null","","","","",""
"","html-keyboard-response","313","413688","0.0-8.0-2.21","FL","zm0cozjsh6","1440","900","en","al05rt16","null","","","","learningBlock2","","","","<div style=""font-size:60px;""> </div>","null","FL","learning/Slide102.JPG","That was a bim.","",""
"","image-keyboard-response","314","413868","0.0-8.0-0.22","FL","zm0cozjsh6","1440","900","en","al05rt16","null","","","","","","","","learning/Slide103.JPG","null","","","","",""
"","html-keyboard-response","315","415023","0.0-8.0-1.22","FL","zm0cozjsh6","1440","900","en","al05rt16","null","","","","learningBlock2","","","","That was a dep.","null","","","","",""
"","html-keyboard-response","316","416028","0.0-8.0-2.22","FL","zm0cozjsh6","1440","900","en","al05rt16","null","","","","learningBlock2","","","","<div style=""font-size:60px;""> </div>","null","FL","learning/Slide103.JPG","That was a dep.","",""
"","image-keyboard-response","317","416207","0.0-8.0-0.23","FL","zm0cozjsh6","1440","900","en","al05rt16","null","","","","","","","","learning/Slide104.JPG","null","","","","",""
"","html-keyboard-response","318","417363","0.0-8.0-1.23","FL","zm0cozjsh6","1440","900","en","al05rt16","null","","","","learningBlock2","","","","That was a tob.","null","","","","",""
"","html-keyboard-response","319","418367","0.0-8.0-2.23","FL","zm0cozjsh6","1440","900","en","al05rt16","null","","","","learningBlock2","","","","<div style=""font-size:60px;""> </div>","null","FL","learning/Slide104.JPG","That was a tob.","",""
"","image-keyboard-response","320","418547","0.0-8.0-0.24","FL","zm0cozjsh6","1440","900","en","al05rt16","null","","","","","","","","learning/Slide105.JPG","null","","","","",""
"","html-keyboard-response","321","419702","0.0-8.0-1.24","FL","zm0cozjsh6","1440","900","en","al05rt16","null","","","","learningBlock2","","","","That was a dep.","null","","","","",""
"","html-keyboard-response","322","420706","0.0-8.0-2.24","FL","zm0cozjsh6","1440","900","en","al05rt16","null","","","","learningBlock2","","","","<div style=""font-size:60px;""> </div>","null","FL","learning/Slide105.JPG","That was a dep.","",""
"","image-keyboard-response","323","420886","0.0-8.0-0.25","FL","zm0cozjsh6","1440","900","en","al05rt16","null","","","","","","","","learning/Slide106.JPG","null","","","","",""
"","html-keyboard-response","324","422041","0.0-8.0-1.25","FL","zm0cozjsh6","1440","900","en","al05rt16","null","","","","learningBlock2","","","","That was a wug.","null","","","","",""
"","html-keyboard-response","325","423046","0.0-8.0-2.25","FL","zm0cozjsh6","1440","900","en","al05rt16","null","","","","learningBlock2","","","","<div style=""font-size:60px;""> </div>","null","FL","learning/Slide106.JPG","That was a wug.","",""
"","image-keyboard-response","326","423226","0.0-8.0-0.26","FL","zm0cozjsh6","1440","900","en","al05rt16","null","","","","","","","","learning/Slide107.JPG","null","","","","",""
"","html-keyboard-response","327","424381","0.0-8.0-1.26","FL","zm0cozjsh6","1440","900","en","al05rt16","null","","","","learningBlock2","","","","That was a bim.","null","","","","",""
"","html-keyboard-response","328","425385","0.0-8.0-2.26","FL","zm0cozjsh6","1440","900","en","al05rt16","null","","","","learningBlock2","","","","<div style=""font-size:60px;""> </div>","null","FL","learning/Slide107.JPG","That was a bim.","",""
"","image-keyboard-response","329","425565","0.0-8.0-0.27","FL","zm0cozjsh6","1440","900","en","al05rt16","null","","","","","","","","learning/Slide108.JPG","null","","","","",""
"","html-keyboard-response","330","426721","0.0-8.0-1.27","FL","zm0cozjsh6","1440","900","en","al05rt16","null","","","","learningBlock2","","","","That was a dep.","null","","","","",""
"","html-keyboard-response","331","427725","0.0-8.0-2.27","FL","zm0cozjsh6","1440","900","en","al05rt16","null","","","","learningBlock2","","","","<div style=""font-size:60px;""> </div>","null","FL","learning/Slide108.JPG","That was a dep.","",""
"","image-keyboard-response","332","427905","0.0-8.0-0.28","FL","zm0cozjsh6","1440","900","en","al05rt16","null","","","","","","","","learning/Slide109.JPG","null","","","","",""
"","html-keyboard-response","333","429060","0.0-8.0-1.28","FL","zm0cozjsh6","1440","900","en","al05rt16","null","","","","learningBlock2","","","","That was a wug.","null","","","","",""
"","html-keyboard-response","334","430064","0.0-8.0-2.28","FL","zm0cozjsh6","1440","900","en","al05rt16","null","","","","learningBlock2","","","","<div style=""font-size:60px;""> </div>","null","FL","learning/Slide109.JPG","That was a wug.","",""
"","image-keyboard-response","335","430241","0.0-8.0-0.29","FL","zm0cozjsh6","1440","900","en","al05rt16","null","","","","","","","","learning/Slide110.JPG","null","","","","",""
"","html-keyboard-response","336","431400","0.0-8.0-1.29","FL","zm0cozjsh6","1440","900","en","al05rt16","null","","","","learningBlock2","","","","That was a bim.","null","","","","",""
"","html-keyboard-response","337","432404","0.0-8.0-2.29","FL","zm0cozjsh6","1440","900","en","al05rt16","null","","","","learningBlock2","","","","<div style=""font-size:60px;""> </div>","null","FL","learning/Slide110.JPG","That was a bim.","",""
"","image-keyboard-response","338","432584","0.0-8.0-0.30","FL","zm0cozjsh6","1440","900","en","al05rt16","null","","","","","","","","learning/Slide111.JPG","null","","","","",""
"","html-keyboard-response","339","433739","0.0-8.0-1.30","FL","zm0cozjsh6","1440","900","en","al05rt16","null","","","","learningBlock2","","","","That was a tob.","null","","","","",""
"","html-keyboard-response","340","434743","0.0-8.0-2.30","FL","zm0cozjsh6","1440","900","en","al05rt16","null","","","","learningBlock2","","","","<div style=""font-size:60px;""> </div>","null","FL","learning/Slide111.JPG","That was a tob.","",""
"","image-keyboard-response","341","434923","0.0-8.0-0.31","FL","zm0cozjsh6","1440","900","en","al05rt16","null","","","","","","","","learning/Slide112.JPG","null","","","","",""
"","html-keyboard-response","342","436078","0.0-8.0-1.31","FL","zm0cozjsh6","1440","900","en","al05rt16","null","","","","learningBlock2","","","","That was a wug.","null","","","","",""
"","html-keyboard-response","343","437083","0.0-8.0-2.31","FL","zm0cozjsh6","1440","900","en","al05rt16","null","","","","learningBlock2","","","","<div style=""font-size:60px;""> </div>","null","FL","learning/Slide112.JPG","That was a wug.","",""
"","image-keyboard-response","344","437263","0.0-8.0-0.32","FL","zm0cozjsh6","1440","900","en","al05rt16","null","","","","","","","","learning/Slide113.JPG","null","","","","",""
"","html-keyboard-response","345","438416","0.0-8.0-1.32","FL","zm0cozjsh6","1440","900","en","al05rt16","null","","","","learningBlock2","","","","That was a tob.","null","","","","",""
"","html-keyboard-response","346","439421","0.0-8.0-2.32","FL","zm0cozjsh6","1440","900","en","al05rt16","null","","","","learningBlock2","","","","<div style=""font-size:60px;""> </div>","null","FL","learning/Slide113.JPG","That was a tob.","",""
"","image-keyboard-response","347","439602","0.0-8.0-0.33","FL","zm0cozjsh6","1440","900","en","al05rt16","null","","","","","","","","learning/Slide114.JPG","null","","","","",""
"","html-keyboard-response","348","440757","0.0-8.0-1.33","FL","zm0cozjsh6","1440","900","en","al05rt16","null","","","","learningBlock2","","","","That was a wug.","null","","","","",""
"","html-keyboard-response","349","441762","0.0-8.0-2.33","FL","zm0cozjsh6","1440","900","en","al05rt16","null","","","","learningBlock2","","","","<div style=""font-size:60px;""> </div>","null","FL","learning/Slide114.JPG","That was a wug.","",""
"","image-keyboard-response","350","441942","0.0-8.0-0.34","FL","zm0cozjsh6","1440","900","en","al05rt16","null","","","","","","","","learning/Slide115.JPG","null","","","","",""
"","html-keyboard-response","351","443093","0.0-8.0-1.34","FL","zm0cozjsh6","1440","900","en","al05rt16","null","","","","learningBlock2","","","","That was a bim.","null","","","","",""
"","html-keyboard-response","352","444099","0.0-8.0-2.34","FL","zm0cozjsh6","1440","900","en","al05rt16","null","","","","learningBlock2","","","","<div style=""font-size:60px;""> </div>","null","FL","learning/Slide115.JPG","That was a bim.","",""
"","image-keyboard-response","353","444275","0.0-8.0-0.35","FL","zm0cozjsh6","1440","900","en","al05rt16","null","","","","","","","","learning/Slide116.JPG","null","","","","",""
"","html-keyboard-response","354","445430","0.0-8.0-1.35","FL","zm0cozjsh6","1440","900","en","al05rt16","null","","","","learningBlock2","","","","That was a dep.","null","","","","",""
"","html-keyboard-response","355","446435","0.0-8.0-2.35","FL","zm0cozjsh6","1440","900","en","al05rt16","null","","","","learningBlock2","","","","<div style=""font-size:60px;""> </div>","null","FL","learning/Slide116.JPG","That was a dep.","",""
"","image-keyboard-response","356","446614","0.0-8.0-0.36","FL","zm0cozjsh6","1440","900","en","al05rt16","null","","","","","","","","learning/Slide117.JPG","null","","","","",""
"","html-keyboard-response","357","447770","0.0-8.0-1.36","FL","zm0cozjsh6","1440","900","en","al05rt16","null","","","","learningBlock2","","","","That was a tob.","null","","","","",""
"","html-keyboard-response","358","448774","0.0-8.0-2.36","FL","zm0cozjsh6","1440","900","en","al05rt16","null","","","","learningBlock2","","","","<div style=""font-size:60px;""> </div>","null","FL","learning/Slide117.JPG","That was a tob.","",""
"","image-keyboard-response","359","448954","0.0-8.0-0.37","FL","zm0cozjsh6","1440","900","en","al05rt16","null","","","","","","","","learning/Slide118.JPG","null","","","","",""
"","html-keyboard-response","360","450110","0.0-8.0-1.37","FL","zm0cozjsh6","1440","900","en","al05rt16","null","","","","learningBlock2","","","","That was a dep.","null","","","","",""
"","html-keyboard-response","361","451114","0.0-8.0-2.37","FL","zm0cozjsh6","1440","900","en","al05rt16","null","","","","learningBlock2","","","","<div style=""font-size:60px;""> </div>","null","FL","learning/Slide118.JPG","That was a dep.","",""
"","image-keyboard-response","362","451294","0.0-8.0-0.38","FL","zm0cozjsh6","1440","900","en","al05rt16","null","","","","","","","","learning/Slide119.JPG","null","","","","",""
"","html-keyboard-response","363","452446","0.0-8.0-1.38","FL","zm0cozjsh6","1440","900","en","al05rt16","null","","","","learningBlock2","","","","That was a wug.","null","","","","",""
"","html-keyboard-response","364","453451","0.0-8.0-2.38","FL","zm0cozjsh6","1440","900","en","al05rt16","null","","","","learningBlock2","","","","<div style=""font-size:60px;""> </div>","null","FL","learning/Slide119.JPG","That was a wug.","",""
"","image-keyboard-response","365","453631","0.0-8.0-0.39","FL","zm0cozjsh6","1440","900","en","al05rt16","null","","","","","","","","learning/Slide120.JPG","null","","","","",""
"","html-keyboard-response","366","454788","0.0-8.0-1.39","FL","zm0cozjsh6","1440","900","en","al05rt16","null","","","","learningBlock2","","","","That was a dep.","null","","","","",""
"","html-keyboard-response","367","455793","0.0-8.0-2.39","FL","zm0cozjsh6","1440","900","en","al05rt16","null","","","","learningBlock2","","","","<div style=""font-size:60px;""> </div>","null","FL","learning/Slide120.JPG","That was a dep.","",""
"","image-keyboard-response","368","455973","0.0-8.0-0.40","FL","zm0cozjsh6","1440","900","en","al05rt16","null","","","","","","","","learning/Slide121.JPG","null","","","","",""
"","html-keyboard-response","369","457128","0.0-8.0-1.40","FL","zm0cozjsh6","1440","900","en","al05rt16","null","","","","learningBlock2","","","","That was a bim.","null","","","","",""
"","html-keyboard-response","370","458132","0.0-8.0-2.40","FL","zm0cozjsh6","1440","900","en","al05rt16","null","","","","learningBlock2","","","","<div style=""font-size:60px;""> </div>","null","FL","learning/Slide121.JPG","That was a bim.","",""
"","image-keyboard-response","371","458312","0.0-8.0-0.41","FL","zm0cozjsh6","1440","900","en","al05rt16","null","","","","","","","","learning/Slide122.JPG","null","","","","",""
"","html-keyboard-response","372","459467","0.0-8.0-1.41","FL","zm0cozjsh6","1440","900","en","al05rt16","null","","","","learningBlock2","","","","That was a wug.","null","","","","",""
"","html-keyboard-response","373","460472","0.0-8.0-2.41","FL","zm0cozjsh6","1440","900","en","al05rt16","null","","","","learningBlock2","","","","<div style=""font-size:60px;""> </div>","null","FL","learning/Slide122.JPG","That was a wug.","",""
"","image-keyboard-response","374","460651","0.0-8.0-0.42","FL","zm0cozjsh6","1440","900","en","al05rt16","null","","","","","","","","learning/Slide123.JPG","null","","","","",""
"","html-keyboard-response","375","461812","0.0-8.0-1.42","FL","zm0cozjsh6","1440","900","en","al05rt16","null","","","","learningBlock2","","","","That was a bim.","null","","","","",""
"","html-keyboard-response","376","462817","0.0-8.0-2.42","FL","zm0cozjsh6","1440","900","en","al05rt16","null","","","","learningBlock2","","","","<div style=""font-size:60px;""> </div>","null","FL","learning/Slide123.JPG","That was a bim.","",""
"","image-keyboard-response","377","462997","0.0-8.0-0.43","FL","zm0cozjsh6","1440","900","en","al05rt16","null","","","","","","","","learning/Slide124.JPG","null","","","","",""
"","html-keyboard-response","378","464152","0.0-8.0-1.43","FL","zm0cozjsh6","1440","900","en","al05rt16","null","","","","learningBlock2","","","","That was a tob.","null","","","","",""
"","html-keyboard-response","379","465157","0.0-8.0-2.43","FL","zm0cozjsh6","1440","900","en","al05rt16","null","","","","learningBlock2","","","","<div style=""font-size:60px;""> </div>","null","FL","learning/Slide124.JPG","That was a tob.","",""
"","image-keyboard-response","380","465336","0.0-8.0-0.44","FL","zm0cozjsh6","1440","900","en","al05rt16","null","","","","","","","","learning/Slide125.JPG","null","","","","",""
"","html-keyboard-response","381","466492","0.0-8.0-1.44","FL","zm0cozjsh6","1440","900","en","al05rt16","null","","","","learningBlock2","","","","That was a bim.","null","","","","",""
"","html-keyboard-response","382","467496","0.0-8.0-2.44","FL","zm0cozjsh6","1440","900","en","al05rt16","null","","","","learningBlock2","","","","<div style=""font-size:60px;""> </div>","null","FL","learning/Slide125.JPG","That was a bim.","",""
"","image-keyboard-response","383","467676","0.0-8.0-0.45","FL","zm0cozjsh6","1440","900","en","al05rt16","null","","","","","","","","learning/Slide126.JPG","null","","","","",""
"","html-keyboard-response","384","468831","0.0-8.0-1.45","FL","zm0cozjsh6","1440","900","en","al05rt16","null","","","","learningBlock2","","","","That was a tob.","null","","","","",""
"","html-keyboard-response","385","469835","0.0-8.0-2.45","FL","zm0cozjsh6","1440","900","en","al05rt16","null","","","","learningBlock2","","","","<div style=""font-size:60px;""> </div>","null","FL","learning/Slide126.JPG","That was a tob.","",""
"","image-keyboard-response","386","470015","0.0-8.0-0.46","FL","zm0cozjsh6","1440","900","en","al05rt16","null","","","","","","","","learning/Slide127.JPG","null","","","","",""
"","html-keyboard-response","387","471171","0.0-8.0-1.46","FL","zm0cozjsh6","1440","900","en","al05rt16","null","","","","learningBlock2","","","","That was a dep.","null","","","","",""
"","html-keyboard-response","388","472175","0.0-8.0-2.46","FL","zm0cozjsh6","1440","900","en","al05rt16","null","","","","learningBlock2","","","","<div style=""font-size:60px;""> </div>","null","FL","learning/Slide127.JPG","That was a dep.","",""
"","image-keyboard-response","389","472355","0.0-8.0-0.47","FL","zm0cozjsh6","1440","900","en","al05rt16","null","","","","","","","","learning/Slide128.JPG","null","","","","",""
"","html-keyboard-response","390","473510","0.0-8.0-1.47","FL","zm0cozjsh6","1440","900","en","al05rt16","null","","","","learningBlock2","","","","That was a wug.","null","","","","",""
"","html-keyboard-response","391","474514","0.0-8.0-2.47","FL","zm0cozjsh6","1440","900","en","al05rt16","null","","","","learningBlock2","","","","<div style=""font-size:60px;""> </div>","null","FL","learning/Slide128.JPG","That was a wug.","",""
"","image-keyboard-response","392","474694","0.0-8.0-0.48","FL","zm0cozjsh6","1440","900","en","al05rt16","null","","","","","","","","learning/Slide129.JPG","null","","","","",""
"","html-keyboard-response","393","475848","0.0-8.0-1.48","FL","zm0cozjsh6","1440","900","en","al05rt16","null","","","","learningBlock2","","","","That was a tob.","null","","","","",""
"","html-keyboard-response","394","476853","0.0-8.0-2.48","FL","zm0cozjsh6","1440","900","en","al05rt16","null","","","","learningBlock2","","","","<div style=""font-size:60px;""> </div>","null","FL","learning/Slide129.JPG","That was a tob.","",""
"","image-keyboard-response","395","477034","0.0-8.0-0.49","FL","zm0cozjsh6","1440","900","en","al05rt16","null","","","","","","","","learning/Slide130.JPG","null","","","","",""
"","html-keyboard-response","396","478189","0.0-8.0-1.49","FL","zm0cozjsh6","1440","900","en","al05rt16","null","","","","learningBlock2","","","","That was a wug.","null","","","","",""
"","html-keyboard-response","397","479193","0.0-8.0-2.49","FL","zm0cozjsh6","1440","900","en","al05rt16","null","","","","learningBlock2","","","","<div style=""font-size:60px;""> </div>","null","FL","learning/Slide130.JPG","That was a wug.","",""
"","image-keyboard-response","398","479373","0.0-8.0-0.50","FL","zm0cozjsh6","1440","900","en","al05rt16","null","","","","","","","","learning/Slide131.JPG","null","","","","",""
"","html-keyboard-response","399","480529","0.0-8.0-1.50","FL","zm0cozjsh6","1440","900","en","al05rt16","null","","","","learningBlock2","","","","That was a bim.","null","","","","",""
"","html-keyboard-response","400","481533","0.0-8.0-2.50","FL","zm0cozjsh6","1440","900","en","al05rt16","null","","","","learningBlock2","","","","<div style=""font-size:60px;""> </div>","null","FL","learning/Slide131.JPG","That was a bim.","",""
"","image-keyboard-response","401","481713","0.0-8.0-0.51","FL","zm0cozjsh6","1440","900","en","al05rt16","null","","","","","","","","learning/Slide132.JPG","null","","","","",""
"","html-keyboard-response","402","482865","0.0-8.0-1.51","FL","zm0cozjsh6","1440","900","en","al05rt16","null","","","","learningBlock2","","","","That was a dep.","null","","","","",""
"","html-keyboard-response","403","483869","0.0-8.0-2.51","FL","zm0cozjsh6","1440","900","en","al05rt16","null","","","","learningBlock2","","","","<div style=""font-size:60px;""> </div>","null","FL","learning/Slide132.JPG","That was a dep.","",""
"","image-keyboard-response","404","484052","0.0-8.0-0.52","FL","zm0cozjsh6","1440","900","en","al05rt16","null","","","","","","","","learning/Slide133.JPG","null","","","","",""
"","html-keyboard-response","405","485207","0.0-8.0-1.52","FL","zm0cozjsh6","1440","900","en","al05rt16","null","","","","learningBlock2","","","","That was a tob.","null","","","","",""
"","html-keyboard-response","406","486212","0.0-8.0-2.52","FL","zm0cozjsh6","1440","900","en","al05rt16","null","","","","learningBlock2","","","","<div style=""font-size:60px;""> </div>","null","FL","learning/Slide133.JPG","That was a tob.","",""
"","image-keyboard-response","407","486392","0.0-8.0-0.53","FL","zm0cozjsh6","1440","900","en","al05rt16","null","","","","","","","","learning/Slide134.JPG","null","","","","",""
"","html-keyboard-response","408","487547","0.0-8.0-1.53","FL","zm0cozjsh6","1440","900","en","al05rt16","null","","","","learningBlock2","","","","That was a dep.","null","","","","",""
"","html-keyboard-response","409","488551","0.0-8.0-2.53","FL","zm0cozjsh6","1440","900","en","al05rt16","null","","","","learningBlock2","","","","<div style=""font-size:60px;""> </div>","null","FL","learning/Slide134.JPG","That was a dep.","",""
"","image-keyboard-response","410","488731","0.0-8.0-0.54","FL","zm0cozjsh6","1440","900","en","al05rt16","null","","","","","","","","learning/Slide135.JPG","null","","","","",""
"","html-keyboard-response","411","489886","0.0-8.0-1.54","FL","zm0cozjsh6","1440","900","en","al05rt16","null","","","","learningBlock2","","","","That was a tob.","null","","","","",""
"","html-keyboard-response","412","490891","0.0-8.0-2.54","FL","zm0cozjsh6","1440","900","en","al05rt16","null","","","","learningBlock2","","","","<div style=""font-size:60px;""> </div>","null","FL","learning/Slide135.JPG","That was a tob.","",""
"","image-keyboard-response","413","491070","0.0-8.0-0.55","FL","zm0cozjsh6","1440","900","en","al05rt16","null","","","","","","","","learning/Slide136.JPG","null","","","","",""
"","html-keyboard-response","414","492222","0.0-8.0-1.55","FL","zm0cozjsh6","1440","900","en","al05rt16","null","","","","learningBlock2","","","","That was a wug.","null","","","","",""
"","html-keyboard-response","415","493227","0.0-8.0-2.55","FL","zm0cozjsh6","1440","900","en","al05rt16","null","","","","learningBlock2","","","","<div style=""font-size:60px;""> </div>","null","FL","learning/Slide136.JPG","That was a wug.","",""
"","image-keyboard-response","416","493404","0.0-8.0-0.56","FL","zm0cozjsh6","1440","900","en","al05rt16","null","","","","","","","","learning/Slide137.JPG","null","","","","",""
"","html-keyboard-response","417","494559","0.0-8.0-1.56","FL","zm0cozjsh6","1440","900","en","al05rt16","null","","","","learningBlock2","","","","That was a tob.","null","","","","",""
"","html-keyboard-response","418","495564","0.0-8.0-2.56","FL","zm0cozjsh6","1440","900","en","al05rt16","null","","","","learningBlock2","","","","<div style=""font-size:60px;""> </div>","null","FL","learning/Slide137.JPG","That was a tob.","",""
"","image-keyboard-response","419","495744","0.0-8.0-0.57","FL","zm0cozjsh6","1440","900","en","al05rt16","null","","","","","","","","learning/Slide138.JPG","null","","","","",""
"","html-keyboard-response","420","496898","0.0-8.0-1.57","FL","zm0cozjsh6","1440","900","en","al05rt16","null","","","","learningBlock2","","","","That was a bim.","null","","","","",""
"","html-keyboard-response","421","497903","0.0-8.0-2.57","FL","zm0cozjsh6","1440","900","en","al05rt16","null","","","","learningBlock2","","","","<div style=""font-size:60px;""> </div>","null","FL","learning/Slide138.JPG","That was a bim.","",""
"","image-keyboard-response","422","498080","0.0-8.0-0.58","FL","zm0cozjsh6","1440","900","en","al05rt16","null","","","","","","","","learning/Slide139.JPG","null","","","","",""
"","html-keyboard-response","423","499238","0.0-8.0-1.58","FL","zm0cozjsh6","1440","900","en","al05rt16","null","","","","learningBlock2","","","","That was a wug.","null","","","","",""
"","html-keyboard-response","424","500242","0.0-8.0-2.58","FL","zm0cozjsh6","1440","900","en","al05rt16","null","","","","learningBlock2","","","","<div style=""font-size:60px;""> </div>","null","FL","learning/Slide139.JPG","That was a wug.","",""
"","image-keyboard-response","425","500423","0.0-8.0-0.59","FL","zm0cozjsh6","1440","900","en","al05rt16","null","","","","","","","","learning/Slide140.JPG","null","","","","",""
"","html-keyboard-response","426","501578","0.0-8.0-1.59","FL","zm0cozjsh6","1440","900","en","al05rt16","null","","","","learningBlock2","","","","That was a dep.","null","","","","",""
"","html-keyboard-response","427","502582","0.0-8.0-2.59","FL","zm0cozjsh6","1440","900","en","al05rt16","null","","","","learningBlock2","","","","<div style=""font-size:60px;""> </div>","null","FL","learning/Slide140.JPG","That was a dep.","",""
"","image-keyboard-response","428","502762","0.0-8.0-0.60","FL","zm0cozjsh6","1440","900","en","al05rt16","null","","","","","","","","learning/Slide141.JPG","null","","","","",""
"","html-keyboard-response","429","503919","0.0-8.0-1.60","FL","zm0cozjsh6","1440","900","en","al05rt16","null","","","","learningBlock2","","","","That was a tob.","null","","","","",""
"","html-keyboard-response","430","504924","0.0-8.0-2.60","FL","zm0cozjsh6","1440","900","en","al05rt16","null","","","","learningBlock2","","","","<div style=""font-size:60px;""> </div>","null","FL","learning/Slide141.JPG","That was a tob.","",""
"","image-keyboard-response","431","505102","0.0-8.0-0.61","FL","zm0cozjsh6","1440","900","en","al05rt16","null","","","","","","","","learning/Slide142.JPG","null","","","","",""
"","html-keyboard-response","432","506257","0.0-8.0-1.61","FL","zm0cozjsh6","1440","900","en","al05rt16","null","","","","learningBlock2","","","","That was a wug.","null","","","","",""
"","html-keyboard-response","433","507261","0.0-8.0-2.61","FL","zm0cozjsh6","1440","900","en","al05rt16","null","","","","learningBlock2","","","","<div style=""font-size:60px;""> </div>","null","FL","learning/Slide142.JPG","That was a wug.","",""
"","image-keyboard-response","434","507441","0.0-8.0-0.62","FL","zm0cozjsh6","1440","900","en","al05rt16","null","","","","","","","","learning/Slide143.JPG","null","","","","",""
"","html-keyboard-response","435","508596","0.0-8.0-1.62","FL","zm0cozjsh6","1440","900","en","al05rt16","null","","","","learningBlock2","","","","That was a bim.","null","","","","",""
"","html-keyboard-response","436","509601","0.0-8.0-2.62","FL","zm0cozjsh6","1440","900","en","al05rt16","null","","","","learningBlock2","","","","<div style=""font-size:60px;""> </div>","null","FL","learning/Slide143.JPG","That was a bim.","",""
"","image-keyboard-response","437","509781","0.0-8.0-0.63","FL","zm0cozjsh6","1440","900","en","al05rt16","null","","","","","","","","learning/Slide144.JPG","null","","","","",""
"","html-keyboard-response","438","510936","0.0-8.0-1.63","FL","zm0cozjsh6","1440","900","en","al05rt16","null","","","","learningBlock2","","","","That was a dep.","null","","","","",""
"","html-keyboard-response","439","511940","0.0-8.0-2.63","FL","zm0cozjsh6","1440","900","en","al05rt16","null","","","","learningBlock2","","","","<div style=""font-size:60px;""> </div>","null","FL","learning/Slide144.JPG","That was a dep.","",""
"","image-keyboard-response","440","512118","0.0-8.0-0.64","FL","zm0cozjsh6","1440","900","en","al05rt16","null","","","","","","","","learning/Slide145.JPG","null","","","","",""
"","html-keyboard-response","441","513273","0.0-8.0-1.64","FL","zm0cozjsh6","1440","900","en","al05rt16","null","","","","learningBlock2","","","","That was a bim.","null","","","","",""
"","html-keyboard-response","442","514278","0.0-8.0-2.64","FL","zm0cozjsh6","1440","900","en","al05rt16","null","","","","learningBlock2","","","","<div style=""font-size:60px;""> </div>","null","FL","learning/Slide145.JPG","That was a bim.","",""
"","image-keyboard-response","443","514457","0.0-8.0-0.65","FL","zm0cozjsh6","1440","900","en","al05rt16","null","","","","","","","","learning/Slide146.JPG","null","","","","",""
"","html-keyboard-response","444","515615","0.0-8.0-1.65","FL","zm0cozjsh6","1440","900","en","al05rt16","null","","","","learningBlock2","","","","That was a tob.","null","","","","",""
"","html-keyboard-response","445","516619","0.0-8.0-2.65","FL","zm0cozjsh6","1440","900","en","al05rt16","null","","","","learningBlock2","","","","<div style=""font-size:60px;""> </div>","null","FL","learning/Slide146.JPG","That was a tob.","",""
"","image-keyboard-response","446","516799","0.0-8.0-0.66","FL","zm0cozjsh6","1440","900","en","al05rt16","null","","","","","","","","learning/Slide147.JPG","null","","","","",""
"","html-keyboard-response","447","517954","0.0-8.0-1.66","FL","zm0cozjsh6","1440","900","en","al05rt16","null","","","","learningBlock2","","","","That was a wug.","null","","","","",""
"","html-keyboard-response","448","518959","0.0-8.0-2.66","FL","zm0cozjsh6","1440","900","en","al05rt16","null","","","","learningBlock2","","","","<div style=""font-size:60px;""> </div>","null","FL","learning/Slide147.JPG","That was a wug.","",""
"","image-keyboard-response","449","519138","0.0-8.0-0.67","FL","zm0cozjsh6","1440","900","en","al05rt16","null","","","","","","","","learning/Slide148.JPG","null","","","","",""
"","html-keyboard-response","450","520294","0.0-8.0-1.67","FL","zm0cozjsh6","1440","900","en","al05rt16","null","","","","learningBlock2","","","","That was a bim.","null","","","","",""
"","html-keyboard-response","451","521299","0.0-8.0-2.67","FL","zm0cozjsh6","1440","900","en","al05rt16","null","","","","learningBlock2","","","","<div style=""font-size:60px;""> </div>","null","FL","learning/Slide148.JPG","That was a bim.","",""
"","image-keyboard-response","452","521478","0.0-8.0-0.68","FL","zm0cozjsh6","1440","900","en","al05rt16","null","","","","","","","","learning/Slide149.JPG","null","","","","",""
"","html-keyboard-response","453","522633","0.0-8.0-1.68","FL","zm0cozjsh6","1440","900","en","al05rt16","null","","","","learningBlock2","","","","That was a dep.","null","","","","",""
"","html-keyboard-response","454","523637","0.0-8.0-2.68","FL","zm0cozjsh6","1440","900","en","al05rt16","null","","","","learningBlock2","","","","<div style=""font-size:60px;""> </div>","null","FL","learning/Slide149.JPG","That was a dep.","",""
"","image-keyboard-response","455","523817","0.0-8.0-0.69","FL","zm0cozjsh6","1440","900","en","al05rt16","null","","","","","","","","learning/Slide150.JPG","null","","","","",""
"","html-keyboard-response","456","524973","0.0-8.0-1.69","FL","zm0cozjsh6","1440","900","en","al05rt16","null","","","","learningBlock2","","","","That was a wug.","null","","","","",""
"","html-keyboard-response","457","525977","0.0-8.0-2.69","FL","zm0cozjsh6","1440","900","en","al05rt16","null","","","","learningBlock2","","","","<div style=""font-size:60px;""> </div>","null","FL","learning/Slide150.JPG","That was a wug.","",""
"","image-keyboard-response","458","526157","0.0-8.0-0.70","FL","zm0cozjsh6","1440","900","en","al05rt16","null","","","","","","","","learning/Slide151.JPG","null","","","","",""
"","html-keyboard-response","459","527310","0.0-8.0-1.70","FL","zm0cozjsh6","1440","900","en","al05rt16","null","","","","learningBlock2","","","","That was a dep.","null","","","","",""
"","html-keyboard-response","460","528314","0.0-8.0-2.70","FL","zm0cozjsh6","1440","900","en","al05rt16","null","","","","learningBlock2","","","","<div style=""font-size:60px;""> </div>","null","FL","learning/Slide151.JPG","That was a dep.","",""
"","image-keyboard-response","461","528491","0.0-8.0-0.71","FL","zm0cozjsh6","1440","900","en","al05rt16","null","","","","","","","","learning/Slide152.JPG","null","","","","",""
"","html-keyboard-response","462","529646","0.0-8.0-1.71","FL","zm0cozjsh6","1440","900","en","al05rt16","null","","","","learningBlock2","","","","That was a wug.","null","","","","",""
"","html-keyboard-response","463","530650","0.0-8.0-2.71","FL","zm0cozjsh6","1440","900","en","al05rt16","null","","","","learningBlock2","","","","<div style=""font-size:60px;""> </div>","null","FL","learning/Slide152.JPG","That was a wug.","",""
"","image-keyboard-response","464","530830","0.0-8.0-0.72","FL","zm0cozjsh6","1440","900","en","al05rt16","null","","","","","","","","learning/Slide153.JPG","null","","","","",""
"","html-keyboard-response","465","531985","0.0-8.0-1.72","FL","zm0cozjsh6","1440","900","en","al05rt16","null","","","","learningBlock2","","","","That was a bim.","null","","","","",""
"","html-keyboard-response","466","532990","0.0-8.0-2.72","FL","zm0cozjsh6","1440","900","en","al05rt16","null","","","","learningBlock2","","","","<div style=""font-size:60px;""> </div>","null","FL","learning/Slide153.JPG","That was a bim.","",""
"","image-keyboard-response","467","533169","0.0-8.0-0.73","FL","zm0cozjsh6","1440","900","en","al05rt16","null","","","","","","","","learning/Slide154.JPG","null","","","","",""
"","html-keyboard-response","468","534324","0.0-8.0-1.73","FL","zm0cozjsh6","1440","900","en","al05rt16","null","","","","learningBlock2","","","","That was a tob.","null","","","","",""
"","html-keyboard-response","469","535328","0.0-8.0-2.73","FL","zm0cozjsh6","1440","900","en","al05rt16","null","","","","learningBlock2","","","","<div style=""font-size:60px;""> </div>","null","FL","learning/Slide154.JPG","That was a tob.","",""
"","image-keyboard-response","470","535509","0.0-8.0-0.74","FL","zm0cozjsh6","1440","900","en","al05rt16","null","","","","","","","","learning/Slide155.JPG","null","","","","",""
"","html-keyboard-response","471","536662","0.0-8.0-1.74","FL","zm0cozjsh6","1440","900","en","al05rt16","null","","","","learningBlock2","","","","That was a dep.","null","","","","",""
"","html-keyboard-response","472","537667","0.0-8.0-2.74","FL","zm0cozjsh6","1440","900","en","al05rt16","null","","","","learningBlock2","","","","<div style=""font-size:60px;""> </div>","null","FL","learning/Slide155.JPG","That was a dep.","",""
"","image-keyboard-response","473","537847","0.0-8.0-0.75","FL","zm0cozjsh6","1440","900","en","al05rt16","null","","","","","","","","learning/Slide156.JPG","null","","","","",""
"","html-keyboard-response","474","539004","0.0-8.0-1.75","FL","zm0cozjsh6","1440","900","en","al05rt16","null","","","","learningBlock2","","","","That was a bim.","null","","","","",""
"","html-keyboard-response","475","540008","0.0-8.0-2.75","FL","zm0cozjsh6","1440","900","en","al05rt16","null","","","","learningBlock2","","","","<div style=""font-size:60px;""> </div>","null","FL","learning/Slide156.JPG","That was a bim.","",""
"","image-keyboard-response","476","540188","0.0-8.0-0.76","FL","zm0cozjsh6","1440","900","en","al05rt16","null","","","","","","","","learning/Slide157.JPG","null","","","","",""
"","html-keyboard-response","477","541343","0.0-8.0-1.76","FL","zm0cozjsh6","1440","900","en","al05rt16","null","","","","learningBlock2","","","","That was a dep.","null","","","","",""
"","html-keyboard-response","478","542348","0.0-8.0-2.76","FL","zm0cozjsh6","1440","900","en","al05rt16","null","","","","learningBlock2","","","","<div style=""font-size:60px;""> </div>","null","FL","learning/Slide157.JPG","That was a dep.","",""
"","image-keyboard-response","479","542527","0.0-8.0-0.77","FL","zm0cozjsh6","1440","900","en","al05rt16","null","","","","","","","","learning/Slide158.JPG","null","","","","",""
"","html-keyboard-response","480","543683","0.0-8.0-1.77","FL","zm0cozjsh6","1440","900","en","al05rt16","null","","","","learningBlock2","","","","That was a tob.","null","","","","",""
"","html-keyboard-response","481","544687","0.0-8.0-2.77","FL","zm0cozjsh6","1440","900","en","al05rt16","null","","","","learningBlock2","","","","<div style=""font-size:60px;""> </div>","null","FL","learning/Slide158.JPG","That was a tob.","",""
"","image-keyboard-response","482","544867","0.0-8.0-0.78","FL","zm0cozjsh6","1440","900","en","al05rt16","null","","","","","","","","learning/Slide159.JPG","null","","","","",""
"","html-keyboard-response","483","546022","0.0-8.0-1.78","FL","zm0cozjsh6","1440","900","en","al05rt16","null","","","","learningBlock2","","","","That was a dep.","null","","","","",""
"","html-keyboard-response","484","547026","0.0-8.0-2.78","FL","zm0cozjsh6","1440","900","en","al05rt16","null","","","","learningBlock2","","","","<div style=""font-size:60px;""> </div>","null","FL","learning/Slide159.JPG","That was a dep.","",""
"","image-keyboard-response","485","547204","0.0-8.0-0.79","FL","zm0cozjsh6","1440","900","en","al05rt16","null","","","","","","","","learning/Slide160.JPG","null","","","","",""
"","html-keyboard-response","486","548362","0.0-8.0-1.79","FL","zm0cozjsh6","1440","900","en","al05rt16","null","","","","learningBlock2","","","","That was a wug.","null","","","","",""
"","html-keyboard-response","487","549366","0.0-8.0-2.79","FL","zm0cozjsh6","1440","900","en","al05rt16","null","","","","learningBlock2","","","","<div style=""font-size:60px;""> </div>","null","FL","learning/Slide160.JPG","That was a wug.","",""
"","resize2","488","553427","0.0-9.0","FL","zm0cozjsh6","1440","900","en","al05rt16","","","","","","","104","1.04","","","","","","",""
