"success","trial_type","trial_index","time_elapsed","internal_node_id","condition","subject","screen_width","screen_height","language","codeword","rt","responses","url","view_history","test_part","final_height_px","final_width_px","scale_factor","stimulus","key_press","learningType","presentedImage","presentedLabel","button_pressed","response"
"true","fullscreen","0","2230","0.0-0.0","LF","wrmngomh1f","1280","720","de","at08ed04","","","","","","","","","","","","","","",""
"","survey-html-form","1","9711","0.0-1.0","LF","wrmngomh1f","1280","720","de","at08ed04","7473.499999963678","{""language"":""de""}","","","","","","","","","","","","",""
"","external-html","2","16884","0.0-2.0-0.0","LF","wrmngomh1f","1280","720","de","at08ed04","7155.269999988377","","text/information.html","","","","","","","","","","","",""
"","external-html","3","25227","0.0-2.0-1.0","LF","wrmngomh1f","1280","720","de","at08ed04","8287.860000040382","","text/consent.html","","","","","","","","","","","",""
"","survey-html-form","4","100415","0.0-2.0-2.0","LF","wrmngomh1f","1280","720","de","at08ed04","75183.48000000697","{""codeword_enter"":""at08ed04""}","","","","","","","","","","","","",""
"","instructions","5","489717","0.0-4.0","LF","wrmngomh1f","1280","720","de","at08ed04","NA","","","[{""page_index"":0,""viewing_time"":360194.46999998763},{""page_index"":1,""viewing_time"":27601.630000048317}]","instructions","","","","","","","","","",""
"","resize","6","584345","0.0-5.0","LF","wrmngomh1f","1280","720","de","at08ed04","","","","","","","347","2.203174603174603","","","","","","",""
"","html-keyboard-response","7","585350","0.0-6.0-0.0","LF","wrmngomh1f","1280","720","de","at08ed04","null","","","","learningBlock1","","","","This is a tob:","null","","","","",""
"","image-keyboard-response","8","585679","0.0-6.0-1.0","LF","wrmngomh1f","1280","720","de","at08ed04","null","","","","","","","","learning/Slide1.JPG","null","","","","",""
"","html-keyboard-response","9","586681","0.0-6.0-2.0","LF","wrmngomh1f","1280","720","de","at08ed04","null","","","","learningBlock1","","","","<div style=""font-size:60px;""> </div>","null","LF","learning/Slide1.JPG","This is a tob:","",""
"","html-keyboard-response","10","587685","0.0-6.0-0.1","LF","wrmngomh1f","1280","720","de","at08ed04","null","","","","learningBlock1","","","","This is a wug:","null","","","","",""
"","image-keyboard-response","11","588012","0.0-6.0-1.1","LF","wrmngomh1f","1280","720","de","at08ed04","null","","","","","","","","learning/Slide2.JPG","null","","","","",""
"","html-keyboard-response","12","589015","0.0-6.0-2.1","LF","wrmngomh1f","1280","720","de","at08ed04","null","","","","learningBlock1","","","","<div style=""font-size:60px;""> </div>","null","LF","learning/Slide2.JPG","This is a wug:","",""
"","html-keyboard-response","13","590017","0.0-6.0-0.2","LF","wrmngomh1f","1280","720","de","at08ed04","null","","","","learningBlock1","","","","This is a bim:","null","","","","",""
"","image-keyboard-response","14","590344","0.0-6.0-1.2","LF","wrmngomh1f","1280","720","de","at08ed04","null","","","","","","","","learning/Slide3.JPG","null","","","","",""
"","html-keyboard-response","15","591346","0.0-6.0-2.2","LF","wrmngomh1f","1280","720","de","at08ed04","null","","","","learningBlock1","","","","<div style=""font-size:60px;""> </div>","null","LF","learning/Slide3.JPG","This is a bim:","",""
"","html-keyboard-response","16","592348","0.0-6.0-0.3","LF","wrmngomh1f","1280","720","de","at08ed04","null","","","","learningBlock1","","","","This is a dep:","null","","","","",""
"","image-keyboard-response","17","592676","0.0-6.0-1.3","LF","wrmngomh1f","1280","720","de","at08ed04","null","","","","","","","","learning/Slide4.JPG","null","","","","",""
"","html-keyboard-response","18","593679","0.0-6.0-2.3","LF","wrmngomh1f","1280","720","de","at08ed04","null","","","","learningBlock1","","","","<div style=""font-size:60px;""> </div>","null","LF","learning/Slide4.JPG","This is a dep:","",""
"","html-keyboard-response","19","594681","0.0-6.0-0.4","LF","wrmngomh1f","1280","720","de","at08ed04","null","","","","learningBlock1","","","","This is a wug:","null","","","","",""
"","image-keyboard-response","20","595010","0.0-6.0-1.4","LF","wrmngomh1f","1280","720","de","at08ed04","null","","","","","","","","learning/Slide5.JPG","null","","","","",""
"","html-keyboard-response","21","596012","0.0-6.0-2.4","LF","wrmngomh1f","1280","720","de","at08ed04","null","","","","learningBlock1","","","","<div style=""font-size:60px;""> </div>","null","LF","learning/Slide5.JPG","This is a wug:","",""
"","html-keyboard-response","22","597014","0.0-6.0-0.5","LF","wrmngomh1f","1280","720","de","at08ed04","null","","","","learningBlock1","","","","This is a dep:","null","","","","",""
"","image-keyboard-response","23","597341","0.0-6.0-1.5","LF","wrmngomh1f","1280","720","de","at08ed04","null","","","","","","","","learning/Slide6.JPG","null","","","","",""
"","html-keyboard-response","24","598344","0.0-6.0-2.5","LF","wrmngomh1f","1280","720","de","at08ed04","null","","","","learningBlock1","","","","<div style=""font-size:60px;""> </div>","null","LF","learning/Slide6.JPG","This is a dep:","",""
"","html-keyboard-response","25","599347","0.0-6.0-0.6","LF","wrmngomh1f","1280","720","de","at08ed04","null","","","","learningBlock1","","","","This is a wug:","null","","","","",""
"","image-keyboard-response","26","599674","0.0-6.0-1.6","LF","wrmngomh1f","1280","720","de","at08ed04","null","","","","","","","","learning/Slide7.JPG","null","","","","",""
"","html-keyboard-response","27","600678","0.0-6.0-2.6","LF","wrmngomh1f","1280","720","de","at08ed04","null","","","","learningBlock1","","","","<div style=""font-size:60px;""> </div>","null","LF","learning/Slide7.JPG","This is a wug:","",""
"","html-keyboard-response","28","601682","0.0-6.0-0.7","LF","wrmngomh1f","1280","720","de","at08ed04","null","","","","learningBlock1","","","","This is a bim:","null","","","","",""
"","image-keyboard-response","29","602011","0.0-6.0-1.7","LF","wrmngomh1f","1280","720","de","at08ed04","null","","","","","","","","learning/Slide8.JPG","null","","","","",""
"","html-keyboard-response","30","603014","0.0-6.0-2.7","LF","wrmngomh1f","1280","720","de","at08ed04","null","","","","learningBlock1","","","","<div style=""font-size:60px;""> </div>","null","LF","learning/Slide8.JPG","This is a bim:","",""
"","html-keyboard-response","31","604017","0.0-6.0-0.8","LF","wrmngomh1f","1280","720","de","at08ed04","null","","","","learningBlock1","","","","This is a wug:","null","","","","",""
"","image-keyboard-response","32","604344","0.0-6.0-1.8","LF","wrmngomh1f","1280","720","de","at08ed04","null","","","","","","","","learning/Slide9.JPG","null","","","","",""
"","html-keyboard-response","33","605347","0.0-6.0-2.8","LF","wrmngomh1f","1280","720","de","at08ed04","null","","","","learningBlock1","","","","<div style=""font-size:60px;""> </div>","null","LF","learning/Slide9.JPG","This is a wug:","",""
"","html-keyboard-response","34","606352","0.0-6.0-0.9","LF","wrmngomh1f","1280","720","de","at08ed04","null","","","","learningBlock1","","","","This is a dep:","null","","","","",""
"","image-keyboard-response","35","606680","0.0-6.0-1.9","LF","wrmngomh1f","1280","720","de","at08ed04","null","","","","","","","","learning/Slide10.JPG","null","","","","",""
"","html-keyboard-response","36","607682","0.0-6.0-2.9","LF","wrmngomh1f","1280","720","de","at08ed04","null","","","","learningBlock1","","","","<div style=""font-size:60px;""> </div>","null","LF","learning/Slide10.JPG","This is a dep:","",""
"","html-keyboard-response","37","608684","0.0-6.0-0.10","LF","wrmngomh1f","1280","720","de","at08ed04","null","","","","learningBlock1","","","","This is a tob:","null","","","","",""
"","image-keyboard-response","38","609012","0.0-6.0-1.10","LF","wrmngomh1f","1280","720","de","at08ed04","null","","","","","","","","learning/Slide11.JPG","null","","","","",""
"","html-keyboard-response","39","610015","0.0-6.0-2.10","LF","wrmngomh1f","1280","720","de","at08ed04","null","","","","learningBlock1","","","","<div style=""font-size:60px;""> </div>","null","LF","learning/Slide11.JPG","This is a tob:","",""
"","html-keyboard-response","40","611024","0.0-6.0-0.11","LF","wrmngomh1f","1280","720","de","at08ed04","null","","","","learningBlock1","","","","This is a dep:","null","","","","",""
"","image-keyboard-response","41","611352","0.0-6.0-1.11","LF","wrmngomh1f","1280","720","de","at08ed04","null","","","","","","","","learning/Slide12.JPG","null","","","","",""
"","html-keyboard-response","42","612354","0.0-6.0-2.11","LF","wrmngomh1f","1280","720","de","at08ed04","null","","","","learningBlock1","","","","<div style=""font-size:60px;""> </div>","null","LF","learning/Slide12.JPG","This is a dep:","",""
"","html-keyboard-response","43","613356","0.0-6.0-0.12","LF","wrmngomh1f","1280","720","de","at08ed04","null","","","","learningBlock1","","","","This is a bim:","null","","","","",""
"","image-keyboard-response","44","613684","0.0-6.0-1.12","LF","wrmngomh1f","1280","720","de","at08ed04","null","","","","","","","","learning/Slide13.JPG","null","","","","",""
"","html-keyboard-response","45","614687","0.0-6.0-2.12","LF","wrmngomh1f","1280","720","de","at08ed04","null","","","","learningBlock1","","","","<div style=""font-size:60px;""> </div>","null","LF","learning/Slide13.JPG","This is a bim:","",""
"","html-keyboard-response","46","615688","0.0-6.0-0.13","LF","wrmngomh1f","1280","720","de","at08ed04","null","","","","learningBlock1","","","","This is a wug:","null","","","","",""
"","image-keyboard-response","47","616016","0.0-6.0-1.13","LF","wrmngomh1f","1280","720","de","at08ed04","null","","","","","","","","learning/Slide14.JPG","null","","","","",""
"","html-keyboard-response","48","617019","0.0-6.0-2.13","LF","wrmngomh1f","1280","720","de","at08ed04","null","","","","learningBlock1","","","","<div style=""font-size:60px;""> </div>","null","LF","learning/Slide14.JPG","This is a wug:","",""
"","html-keyboard-response","49","618022","0.0-6.0-0.14","LF","wrmngomh1f","1280","720","de","at08ed04","null","","","","learningBlock1","","","","This is a tob:","null","","","","",""
"","image-keyboard-response","50","618349","0.0-6.0-1.14","LF","wrmngomh1f","1280","720","de","at08ed04","null","","","","","","","","learning/Slide15.JPG","null","","","","",""
"","html-keyboard-response","51","619351","0.0-6.0-2.14","LF","wrmngomh1f","1280","720","de","at08ed04","null","","","","learningBlock1","","","","<div style=""font-size:60px;""> </div>","null","LF","learning/Slide15.JPG","This is a tob:","",""
"","html-keyboard-response","52","620353","0.0-6.0-0.15","LF","wrmngomh1f","1280","720","de","at08ed04","null","","","","learningBlock1","","","","This is a dep:","null","","","","",""
"","image-keyboard-response","53","620680","0.0-6.0-1.15","LF","wrmngomh1f","1280","720","de","at08ed04","null","","","","","","","","learning/Slide16.JPG","null","","","","",""
"","html-keyboard-response","54","621683","0.0-6.0-2.15","LF","wrmngomh1f","1280","720","de","at08ed04","null","","","","learningBlock1","","","","<div style=""font-size:60px;""> </div>","null","LF","learning/Slide16.JPG","This is a dep:","",""
"","html-keyboard-response","55","622686","0.0-6.0-0.16","LF","wrmngomh1f","1280","720","de","at08ed04","null","","","","learningBlock1","","","","This is a bim:","null","","","","",""
"","image-keyboard-response","56","623013","0.0-6.0-1.16","LF","wrmngomh1f","1280","720","de","at08ed04","null","","","","","","","","learning/Slide17.JPG","null","","","","",""
"","html-keyboard-response","57","624015","0.0-6.0-2.16","LF","wrmngomh1f","1280","720","de","at08ed04","null","","","","learningBlock1","","","","<div style=""font-size:60px;""> </div>","null","LF","learning/Slide17.JPG","This is a bim:","",""
"","html-keyboard-response","58","625017","0.0-6.0-0.17","LF","wrmngomh1f","1280","720","de","at08ed04","null","","","","learningBlock1","","","","This is a tob:","null","","","","",""
"","image-keyboard-response","59","625345","0.0-6.0-1.17","LF","wrmngomh1f","1280","720","de","at08ed04","null","","","","","","","","learning/Slide18.JPG","null","","","","",""
"","html-keyboard-response","60","626347","0.0-6.0-2.17","LF","wrmngomh1f","1280","720","de","at08ed04","null","","","","learningBlock1","","","","<div style=""font-size:60px;""> </div>","null","LF","learning/Slide18.JPG","This is a tob:","",""
"","html-keyboard-response","61","627350","0.0-6.0-0.18","LF","wrmngomh1f","1280","720","de","at08ed04","null","","","","learningBlock1","","","","This is a wug:","null","","","","",""
"","image-keyboard-response","62","627678","0.0-6.0-1.18","LF","wrmngomh1f","1280","720","de","at08ed04","null","","","","","","","","learning/Slide19.JPG","null","","","","",""
"","html-keyboard-response","63","628681","0.0-6.0-2.18","LF","wrmngomh1f","1280","720","de","at08ed04","null","","","","learningBlock1","","","","<div style=""font-size:60px;""> </div>","null","LF","learning/Slide19.JPG","This is a wug:","",""
"","html-keyboard-response","64","629683","0.0-6.0-0.19","LF","wrmngomh1f","1280","720","de","at08ed04","null","","","","learningBlock1","","","","This is a bim:","null","","","","",""
"","image-keyboard-response","65","630012","0.0-6.0-1.19","LF","wrmngomh1f","1280","720","de","at08ed04","null","","","","","","","","learning/Slide20.JPG","null","","","","",""
"","html-keyboard-response","66","631015","0.0-6.0-2.19","LF","wrmngomh1f","1280","720","de","at08ed04","null","","","","learningBlock1","","","","<div style=""font-size:60px;""> </div>","null","LF","learning/Slide20.JPG","This is a bim:","",""
"","html-keyboard-response","67","632018","0.0-6.0-0.20","LF","wrmngomh1f","1280","720","de","at08ed04","null","","","","learningBlock1","","","","This is a dep:","null","","","","",""
"","image-keyboard-response","68","632347","0.0-6.0-1.20","LF","wrmngomh1f","1280","720","de","at08ed04","null","","","","","","","","learning/Slide21.JPG","null","","","","",""
"","html-keyboard-response","69","633353","0.0-6.0-2.20","LF","wrmngomh1f","1280","720","de","at08ed04","null","","","","learningBlock1","","","","<div style=""font-size:60px;""> </div>","null","LF","learning/Slide21.JPG","This is a dep:","",""
"","html-keyboard-response","70","634356","0.0-6.0-0.21","LF","wrmngomh1f","1280","720","de","at08ed04","null","","","","learningBlock1","","","","This is a bim:","null","","","","",""
"","image-keyboard-response","71","634684","0.0-6.0-1.21","LF","wrmngomh1f","1280","720","de","at08ed04","null","","","","","","","","learning/Slide22.JPG","null","","","","",""
"","html-keyboard-response","72","635686","0.0-6.0-2.21","LF","wrmngomh1f","1280","720","de","at08ed04","null","","","","learningBlock1","","","","<div style=""font-size:60px;""> </div>","null","LF","learning/Slide22.JPG","This is a bim:","",""
"","html-keyboard-response","73","636692","0.0-6.0-0.22","LF","wrmngomh1f","1280","720","de","at08ed04","null","","","","learningBlock1","","","","This is a tob:","null","","","","",""
"","image-keyboard-response","74","637021","0.0-6.0-1.22","LF","wrmngomh1f","1280","720","de","at08ed04","null","","","","","","","","learning/Slide23.JPG","null","","","","",""
"","html-keyboard-response","75","638023","0.0-6.0-2.22","LF","wrmngomh1f","1280","720","de","at08ed04","null","","","","learningBlock1","","","","<div style=""font-size:60px;""> </div>","null","LF","learning/Slide23.JPG","This is a tob:","",""
"","html-keyboard-response","76","639025","0.0-6.0-0.23","LF","wrmngomh1f","1280","720","de","at08ed04","null","","","","learningBlock1","","","","This is a wug:","null","","","","",""
"","image-keyboard-response","77","639354","0.0-6.0-1.23","LF","wrmngomh1f","1280","720","de","at08ed04","null","","","","","","","","learning/Slide24.JPG","null","","","","",""
"","html-keyboard-response","78","640357","0.0-6.0-2.23","LF","wrmngomh1f","1280","720","de","at08ed04","null","","","","learningBlock1","","","","<div style=""font-size:60px;""> </div>","null","LF","learning/Slide24.JPG","This is a wug:","",""
"","html-keyboard-response","79","641359","0.0-6.0-0.24","LF","wrmngomh1f","1280","720","de","at08ed04","null","","","","learningBlock1","","","","This is a dep:","null","","","","",""
"","image-keyboard-response","80","641687","0.0-6.0-1.24","LF","wrmngomh1f","1280","720","de","at08ed04","null","","","","","","","","learning/Slide25.JPG","null","","","","",""
"","html-keyboard-response","81","642690","0.0-6.0-2.24","LF","wrmngomh1f","1280","720","de","at08ed04","null","","","","learningBlock1","","","","<div style=""font-size:60px;""> </div>","null","LF","learning/Slide25.JPG","This is a dep:","",""
"","html-keyboard-response","82","643692","0.0-6.0-0.25","LF","wrmngomh1f","1280","720","de","at08ed04","null","","","","learningBlock1","","","","This is a wug:","null","","","","",""
"","image-keyboard-response","83","644022","0.0-6.0-1.25","LF","wrmngomh1f","1280","720","de","at08ed04","null","","","","","","","","learning/Slide26.JPG","null","","","","",""
"","html-keyboard-response","84","645025","0.0-6.0-2.25","LF","wrmngomh1f","1280","720","de","at08ed04","null","","","","learningBlock1","","","","<div style=""font-size:60px;""> </div>","null","LF","learning/Slide26.JPG","This is a wug:","",""
"","html-keyboard-response","85","646027","0.0-6.0-0.26","LF","wrmngomh1f","1280","720","de","at08ed04","null","","","","learningBlock1","","","","This is a bim:","null","","","","",""
"","image-keyboard-response","86","646354","0.0-6.0-1.26","LF","wrmngomh1f","1280","720","de","at08ed04","null","","","","","","","","learning/Slide27.JPG","null","","","","",""
"","html-keyboard-response","87","647357","0.0-6.0-2.26","LF","wrmngomh1f","1280","720","de","at08ed04","null","","","","learningBlock1","","","","<div style=""font-size:60px;""> </div>","null","LF","learning/Slide27.JPG","This is a bim:","",""
"","html-keyboard-response","88","648358","0.0-6.0-0.27","LF","wrmngomh1f","1280","720","de","at08ed04","null","","","","learningBlock1","","","","This is a dep:","null","","","","",""
"","image-keyboard-response","89","648686","0.0-6.0-1.27","LF","wrmngomh1f","1280","720","de","at08ed04","null","","","","","","","","learning/Slide28.JPG","null","","","","",""
"","html-keyboard-response","90","649688","0.0-6.0-2.27","LF","wrmngomh1f","1280","720","de","at08ed04","null","","","","learningBlock1","","","","<div style=""font-size:60px;""> </div>","null","LF","learning/Slide28.JPG","This is a dep:","",""
"","html-keyboard-response","91","650690","0.0-6.0-0.28","LF","wrmngomh1f","1280","720","de","at08ed04","null","","","","learningBlock1","","","","This is a tob:","null","","","","",""
"","image-keyboard-response","92","651018","0.0-6.0-1.28","LF","wrmngomh1f","1280","720","de","at08ed04","null","","","","","","","","learning/Slide29.JPG","null","","","","",""
"","html-keyboard-response","93","652021","0.0-6.0-2.28","LF","wrmngomh1f","1280","720","de","at08ed04","null","","","","learningBlock1","","","","<div style=""font-size:60px;""> </div>","null","LF","learning/Slide29.JPG","This is a tob:","",""
"","html-keyboard-response","94","653022","0.0-6.0-0.29","LF","wrmngomh1f","1280","720","de","at08ed04","null","","","","learningBlock1","","","","This is a dep:","null","","","","",""
"","image-keyboard-response","95","653352","0.0-6.0-1.29","LF","wrmngomh1f","1280","720","de","at08ed04","null","","","","","","","","learning/Slide30.JPG","null","","","","",""
"","html-keyboard-response","96","654354","0.0-6.0-2.29","LF","wrmngomh1f","1280","720","de","at08ed04","null","","","","learningBlock1","","","","<div style=""font-size:60px;""> </div>","null","LF","learning/Slide30.JPG","This is a dep:","",""
"","html-keyboard-response","97","655357","0.0-6.0-0.30","LF","wrmngomh1f","1280","720","de","at08ed04","null","","","","learningBlock1","","","","This is a wug:","null","","","","",""
"","image-keyboard-response","98","655685","0.0-6.0-1.30","LF","wrmngomh1f","1280","720","de","at08ed04","null","","","","","","","","learning/Slide31.JPG","null","","","","",""
"","html-keyboard-response","99","656688","0.0-6.0-2.30","LF","wrmngomh1f","1280","720","de","at08ed04","null","","","","learningBlock1","","","","<div style=""font-size:60px;""> </div>","null","LF","learning/Slide31.JPG","This is a wug:","",""
"","html-keyboard-response","100","657691","0.0-6.0-0.31","LF","wrmngomh1f","1280","720","de","at08ed04","null","","","","learningBlock1","","","","This is a tob:","null","","","","",""
"","image-keyboard-response","101","658018","0.0-6.0-1.31","LF","wrmngomh1f","1280","720","de","at08ed04","null","","","","","","","","learning/Slide32.JPG","null","","","","",""
"","html-keyboard-response","102","659020","0.0-6.0-2.31","LF","wrmngomh1f","1280","720","de","at08ed04","null","","","","learningBlock1","","","","<div style=""font-size:60px;""> </div>","null","LF","learning/Slide32.JPG","This is a tob:","",""
"","html-keyboard-response","103","660022","0.0-6.0-0.32","LF","wrmngomh1f","1280","720","de","at08ed04","null","","","","learningBlock1","","","","This is a bim:","null","","","","",""
"","image-keyboard-response","104","660349","0.0-6.0-1.32","LF","wrmngomh1f","1280","720","de","at08ed04","null","","","","","","","","learning/Slide33.JPG","null","","","","",""
"","html-keyboard-response","105","661352","0.0-6.0-2.32","LF","wrmngomh1f","1280","720","de","at08ed04","null","","","","learningBlock1","","","","<div style=""font-size:60px;""> </div>","null","LF","learning/Slide33.JPG","This is a bim:","",""
"","html-keyboard-response","106","662355","0.0-6.0-0.33","LF","wrmngomh1f","1280","720","de","at08ed04","null","","","","learningBlock1","","","","This is a tob:","null","","","","",""
"","image-keyboard-response","107","662684","0.0-6.0-1.33","LF","wrmngomh1f","1280","720","de","at08ed04","null","","","","","","","","learning/Slide34.JPG","null","","","","",""
"","html-keyboard-response","108","663687","0.0-6.0-2.33","LF","wrmngomh1f","1280","720","de","at08ed04","null","","","","learningBlock1","","","","<div style=""font-size:60px;""> </div>","null","LF","learning/Slide34.JPG","This is a tob:","",""
"","html-keyboard-response","109","664689","0.0-6.0-0.34","LF","wrmngomh1f","1280","720","de","at08ed04","null","","","","learningBlock1","","","","This is a bim:","null","","","","",""
"","image-keyboard-response","110","665017","0.0-6.0-1.34","LF","wrmngomh1f","1280","720","de","at08ed04","null","","","","","","","","learning/Slide35.JPG","null","","","","",""
"","html-keyboard-response","111","666019","0.0-6.0-2.34","LF","wrmngomh1f","1280","720","de","at08ed04","null","","","","learningBlock1","","","","<div style=""font-size:60px;""> </div>","null","LF","learning/Slide35.JPG","This is a bim:","",""
"","html-keyboard-response","112","667022","0.0-6.0-0.35","LF","wrmngomh1f","1280","720","de","at08ed04","null","","","","learningBlock1","","","","This is a dep:","null","","","","",""
"","image-keyboard-response","113","667349","0.0-6.0-1.35","LF","wrmngomh1f","1280","720","de","at08ed04","null","","","","","","","","learning/Slide36.JPG","null","","","","",""
"","html-keyboard-response","114","668352","0.0-6.0-2.35","LF","wrmngomh1f","1280","720","de","at08ed04","null","","","","learningBlock1","","","","<div style=""font-size:60px;""> </div>","null","LF","learning/Slide36.JPG","This is a dep:","",""
"","html-keyboard-response","115","669364","0.0-6.0-0.36","LF","wrmngomh1f","1280","720","de","at08ed04","null","","","","learningBlock1","","","","This is a tob:","null","","","","",""
"","image-keyboard-response","116","669691","0.0-6.0-1.36","LF","wrmngomh1f","1280","720","de","at08ed04","null","","","","","","","","learning/Slide37.JPG","null","","","","",""
"","html-keyboard-response","117","670694","0.0-6.0-2.36","LF","wrmngomh1f","1280","720","de","at08ed04","null","","","","learningBlock1","","","","<div style=""font-size:60px;""> </div>","null","LF","learning/Slide37.JPG","This is a tob:","",""
"","html-keyboard-response","118","671697","0.0-6.0-0.37","LF","wrmngomh1f","1280","720","de","at08ed04","null","","","","learningBlock1","","","","This is a wug:","null","","","","",""
"","image-keyboard-response","119","672024","0.0-6.0-1.37","LF","wrmngomh1f","1280","720","de","at08ed04","null","","","","","","","","learning/Slide38.JPG","null","","","","",""
"","html-keyboard-response","120","673027","0.0-6.0-2.37","LF","wrmngomh1f","1280","720","de","at08ed04","null","","","","learningBlock1","","","","<div style=""font-size:60px;""> </div>","null","LF","learning/Slide38.JPG","This is a wug:","",""
"","html-keyboard-response","121","674030","0.0-6.0-0.38","LF","wrmngomh1f","1280","720","de","at08ed04","null","","","","learningBlock1","","","","This is a bim:","null","","","","",""
"","image-keyboard-response","122","674359","0.0-6.0-1.38","LF","wrmngomh1f","1280","720","de","at08ed04","null","","","","","","","","learning/Slide39.JPG","null","","","","",""
"","html-keyboard-response","123","675362","0.0-6.0-2.38","LF","wrmngomh1f","1280","720","de","at08ed04","null","","","","learningBlock1","","","","<div style=""font-size:60px;""> </div>","null","LF","learning/Slide39.JPG","This is a bim:","",""
"","html-keyboard-response","124","676364","0.0-6.0-0.39","LF","wrmngomh1f","1280","720","de","at08ed04","null","","","","learningBlock1","","","","This is a tob:","null","","","","",""
"","image-keyboard-response","125","676691","0.0-6.0-1.39","LF","wrmngomh1f","1280","720","de","at08ed04","null","","","","","","","","learning/Slide40.JPG","null","","","","",""
"","html-keyboard-response","126","677694","0.0-6.0-2.39","LF","wrmngomh1f","1280","720","de","at08ed04","null","","","","learningBlock1","","","","<div style=""font-size:60px;""> </div>","null","LF","learning/Slide40.JPG","This is a tob:","",""
"","html-keyboard-response","127","678697","0.0-6.0-0.40","LF","wrmngomh1f","1280","720","de","at08ed04","null","","","","learningBlock1","","","","This is a bim:","null","","","","",""
"","image-keyboard-response","128","679025","0.0-6.0-1.40","LF","wrmngomh1f","1280","720","de","at08ed04","null","","","","","","","","learning/Slide41.JPG","null","","","","",""
"","html-keyboard-response","129","680027","0.0-6.0-2.40","LF","wrmngomh1f","1280","720","de","at08ed04","null","","","","learningBlock1","","","","<div style=""font-size:60px;""> </div>","null","LF","learning/Slide41.JPG","This is a bim:","",""
"","html-keyboard-response","130","681029","0.0-6.0-0.41","LF","wrmngomh1f","1280","720","de","at08ed04","null","","","","learningBlock1","","","","This is a dep:","null","","","","",""
"","image-keyboard-response","131","681357","0.0-6.0-1.41","LF","wrmngomh1f","1280","720","de","at08ed04","null","","","","","","","","learning/Slide42.JPG","null","","","","",""
"","html-keyboard-response","132","682359","0.0-6.0-2.41","LF","wrmngomh1f","1280","720","de","at08ed04","null","","","","learningBlock1","","","","<div style=""font-size:60px;""> </div>","null","LF","learning/Slide42.JPG","This is a dep:","",""
"","html-keyboard-response","133","683361","0.0-6.0-0.42","LF","wrmngomh1f","1280","720","de","at08ed04","null","","","","learningBlock1","","","","This is a wug:","null","","","","",""
"","image-keyboard-response","134","683688","0.0-6.0-1.42","LF","wrmngomh1f","1280","720","de","at08ed04","null","","","","","","","","learning/Slide43.JPG","null","","","","",""
"","html-keyboard-response","135","684691","0.0-6.0-2.42","LF","wrmngomh1f","1280","720","de","at08ed04","null","","","","learningBlock1","","","","<div style=""font-size:60px;""> </div>","null","LF","learning/Slide43.JPG","This is a wug:","",""
"","html-keyboard-response","136","685693","0.0-6.0-0.43","LF","wrmngomh1f","1280","720","de","at08ed04","null","","","","learningBlock1","","","","This is a bim:","null","","","","",""
"","image-keyboard-response","137","686021","0.0-6.0-1.43","LF","wrmngomh1f","1280","720","de","at08ed04","null","","","","","","","","learning/Slide44.JPG","null","","","","",""
"","html-keyboard-response","138","687024","0.0-6.0-2.43","LF","wrmngomh1f","1280","720","de","at08ed04","null","","","","learningBlock1","","","","<div style=""font-size:60px;""> </div>","null","LF","learning/Slide44.JPG","This is a bim:","",""
"","html-keyboard-response","139","688026","0.0-6.0-0.44","LF","wrmngomh1f","1280","720","de","at08ed04","null","","","","learningBlock1","","","","This is a wug:","null","","","","",""
"","image-keyboard-response","140","688355","0.0-6.0-1.44","LF","wrmngomh1f","1280","720","de","at08ed04","null","","","","","","","","learning/Slide45.JPG","null","","","","",""
"","html-keyboard-response","141","689358","0.0-6.0-2.44","LF","wrmngomh1f","1280","720","de","at08ed04","null","","","","learningBlock1","","","","<div style=""font-size:60px;""> </div>","null","LF","learning/Slide45.JPG","This is a wug:","",""
"","html-keyboard-response","142","690360","0.0-6.0-0.45","LF","wrmngomh1f","1280","720","de","at08ed04","null","","","","learningBlock1","","","","This is a dep:","null","","","","",""
"","image-keyboard-response","143","690692","0.0-6.0-1.45","LF","wrmngomh1f","1280","720","de","at08ed04","null","","","","","","","","learning/Slide46.JPG","null","","","","",""
"","html-keyboard-response","144","691694","0.0-6.0-2.45","LF","wrmngomh1f","1280","720","de","at08ed04","null","","","","learningBlock1","","","","<div style=""font-size:60px;""> </div>","null","LF","learning/Slide46.JPG","This is a dep:","",""
"","html-keyboard-response","145","692696","0.0-6.0-0.46","LF","wrmngomh1f","1280","720","de","at08ed04","null","","","","learningBlock1","","","","This is a tob:","null","","","","",""
"","image-keyboard-response","146","693024","0.0-6.0-1.46","LF","wrmngomh1f","1280","720","de","at08ed04","null","","","","","","","","learning/Slide47.JPG","null","","","","",""
"","html-keyboard-response","147","694027","0.0-6.0-2.46","LF","wrmngomh1f","1280","720","de","at08ed04","null","","","","learningBlock1","","","","<div style=""font-size:60px;""> </div>","null","LF","learning/Slide47.JPG","This is a tob:","",""
"","html-keyboard-response","148","695029","0.0-6.0-0.47","LF","wrmngomh1f","1280","720","de","at08ed04","null","","","","learningBlock1","","","","This is a bim:","null","","","","",""
"","image-keyboard-response","149","695358","0.0-6.0-1.47","LF","wrmngomh1f","1280","720","de","at08ed04","null","","","","","","","","learning/Slide48.JPG","null","","","","",""
"","html-keyboard-response","150","696372","0.0-6.0-2.47","LF","wrmngomh1f","1280","720","de","at08ed04","null","","","","learningBlock1","","","","<div style=""font-size:60px;""> </div>","null","LF","learning/Slide48.JPG","This is a bim:","",""
"","html-keyboard-response","151","697374","0.0-6.0-0.48","LF","wrmngomh1f","1280","720","de","at08ed04","null","","","","learningBlock1","","","","This is a dep:","null","","","","",""
"","image-keyboard-response","152","697701","0.0-6.0-1.48","LF","wrmngomh1f","1280","720","de","at08ed04","null","","","","","","","","learning/Slide49.JPG","null","","","","",""
"","html-keyboard-response","153","698704","0.0-6.0-2.48","LF","wrmngomh1f","1280","720","de","at08ed04","null","","","","learningBlock1","","","","<div style=""font-size:60px;""> </div>","null","LF","learning/Slide49.JPG","This is a dep:","",""
"","html-keyboard-response","154","699707","0.0-6.0-0.49","LF","wrmngomh1f","1280","720","de","at08ed04","null","","","","learningBlock1","","","","This is a tob:","null","","","","",""
"","image-keyboard-response","155","700034","0.0-6.0-1.49","LF","wrmngomh1f","1280","720","de","at08ed04","null","","","","","","","","learning/Slide50.JPG","null","","","","",""
"","html-keyboard-response","156","701036","0.0-6.0-2.49","LF","wrmngomh1f","1280","720","de","at08ed04","null","","","","learningBlock1","","","","<div style=""font-size:60px;""> </div>","null","LF","learning/Slide50.JPG","This is a tob:","",""
"","html-keyboard-response","157","702039","0.0-6.0-0.50","LF","wrmngomh1f","1280","720","de","at08ed04","null","","","","learningBlock1","","","","This is a bim:","null","","","","",""
"","image-keyboard-response","158","702367","0.0-6.0-1.50","LF","wrmngomh1f","1280","720","de","at08ed04","null","","","","","","","","learning/Slide51.JPG","null","","","","",""
"","html-keyboard-response","159","703369","0.0-6.0-2.50","LF","wrmngomh1f","1280","720","de","at08ed04","null","","","","learningBlock1","","","","<div style=""font-size:60px;""> </div>","null","LF","learning/Slide51.JPG","This is a bim:","",""
"","html-keyboard-response","160","704371","0.0-6.0-0.51","LF","wrmngomh1f","1280","720","de","at08ed04","null","","","","learningBlock1","","","","This is a wug:","null","","","","",""
"","image-keyboard-response","161","704701","0.0-6.0-1.51","LF","wrmngomh1f","1280","720","de","at08ed04","null","","","","","","","","learning/Slide52.JPG","null","","","","",""
"","html-keyboard-response","162","705705","0.0-6.0-2.51","LF","wrmngomh1f","1280","720","de","at08ed04","null","","","","learningBlock1","","","","<div style=""font-size:60px;""> </div>","null","LF","learning/Slide52.JPG","This is a wug:","",""
"","html-keyboard-response","163","706707","0.0-6.0-0.52","LF","wrmngomh1f","1280","720","de","at08ed04","null","","","","learningBlock1","","","","This is a tob:","null","","","","",""
"","image-keyboard-response","164","707035","0.0-6.0-1.52","LF","wrmngomh1f","1280","720","de","at08ed04","null","","","","","","","","learning/Slide53.JPG","null","","","","",""
"","html-keyboard-response","165","708038","0.0-6.0-2.52","LF","wrmngomh1f","1280","720","de","at08ed04","null","","","","learningBlock1","","","","<div style=""font-size:60px;""> </div>","null","LF","learning/Slide53.JPG","This is a tob:","",""
"","html-keyboard-response","166","709042","0.0-6.0-0.53","LF","wrmngomh1f","1280","720","de","at08ed04","null","","","","learningBlock1","","","","This is a dep:","null","","","","",""
"","image-keyboard-response","167","709372","0.0-6.0-1.53","LF","wrmngomh1f","1280","720","de","at08ed04","null","","","","","","","","learning/Slide54.JPG","null","","","","",""
"","html-keyboard-response","168","710374","0.0-6.0-2.53","LF","wrmngomh1f","1280","720","de","at08ed04","null","","","","learningBlock1","","","","<div style=""font-size:60px;""> </div>","null","LF","learning/Slide54.JPG","This is a dep:","",""
"","html-keyboard-response","169","711376","0.0-6.0-0.54","LF","wrmngomh1f","1280","720","de","at08ed04","null","","","","learningBlock1","","","","This is a bim:","null","","","","",""
"","image-keyboard-response","170","711706","0.0-6.0-1.54","LF","wrmngomh1f","1280","720","de","at08ed04","null","","","","","","","","learning/Slide55.JPG","null","","","","",""
"","html-keyboard-response","171","712708","0.0-6.0-2.54","LF","wrmngomh1f","1280","720","de","at08ed04","null","","","","learningBlock1","","","","<div style=""font-size:60px;""> </div>","null","LF","learning/Slide55.JPG","This is a bim:","",""
"","html-keyboard-response","172","713711","0.0-6.0-0.55","LF","wrmngomh1f","1280","720","de","at08ed04","null","","","","learningBlock1","","","","This is a tob:","null","","","","",""
"","image-keyboard-response","173","714039","0.0-6.0-1.55","LF","wrmngomh1f","1280","720","de","at08ed04","null","","","","","","","","learning/Slide56.JPG","null","","","","",""
"","html-keyboard-response","174","715041","0.0-6.0-2.55","LF","wrmngomh1f","1280","720","de","at08ed04","null","","","","learningBlock1","","","","<div style=""font-size:60px;""> </div>","null","LF","learning/Slide56.JPG","This is a tob:","",""
"","html-keyboard-response","175","716046","0.0-6.0-0.56","LF","wrmngomh1f","1280","720","de","at08ed04","null","","","","learningBlock1","","","","This is a dep:","null","","","","",""
"","image-keyboard-response","176","716374","0.0-6.0-1.56","LF","wrmngomh1f","1280","720","de","at08ed04","null","","","","","","","","learning/Slide57.JPG","null","","","","",""
"","html-keyboard-response","177","717377","0.0-6.0-2.56","LF","wrmngomh1f","1280","720","de","at08ed04","null","","","","learningBlock1","","","","<div style=""font-size:60px;""> </div>","null","LF","learning/Slide57.JPG","This is a dep:","",""
"","html-keyboard-response","178","718379","0.0-6.0-0.57","LF","wrmngomh1f","1280","720","de","at08ed04","null","","","","learningBlock1","","","","This is a wug:","null","","","","",""
"","image-keyboard-response","179","718716","0.0-6.0-1.57","LF","wrmngomh1f","1280","720","de","at08ed04","null","","","","","","","","learning/Slide58.JPG","null","","","","",""
"","html-keyboard-response","180","719718","0.0-6.0-2.57","LF","wrmngomh1f","1280","720","de","at08ed04","null","","","","learningBlock1","","","","<div style=""font-size:60px;""> </div>","null","LF","learning/Slide58.JPG","This is a wug:","",""
"","html-keyboard-response","181","720720","0.0-6.0-0.58","LF","wrmngomh1f","1280","720","de","at08ed04","null","","","","learningBlock1","","","","This is a dep:","null","","","","",""
"","image-keyboard-response","182","721047","0.0-6.0-1.58","LF","wrmngomh1f","1280","720","de","at08ed04","null","","","","","","","","learning/Slide59.JPG","null","","","","",""
"","html-keyboard-response","183","722050","0.0-6.0-2.58","LF","wrmngomh1f","1280","720","de","at08ed04","null","","","","learningBlock1","","","","<div style=""font-size:60px;""> </div>","null","LF","learning/Slide59.JPG","This is a dep:","",""
"","html-keyboard-response","184","723052","0.0-6.0-0.59","LF","wrmngomh1f","1280","720","de","at08ed04","null","","","","learningBlock1","","","","This is a wug:","null","","","","",""
"","image-keyboard-response","185","723380","0.0-6.0-1.59","LF","wrmngomh1f","1280","720","de","at08ed04","null","","","","","","","","learning/Slide60.JPG","null","","","","",""
"","html-keyboard-response","186","724382","0.0-6.0-2.59","LF","wrmngomh1f","1280","720","de","at08ed04","null","","","","learningBlock1","","","","<div style=""font-size:60px;""> </div>","null","LF","learning/Slide60.JPG","This is a wug:","",""
"","html-keyboard-response","187","725392","0.0-6.0-0.60","LF","wrmngomh1f","1280","720","de","at08ed04","null","","","","learningBlock1","","","","This is a bim:","null","","","","",""
"","image-keyboard-response","188","725720","0.0-6.0-1.60","LF","wrmngomh1f","1280","720","de","at08ed04","null","","","","","","","","learning/Slide61.JPG","null","","","","",""
"","html-keyboard-response","189","726722","0.0-6.0-2.60","LF","wrmngomh1f","1280","720","de","at08ed04","null","","","","learningBlock1","","","","<div style=""font-size:60px;""> </div>","null","LF","learning/Slide61.JPG","This is a bim:","",""
"","html-keyboard-response","190","727724","0.0-6.0-0.61","LF","wrmngomh1f","1280","720","de","at08ed04","null","","","","learningBlock1","","","","This is a dep:","null","","","","",""
"","image-keyboard-response","191","728052","0.0-6.0-1.61","LF","wrmngomh1f","1280","720","de","at08ed04","null","","","","","","","","learning/Slide62.JPG","null","","","","",""
"","html-keyboard-response","192","729055","0.0-6.0-2.61","LF","wrmngomh1f","1280","720","de","at08ed04","null","","","","learningBlock1","","","","<div style=""font-size:60px;""> </div>","null","LF","learning/Slide62.JPG","This is a dep:","",""
"","html-keyboard-response","193","730056","0.0-6.0-0.62","LF","wrmngomh1f","1280","720","de","at08ed04","null","","","","learningBlock1","","","","This is a bim:","null","","","","",""
"","image-keyboard-response","194","730384","0.0-6.0-1.62","LF","wrmngomh1f","1280","720","de","at08ed04","null","","","","","","","","learning/Slide63.JPG","null","","","","",""
"","html-keyboard-response","195","731386","0.0-6.0-2.62","LF","wrmngomh1f","1280","720","de","at08ed04","null","","","","learningBlock1","","","","<div style=""font-size:60px;""> </div>","null","LF","learning/Slide63.JPG","This is a bim:","",""
"","html-keyboard-response","196","732390","0.0-6.0-0.63","LF","wrmngomh1f","1280","720","de","at08ed04","null","","","","learningBlock1","","","","This is a tob:","null","","","","",""
"","image-keyboard-response","197","732719","0.0-6.0-1.63","LF","wrmngomh1f","1280","720","de","at08ed04","null","","","","","","","","learning/Slide64.JPG","null","","","","",""
"","html-keyboard-response","198","733721","0.0-6.0-2.63","LF","wrmngomh1f","1280","720","de","at08ed04","null","","","","learningBlock1","","","","<div style=""font-size:60px;""> </div>","null","LF","learning/Slide64.JPG","This is a tob:","",""
"","html-keyboard-response","199","734723","0.0-6.0-0.64","LF","wrmngomh1f","1280","720","de","at08ed04","null","","","","learningBlock1","","","","This is a wug:","null","","","","",""
"","image-keyboard-response","200","735051","0.0-6.0-1.64","LF","wrmngomh1f","1280","720","de","at08ed04","null","","","","","","","","learning/Slide65.JPG","null","","","","",""
"","html-keyboard-response","201","736068","0.0-6.0-2.64","LF","wrmngomh1f","1280","720","de","at08ed04","null","","","","learningBlock1","","","","<div style=""font-size:60px;""> </div>","null","LF","learning/Slide65.JPG","This is a wug:","",""
"","html-keyboard-response","202","737071","0.0-6.0-0.65","LF","wrmngomh1f","1280","720","de","at08ed04","null","","","","learningBlock1","","","","This is a dep:","null","","","","",""
"","image-keyboard-response","203","737399","0.0-6.0-1.65","LF","wrmngomh1f","1280","720","de","at08ed04","null","","","","","","","","learning/Slide66.JPG","null","","","","",""
"","html-keyboard-response","204","738401","0.0-6.0-2.65","LF","wrmngomh1f","1280","720","de","at08ed04","null","","","","learningBlock1","","","","<div style=""font-size:60px;""> </div>","null","LF","learning/Slide66.JPG","This is a dep:","",""
"","html-keyboard-response","205","739404","0.0-6.0-0.66","LF","wrmngomh1f","1280","720","de","at08ed04","null","","","","learningBlock1","","","","This is a tob:","null","","","","",""
"","image-keyboard-response","206","739732","0.0-6.0-1.66","LF","wrmngomh1f","1280","720","de","at08ed04","null","","","","","","","","learning/Slide67.JPG","null","","","","",""
"","html-keyboard-response","207","740734","0.0-6.0-2.66","LF","wrmngomh1f","1280","720","de","at08ed04","null","","","","learningBlock1","","","","<div style=""font-size:60px;""> </div>","null","LF","learning/Slide67.JPG","This is a tob:","",""
"","html-keyboard-response","208","741740","0.0-6.0-0.67","LF","wrmngomh1f","1280","720","de","at08ed04","null","","","","learningBlock1","","","","This is a wug:","null","","","","",""
"","image-keyboard-response","209","742068","0.0-6.0-1.67","LF","wrmngomh1f","1280","720","de","at08ed04","null","","","","","","","","learning/Slide68.JPG","null","","","","",""
"","html-keyboard-response","210","743071","0.0-6.0-2.67","LF","wrmngomh1f","1280","720","de","at08ed04","null","","","","learningBlock1","","","","<div style=""font-size:60px;""> </div>","null","LF","learning/Slide68.JPG","This is a wug:","",""
"","html-keyboard-response","211","744073","0.0-6.0-0.68","LF","wrmngomh1f","1280","720","de","at08ed04","null","","","","learningBlock1","","","","This is a tob:","null","","","","",""
"","image-keyboard-response","212","744402","0.0-6.0-1.68","LF","wrmngomh1f","1280","720","de","at08ed04","null","","","","","","","","learning/Slide69.JPG","null","","","","",""
"","html-keyboard-response","213","745404","0.0-6.0-2.68","LF","wrmngomh1f","1280","720","de","at08ed04","null","","","","learningBlock1","","","","<div style=""font-size:60px;""> </div>","null","LF","learning/Slide69.JPG","This is a tob:","",""
"","html-keyboard-response","214","746407","0.0-6.0-0.69","LF","wrmngomh1f","1280","720","de","at08ed04","null","","","","learningBlock1","","","","This is a dep:","null","","","","",""
"","image-keyboard-response","215","746734","0.0-6.0-1.69","LF","wrmngomh1f","1280","720","de","at08ed04","null","","","","","","","","learning/Slide70.JPG","null","","","","",""
"","html-keyboard-response","216","747737","0.0-6.0-2.69","LF","wrmngomh1f","1280","720","de","at08ed04","null","","","","learningBlock1","","","","<div style=""font-size:60px;""> </div>","null","LF","learning/Slide70.JPG","This is a dep:","",""
"","html-keyboard-response","217","748740","0.0-6.0-0.70","LF","wrmngomh1f","1280","720","de","at08ed04","null","","","","learningBlock1","","","","This is a wug:","null","","","","",""
"","image-keyboard-response","218","749068","0.0-6.0-1.70","LF","wrmngomh1f","1280","720","de","at08ed04","null","","","","","","","","learning/Slide71.JPG","null","","","","",""
"","html-keyboard-response","219","750070","0.0-6.0-2.70","LF","wrmngomh1f","1280","720","de","at08ed04","null","","","","learningBlock1","","","","<div style=""font-size:60px;""> </div>","null","LF","learning/Slide71.JPG","This is a wug:","",""
"","html-keyboard-response","220","751072","0.0-6.0-0.71","LF","wrmngomh1f","1280","720","de","at08ed04","null","","","","learningBlock1","","","","This is a bim:","null","","","","",""
"","image-keyboard-response","221","751401","0.0-6.0-1.71","LF","wrmngomh1f","1280","720","de","at08ed04","null","","","","","","","","learning/Slide72.JPG","null","","","","",""
"","html-keyboard-response","222","752403","0.0-6.0-2.71","LF","wrmngomh1f","1280","720","de","at08ed04","null","","","","learningBlock1","","","","<div style=""font-size:60px;""> </div>","null","LF","learning/Slide72.JPG","This is a bim:","",""
"","html-keyboard-response","223","753407","0.0-6.0-0.72","LF","wrmngomh1f","1280","720","de","at08ed04","null","","","","learningBlock1","","","","This is a wug:","null","","","","",""
"","image-keyboard-response","224","753734","0.0-6.0-1.72","LF","wrmngomh1f","1280","720","de","at08ed04","null","","","","","","","","learning/Slide73.JPG","null","","","","",""
"","html-keyboard-response","225","754737","0.0-6.0-2.72","LF","wrmngomh1f","1280","720","de","at08ed04","null","","","","learningBlock1","","","","<div style=""font-size:60px;""> </div>","null","LF","learning/Slide73.JPG","This is a wug:","",""
"","html-keyboard-response","226","755739","0.0-6.0-0.73","LF","wrmngomh1f","1280","720","de","at08ed04","null","","","","learningBlock1","","","","This is a dep:","null","","","","",""
"","image-keyboard-response","227","756067","0.0-6.0-1.73","LF","wrmngomh1f","1280","720","de","at08ed04","null","","","","","","","","learning/Slide74.JPG","null","","","","",""
"","html-keyboard-response","228","757069","0.0-6.0-2.73","LF","wrmngomh1f","1280","720","de","at08ed04","null","","","","learningBlock1","","","","<div style=""font-size:60px;""> </div>","null","LF","learning/Slide74.JPG","This is a dep:","",""
"","html-keyboard-response","229","758071","0.0-6.0-0.74","LF","wrmngomh1f","1280","720","de","at08ed04","null","","","","learningBlock1","","","","This is a tob:","null","","","","",""
"","image-keyboard-response","230","758399","0.0-6.0-1.74","LF","wrmngomh1f","1280","720","de","at08ed04","null","","","","","","","","learning/Slide75.JPG","null","","","","",""
"","html-keyboard-response","231","759401","0.0-6.0-2.74","LF","wrmngomh1f","1280","720","de","at08ed04","null","","","","learningBlock1","","","","<div style=""font-size:60px;""> </div>","null","LF","learning/Slide75.JPG","This is a tob:","",""
"","html-keyboard-response","232","760404","0.0-6.0-0.75","LF","wrmngomh1f","1280","720","de","at08ed04","null","","","","learningBlock1","","","","This is a bim:","null","","","","",""
"","image-keyboard-response","233","760732","0.0-6.0-1.75","LF","wrmngomh1f","1280","720","de","at08ed04","null","","","","","","","","learning/Slide76.JPG","null","","","","",""
"","html-keyboard-response","234","761735","0.0-6.0-2.75","LF","wrmngomh1f","1280","720","de","at08ed04","null","","","","learningBlock1","","","","<div style=""font-size:60px;""> </div>","null","LF","learning/Slide76.JPG","This is a bim:","",""
"","html-keyboard-response","235","762737","0.0-6.0-0.76","LF","wrmngomh1f","1280","720","de","at08ed04","null","","","","learningBlock1","","","","This is a tob:","null","","","","",""
"","image-keyboard-response","236","763066","0.0-6.0-1.76","LF","wrmngomh1f","1280","720","de","at08ed04","null","","","","","","","","learning/Slide77.JPG","null","","","","",""
"","html-keyboard-response","237","764068","0.0-6.0-2.76","LF","wrmngomh1f","1280","720","de","at08ed04","null","","","","learningBlock1","","","","<div style=""font-size:60px;""> </div>","null","LF","learning/Slide77.JPG","This is a tob:","",""
"","html-keyboard-response","238","765071","0.0-6.0-0.77","LF","wrmngomh1f","1280","720","de","at08ed04","null","","","","learningBlock1","","","","This is a wug:","null","","","","",""
"","image-keyboard-response","239","765399","0.0-6.0-1.77","LF","wrmngomh1f","1280","720","de","at08ed04","null","","","","","","","","learning/Slide78.JPG","null","","","","",""
"","html-keyboard-response","240","766402","0.0-6.0-2.77","LF","wrmngomh1f","1280","720","de","at08ed04","null","","","","learningBlock1","","","","<div style=""font-size:60px;""> </div>","null","LF","learning/Slide78.JPG","This is a wug:","",""
"","html-keyboard-response","241","767404","0.0-6.0-0.78","LF","wrmngomh1f","1280","720","de","at08ed04","null","","","","learningBlock1","","","","This is a bim:","null","","","","",""
"","image-keyboard-response","242","767732","0.0-6.0-1.78","LF","wrmngomh1f","1280","720","de","at08ed04","null","","","","","","","","learning/Slide79.JPG","null","","","","",""
"","html-keyboard-response","243","768734","0.0-6.0-2.78","LF","wrmngomh1f","1280","720","de","at08ed04","null","","","","learningBlock1","","","","<div style=""font-size:60px;""> </div>","null","LF","learning/Slide79.JPG","This is a bim:","",""
"","html-keyboard-response","244","769736","0.0-6.0-0.79","LF","wrmngomh1f","1280","720","de","at08ed04","null","","","","learningBlock1","","","","This is a tob:","null","","","","",""
"","image-keyboard-response","245","770065","0.0-6.0-1.79","LF","wrmngomh1f","1280","720","de","at08ed04","null","","","","","","","","learning/Slide80.JPG","null","","","","",""
"","html-keyboard-response","246","771068","0.0-6.0-2.79","LF","wrmngomh1f","1280","720","de","at08ed04","null","","","","learningBlock1","","","","<div style=""font-size:60px;""> </div>","null","LF","learning/Slide80.JPG","This is a tob:","",""
"","instructions","247","776132","0.0-7.0","LF","wrmngomh1f","1280","720","de","at08ed04","NA","","","[{""page_index"":0,""viewing_time"":5062.695000087842}]","instructions","","","","","","","","","",""
"","html-keyboard-response","248","777136","0.0-8.0-0.0","LF","wrmngomh1f","1280","720","de","at08ed04","null","","","","learningBlock2","","","","This is a wug:","null","","","","",""
"","image-keyboard-response","249","777464","0.0-8.0-1.0","LF","wrmngomh1f","1280","720","de","at08ed04","null","","","","","","","","learning/Slide81.JPG","null","","","","",""
"","html-keyboard-response","250","778466","0.0-8.0-2.0","LF","wrmngomh1f","1280","720","de","at08ed04","null","","","","learningBlock2","","","","<div style=""font-size:60px;""> </div>","null","LF","learning/Slide81.JPG","This is a wug:","",""
"","html-keyboard-response","251","779471","0.0-8.0-0.1","LF","wrmngomh1f","1280","720","de","at08ed04","null","","","","learningBlock2","","","","This is a bim:","null","","","","",""
"","image-keyboard-response","252","779798","0.0-8.0-1.1","LF","wrmngomh1f","1280","720","de","at08ed04","null","","","","","","","","learning/Slide82.JPG","null","","","","",""
"","html-keyboard-response","253","780801","0.0-8.0-2.1","LF","wrmngomh1f","1280","720","de","at08ed04","null","","","","learningBlock2","","","","<div style=""font-size:60px;""> </div>","null","LF","learning/Slide82.JPG","This is a bim:","",""
"","html-keyboard-response","254","781804","0.0-8.0-0.2","LF","wrmngomh1f","1280","720","de","at08ed04","null","","","","learningBlock2","","","","This is a wug:","null","","","","",""
"","image-keyboard-response","255","782132","0.0-8.0-1.2","LF","wrmngomh1f","1280","720","de","at08ed04","null","","","","","","","","learning/Slide83.JPG","null","","","","",""
"","html-keyboard-response","256","783134","0.0-8.0-2.2","LF","wrmngomh1f","1280","720","de","at08ed04","null","","","","learningBlock2","","","","<div style=""font-size:60px;""> </div>","null","LF","learning/Slide83.JPG","This is a wug:","",""
"","html-keyboard-response","257","784137","0.0-8.0-0.3","LF","wrmngomh1f","1280","720","de","at08ed04","null","","","","learningBlock2","","","","This is a dep:","null","","","","",""
"","image-keyboard-response","258","784465","0.0-8.0-1.3","LF","wrmngomh1f","1280","720","de","at08ed04","null","","","","","","","","learning/Slide84.JPG","null","","","","",""
"","html-keyboard-response","259","785467","0.0-8.0-2.3","LF","wrmngomh1f","1280","720","de","at08ed04","null","","","","learningBlock2","","","","<div style=""font-size:60px;""> </div>","null","LF","learning/Slide84.JPG","This is a dep:","",""
"","html-keyboard-response","260","786470","0.0-8.0-0.4","LF","wrmngomh1f","1280","720","de","at08ed04","null","","","","learningBlock2","","","","This is a bim:","null","","","","",""
"","image-keyboard-response","261","786800","0.0-8.0-1.4","LF","wrmngomh1f","1280","720","de","at08ed04","null","","","","","","","","learning/Slide85.JPG","null","","","","",""
"","html-keyboard-response","262","787802","0.0-8.0-2.4","LF","wrmngomh1f","1280","720","de","at08ed04","null","","","","learningBlock2","","","","<div style=""font-size:60px;""> </div>","null","LF","learning/Slide85.JPG","This is a bim:","",""
"","html-keyboard-response","263","788805","0.0-8.0-0.5","LF","wrmngomh1f","1280","720","de","at08ed04","null","","","","learningBlock2","","","","This is a tob:","null","","","","",""
"","image-keyboard-response","264","789134","0.0-8.0-1.5","LF","wrmngomh1f","1280","720","de","at08ed04","null","","","","","","","","learning/Slide86.JPG","null","","","","",""
"","html-keyboard-response","265","790136","0.0-8.0-2.5","LF","wrmngomh1f","1280","720","de","at08ed04","null","","","","learningBlock2","","","","<div style=""font-size:60px;""> </div>","null","LF","learning/Slide86.JPG","This is a tob:","",""
"","html-keyboard-response","266","791138","0.0-8.0-0.6","LF","wrmngomh1f","1280","720","de","at08ed04","null","","","","learningBlock2","","","","This is a wug:","null","","","","",""
"","image-keyboard-response","267","791467","0.0-8.0-1.6","LF","wrmngomh1f","1280","720","de","at08ed04","null","","","","","","","","learning/Slide87.JPG","null","","","","",""
"","html-keyboard-response","268","792470","0.0-8.0-2.6","LF","wrmngomh1f","1280","720","de","at08ed04","null","","","","learningBlock2","","","","<div style=""font-size:60px;""> </div>","null","LF","learning/Slide87.JPG","This is a wug:","",""
"","html-keyboard-response","269","793472","0.0-8.0-0.7","LF","wrmngomh1f","1280","720","de","at08ed04","null","","","","learningBlock2","","","","This is a tob:","null","","","","",""
"","image-keyboard-response","270","793800","0.0-8.0-1.7","LF","wrmngomh1f","1280","720","de","at08ed04","null","","","","","","","","learning/Slide88.JPG","null","","","","",""
"","html-keyboard-response","271","794804","0.0-8.0-2.7","LF","wrmngomh1f","1280","720","de","at08ed04","null","","","","learningBlock2","","","","<div style=""font-size:60px;""> </div>","null","LF","learning/Slide88.JPG","This is a tob:","",""
"","html-keyboard-response","272","795814","0.0-8.0-0.8","LF","wrmngomh1f","1280","720","de","at08ed04","null","","","","learningBlock2","","","","This is a bim:","null","","","","",""
"","image-keyboard-response","273","796142","0.0-8.0-1.8","LF","wrmngomh1f","1280","720","de","at08ed04","null","","","","","","","","learning/Slide89.JPG","null","","","","",""
"","html-keyboard-response","274","797144","0.0-8.0-2.8","LF","wrmngomh1f","1280","720","de","at08ed04","null","","","","learningBlock2","","","","<div style=""font-size:60px;""> </div>","null","LF","learning/Slide89.JPG","This is a bim:","",""
"","html-keyboard-response","275","798146","0.0-8.0-0.9","LF","wrmngomh1f","1280","720","de","at08ed04","null","","","","learningBlock2","","","","This is a dep:","null","","","","",""
"","image-keyboard-response","276","798474","0.0-8.0-1.9","LF","wrmngomh1f","1280","720","de","at08ed04","null","","","","","","","","learning/Slide90.JPG","null","","","","",""
"","html-keyboard-response","277","799477","0.0-8.0-2.9","LF","wrmngomh1f","1280","720","de","at08ed04","null","","","","learningBlock2","","","","<div style=""font-size:60px;""> </div>","null","LF","learning/Slide90.JPG","This is a dep:","",""
"","html-keyboard-response","278","800480","0.0-8.0-0.10","LF","wrmngomh1f","1280","720","de","at08ed04","null","","","","learningBlock2","","","","This is a wug:","null","","","","",""
"","image-keyboard-response","279","800808","0.0-8.0-1.10","LF","wrmngomh1f","1280","720","de","at08ed04","null","","","","","","","","learning/Slide91.JPG","null","","","","",""
"","html-keyboard-response","280","801811","0.0-8.0-2.10","LF","wrmngomh1f","1280","720","de","at08ed04","null","","","","learningBlock2","","","","<div style=""font-size:60px;""> </div>","null","LF","learning/Slide91.JPG","This is a wug:","",""
"","html-keyboard-response","281","802813","0.0-8.0-0.11","LF","wrmngomh1f","1280","720","de","at08ed04","null","","","","learningBlock2","","","","This is a tob:","null","","","","",""
"","image-keyboard-response","282","803141","0.0-8.0-1.11","LF","wrmngomh1f","1280","720","de","at08ed04","null","","","","","","","","learning/Slide92.JPG","null","","","","",""
"","html-keyboard-response","283","804144","0.0-8.0-2.11","LF","wrmngomh1f","1280","720","de","at08ed04","null","","","","learningBlock2","","","","<div style=""font-size:60px;""> </div>","null","LF","learning/Slide92.JPG","This is a tob:","",""
"","html-keyboard-response","284","805146","0.0-8.0-0.12","LF","wrmngomh1f","1280","720","de","at08ed04","null","","","","learningBlock2","","","","This is a bim:","null","","","","",""
"","image-keyboard-response","285","805475","0.0-8.0-1.12","LF","wrmngomh1f","1280","720","de","at08ed04","null","","","","","","","","learning/Slide93.JPG","null","","","","",""
"","html-keyboard-response","286","806478","0.0-8.0-2.12","LF","wrmngomh1f","1280","720","de","at08ed04","null","","","","learningBlock2","","","","<div style=""font-size:60px;""> </div>","null","LF","learning/Slide93.JPG","This is a bim:","",""
"","html-keyboard-response","287","807481","0.0-8.0-0.13","LF","wrmngomh1f","1280","720","de","at08ed04","null","","","","learningBlock2","","","","This is a tob:","null","","","","",""
"","image-keyboard-response","288","807809","0.0-8.0-1.13","LF","wrmngomh1f","1280","720","de","at08ed04","null","","","","","","","","learning/Slide94.JPG","null","","","","",""
"","html-keyboard-response","289","808811","0.0-8.0-2.13","LF","wrmngomh1f","1280","720","de","at08ed04","null","","","","learningBlock2","","","","<div style=""font-size:60px;""> </div>","null","LF","learning/Slide94.JPG","This is a tob:","",""
"","html-keyboard-response","290","809814","0.0-8.0-0.14","LF","wrmngomh1f","1280","720","de","at08ed04","null","","","","learningBlock2","","","","This is a wug:","null","","","","",""
"","image-keyboard-response","291","810142","0.0-8.0-1.14","LF","wrmngomh1f","1280","720","de","at08ed04","null","","","","","","","","learning/Slide95.JPG","null","","","","",""
"","html-keyboard-response","292","811144","0.0-8.0-2.14","LF","wrmngomh1f","1280","720","de","at08ed04","null","","","","learningBlock2","","","","<div style=""font-size:60px;""> </div>","null","LF","learning/Slide95.JPG","This is a wug:","",""
"","html-keyboard-response","293","812151","0.0-8.0-0.15","LF","wrmngomh1f","1280","720","de","at08ed04","null","","","","learningBlock2","","","","This is a tob:","null","","","","",""
"","image-keyboard-response","294","812479","0.0-8.0-1.15","LF","wrmngomh1f","1280","720","de","at08ed04","null","","","","","","","","learning/Slide96.JPG","null","","","","",""
"","html-keyboard-response","295","813492","0.0-8.0-2.15","LF","wrmngomh1f","1280","720","de","at08ed04","null","","","","learningBlock2","","","","<div style=""font-size:60px;""> </div>","null","LF","learning/Slide96.JPG","This is a tob:","",""
"","html-keyboard-response","296","814494","0.0-8.0-0.16","LF","wrmngomh1f","1280","720","de","at08ed04","null","","","","learningBlock2","","","","This is a dep:","null","","","","",""
"","image-keyboard-response","297","814823","0.0-8.0-1.16","LF","wrmngomh1f","1280","720","de","at08ed04","null","","","","","","","","learning/Slide97.JPG","null","","","","",""
"","html-keyboard-response","298","815825","0.0-8.0-2.16","LF","wrmngomh1f","1280","720","de","at08ed04","null","","","","learningBlock2","","","","<div style=""font-size:60px;""> </div>","null","LF","learning/Slide97.JPG","This is a dep:","",""
"","html-keyboard-response","299","816828","0.0-8.0-0.17","LF","wrmngomh1f","1280","720","de","at08ed04","null","","","","learningBlock2","","","","This is a bim:","null","","","","",""
"","image-keyboard-response","300","817156","0.0-8.0-1.17","LF","wrmngomh1f","1280","720","de","at08ed04","null","","","","","","","","learning/Slide98.JPG","null","","","","",""
"","html-keyboard-response","301","818158","0.0-8.0-2.17","LF","wrmngomh1f","1280","720","de","at08ed04","null","","","","learningBlock2","","","","<div style=""font-size:60px;""> </div>","null","LF","learning/Slide98.JPG","This is a bim:","",""
"","html-keyboard-response","302","819161","0.0-8.0-0.18","LF","wrmngomh1f","1280","720","de","at08ed04","null","","","","learningBlock2","","","","This is a dep:","null","","","","",""
"","image-keyboard-response","303","819488","0.0-8.0-1.18","LF","wrmngomh1f","1280","720","de","at08ed04","null","","","","","","","","learning/Slide99.JPG","null","","","","",""
"","html-keyboard-response","304","820490","0.0-8.0-2.18","LF","wrmngomh1f","1280","720","de","at08ed04","null","","","","learningBlock2","","","","<div style=""font-size:60px;""> </div>","null","LF","learning/Slide99.JPG","This is a dep:","",""
"","html-keyboard-response","305","821493","0.0-8.0-0.19","LF","wrmngomh1f","1280","720","de","at08ed04","null","","","","learningBlock2","","","","This is a bim:","null","","","","",""
"","image-keyboard-response","306","821821","0.0-8.0-1.19","LF","wrmngomh1f","1280","720","de","at08ed04","null","","","","","","","","learning/Slide100.JPG","null","","","","",""
"","html-keyboard-response","307","822825","0.0-8.0-2.19","LF","wrmngomh1f","1280","720","de","at08ed04","null","","","","learningBlock2","","","","<div style=""font-size:60px;""> </div>","null","LF","learning/Slide100.JPG","This is a bim:","",""
"","html-keyboard-response","308","823827","0.0-8.0-0.20","LF","wrmngomh1f","1280","720","de","at08ed04","null","","","","learningBlock2","","","","This is a tob:","null","","","","",""
"","image-keyboard-response","309","824156","0.0-8.0-1.20","LF","wrmngomh1f","1280","720","de","at08ed04","null","","","","","","","","learning/Slide101.JPG","null","","","","",""
"","html-keyboard-response","310","825159","0.0-8.0-2.20","LF","wrmngomh1f","1280","720","de","at08ed04","null","","","","learningBlock2","","","","<div style=""font-size:60px;""> </div>","null","LF","learning/Slide101.JPG","This is a tob:","",""
"","html-keyboard-response","311","826161","0.0-8.0-0.21","LF","wrmngomh1f","1280","720","de","at08ed04","null","","","","learningBlock2","","","","This is a bim:","null","","","","",""
"","image-keyboard-response","312","826489","0.0-8.0-1.21","LF","wrmngomh1f","1280","720","de","at08ed04","null","","","","","","","","learning/Slide102.JPG","null","","","","",""
"","html-keyboard-response","313","827491","0.0-8.0-2.21","LF","wrmngomh1f","1280","720","de","at08ed04","null","","","","learningBlock2","","","","<div style=""font-size:60px;""> </div>","null","LF","learning/Slide102.JPG","This is a bim:","",""
"","html-keyboard-response","314","828493","0.0-8.0-0.22","LF","wrmngomh1f","1280","720","de","at08ed04","null","","","","learningBlock2","","","","This is a dep:","null","","","","",""
"","image-keyboard-response","315","828821","0.0-8.0-1.22","LF","wrmngomh1f","1280","720","de","at08ed04","null","","","","","","","","learning/Slide103.JPG","null","","","","",""
"","html-keyboard-response","316","829823","0.0-8.0-2.22","LF","wrmngomh1f","1280","720","de","at08ed04","null","","","","learningBlock2","","","","<div style=""font-size:60px;""> </div>","null","LF","learning/Slide103.JPG","This is a dep:","",""
"","html-keyboard-response","317","830839","0.0-8.0-0.23","LF","wrmngomh1f","1280","720","de","at08ed04","null","","","","learningBlock2","","","","This is a tob:","null","","","","",""
"","image-keyboard-response","318","831167","0.0-8.0-1.23","LF","wrmngomh1f","1280","720","de","at08ed04","null","","","","","","","","learning/Slide104.JPG","null","","","","",""
"","html-keyboard-response","319","832170","0.0-8.0-2.23","LF","wrmngomh1f","1280","720","de","at08ed04","null","","","","learningBlock2","","","","<div style=""font-size:60px;""> </div>","null","LF","learning/Slide104.JPG","This is a tob:","",""
"","html-keyboard-response","320","833172","0.0-8.0-0.24","LF","wrmngomh1f","1280","720","de","at08ed04","null","","","","learningBlock2","","","","This is a dep:","null","","","","",""
"","image-keyboard-response","321","833500","0.0-8.0-1.24","LF","wrmngomh1f","1280","720","de","at08ed04","null","","","","","","","","learning/Slide105.JPG","null","","","","",""
"","html-keyboard-response","322","834502","0.0-8.0-2.24","LF","wrmngomh1f","1280","720","de","at08ed04","null","","","","learningBlock2","","","","<div style=""font-size:60px;""> </div>","null","LF","learning/Slide105.JPG","This is a dep:","",""
"","html-keyboard-response","323","835504","0.0-8.0-0.25","LF","wrmngomh1f","1280","720","de","at08ed04","null","","","","learningBlock2","","","","This is a wug:","null","","","","",""
"","image-keyboard-response","324","835832","0.0-8.0-1.25","LF","wrmngomh1f","1280","720","de","at08ed04","null","","","","","","","","learning/Slide106.JPG","null","","","","",""
"","html-keyboard-response","325","836835","0.0-8.0-2.25","LF","wrmngomh1f","1280","720","de","at08ed04","null","","","","learningBlock2","","","","<div style=""font-size:60px;""> </div>","null","LF","learning/Slide106.JPG","This is a wug:","",""
"","html-keyboard-response","326","837838","0.0-8.0-0.26","LF","wrmngomh1f","1280","720","de","at08ed04","null","","","","learningBlock2","","","","This is a bim:","null","","","","",""
"","image-keyboard-response","327","838166","0.0-8.0-1.26","LF","wrmngomh1f","1280","720","de","at08ed04","null","","","","","","","","learning/Slide107.JPG","null","","","","",""
"","html-keyboard-response","328","839168","0.0-8.0-2.26","LF","wrmngomh1f","1280","720","de","at08ed04","null","","","","learningBlock2","","","","<div style=""font-size:60px;""> </div>","null","LF","learning/Slide107.JPG","This is a bim:","",""
"","html-keyboard-response","329","840170","0.0-8.0-0.27","LF","wrmngomh1f","1280","720","de","at08ed04","null","","","","learningBlock2","","","","This is a dep:","null","","","","",""
"","image-keyboard-response","330","840499","0.0-8.0-1.27","LF","wrmngomh1f","1280","720","de","at08ed04","null","","","","","","","","learning/Slide108.JPG","null","","","","",""
"","html-keyboard-response","331","841502","0.0-8.0-2.27","LF","wrmngomh1f","1280","720","de","at08ed04","null","","","","learningBlock2","","","","<div style=""font-size:60px;""> </div>","null","LF","learning/Slide108.JPG","This is a dep:","",""
"","html-keyboard-response","332","842504","0.0-8.0-0.28","LF","wrmngomh1f","1280","720","de","at08ed04","null","","","","learningBlock2","","","","This is a wug:","null","","","","",""
"","image-keyboard-response","333","842831","0.0-8.0-1.28","LF","wrmngomh1f","1280","720","de","at08ed04","null","","","","","","","","learning/Slide109.JPG","null","","","","",""
"","html-keyboard-response","334","843838","0.0-8.0-2.28","LF","wrmngomh1f","1280","720","de","at08ed04","null","","","","learningBlock2","","","","<div style=""font-size:60px;""> </div>","null","LF","learning/Slide109.JPG","This is a wug:","",""
"","html-keyboard-response","335","844840","0.0-8.0-0.29","LF","wrmngomh1f","1280","720","de","at08ed04","null","","","","learningBlock2","","","","This is a bim:","null","","","","",""
"","image-keyboard-response","336","845167","0.0-8.0-1.29","LF","wrmngomh1f","1280","720","de","at08ed04","null","","","","","","","","learning/Slide110.JPG","null","","","","",""
"","html-keyboard-response","337","846170","0.0-8.0-2.29","LF","wrmngomh1f","1280","720","de","at08ed04","null","","","","learningBlock2","","","","<div style=""font-size:60px;""> </div>","null","LF","learning/Slide110.JPG","This is a bim:","",""
"","html-keyboard-response","338","847173","0.0-8.0-0.30","LF","wrmngomh1f","1280","720","de","at08ed04","null","","","","learningBlock2","","","","This is a tob:","null","","","","",""
"","image-keyboard-response","339","847501","0.0-8.0-1.30","LF","wrmngomh1f","1280","720","de","at08ed04","null","","","","","","","","learning/Slide111.JPG","null","","","","",""
"","html-keyboard-response","340","848504","0.0-8.0-2.30","LF","wrmngomh1f","1280","720","de","at08ed04","null","","","","learningBlock2","","","","<div style=""font-size:60px;""> </div>","null","LF","learning/Slide111.JPG","This is a tob:","",""
"","html-keyboard-response","341","849506","0.0-8.0-0.31","LF","wrmngomh1f","1280","720","de","at08ed04","null","","","","learningBlock2","","","","This is a wug:","null","","","","",""
"","image-keyboard-response","342","849835","0.0-8.0-1.31","LF","wrmngomh1f","1280","720","de","at08ed04","null","","","","","","","","learning/Slide112.JPG","null","","","","",""
"","html-keyboard-response","343","850846","0.0-8.0-2.31","LF","wrmngomh1f","1280","720","de","at08ed04","null","","","","learningBlock2","","","","<div style=""font-size:60px;""> </div>","null","LF","learning/Slide112.JPG","This is a wug:","",""
"","html-keyboard-response","344","851848","0.0-8.0-0.32","LF","wrmngomh1f","1280","720","de","at08ed04","null","","","","learningBlock2","","","","This is a tob:","null","","","","",""
"","image-keyboard-response","345","852177","0.0-8.0-1.32","LF","wrmngomh1f","1280","720","de","at08ed04","null","","","","","","","","learning/Slide113.JPG","null","","","","",""
"","html-keyboard-response","346","853180","0.0-8.0-2.32","LF","wrmngomh1f","1280","720","de","at08ed04","null","","","","learningBlock2","","","","<div style=""font-size:60px;""> </div>","null","LF","learning/Slide113.JPG","This is a tob:","",""
"","html-keyboard-response","347","854182","0.0-8.0-0.33","LF","wrmngomh1f","1280","720","de","at08ed04","null","","","","learningBlock2","","","","This is a wug:","null","","","","",""
"","image-keyboard-response","348","854510","0.0-8.0-1.33","LF","wrmngomh1f","1280","720","de","at08ed04","null","","","","","","","","learning/Slide114.JPG","null","","","","",""
"","html-keyboard-response","349","855512","0.0-8.0-2.33","LF","wrmngomh1f","1280","720","de","at08ed04","null","","","","learningBlock2","","","","<div style=""font-size:60px;""> </div>","null","LF","learning/Slide114.JPG","This is a wug:","",""
"","html-keyboard-response","350","856514","0.0-8.0-0.34","LF","wrmngomh1f","1280","720","de","at08ed04","null","","","","learningBlock2","","","","This is a bim:","null","","","","",""
"","image-keyboard-response","351","856842","0.0-8.0-1.34","LF","wrmngomh1f","1280","720","de","at08ed04","null","","","","","","","","learning/Slide115.JPG","null","","","","",""
"","html-keyboard-response","352","857844","0.0-8.0-2.34","LF","wrmngomh1f","1280","720","de","at08ed04","null","","","","learningBlock2","","","","<div style=""font-size:60px;""> </div>","null","LF","learning/Slide115.JPG","This is a bim:","",""
"","html-keyboard-response","353","858846","0.0-8.0-0.35","LF","wrmngomh1f","1280","720","de","at08ed04","null","","","","learningBlock2","","","","This is a dep:","null","","","","",""
"","image-keyboard-response","354","859175","0.0-8.0-1.35","LF","wrmngomh1f","1280","720","de","at08ed04","null","","","","","","","","learning/Slide116.JPG","null","","","","",""
"","html-keyboard-response","355","860177","0.0-8.0-2.35","LF","wrmngomh1f","1280","720","de","at08ed04","null","","","","learningBlock2","","","","<div style=""font-size:60px;""> </div>","null","LF","learning/Slide116.JPG","This is a dep:","",""
"","html-keyboard-response","356","861179","0.0-8.0-0.36","LF","wrmngomh1f","1280","720","de","at08ed04","null","","","","learningBlock2","","","","This is a tob:","null","","","","",""
"","image-keyboard-response","357","861506","0.0-8.0-1.36","LF","wrmngomh1f","1280","720","de","at08ed04","null","","","","","","","","learning/Slide117.JPG","null","","","","",""
"","html-keyboard-response","358","862509","0.0-8.0-2.36","LF","wrmngomh1f","1280","720","de","at08ed04","null","","","","learningBlock2","","","","<div style=""font-size:60px;""> </div>","null","LF","learning/Slide117.JPG","This is a tob:","",""
"","html-keyboard-response","359","863511","0.0-8.0-0.37","LF","wrmngomh1f","1280","720","de","at08ed04","null","","","","learningBlock2","","","","This is a dep:","null","","","","",""
"","image-keyboard-response","360","863839","0.0-8.0-1.37","LF","wrmngomh1f","1280","720","de","at08ed04","null","","","","","","","","learning/Slide118.JPG","null","","","","",""
"","html-keyboard-response","361","864842","0.0-8.0-2.37","LF","wrmngomh1f","1280","720","de","at08ed04","null","","","","learningBlock2","","","","<div style=""font-size:60px;""> </div>","null","LF","learning/Slide118.JPG","This is a dep:","",""
"","html-keyboard-response","362","865845","0.0-8.0-0.38","LF","wrmngomh1f","1280","720","de","at08ed04","null","","","","learningBlock2","","","","This is a wug:","null","","","","",""
"","image-keyboard-response","363","866174","0.0-8.0-1.38","LF","wrmngomh1f","1280","720","de","at08ed04","null","","","","","","","","learning/Slide119.JPG","null","","","","",""
"","html-keyboard-response","364","867177","0.0-8.0-2.38","LF","wrmngomh1f","1280","720","de","at08ed04","null","","","","learningBlock2","","","","<div style=""font-size:60px;""> </div>","null","LF","learning/Slide119.JPG","This is a wug:","",""
"","html-keyboard-response","365","868179","0.0-8.0-0.39","LF","wrmngomh1f","1280","720","de","at08ed04","null","","","","learningBlock2","","","","This is a dep:","null","","","","",""
"","image-keyboard-response","366","868506","0.0-8.0-1.39","LF","wrmngomh1f","1280","720","de","at08ed04","null","","","","","","","","learning/Slide120.JPG","null","","","","",""
"","html-keyboard-response","367","869508","0.0-8.0-2.39","LF","wrmngomh1f","1280","720","de","at08ed04","null","","","","learningBlock2","","","","<div style=""font-size:60px;""> </div>","null","LF","learning/Slide120.JPG","This is a dep:","",""
"","html-keyboard-response","368","870510","0.0-8.0-0.40","LF","wrmngomh1f","1280","720","de","at08ed04","null","","","","learningBlock2","","","","This is a bim:","null","","","","",""
"","image-keyboard-response","369","870838","0.0-8.0-1.40","LF","wrmngomh1f","1280","720","de","at08ed04","null","","","","","","","","learning/Slide121.JPG","null","","","","",""
"","html-keyboard-response","370","871841","0.0-8.0-2.40","LF","wrmngomh1f","1280","720","de","at08ed04","null","","","","learningBlock2","","","","<div style=""font-size:60px;""> </div>","null","LF","learning/Slide121.JPG","This is a bim:","",""
"","html-keyboard-response","371","872849","0.0-8.0-0.41","LF","wrmngomh1f","1280","720","de","at08ed04","null","","","","learningBlock2","","","","This is a wug:","null","","","","",""
"","image-keyboard-response","372","873176","0.0-8.0-1.41","LF","wrmngomh1f","1280","720","de","at08ed04","null","","","","","","","","learning/Slide122.JPG","null","","","","",""
"","html-keyboard-response","373","874179","0.0-8.0-2.41","LF","wrmngomh1f","1280","720","de","at08ed04","null","","","","learningBlock2","","","","<div style=""font-size:60px;""> </div>","null","LF","learning/Slide122.JPG","This is a wug:","",""
"","html-keyboard-response","374","875181","0.0-8.0-0.42","LF","wrmngomh1f","1280","720","de","at08ed04","null","","","","learningBlock2","","","","This is a bim:","null","","","","",""
"","image-keyboard-response","375","875509","0.0-8.0-1.42","LF","wrmngomh1f","1280","720","de","at08ed04","null","","","","","","","","learning/Slide123.JPG","null","","","","",""
"","html-keyboard-response","376","876512","0.0-8.0-2.42","LF","wrmngomh1f","1280","720","de","at08ed04","null","","","","learningBlock2","","","","<div style=""font-size:60px;""> </div>","null","LF","learning/Slide123.JPG","This is a bim:","",""
"","html-keyboard-response","377","877513","0.0-8.0-0.43","LF","wrmngomh1f","1280","720","de","at08ed04","null","","","","learningBlock2","","","","This is a tob:","null","","","","",""
"","image-keyboard-response","378","877840","0.0-8.0-1.43","LF","wrmngomh1f","1280","720","de","at08ed04","null","","","","","","","","learning/Slide124.JPG","null","","","","",""
"","html-keyboard-response","379","878844","0.0-8.0-2.43","LF","wrmngomh1f","1280","720","de","at08ed04","null","","","","learningBlock2","","","","<div style=""font-size:60px;""> </div>","null","LF","learning/Slide124.JPG","This is a tob:","",""
"","html-keyboard-response","380","879847","0.0-8.0-0.44","LF","wrmngomh1f","1280","720","de","at08ed04","null","","","","learningBlock2","","","","This is a bim:","null","","","","",""
"","image-keyboard-response","381","880175","0.0-8.0-1.44","LF","wrmngomh1f","1280","720","de","at08ed04","null","","","","","","","","learning/Slide125.JPG","null","","","","",""
"","html-keyboard-response","382","881177","0.0-8.0-2.44","LF","wrmngomh1f","1280","720","de","at08ed04","null","","","","learningBlock2","","","","<div style=""font-size:60px;""> </div>","null","LF","learning/Slide125.JPG","This is a bim:","",""
"","html-keyboard-response","383","882180","0.0-8.0-0.45","LF","wrmngomh1f","1280","720","de","at08ed04","null","","","","learningBlock2","","","","This is a tob:","null","","","","",""
"","image-keyboard-response","384","882509","0.0-8.0-1.45","LF","wrmngomh1f","1280","720","de","at08ed04","null","","","","","","","","learning/Slide126.JPG","null","","","","",""
"","html-keyboard-response","385","883511","0.0-8.0-2.45","LF","wrmngomh1f","1280","720","de","at08ed04","null","","","","learningBlock2","","","","<div style=""font-size:60px;""> </div>","null","LF","learning/Slide126.JPG","This is a tob:","",""
"","html-keyboard-response","386","884513","0.0-8.0-0.46","LF","wrmngomh1f","1280","720","de","at08ed04","null","","","","learningBlock2","","","","This is a dep:","null","","","","",""
"","image-keyboard-response","387","884841","0.0-8.0-1.46","LF","wrmngomh1f","1280","720","de","at08ed04","null","","","","","","","","learning/Slide127.JPG","null","","","","",""
"","html-keyboard-response","388","885844","0.0-8.0-2.46","LF","wrmngomh1f","1280","720","de","at08ed04","null","","","","learningBlock2","","","","<div style=""font-size:60px;""> </div>","null","LF","learning/Slide127.JPG","This is a dep:","",""
"","html-keyboard-response","389","886846","0.0-8.0-0.47","LF","wrmngomh1f","1280","720","de","at08ed04","null","","","","learningBlock2","","","","This is a wug:","null","","","","",""
"","image-keyboard-response","390","887174","0.0-8.0-1.47","LF","wrmngomh1f","1280","720","de","at08ed04","null","","","","","","","","learning/Slide128.JPG","null","","","","",""
"","html-keyboard-response","391","888176","0.0-8.0-2.47","LF","wrmngomh1f","1280","720","de","at08ed04","null","","","","learningBlock2","","","","<div style=""font-size:60px;""> </div>","null","LF","learning/Slide128.JPG","This is a wug:","",""
"","html-keyboard-response","392","889188","0.0-8.0-0.48","LF","wrmngomh1f","1280","720","de","at08ed04","null","","","","learningBlock2","","","","This is a tob:","null","","","","",""
"","image-keyboard-response","393","889517","0.0-8.0-1.48","LF","wrmngomh1f","1280","720","de","at08ed04","null","","","","","","","","learning/Slide129.JPG","null","","","","",""
"","html-keyboard-response","394","890520","0.0-8.0-2.48","LF","wrmngomh1f","1280","720","de","at08ed04","null","","","","learningBlock2","","","","<div style=""font-size:60px;""> </div>","null","LF","learning/Slide129.JPG","This is a tob:","",""
"","html-keyboard-response","395","891522","0.0-8.0-0.49","LF","wrmngomh1f","1280","720","de","at08ed04","null","","","","learningBlock2","","","","This is a wug:","null","","","","",""
"","image-keyboard-response","396","891850","0.0-8.0-1.49","LF","wrmngomh1f","1280","720","de","at08ed04","null","","","","","","","","learning/Slide130.JPG","null","","","","",""
"","html-keyboard-response","397","892852","0.0-8.0-2.49","LF","wrmngomh1f","1280","720","de","at08ed04","null","","","","learningBlock2","","","","<div style=""font-size:60px;""> </div>","null","LF","learning/Slide130.JPG","This is a wug:","",""
"","html-keyboard-response","398","893855","0.0-8.0-0.50","LF","wrmngomh1f","1280","720","de","at08ed04","null","","","","learningBlock2","","","","This is a bim:","null","","","","",""
"","image-keyboard-response","399","894183","0.0-8.0-1.50","LF","wrmngomh1f","1280","720","de","at08ed04","null","","","","","","","","learning/Slide131.JPG","null","","","","",""
"","html-keyboard-response","400","895186","0.0-8.0-2.50","LF","wrmngomh1f","1280","720","de","at08ed04","null","","","","learningBlock2","","","","<div style=""font-size:60px;""> </div>","null","LF","learning/Slide131.JPG","This is a bim:","",""
"","html-keyboard-response","401","896188","0.0-8.0-0.51","LF","wrmngomh1f","1280","720","de","at08ed04","null","","","","learningBlock2","","","","This is a dep:","null","","","","",""
"","image-keyboard-response","402","896515","0.0-8.0-1.51","LF","wrmngomh1f","1280","720","de","at08ed04","null","","","","","","","","learning/Slide132.JPG","null","","","","",""
"","html-keyboard-response","403","897517","0.0-8.0-2.51","LF","wrmngomh1f","1280","720","de","at08ed04","null","","","","learningBlock2","","","","<div style=""font-size:60px;""> </div>","null","LF","learning/Slide132.JPG","This is a dep:","",""
"","html-keyboard-response","404","898526","0.0-8.0-0.52","LF","wrmngomh1f","1280","720","de","at08ed04","null","","","","learningBlock2","","","","This is a tob:","null","","","","",""
"","image-keyboard-response","405","898854","0.0-8.0-1.52","LF","wrmngomh1f","1280","720","de","at08ed04","null","","","","","","","","learning/Slide133.JPG","null","","","","",""
"","html-keyboard-response","406","899857","0.0-8.0-2.52","LF","wrmngomh1f","1280","720","de","at08ed04","null","","","","learningBlock2","","","","<div style=""font-size:60px;""> </div>","null","LF","learning/Slide133.JPG","This is a tob:","",""
"","html-keyboard-response","407","900859","0.0-8.0-0.53","LF","wrmngomh1f","1280","720","de","at08ed04","null","","","","learningBlock2","","","","This is a dep:","null","","","","",""
"","image-keyboard-response","408","901186","0.0-8.0-1.53","LF","wrmngomh1f","1280","720","de","at08ed04","null","","","","","","","","learning/Slide134.JPG","null","","","","",""
"","html-keyboard-response","409","902189","0.0-8.0-2.53","LF","wrmngomh1f","1280","720","de","at08ed04","null","","","","learningBlock2","","","","<div style=""font-size:60px;""> </div>","null","LF","learning/Slide134.JPG","This is a dep:","",""
"","html-keyboard-response","410","903192","0.0-8.0-0.54","LF","wrmngomh1f","1280","720","de","at08ed04","null","","","","learningBlock2","","","","This is a tob:","null","","","","",""
"","image-keyboard-response","411","903519","0.0-8.0-1.54","LF","wrmngomh1f","1280","720","de","at08ed04","null","","","","","","","","learning/Slide135.JPG","null","","","","",""
"","html-keyboard-response","412","904522","0.0-8.0-2.54","LF","wrmngomh1f","1280","720","de","at08ed04","null","","","","learningBlock2","","","","<div style=""font-size:60px;""> </div>","null","LF","learning/Slide135.JPG","This is a tob:","",""
"","html-keyboard-response","413","905525","0.0-8.0-0.55","LF","wrmngomh1f","1280","720","de","at08ed04","null","","","","learningBlock2","","","","This is a wug:","null","","","","",""
"","image-keyboard-response","414","905852","0.0-8.0-1.55","LF","wrmngomh1f","1280","720","de","at08ed04","null","","","","","","","","learning/Slide136.JPG","null","","","","",""
"","html-keyboard-response","415","906854","0.0-8.0-2.55","LF","wrmngomh1f","1280","720","de","at08ed04","null","","","","learningBlock2","","","","<div style=""font-size:60px;""> </div>","null","LF","learning/Slide136.JPG","This is a wug:","",""
"","html-keyboard-response","416","907858","0.0-8.0-0.56","LF","wrmngomh1f","1280","720","de","at08ed04","null","","","","learningBlock2","","","","This is a tob:","null","","","","",""
"","image-keyboard-response","417","908202","0.0-8.0-1.56","LF","wrmngomh1f","1280","720","de","at08ed04","null","","","","","","","","learning/Slide137.JPG","null","","","","",""
"","html-keyboard-response","418","909205","0.0-8.0-2.56","LF","wrmngomh1f","1280","720","de","at08ed04","null","","","","learningBlock2","","","","<div style=""font-size:60px;""> </div>","null","LF","learning/Slide137.JPG","This is a tob:","",""
"","html-keyboard-response","419","910208","0.0-8.0-0.57","LF","wrmngomh1f","1280","720","de","at08ed04","null","","","","learningBlock2","","","","This is a bim:","null","","","","",""
"","image-keyboard-response","420","910536","0.0-8.0-1.57","LF","wrmngomh1f","1280","720","de","at08ed04","null","","","","","","","","learning/Slide138.JPG","null","","","","",""
"","html-keyboard-response","421","911538","0.0-8.0-2.57","LF","wrmngomh1f","1280","720","de","at08ed04","null","","","","learningBlock2","","","","<div style=""font-size:60px;""> </div>","null","LF","learning/Slide138.JPG","This is a bim:","",""
"","html-keyboard-response","422","912539","0.0-8.0-0.58","LF","wrmngomh1f","1280","720","de","at08ed04","null","","","","learningBlock2","","","","This is a wug:","null","","","","",""
"","image-keyboard-response","423","912867","0.0-8.0-1.58","LF","wrmngomh1f","1280","720","de","at08ed04","null","","","","","","","","learning/Slide139.JPG","null","","","","",""
"","html-keyboard-response","424","913870","0.0-8.0-2.58","LF","wrmngomh1f","1280","720","de","at08ed04","null","","","","learningBlock2","","","","<div style=""font-size:60px;""> </div>","null","LF","learning/Slide139.JPG","This is a wug:","",""
"","html-keyboard-response","425","914872","0.0-8.0-0.59","LF","wrmngomh1f","1280","720","de","at08ed04","null","","","","learningBlock2","","","","This is a dep:","null","","","","",""
"","image-keyboard-response","426","915200","0.0-8.0-1.59","LF","wrmngomh1f","1280","720","de","at08ed04","null","","","","","","","","learning/Slide140.JPG","null","","","","",""
"","html-keyboard-response","427","916202","0.0-8.0-2.59","LF","wrmngomh1f","1280","720","de","at08ed04","null","","","","learningBlock2","","","","<div style=""font-size:60px;""> </div>","null","LF","learning/Slide140.JPG","This is a dep:","",""
"","html-keyboard-response","428","917204","0.0-8.0-0.60","LF","wrmngomh1f","1280","720","de","at08ed04","null","","","","learningBlock2","","","","This is a tob:","null","","","","",""
"","image-keyboard-response","429","917532","0.0-8.0-1.60","LF","wrmngomh1f","1280","720","de","at08ed04","null","","","","","","","","learning/Slide141.JPG","null","","","","",""
"","html-keyboard-response","430","918535","0.0-8.0-2.60","LF","wrmngomh1f","1280","720","de","at08ed04","null","","","","learningBlock2","","","","<div style=""font-size:60px;""> </div>","null","LF","learning/Slide141.JPG","This is a tob:","",""
"","html-keyboard-response","431","919537","0.0-8.0-0.61","LF","wrmngomh1f","1280","720","de","at08ed04","null","","","","learningBlock2","","","","This is a wug:","null","","","","",""
"","image-keyboard-response","432","919865","0.0-8.0-1.61","LF","wrmngomh1f","1280","720","de","at08ed04","null","","","","","","","","learning/Slide142.JPG","null","","","","",""
"","html-keyboard-response","433","920867","0.0-8.0-2.61","LF","wrmngomh1f","1280","720","de","at08ed04","null","","","","learningBlock2","","","","<div style=""font-size:60px;""> </div>","null","LF","learning/Slide142.JPG","This is a wug:","",""
"","html-keyboard-response","434","921869","0.0-8.0-0.62","LF","wrmngomh1f","1280","720","de","at08ed04","null","","","","learningBlock2","","","","This is a bim:","null","","","","",""
"","image-keyboard-response","435","922196","0.0-8.0-1.62","LF","wrmngomh1f","1280","720","de","at08ed04","null","","","","","","","","learning/Slide143.JPG","null","","","","",""
"","html-keyboard-response","436","923198","0.0-8.0-2.62","LF","wrmngomh1f","1280","720","de","at08ed04","null","","","","learningBlock2","","","","<div style=""font-size:60px;""> </div>","null","LF","learning/Slide143.JPG","This is a bim:","",""
"","html-keyboard-response","437","924201","0.0-8.0-0.63","LF","wrmngomh1f","1280","720","de","at08ed04","null","","","","learningBlock2","","","","This is a dep:","null","","","","",""
"","image-keyboard-response","438","924529","0.0-8.0-1.63","LF","wrmngomh1f","1280","720","de","at08ed04","null","","","","","","","","learning/Slide144.JPG","null","","","","",""
"","html-keyboard-response","439","925532","0.0-8.0-2.63","LF","wrmngomh1f","1280","720","de","at08ed04","null","","","","learningBlock2","","","","<div style=""font-size:60px;""> </div>","null","LF","learning/Slide144.JPG","This is a dep:","",""
"","html-keyboard-response","440","926549","0.0-8.0-0.64","LF","wrmngomh1f","1280","720","de","at08ed04","null","","","","learningBlock2","","","","This is a bim:","null","","","","",""
"","image-keyboard-response","441","926877","0.0-8.0-1.64","LF","wrmngomh1f","1280","720","de","at08ed04","null","","","","","","","","learning/Slide145.JPG","null","","","","",""
"","html-keyboard-response","442","927880","0.0-8.0-2.64","LF","wrmngomh1f","1280","720","de","at08ed04","null","","","","learningBlock2","","","","<div style=""font-size:60px;""> </div>","null","LF","learning/Slide145.JPG","This is a bim:","",""
"","html-keyboard-response","443","928889","0.0-8.0-0.65","LF","wrmngomh1f","1280","720","de","at08ed04","null","","","","learningBlock2","","","","This is a tob:","null","","","","",""
"","image-keyboard-response","444","929217","0.0-8.0-1.65","LF","wrmngomh1f","1280","720","de","at08ed04","null","","","","","","","","learning/Slide146.JPG","null","","","","",""
"","html-keyboard-response","445","930220","0.0-8.0-2.65","LF","wrmngomh1f","1280","720","de","at08ed04","null","","","","learningBlock2","","","","<div style=""font-size:60px;""> </div>","null","LF","learning/Slide146.JPG","This is a tob:","",""
"","html-keyboard-response","446","931223","0.0-8.0-0.66","LF","wrmngomh1f","1280","720","de","at08ed04","null","","","","learningBlock2","","","","This is a wug:","null","","","","",""
"","image-keyboard-response","447","931551","0.0-8.0-1.66","LF","wrmngomh1f","1280","720","de","at08ed04","null","","","","","","","","learning/Slide147.JPG","null","","","","",""
"","html-keyboard-response","448","932553","0.0-8.0-2.66","LF","wrmngomh1f","1280","720","de","at08ed04","null","","","","learningBlock2","","","","<div style=""font-size:60px;""> </div>","null","LF","learning/Slide147.JPG","This is a wug:","",""
"","html-keyboard-response","449","933555","0.0-8.0-0.67","LF","wrmngomh1f","1280","720","de","at08ed04","null","","","","learningBlock2","","","","This is a bim:","null","","","","",""
"","image-keyboard-response","450","933883","0.0-8.0-1.67","LF","wrmngomh1f","1280","720","de","at08ed04","null","","","","","","","","learning/Slide148.JPG","null","","","","",""
"","html-keyboard-response","451","934885","0.0-8.0-2.67","LF","wrmngomh1f","1280","720","de","at08ed04","null","","","","learningBlock2","","","","<div style=""font-size:60px;""> </div>","null","LF","learning/Slide148.JPG","This is a bim:","",""
"","html-keyboard-response","452","935901","0.0-8.0-0.68","LF","wrmngomh1f","1280","720","de","at08ed04","null","","","","learningBlock2","","","","This is a dep:","null","","","","",""
"","image-keyboard-response","453","936229","0.0-8.0-1.68","LF","wrmngomh1f","1280","720","de","at08ed04","null","","","","","","","","learning/Slide149.JPG","null","","","","",""
"","html-keyboard-response","454","937231","0.0-8.0-2.68","LF","wrmngomh1f","1280","720","de","at08ed04","null","","","","learningBlock2","","","","<div style=""font-size:60px;""> </div>","null","LF","learning/Slide149.JPG","This is a dep:","",""
"","html-keyboard-response","455","938235","0.0-8.0-0.69","LF","wrmngomh1f","1280","720","de","at08ed04","null","","","","learningBlock2","","","","This is a wug:","null","","","","",""
"","image-keyboard-response","456","938563","0.0-8.0-1.69","LF","wrmngomh1f","1280","720","de","at08ed04","null","","","","","","","","learning/Slide150.JPG","null","","","","",""
"","html-keyboard-response","457","939566","0.0-8.0-2.69","LF","wrmngomh1f","1280","720","de","at08ed04","null","","","","learningBlock2","","","","<div style=""font-size:60px;""> </div>","null","LF","learning/Slide150.JPG","This is a wug:","",""
"","html-keyboard-response","458","940568","0.0-8.0-0.70","LF","wrmngomh1f","1280","720","de","at08ed04","null","","","","learningBlock2","","","","This is a dep:","null","","","","",""
"","image-keyboard-response","459","940896","0.0-8.0-1.70","LF","wrmngomh1f","1280","720","de","at08ed04","null","","","","","","","","learning/Slide151.JPG","null","","","","",""
"","html-keyboard-response","460","941899","0.0-8.0-2.70","LF","wrmngomh1f","1280","720","de","at08ed04","null","","","","learningBlock2","","","","<div style=""font-size:60px;""> </div>","null","LF","learning/Slide151.JPG","This is a dep:","",""
"","html-keyboard-response","461","942901","0.0-8.0-0.71","LF","wrmngomh1f","1280","720","de","at08ed04","null","","","","learningBlock2","","","","This is a wug:","null","","","","",""
"","image-keyboard-response","462","943229","0.0-8.0-1.71","LF","wrmngomh1f","1280","720","de","at08ed04","null","","","","","","","","learning/Slide152.JPG","null","","","","",""
"","html-keyboard-response","463","944231","0.0-8.0-2.71","LF","wrmngomh1f","1280","720","de","at08ed04","null","","","","learningBlock2","","","","<div style=""font-size:60px;""> </div>","null","LF","learning/Slide152.JPG","This is a wug:","",""
"","html-keyboard-response","464","945235","0.0-8.0-0.72","LF","wrmngomh1f","1280","720","de","at08ed04","null","","","","learningBlock2","","","","This is a bim:","null","","","","",""
"","image-keyboard-response","465","945562","0.0-8.0-1.72","LF","wrmngomh1f","1280","720","de","at08ed04","null","","","","","","","","learning/Slide153.JPG","null","","","","",""
"","html-keyboard-response","466","946565","0.0-8.0-2.72","LF","wrmngomh1f","1280","720","de","at08ed04","null","","","","learningBlock2","","","","<div style=""font-size:60px;""> </div>","null","LF","learning/Slide153.JPG","This is a bim:","",""
"","html-keyboard-response","467","947568","0.0-8.0-0.73","LF","wrmngomh1f","1280","720","de","at08ed04","null","","","","learningBlock2","","","","This is a tob:","null","","","","",""
"","image-keyboard-response","468","947897","0.0-8.0-1.73","LF","wrmngomh1f","1280","720","de","at08ed04","null","","","","","","","","learning/Slide154.JPG","null","","","","",""
"","html-keyboard-response","469","948899","0.0-8.0-2.73","LF","wrmngomh1f","1280","720","de","at08ed04","null","","","","learningBlock2","","","","<div style=""font-size:60px;""> </div>","null","LF","learning/Slide154.JPG","This is a tob:","",""
"","html-keyboard-response","470","949901","0.0-8.0-0.74","LF","wrmngomh1f","1280","720","de","at08ed04","null","","","","learningBlock2","","","","This is a dep:","null","","","","",""
"","image-keyboard-response","471","950229","0.0-8.0-1.74","LF","wrmngomh1f","1280","720","de","at08ed04","null","","","","","","","","learning/Slide155.JPG","null","","","","",""
"","html-keyboard-response","472","951231","0.0-8.0-2.74","LF","wrmngomh1f","1280","720","de","at08ed04","null","","","","learningBlock2","","","","<div style=""font-size:60px;""> </div>","null","LF","learning/Slide155.JPG","This is a dep:","",""
"","html-keyboard-response","473","952233","0.0-8.0-0.75","LF","wrmngomh1f","1280","720","de","at08ed04","null","","","","learningBlock2","","","","This is a bim:","null","","","","",""
"","image-keyboard-response","474","952561","0.0-8.0-1.75","LF","wrmngomh1f","1280","720","de","at08ed04","null","","","","","","","","learning/Slide156.JPG","null","","","","",""
"","html-keyboard-response","475","953564","0.0-8.0-2.75","LF","wrmngomh1f","1280","720","de","at08ed04","null","","","","learningBlock2","","","","<div style=""font-size:60px;""> </div>","null","LF","learning/Slide156.JPG","This is a bim:","",""
"","html-keyboard-response","476","954566","0.0-8.0-0.76","LF","wrmngomh1f","1280","720","de","at08ed04","null","","","","learningBlock2","","","","This is a dep:","null","","","","",""
"","image-keyboard-response","477","954895","0.0-8.0-1.76","LF","wrmngomh1f","1280","720","de","at08ed04","null","","","","","","","","learning/Slide157.JPG","null","","","","",""
"","html-keyboard-response","478","955897","0.0-8.0-2.76","LF","wrmngomh1f","1280","720","de","at08ed04","null","","","","learningBlock2","","","","<div style=""font-size:60px;""> </div>","null","LF","learning/Slide157.JPG","This is a dep:","",""
"","html-keyboard-response","479","956900","0.0-8.0-0.77","LF","wrmngomh1f","1280","720","de","at08ed04","null","","","","learningBlock2","","","","This is a tob:","null","","","","",""
"","image-keyboard-response","480","957227","0.0-8.0-1.77","LF","wrmngomh1f","1280","720","de","at08ed04","null","","","","","","","","learning/Slide158.JPG","null","","","","",""
"","html-keyboard-response","481","958230","0.0-8.0-2.77","LF","wrmngomh1f","1280","720","de","at08ed04","null","","","","learningBlock2","","","","<div style=""font-size:60px;""> </div>","null","LF","learning/Slide158.JPG","This is a tob:","",""
"","html-keyboard-response","482","959232","0.0-8.0-0.78","LF","wrmngomh1f","1280","720","de","at08ed04","null","","","","learningBlock2","","","","This is a dep:","null","","","","",""
"","image-keyboard-response","483","959560","0.0-8.0-1.78","LF","wrmngomh1f","1280","720","de","at08ed04","null","","","","","","","","learning/Slide159.JPG","null","","","","",""
"","html-keyboard-response","484","960562","0.0-8.0-2.78","LF","wrmngomh1f","1280","720","de","at08ed04","null","","","","learningBlock2","","","","<div style=""font-size:60px;""> </div>","null","LF","learning/Slide159.JPG","This is a dep:","",""
"","html-keyboard-response","485","961565","0.0-8.0-0.79","LF","wrmngomh1f","1280","720","de","at08ed04","null","","","","learningBlock2","","","","This is a wug:","null","","","","",""
"","image-keyboard-response","486","961892","0.0-8.0-1.79","LF","wrmngomh1f","1280","720","de","at08ed04","null","","","","","","","","learning/Slide160.JPG","null","","","","",""
"","html-keyboard-response","487","962895","0.0-8.0-2.79","LF","wrmngomh1f","1280","720","de","at08ed04","null","","","","learningBlock2","","","","<div style=""font-size:60px;""> </div>","null","LF","learning/Slide160.JPG","This is a wug:","",""
"","resize2","488","965954","0.0-9.0","LF","wrmngomh1f","1280","720","de","at08ed04","","","","","","","104","1.04","","","","","","",""
"","instructions","489","989855","0.0-10.0","LF","wrmngomh1f","1280","720","de","at08ed04","NA","","","[{""page_index"":0,""viewing_time"":23900.305000017397}]","instructions","","","","","","","","","",""
