"success","trial_type","trial_index","time_elapsed","internal_node_id","condition","subject","screen_width","screen_height","language","codeword","rt","responses","url","view_history","test_part","final_height_px","final_width_px","scale_factor","stimulus","key_press","learningType","presentedImage","presentedLabel","button_pressed","response"
"true","fullscreen","0","2296","0.0-0.0","FL","sob32efsmd","1536","864","en","qi02ng28","","","","","","","","","","","","","","",""
"","survey-html-form","1","3413","0.0-1.0","FL","sob32efsmd","1536","864","en","qi02ng28","1113.1900000036694","{""language"":""en""}","","","","","","","","","","","","",""
"","external-html","2","5687","0.0-3.0-0.0","FL","sob32efsmd","1536","864","en","qi02ng28","2265.5000000086147","","text/information_english.html","","","","","","","","","","","",""
"","external-html","3","9579","0.0-3.0-1.0","FL","sob32efsmd","1536","864","en","qi02ng28","3881.950000009965","","text/consent_english.html","","","","","","","","","","","",""
"","survey-html-form","4","13079","0.0-3.0-2.0","FL","sob32efsmd","1536","864","en","qi02ng28","3497.6650000025984","{""codeword_enter"":""qi02ng28""}","","","","","","","","","","","","",""
"","instructions","5","16615","0.0-4.0","FL","sob32efsmd","1536","864","en","qi02ng28","NA","","","[{""page_index"":0,""viewing_time"":1037.4200000078417},{""page_index"":1,""viewing_time"":995.9899999957997}]","instructions","","","","","","","","","",""
"","resize","6","35053","0.0-5.0","FL","sob32efsmd","1536","864","en","qi02ng28","","","","","","","380","2.4126984126984126","","","","","","",""
"","image-keyboard-response","7","35247","0.0-6.0-0.0","FL","sob32efsmd","1536","864","en","qi02ng28","null","","","","","","","","learning/Slide1.JPG","null","","","","",""
"","html-keyboard-response","8","36410","0.0-6.0-1.0","FL","sob32efsmd","1536","864","en","qi02ng28","null","","","","learningBlock1","","","","That was a tob.","null","","","","",""
"","html-keyboard-response","9","37422","0.0-6.0-2.0","FL","sob32efsmd","1536","864","en","qi02ng28","null","","","","learningBlock1","","","","<div style=""font-size:60px;""> </div>","null","FL","learning/Slide1.JPG","That was a tob.","",""
"","image-keyboard-response","10","37605","0.0-6.0-0.1","FL","sob32efsmd","1536","864","en","qi02ng28","null","","","","","","","","learning/Slide2.JPG","null","","","","",""
"","html-keyboard-response","11","38776","0.0-6.0-1.1","FL","sob32efsmd","1536","864","en","qi02ng28","null","","","","learningBlock1","","","","That was a wug.","null","","","","",""
"","html-keyboard-response","12","39783","0.0-6.0-2.1","FL","sob32efsmd","1536","864","en","qi02ng28","null","","","","learningBlock1","","","","<div style=""font-size:60px;""> </div>","null","FL","learning/Slide2.JPG","That was a wug.","",""
"","image-keyboard-response","13","39966","0.0-6.0-0.2","FL","sob32efsmd","1536","864","en","qi02ng28","null","","","","","","","","learning/Slide3.JPG","null","","","","",""
"","html-keyboard-response","14","41133","0.0-6.0-1.2","FL","sob32efsmd","1536","864","en","qi02ng28","null","","","","learningBlock1","","","","That was a bim.","null","","","","",""
"","html-keyboard-response","15","42148","0.0-6.0-2.2","FL","sob32efsmd","1536","864","en","qi02ng28","null","","","","learningBlock1","","","","<div style=""font-size:60px;""> </div>","null","FL","learning/Slide3.JPG","That was a bim.","",""
"","image-keyboard-response","16","42328","0.0-6.0-0.3","FL","sob32efsmd","1536","864","en","qi02ng28","null","","","","","","","","learning/Slide4.JPG","null","","","","",""
"","html-keyboard-response","17","43502","0.0-6.0-1.3","FL","sob32efsmd","1536","864","en","qi02ng28","null","","","","learningBlock1","","","","That was a dep.","null","","","","",""
"","html-keyboard-response","18","44504","0.0-6.0-2.3","FL","sob32efsmd","1536","864","en","qi02ng28","null","","","","learningBlock1","","","","<div style=""font-size:60px;""> </div>","null","FL","learning/Slide4.JPG","That was a dep.","",""
"","image-keyboard-response","19","44684","0.0-6.0-0.4","FL","sob32efsmd","1536","864","en","qi02ng28","null","","","","","","","","learning/Slide5.JPG","null","","","","",""
"","html-keyboard-response","20","45847","0.0-6.0-1.4","FL","sob32efsmd","1536","864","en","qi02ng28","null","","","","learningBlock1","","","","That was a wug.","null","","","","",""
"","html-keyboard-response","21","46855","0.0-6.0-2.4","FL","sob32efsmd","1536","864","en","qi02ng28","null","","","","learningBlock1","","","","<div style=""font-size:60px;""> </div>","null","FL","learning/Slide5.JPG","That was a wug.","",""
"","image-keyboard-response","22","47034","0.0-6.0-0.5","FL","sob32efsmd","1536","864","en","qi02ng28","null","","","","","","","","learning/Slide6.JPG","null","","","","",""
"","html-keyboard-response","23","48206","0.0-6.0-1.5","FL","sob32efsmd","1536","864","en","qi02ng28","null","","","","learningBlock1","","","","That was a dep.","null","","","","",""
"","html-keyboard-response","24","49215","0.0-6.0-2.5","FL","sob32efsmd","1536","864","en","qi02ng28","null","","","","learningBlock1","","","","<div style=""font-size:60px;""> </div>","null","FL","learning/Slide6.JPG","That was a dep.","",""
"","image-keyboard-response","25","49399","0.0-6.0-0.6","FL","sob32efsmd","1536","864","en","qi02ng28","null","","","","","","","","learning/Slide7.JPG","null","","","","",""
"","html-keyboard-response","26","50571","0.0-6.0-1.6","FL","sob32efsmd","1536","864","en","qi02ng28","null","","","","learningBlock1","","","","That was a wug.","null","","","","",""
"","html-keyboard-response","27","51583","0.0-6.0-2.6","FL","sob32efsmd","1536","864","en","qi02ng28","null","","","","learningBlock1","","","","<div style=""font-size:60px;""> </div>","null","FL","learning/Slide7.JPG","That was a wug.","",""
"","image-keyboard-response","28","51765","0.0-6.0-0.7","FL","sob32efsmd","1536","864","en","qi02ng28","null","","","","","","","","learning/Slide8.JPG","null","","","","",""
"","html-keyboard-response","29","52932","0.0-6.0-1.7","FL","sob32efsmd","1536","864","en","qi02ng28","null","","","","learningBlock1","","","","That was a bim.","null","","","","",""
"","html-keyboard-response","30","53934","0.0-6.0-2.7","FL","sob32efsmd","1536","864","en","qi02ng28","null","","","","learningBlock1","","","","<div style=""font-size:60px;""> </div>","null","FL","learning/Slide8.JPG","That was a bim.","",""
"","image-keyboard-response","31","54118","0.0-6.0-0.8","FL","sob32efsmd","1536","864","en","qi02ng28","null","","","","","","","","learning/Slide9.JPG","null","","","","",""
"","html-keyboard-response","32","55275","0.0-6.0-1.8","FL","sob32efsmd","1536","864","en","qi02ng28","null","","","","learningBlock1","","","","That was a wug.","null","","","","",""
"","html-keyboard-response","33","56284","0.0-6.0-2.8","FL","sob32efsmd","1536","864","en","qi02ng28","null","","","","learningBlock1","","","","<div style=""font-size:60px;""> </div>","null","FL","learning/Slide9.JPG","That was a wug.","",""
"","image-keyboard-response","34","56469","0.0-6.0-0.9","FL","sob32efsmd","1536","864","en","qi02ng28","null","","","","","","","","learning/Slide10.JPG","null","","","","",""
"","html-keyboard-response","35","57630","0.0-6.0-1.9","FL","sob32efsmd","1536","864","en","qi02ng28","null","","","","learningBlock1","","","","That was a dep.","null","","","","",""
"","html-keyboard-response","36","58640","0.0-6.0-2.9","FL","sob32efsmd","1536","864","en","qi02ng28","null","","","","learningBlock1","","","","<div style=""font-size:60px;""> </div>","null","FL","learning/Slide10.JPG","That was a dep.","",""
"","image-keyboard-response","37","58826","0.0-6.0-0.10","FL","sob32efsmd","1536","864","en","qi02ng28","null","","","","","","","","learning/Slide11.JPG","null","","","","",""
"","html-keyboard-response","38","59987","0.0-6.0-1.10","FL","sob32efsmd","1536","864","en","qi02ng28","null","","","","learningBlock1","","","","That was a tob.","null","","","","",""
"","html-keyboard-response","39","60996","0.0-6.0-2.10","FL","sob32efsmd","1536","864","en","qi02ng28","null","","","","learningBlock1","","","","<div style=""font-size:60px;""> </div>","null","FL","learning/Slide11.JPG","That was a tob.","",""
"","image-keyboard-response","40","61182","0.0-6.0-0.11","FL","sob32efsmd","1536","864","en","qi02ng28","null","","","","","","","","learning/Slide12.JPG","null","","","","",""
"","html-keyboard-response","41","62358","0.0-6.0-1.11","FL","sob32efsmd","1536","864","en","qi02ng28","null","","","","learningBlock1","","","","That was a dep.","null","","","","",""
"","html-keyboard-response","42","63360","0.0-6.0-2.11","FL","sob32efsmd","1536","864","en","qi02ng28","null","","","","learningBlock1","","","","<div style=""font-size:60px;""> </div>","null","FL","learning/Slide12.JPG","That was a dep.","",""
"","image-keyboard-response","43","63537","0.0-6.0-0.12","FL","sob32efsmd","1536","864","en","qi02ng28","null","","","","","","","","learning/Slide13.JPG","null","","","","",""
"","html-keyboard-response","44","64692","0.0-6.0-1.12","FL","sob32efsmd","1536","864","en","qi02ng28","null","","","","learningBlock1","","","","That was a bim.","null","","","","",""
"","html-keyboard-response","45","65704","0.0-6.0-2.12","FL","sob32efsmd","1536","864","en","qi02ng28","null","","","","learningBlock1","","","","<div style=""font-size:60px;""> </div>","null","FL","learning/Slide13.JPG","That was a bim.","",""
"","image-keyboard-response","46","65882","0.0-6.0-0.13","FL","sob32efsmd","1536","864","en","qi02ng28","null","","","","","","","","learning/Slide14.JPG","null","","","","",""
"","html-keyboard-response","47","67038","0.0-6.0-1.13","FL","sob32efsmd","1536","864","en","qi02ng28","null","","","","learningBlock1","","","","That was a wug.","null","","","","",""
"","html-keyboard-response","48","68049","0.0-6.0-2.13","FL","sob32efsmd","1536","864","en","qi02ng28","null","","","","learningBlock1","","","","<div style=""font-size:60px;""> </div>","null","FL","learning/Slide14.JPG","That was a wug.","",""
"","image-keyboard-response","49","68231","0.0-6.0-0.14","FL","sob32efsmd","1536","864","en","qi02ng28","null","","","","","","","","learning/Slide15.JPG","null","","","","",""
"","html-keyboard-response","50","69387","0.0-6.0-1.14","FL","sob32efsmd","1536","864","en","qi02ng28","null","","","","learningBlock1","","","","That was a tob.","null","","","","",""
"","html-keyboard-response","51","70403","0.0-6.0-2.14","FL","sob32efsmd","1536","864","en","qi02ng28","null","","","","learningBlock1","","","","<div style=""font-size:60px;""> </div>","null","FL","learning/Slide15.JPG","That was a tob.","",""
"","image-keyboard-response","52","70584","0.0-6.0-0.15","FL","sob32efsmd","1536","864","en","qi02ng28","null","","","","","","","","learning/Slide16.JPG","null","","","","",""
"","html-keyboard-response","53","71755","0.0-6.0-1.15","FL","sob32efsmd","1536","864","en","qi02ng28","null","","","","learningBlock1","","","","That was a dep.","null","","","","",""
"","html-keyboard-response","54","72759","0.0-6.0-2.15","FL","sob32efsmd","1536","864","en","qi02ng28","null","","","","learningBlock1","","","","<div style=""font-size:60px;""> </div>","null","FL","learning/Slide16.JPG","That was a dep.","",""
"","image-keyboard-response","55","72943","0.0-6.0-0.16","FL","sob32efsmd","1536","864","en","qi02ng28","null","","","","","","","","learning/Slide17.JPG","null","","","","",""
"","html-keyboard-response","56","74106","0.0-6.0-1.16","FL","sob32efsmd","1536","864","en","qi02ng28","null","","","","learningBlock1","","","","That was a bim.","null","","","","",""
"","html-keyboard-response","57","75117","0.0-6.0-2.16","FL","sob32efsmd","1536","864","en","qi02ng28","null","","","","learningBlock1","","","","<div style=""font-size:60px;""> </div>","null","FL","learning/Slide17.JPG","That was a bim.","",""
"","image-keyboard-response","58","75296","0.0-6.0-0.17","FL","sob32efsmd","1536","864","en","qi02ng28","null","","","","","","","","learning/Slide18.JPG","null","","","","",""
"","html-keyboard-response","59","76466","0.0-6.0-1.17","FL","sob32efsmd","1536","864","en","qi02ng28","null","","","","learningBlock1","","","","That was a tob.","null","","","","",""
"","html-keyboard-response","60","77477","0.0-6.0-2.17","FL","sob32efsmd","1536","864","en","qi02ng28","null","","","","learningBlock1","","","","<div style=""font-size:60px;""> </div>","null","FL","learning/Slide18.JPG","That was a tob.","",""
"","image-keyboard-response","61","77657","0.0-6.0-0.18","FL","sob32efsmd","1536","864","en","qi02ng28","null","","","","","","","","learning/Slide19.JPG","null","","","","",""
"","html-keyboard-response","62","78833","0.0-6.0-1.18","FL","sob32efsmd","1536","864","en","qi02ng28","null","","","","learningBlock1","","","","That was a wug.","null","","","","",""
"","html-keyboard-response","63","79838","0.0-6.0-2.18","FL","sob32efsmd","1536","864","en","qi02ng28","null","","","","learningBlock1","","","","<div style=""font-size:60px;""> </div>","null","FL","learning/Slide19.JPG","That was a wug.","",""
"","image-keyboard-response","64","80022","0.0-6.0-0.19","FL","sob32efsmd","1536","864","en","qi02ng28","null","","","","","","","","learning/Slide20.JPG","null","","","","",""
"","html-keyboard-response","65","81183","0.0-6.0-1.19","FL","sob32efsmd","1536","864","en","qi02ng28","null","","","","learningBlock1","","","","That was a bim.","null","","","","",""
"","html-keyboard-response","66","82192","0.0-6.0-2.19","FL","sob32efsmd","1536","864","en","qi02ng28","null","","","","learningBlock1","","","","<div style=""font-size:60px;""> </div>","null","FL","learning/Slide20.JPG","That was a bim.","",""
"","image-keyboard-response","67","82374","0.0-6.0-0.20","FL","sob32efsmd","1536","864","en","qi02ng28","null","","","","","","","","learning/Slide21.JPG","null","","","","",""
"","html-keyboard-response","68","83535","0.0-6.0-1.20","FL","sob32efsmd","1536","864","en","qi02ng28","null","","","","learningBlock1","","","","That was a dep.","null","","","","",""
"","html-keyboard-response","69","84545","0.0-6.0-2.20","FL","sob32efsmd","1536","864","en","qi02ng28","null","","","","learningBlock1","","","","<div style=""font-size:60px;""> </div>","null","FL","learning/Slide21.JPG","That was a dep.","",""
"","image-keyboard-response","70","84728","0.0-6.0-0.21","FL","sob32efsmd","1536","864","en","qi02ng28","null","","","","","","","","learning/Slide22.JPG","null","","","","",""
"","html-keyboard-response","71","85898","0.0-6.0-1.21","FL","sob32efsmd","1536","864","en","qi02ng28","null","","","","learningBlock1","","","","That was a bim.","null","","","","",""
"","html-keyboard-response","72","86907","0.0-6.0-2.21","FL","sob32efsmd","1536","864","en","qi02ng28","null","","","","learningBlock1","","","","<div style=""font-size:60px;""> </div>","null","FL","learning/Slide22.JPG","That was a bim.","",""
"","image-keyboard-response","73","87097","0.0-6.0-0.22","FL","sob32efsmd","1536","864","en","qi02ng28","null","","","","","","","","learning/Slide23.JPG","null","","","","",""
"","html-keyboard-response","74","88267","0.0-6.0-1.22","FL","sob32efsmd","1536","864","en","qi02ng28","null","","","","learningBlock1","","","","That was a tob.","null","","","","",""
"","html-keyboard-response","75","89269","0.0-6.0-2.22","FL","sob32efsmd","1536","864","en","qi02ng28","null","","","","learningBlock1","","","","<div style=""font-size:60px;""> </div>","null","FL","learning/Slide23.JPG","That was a tob.","",""
"","image-keyboard-response","76","89453","0.0-6.0-0.23","FL","sob32efsmd","1536","864","en","qi02ng28","null","","","","","","","","learning/Slide24.JPG","null","","","","",""
"","html-keyboard-response","77","90621","0.0-6.0-1.23","FL","sob32efsmd","1536","864","en","qi02ng28","null","","","","learningBlock1","","","","That was a wug.","null","","","","",""
"","html-keyboard-response","78","91624","0.0-6.0-2.23","FL","sob32efsmd","1536","864","en","qi02ng28","null","","","","learningBlock1","","","","<div style=""font-size:60px;""> </div>","null","FL","learning/Slide24.JPG","That was a wug.","",""
"","image-keyboard-response","79","91801","0.0-6.0-0.24","FL","sob32efsmd","1536","864","en","qi02ng28","null","","","","","","","","learning/Slide25.JPG","null","","","","",""
"","html-keyboard-response","80","92959","0.0-6.0-1.24","FL","sob32efsmd","1536","864","en","qi02ng28","null","","","","learningBlock1","","","","That was a dep.","null","","","","",""
"","html-keyboard-response","81","93971","0.0-6.0-2.24","FL","sob32efsmd","1536","864","en","qi02ng28","null","","","","learningBlock1","","","","<div style=""font-size:60px;""> </div>","null","FL","learning/Slide25.JPG","That was a dep.","",""
"","image-keyboard-response","82","94153","0.0-6.0-0.25","FL","sob32efsmd","1536","864","en","qi02ng28","null","","","","","","","","learning/Slide26.JPG","null","","","","",""
"","html-keyboard-response","83","95316","0.0-6.0-1.25","FL","sob32efsmd","1536","864","en","qi02ng28","null","","","","learningBlock1","","","","That was a wug.","null","","","","",""
"","html-keyboard-response","84","96318","0.0-6.0-2.25","FL","sob32efsmd","1536","864","en","qi02ng28","null","","","","learningBlock1","","","","<div style=""font-size:60px;""> </div>","null","FL","learning/Slide26.JPG","That was a wug.","",""
"","image-keyboard-response","85","96499","0.0-6.0-0.26","FL","sob32efsmd","1536","864","en","qi02ng28","null","","","","","","","","learning/Slide27.JPG","null","","","","",""
"","html-keyboard-response","86","97666","0.0-6.0-1.26","FL","sob32efsmd","1536","864","en","qi02ng28","null","","","","learningBlock1","","","","That was a bim.","null","","","","",""
"","html-keyboard-response","87","98676","0.0-6.0-2.26","FL","sob32efsmd","1536","864","en","qi02ng28","null","","","","learningBlock1","","","","<div style=""font-size:60px;""> </div>","null","FL","learning/Slide27.JPG","That was a bim.","",""
"","image-keyboard-response","88","98854","0.0-6.0-0.27","FL","sob32efsmd","1536","864","en","qi02ng28","null","","","","","","","","learning/Slide28.JPG","null","","","","",""
"","html-keyboard-response","89","100013","0.0-6.0-1.27","FL","sob32efsmd","1536","864","en","qi02ng28","null","","","","learningBlock1","","","","That was a dep.","null","","","","",""
"","html-keyboard-response","90","101026","0.0-6.0-2.27","FL","sob32efsmd","1536","864","en","qi02ng28","null","","","","learningBlock1","","","","<div style=""font-size:60px;""> </div>","null","FL","learning/Slide28.JPG","That was a dep.","",""
"","image-keyboard-response","91","101203","0.0-6.0-0.28","FL","sob32efsmd","1536","864","en","qi02ng28","null","","","","","","","","learning/Slide29.JPG","null","","","","",""
"","html-keyboard-response","92","102363","0.0-6.0-1.28","FL","sob32efsmd","1536","864","en","qi02ng28","null","","","","learningBlock1","","","","That was a tob.","null","","","","",""
"","html-keyboard-response","93","103370","0.0-6.0-2.28","FL","sob32efsmd","1536","864","en","qi02ng28","null","","","","learningBlock1","","","","<div style=""font-size:60px;""> </div>","null","FL","learning/Slide29.JPG","That was a tob.","",""
"","image-keyboard-response","94","103561","0.0-6.0-0.29","FL","sob32efsmd","1536","864","en","qi02ng28","null","","","","","","","","learning/Slide30.JPG","null","","","","",""
"","html-keyboard-response","95","104729","0.0-6.0-1.29","FL","sob32efsmd","1536","864","en","qi02ng28","null","","","","learningBlock1","","","","That was a dep.","null","","","","",""
"","html-keyboard-response","96","105733","0.0-6.0-2.29","FL","sob32efsmd","1536","864","en","qi02ng28","null","","","","learningBlock1","","","","<div style=""font-size:60px;""> </div>","null","FL","learning/Slide30.JPG","That was a dep.","",""
"","image-keyboard-response","97","105924","0.0-6.0-0.30","FL","sob32efsmd","1536","864","en","qi02ng28","null","","","","","","","","learning/Slide31.JPG","null","","","","",""
"","html-keyboard-response","98","107088","0.0-6.0-1.30","FL","sob32efsmd","1536","864","en","qi02ng28","null","","","","learningBlock1","","","","That was a wug.","null","","","","",""
"","html-keyboard-response","99","108093","0.0-6.0-2.30","FL","sob32efsmd","1536","864","en","qi02ng28","null","","","","learningBlock1","","","","<div style=""font-size:60px;""> </div>","null","FL","learning/Slide31.JPG","That was a wug.","",""
"","image-keyboard-response","100","108270","0.0-6.0-0.31","FL","sob32efsmd","1536","864","en","qi02ng28","null","","","","","","","","learning/Slide32.JPG","null","","","","",""
"","html-keyboard-response","101","109432","0.0-6.0-1.31","FL","sob32efsmd","1536","864","en","qi02ng28","null","","","","learningBlock1","","","","That was a tob.","null","","","","",""
"","html-keyboard-response","102","110436","0.0-6.0-2.31","FL","sob32efsmd","1536","864","en","qi02ng28","null","","","","learningBlock1","","","","<div style=""font-size:60px;""> </div>","null","FL","learning/Slide32.JPG","That was a tob.","",""
"","image-keyboard-response","103","110620","0.0-6.0-0.32","FL","sob32efsmd","1536","864","en","qi02ng28","null","","","","","","","","learning/Slide33.JPG","null","","","","",""
"","html-keyboard-response","104","111777","0.0-6.0-1.32","FL","sob32efsmd","1536","864","en","qi02ng28","null","","","","learningBlock1","","","","That was a bim.","null","","","","",""
"","html-keyboard-response","105","112786","0.0-6.0-2.32","FL","sob32efsmd","1536","864","en","qi02ng28","null","","","","learningBlock1","","","","<div style=""font-size:60px;""> </div>","null","FL","learning/Slide33.JPG","That was a bim.","",""
"","image-keyboard-response","106","112964","0.0-6.0-0.33","FL","sob32efsmd","1536","864","en","qi02ng28","null","","","","","","","","learning/Slide34.JPG","null","","","","",""
"","html-keyboard-response","107","114128","0.0-6.0-1.33","FL","sob32efsmd","1536","864","en","qi02ng28","null","","","","learningBlock1","","","","That was a tob.","null","","","","",""
"","html-keyboard-response","108","115137","0.0-6.0-2.33","FL","sob32efsmd","1536","864","en","qi02ng28","null","","","","learningBlock1","","","","<div style=""font-size:60px;""> </div>","null","FL","learning/Slide34.JPG","That was a tob.","",""
"","image-keyboard-response","109","115324","0.0-6.0-0.34","FL","sob32efsmd","1536","864","en","qi02ng28","null","","","","","","","","learning/Slide35.JPG","null","","","","",""
"","html-keyboard-response","110","116484","0.0-6.0-1.34","FL","sob32efsmd","1536","864","en","qi02ng28","null","","","","learningBlock1","","","","That was a bim.","null","","","","",""
"","html-keyboard-response","111","117500","0.0-6.0-2.34","FL","sob32efsmd","1536","864","en","qi02ng28","null","","","","learningBlock1","","","","<div style=""font-size:60px;""> </div>","null","FL","learning/Slide35.JPG","That was a bim.","",""
"","image-keyboard-response","112","117678","0.0-6.0-0.35","FL","sob32efsmd","1536","864","en","qi02ng28","null","","","","","","","","learning/Slide36.JPG","null","","","","",""
"","html-keyboard-response","113","118839","0.0-6.0-1.35","FL","sob32efsmd","1536","864","en","qi02ng28","null","","","","learningBlock1","","","","That was a dep.","null","","","","",""
"","html-keyboard-response","114","119842","0.0-6.0-2.35","FL","sob32efsmd","1536","864","en","qi02ng28","null","","","","learningBlock1","","","","<div style=""font-size:60px;""> </div>","null","FL","learning/Slide36.JPG","That was a dep.","",""
"","image-keyboard-response","115","120033","0.0-6.0-0.36","FL","sob32efsmd","1536","864","en","qi02ng28","null","","","","","","","","learning/Slide37.JPG","null","","","","",""
"","html-keyboard-response","116","121186","0.0-6.0-1.36","FL","sob32efsmd","1536","864","en","qi02ng28","null","","","","learningBlock1","","","","That was a tob.","null","","","","",""
"","html-keyboard-response","117","122197","0.0-6.0-2.36","FL","sob32efsmd","1536","864","en","qi02ng28","null","","","","learningBlock1","","","","<div style=""font-size:60px;""> </div>","null","FL","learning/Slide37.JPG","That was a tob.","",""
"","image-keyboard-response","118","122376","0.0-6.0-0.37","FL","sob32efsmd","1536","864","en","qi02ng28","null","","","","","","","","learning/Slide38.JPG","null","","","","",""
"","html-keyboard-response","119","123551","0.0-6.0-1.37","FL","sob32efsmd","1536","864","en","qi02ng28","null","","","","learningBlock1","","","","That was a wug.","null","","","","",""
"","html-keyboard-response","120","124561","0.0-6.0-2.37","FL","sob32efsmd","1536","864","en","qi02ng28","null","","","","learningBlock1","","","","<div style=""font-size:60px;""> </div>","null","FL","learning/Slide38.JPG","That was a wug.","",""
"","image-keyboard-response","121","124747","0.0-6.0-0.38","FL","sob32efsmd","1536","864","en","qi02ng28","null","","","","","","","","learning/Slide39.JPG","null","","","","",""
"","html-keyboard-response","122","125908","0.0-6.0-1.38","FL","sob32efsmd","1536","864","en","qi02ng28","null","","","","learningBlock1","","","","That was a bim.","null","","","","",""
"","html-keyboard-response","123","126917","0.0-6.0-2.38","FL","sob32efsmd","1536","864","en","qi02ng28","null","","","","learningBlock1","","","","<div style=""font-size:60px;""> </div>","null","FL","learning/Slide39.JPG","That was a bim.","",""
"","image-keyboard-response","124","127096","0.0-6.0-0.39","FL","sob32efsmd","1536","864","en","qi02ng28","null","","","","","","","","learning/Slide40.JPG","null","","","","",""
"","html-keyboard-response","125","128253","0.0-6.0-1.39","FL","sob32efsmd","1536","864","en","qi02ng28","null","","","","learningBlock1","","","","That was a tob.","null","","","","",""
"","html-keyboard-response","126","129266","0.0-6.0-2.39","FL","sob32efsmd","1536","864","en","qi02ng28","null","","","","learningBlock1","","","","<div style=""font-size:60px;""> </div>","null","FL","learning/Slide40.JPG","That was a tob.","",""
"","image-keyboard-response","127","129447","0.0-6.0-0.40","FL","sob32efsmd","1536","864","en","qi02ng28","null","","","","","","","","learning/Slide41.JPG","null","","","","",""
"","html-keyboard-response","128","130603","0.0-6.0-1.40","FL","sob32efsmd","1536","864","en","qi02ng28","null","","","","learningBlock1","","","","That was a bim.","null","","","","",""
"","html-keyboard-response","129","131610","0.0-6.0-2.40","FL","sob32efsmd","1536","864","en","qi02ng28","null","","","","learningBlock1","","","","<div style=""font-size:60px;""> </div>","null","FL","learning/Slide41.JPG","That was a bim.","",""
"","image-keyboard-response","130","131787","0.0-6.0-0.41","FL","sob32efsmd","1536","864","en","qi02ng28","null","","","","","","","","learning/Slide42.JPG","null","","","","",""
"","html-keyboard-response","131","132947","0.0-6.0-1.41","FL","sob32efsmd","1536","864","en","qi02ng28","null","","","","learningBlock1","","","","That was a dep.","null","","","","",""
"","html-keyboard-response","132","133956","0.0-6.0-2.41","FL","sob32efsmd","1536","864","en","qi02ng28","null","","","","learningBlock1","","","","<div style=""font-size:60px;""> </div>","null","FL","learning/Slide42.JPG","That was a dep.","",""
"","image-keyboard-response","133","134140","0.0-6.0-0.42","FL","sob32efsmd","1536","864","en","qi02ng28","null","","","","","","","","learning/Slide43.JPG","null","","","","",""
"","html-keyboard-response","134","135311","0.0-6.0-1.42","FL","sob32efsmd","1536","864","en","qi02ng28","null","","","","learningBlock1","","","","That was a wug.","null","","","","",""
"","html-keyboard-response","135","136316","0.0-6.0-2.42","FL","sob32efsmd","1536","864","en","qi02ng28","null","","","","learningBlock1","","","","<div style=""font-size:60px;""> </div>","null","FL","learning/Slide43.JPG","That was a wug.","",""
"","image-keyboard-response","136","136496","0.0-6.0-0.43","FL","sob32efsmd","1536","864","en","qi02ng28","null","","","","","","","","learning/Slide44.JPG","null","","","","",""
"","html-keyboard-response","137","137663","0.0-6.0-1.43","FL","sob32efsmd","1536","864","en","qi02ng28","null","","","","learningBlock1","","","","That was a bim.","null","","","","",""
"","html-keyboard-response","138","138670","0.0-6.0-2.43","FL","sob32efsmd","1536","864","en","qi02ng28","null","","","","learningBlock1","","","","<div style=""font-size:60px;""> </div>","null","FL","learning/Slide44.JPG","That was a bim.","",""
"","image-keyboard-response","139","138847","0.0-6.0-0.44","FL","sob32efsmd","1536","864","en","qi02ng28","null","","","","","","","","learning/Slide45.JPG","null","","","","",""
"","html-keyboard-response","140","140000","0.0-6.0-1.44","FL","sob32efsmd","1536","864","en","qi02ng28","null","","","","learningBlock1","","","","That was a wug.","null","","","","",""
"","html-keyboard-response","141","141009","0.0-6.0-2.44","FL","sob32efsmd","1536","864","en","qi02ng28","null","","","","learningBlock1","","","","<div style=""font-size:60px;""> </div>","null","FL","learning/Slide45.JPG","That was a wug.","",""
"","image-keyboard-response","142","141194","0.0-6.0-0.45","FL","sob32efsmd","1536","864","en","qi02ng28","null","","","","","","","","learning/Slide46.JPG","null","","","","",""
"","html-keyboard-response","143","142358","0.0-6.0-1.45","FL","sob32efsmd","1536","864","en","qi02ng28","null","","","","learningBlock1","","","","That was a dep.","null","","","","",""
"","html-keyboard-response","144","143361","0.0-6.0-2.45","FL","sob32efsmd","1536","864","en","qi02ng28","null","","","","learningBlock1","","","","<div style=""font-size:60px;""> </div>","null","FL","learning/Slide46.JPG","That was a dep.","",""
"","image-keyboard-response","145","143538","0.0-6.0-0.46","FL","sob32efsmd","1536","864","en","qi02ng28","null","","","","","","","","learning/Slide47.JPG","null","","","","",""
"","html-keyboard-response","146","144698","0.0-6.0-1.46","FL","sob32efsmd","1536","864","en","qi02ng28","null","","","","learningBlock1","","","","That was a tob.","null","","","","",""
"","html-keyboard-response","147","145710","0.0-6.0-2.46","FL","sob32efsmd","1536","864","en","qi02ng28","null","","","","learningBlock1","","","","<div style=""font-size:60px;""> </div>","null","FL","learning/Slide47.JPG","That was a tob.","",""
"","image-keyboard-response","148","145894","0.0-6.0-0.47","FL","sob32efsmd","1536","864","en","qi02ng28","null","","","","","","","","learning/Slide48.JPG","null","","","","",""
"","html-keyboard-response","149","147049","0.0-6.0-1.47","FL","sob32efsmd","1536","864","en","qi02ng28","null","","","","learningBlock1","","","","That was a bim.","null","","","","",""
"","html-keyboard-response","150","148058","0.0-6.0-2.47","FL","sob32efsmd","1536","864","en","qi02ng28","null","","","","learningBlock1","","","","<div style=""font-size:60px;""> </div>","null","FL","learning/Slide48.JPG","That was a bim.","",""
"","image-keyboard-response","151","148248","0.0-6.0-0.48","FL","sob32efsmd","1536","864","en","qi02ng28","null","","","","","","","","learning/Slide49.JPG","null","","","","",""
"","html-keyboard-response","152","149408","0.0-6.0-1.48","FL","sob32efsmd","1536","864","en","qi02ng28","null","","","","learningBlock1","","","","That was a dep.","null","","","","",""
"","html-keyboard-response","153","150413","0.0-6.0-2.48","FL","sob32efsmd","1536","864","en","qi02ng28","null","","","","learningBlock1","","","","<div style=""font-size:60px;""> </div>","null","FL","learning/Slide49.JPG","That was a dep.","",""
"","image-keyboard-response","154","150597","0.0-6.0-0.49","FL","sob32efsmd","1536","864","en","qi02ng28","null","","","","","","","","learning/Slide50.JPG","null","","","","",""
"","html-keyboard-response","155","151763","0.0-6.0-1.49","FL","sob32efsmd","1536","864","en","qi02ng28","null","","","","learningBlock1","","","","That was a tob.","null","","","","",""
"","html-keyboard-response","156","152774","0.0-6.0-2.49","FL","sob32efsmd","1536","864","en","qi02ng28","null","","","","learningBlock1","","","","<div style=""font-size:60px;""> </div>","null","FL","learning/Slide50.JPG","That was a tob.","",""
"","image-keyboard-response","157","152959","0.0-6.0-0.50","FL","sob32efsmd","1536","864","en","qi02ng28","null","","","","","","","","learning/Slide51.JPG","null","","","","",""
"","html-keyboard-response","158","154127","0.0-6.0-1.50","FL","sob32efsmd","1536","864","en","qi02ng28","null","","","","learningBlock1","","","","That was a bim.","null","","","","",""
"","html-keyboard-response","159","155132","0.0-6.0-2.50","FL","sob32efsmd","1536","864","en","qi02ng28","null","","","","learningBlock1","","","","<div style=""font-size:60px;""> </div>","null","FL","learning/Slide51.JPG","That was a bim.","",""
"","image-keyboard-response","160","155311","0.0-6.0-0.51","FL","sob32efsmd","1536","864","en","qi02ng28","null","","","","","","","","learning/Slide52.JPG","null","","","","",""
"","html-keyboard-response","161","156469","0.0-6.0-1.51","FL","sob32efsmd","1536","864","en","qi02ng28","null","","","","learningBlock1","","","","That was a wug.","null","","","","",""
"","html-keyboard-response","162","157477","0.0-6.0-2.51","FL","sob32efsmd","1536","864","en","qi02ng28","null","","","","learningBlock1","","","","<div style=""font-size:60px;""> </div>","null","FL","learning/Slide52.JPG","That was a wug.","",""
"","image-keyboard-response","163","157663","0.0-6.0-0.52","FL","sob32efsmd","1536","864","en","qi02ng28","null","","","","","","","","learning/Slide53.JPG","null","","","","",""
"","html-keyboard-response","164","158827","0.0-6.0-1.52","FL","sob32efsmd","1536","864","en","qi02ng28","null","","","","learningBlock1","","","","That was a tob.","null","","","","",""
"","html-keyboard-response","165","159837","0.0-6.0-2.52","FL","sob32efsmd","1536","864","en","qi02ng28","null","","","","learningBlock1","","","","<div style=""font-size:60px;""> </div>","null","FL","learning/Slide53.JPG","That was a tob.","",""
"","image-keyboard-response","166","160030","0.0-6.0-0.53","FL","sob32efsmd","1536","864","en","qi02ng28","null","","","","","","","","learning/Slide54.JPG","null","","","","",""
"","html-keyboard-response","167","161184","0.0-6.0-1.53","FL","sob32efsmd","1536","864","en","qi02ng28","null","","","","learningBlock1","","","","That was a dep.","null","","","","",""
"","html-keyboard-response","168","162197","0.0-6.0-2.53","FL","sob32efsmd","1536","864","en","qi02ng28","null","","","","learningBlock1","","","","<div style=""font-size:60px;""> </div>","null","FL","learning/Slide54.JPG","That was a dep.","",""
"","image-keyboard-response","169","162381","0.0-6.0-0.54","FL","sob32efsmd","1536","864","en","qi02ng28","null","","","","","","","","learning/Slide55.JPG","null","","","","",""
"","html-keyboard-response","170","163534","0.0-6.0-1.54","FL","sob32efsmd","1536","864","en","qi02ng28","null","","","","learningBlock1","","","","That was a bim.","null","","","","",""
"","html-keyboard-response","171","164537","0.0-6.0-2.54","FL","sob32efsmd","1536","864","en","qi02ng28","null","","","","learningBlock1","","","","<div style=""font-size:60px;""> </div>","null","FL","learning/Slide55.JPG","That was a bim.","",""
"","image-keyboard-response","172","164727","0.0-6.0-0.55","FL","sob32efsmd","1536","864","en","qi02ng28","null","","","","","","","","learning/Slide56.JPG","null","","","","",""
"","html-keyboard-response","173","165890","0.0-6.0-1.55","FL","sob32efsmd","1536","864","en","qi02ng28","null","","","","learningBlock1","","","","That was a tob.","null","","","","",""
"","html-keyboard-response","174","166900","0.0-6.0-2.55","FL","sob32efsmd","1536","864","en","qi02ng28","null","","","","learningBlock1","","","","<div style=""font-size:60px;""> </div>","null","FL","learning/Slide56.JPG","That was a tob.","",""
"","image-keyboard-response","175","167082","0.0-6.0-0.56","FL","sob32efsmd","1536","864","en","qi02ng28","null","","","","","","","","learning/Slide57.JPG","null","","","","",""
"","html-keyboard-response","176","168241","0.0-6.0-1.56","FL","sob32efsmd","1536","864","en","qi02ng28","null","","","","learningBlock1","","","","That was a dep.","null","","","","",""
"","html-keyboard-response","177","169247","0.0-6.0-2.56","FL","sob32efsmd","1536","864","en","qi02ng28","null","","","","learningBlock1","","","","<div style=""font-size:60px;""> </div>","null","FL","learning/Slide57.JPG","That was a dep.","",""
"","image-keyboard-response","178","169425","0.0-6.0-0.57","FL","sob32efsmd","1536","864","en","qi02ng28","null","","","","","","","","learning/Slide58.JPG","null","","","","",""
"","html-keyboard-response","179","170588","0.0-6.0-1.57","FL","sob32efsmd","1536","864","en","qi02ng28","null","","","","learningBlock1","","","","That was a wug.","null","","","","",""
"","html-keyboard-response","180","171594","0.0-6.0-2.57","FL","sob32efsmd","1536","864","en","qi02ng28","null","","","","learningBlock1","","","","<div style=""font-size:60px;""> </div>","null","FL","learning/Slide58.JPG","That was a wug.","",""
"","image-keyboard-response","181","171774","0.0-6.0-0.58","FL","sob32efsmd","1536","864","en","qi02ng28","null","","","","","","","","learning/Slide59.JPG","null","","","","",""
"","html-keyboard-response","182","172949","0.0-6.0-1.58","FL","sob32efsmd","1536","864","en","qi02ng28","null","","","","learningBlock1","","","","That was a dep.","null","","","","",""
"","html-keyboard-response","183","173955","0.0-6.0-2.58","FL","sob32efsmd","1536","864","en","qi02ng28","null","","","","learningBlock1","","","","<div style=""font-size:60px;""> </div>","null","FL","learning/Slide59.JPG","That was a dep.","",""
"","image-keyboard-response","184","174144","0.0-6.0-0.59","FL","sob32efsmd","1536","864","en","qi02ng28","null","","","","","","","","learning/Slide60.JPG","null","","","","",""
"","html-keyboard-response","185","175302","0.0-6.0-1.59","FL","sob32efsmd","1536","864","en","qi02ng28","null","","","","learningBlock1","","","","That was a wug.","null","","","","",""
"","html-keyboard-response","186","176303","0.0-6.0-2.59","FL","sob32efsmd","1536","864","en","qi02ng28","null","","","","learningBlock1","","","","<div style=""font-size:60px;""> </div>","null","FL","learning/Slide60.JPG","That was a wug.","",""
"","image-keyboard-response","187","176488","0.0-6.0-0.60","FL","sob32efsmd","1536","864","en","qi02ng28","null","","","","","","","","learning/Slide61.JPG","null","","","","",""
"","html-keyboard-response","188","177651","0.0-6.0-1.60","FL","sob32efsmd","1536","864","en","qi02ng28","null","","","","learningBlock1","","","","That was a bim.","null","","","","",""
"","html-keyboard-response","189","178660","0.0-6.0-2.60","FL","sob32efsmd","1536","864","en","qi02ng28","null","","","","learningBlock1","","","","<div style=""font-size:60px;""> </div>","null","FL","learning/Slide61.JPG","That was a bim.","",""
"","image-keyboard-response","190","178845","0.0-6.0-0.61","FL","sob32efsmd","1536","864","en","qi02ng28","null","","","","","","","","learning/Slide62.JPG","null","","","","",""
"","html-keyboard-response","191","180010","0.0-6.0-1.61","FL","sob32efsmd","1536","864","en","qi02ng28","null","","","","learningBlock1","","","","That was a dep.","null","","","","",""
"","html-keyboard-response","192","181021","0.0-6.0-2.61","FL","sob32efsmd","1536","864","en","qi02ng28","null","","","","learningBlock1","","","","<div style=""font-size:60px;""> </div>","null","FL","learning/Slide62.JPG","That was a dep.","",""
"","image-keyboard-response","193","181212","0.0-6.0-0.62","FL","sob32efsmd","1536","864","en","qi02ng28","null","","","","","","","","learning/Slide63.JPG","null","","","","",""
"","html-keyboard-response","194","182372","0.0-6.0-1.62","FL","sob32efsmd","1536","864","en","qi02ng28","null","","","","learningBlock1","","","","That was a bim.","null","","","","",""
"","html-keyboard-response","195","183376","0.0-6.0-2.62","FL","sob32efsmd","1536","864","en","qi02ng28","null","","","","learningBlock1","","","","<div style=""font-size:60px;""> </div>","null","FL","learning/Slide63.JPG","That was a bim.","",""
"","image-keyboard-response","196","183565","0.0-6.0-0.63","FL","sob32efsmd","1536","864","en","qi02ng28","null","","","","","","","","learning/Slide64.JPG","null","","","","",""
"","html-keyboard-response","197","184722","0.0-6.0-1.63","FL","sob32efsmd","1536","864","en","qi02ng28","null","","","","learningBlock1","","","","That was a tob.","null","","","","",""
"","html-keyboard-response","198","185728","0.0-6.0-2.63","FL","sob32efsmd","1536","864","en","qi02ng28","null","","","","learningBlock1","","","","<div style=""font-size:60px;""> </div>","null","FL","learning/Slide64.JPG","That was a tob.","",""
"","image-keyboard-response","199","185911","0.0-6.0-0.64","FL","sob32efsmd","1536","864","en","qi02ng28","null","","","","","","","","learning/Slide65.JPG","null","","","","",""
"","html-keyboard-response","200","187071","0.0-6.0-1.64","FL","sob32efsmd","1536","864","en","qi02ng28","null","","","","learningBlock1","","","","That was a wug.","null","","","","",""
"","html-keyboard-response","201","188079","0.0-6.0-2.64","FL","sob32efsmd","1536","864","en","qi02ng28","null","","","","learningBlock1","","","","<div style=""font-size:60px;""> </div>","null","FL","learning/Slide65.JPG","That was a wug.","",""
"","image-keyboard-response","202","188259","0.0-6.0-0.65","FL","sob32efsmd","1536","864","en","qi02ng28","null","","","","","","","","learning/Slide66.JPG","null","","","","",""
"","html-keyboard-response","203","189419","0.0-6.0-1.65","FL","sob32efsmd","1536","864","en","qi02ng28","null","","","","learningBlock1","","","","That was a dep.","null","","","","",""
"","html-keyboard-response","204","190424","0.0-6.0-2.65","FL","sob32efsmd","1536","864","en","qi02ng28","null","","","","learningBlock1","","","","<div style=""font-size:60px;""> </div>","null","FL","learning/Slide66.JPG","That was a dep.","",""
"","image-keyboard-response","205","190610","0.0-6.0-0.66","FL","sob32efsmd","1536","864","en","qi02ng28","null","","","","","","","","learning/Slide67.JPG","null","","","","",""
"","html-keyboard-response","206","191783","0.0-6.0-1.66","FL","sob32efsmd","1536","864","en","qi02ng28","null","","","","learningBlock1","","","","That was a tob.","null","","","","",""
"","html-keyboard-response","207","192799","0.0-6.0-2.66","FL","sob32efsmd","1536","864","en","qi02ng28","null","","","","learningBlock1","","","","<div style=""font-size:60px;""> </div>","null","FL","learning/Slide67.JPG","That was a tob.","",""
"","image-keyboard-response","208","192990","0.0-6.0-0.67","FL","sob32efsmd","1536","864","en","qi02ng28","null","","","","","","","","learning/Slide68.JPG","null","","","","",""
"","html-keyboard-response","209","194158","0.0-6.0-1.67","FL","sob32efsmd","1536","864","en","qi02ng28","null","","","","learningBlock1","","","","That was a wug.","null","","","","",""
"","html-keyboard-response","210","195175","0.0-6.0-2.67","FL","sob32efsmd","1536","864","en","qi02ng28","null","","","","learningBlock1","","","","<div style=""font-size:60px;""> </div>","null","FL","learning/Slide68.JPG","That was a wug.","",""
"","image-keyboard-response","211","195367","0.0-6.0-0.68","FL","sob32efsmd","1536","864","en","qi02ng28","null","","","","","","","","learning/Slide69.JPG","null","","","","",""
"","html-keyboard-response","212","196522","0.0-6.0-1.68","FL","sob32efsmd","1536","864","en","qi02ng28","null","","","","learningBlock1","","","","That was a tob.","null","","","","",""
"","html-keyboard-response","213","197538","0.0-6.0-2.68","FL","sob32efsmd","1536","864","en","qi02ng28","null","","","","learningBlock1","","","","<div style=""font-size:60px;""> </div>","null","FL","learning/Slide69.JPG","That was a tob.","",""
"","image-keyboard-response","214","197722","0.0-6.0-0.69","FL","sob32efsmd","1536","864","en","qi02ng28","null","","","","","","","","learning/Slide70.JPG","null","","","","",""
"","html-keyboard-response","215","198883","0.0-6.0-1.69","FL","sob32efsmd","1536","864","en","qi02ng28","null","","","","learningBlock1","","","","That was a dep.","null","","","","",""
"","html-keyboard-response","216","199890","0.0-6.0-2.69","FL","sob32efsmd","1536","864","en","qi02ng28","null","","","","learningBlock1","","","","<div style=""font-size:60px;""> </div>","null","FL","learning/Slide70.JPG","That was a dep.","",""
"","image-keyboard-response","217","200073","0.0-6.0-0.70","FL","sob32efsmd","1536","864","en","qi02ng28","null","","","","","","","","learning/Slide71.JPG","null","","","","",""
"","html-keyboard-response","218","201235","0.0-6.0-1.70","FL","sob32efsmd","1536","864","en","qi02ng28","null","","","","learningBlock1","","","","That was a wug.","null","","","","",""
"","html-keyboard-response","219","202242","0.0-6.0-2.70","FL","sob32efsmd","1536","864","en","qi02ng28","null","","","","learningBlock1","","","","<div style=""font-size:60px;""> </div>","null","FL","learning/Slide71.JPG","That was a wug.","",""
"","image-keyboard-response","220","202418","0.0-6.0-0.71","FL","sob32efsmd","1536","864","en","qi02ng28","null","","","","","","","","learning/Slide72.JPG","null","","","","",""
"","html-keyboard-response","221","203580","0.0-6.0-1.71","FL","sob32efsmd","1536","864","en","qi02ng28","null","","","","learningBlock1","","","","That was a bim.","null","","","","",""
"","html-keyboard-response","222","204587","0.0-6.0-2.71","FL","sob32efsmd","1536","864","en","qi02ng28","null","","","","learningBlock1","","","","<div style=""font-size:60px;""> </div>","null","FL","learning/Slide72.JPG","That was a bim.","",""
"","image-keyboard-response","223","204766","0.0-6.0-0.72","FL","sob32efsmd","1536","864","en","qi02ng28","null","","","","","","","","learning/Slide73.JPG","null","","","","",""
"","html-keyboard-response","224","205926","0.0-6.0-1.72","FL","sob32efsmd","1536","864","en","qi02ng28","null","","","","learningBlock1","","","","That was a wug.","null","","","","",""
"","html-keyboard-response","225","206928","0.0-6.0-2.72","FL","sob32efsmd","1536","864","en","qi02ng28","null","","","","learningBlock1","","","","<div style=""font-size:60px;""> </div>","null","FL","learning/Slide73.JPG","That was a wug.","",""
"","image-keyboard-response","226","207111","0.0-6.0-0.73","FL","sob32efsmd","1536","864","en","qi02ng28","null","","","","","","","","learning/Slide74.JPG","null","","","","",""
"","html-keyboard-response","227","208272","0.0-6.0-1.73","FL","sob32efsmd","1536","864","en","qi02ng28","null","","","","learningBlock1","","","","That was a dep.","null","","","","",""
"","html-keyboard-response","228","209274","0.0-6.0-2.73","FL","sob32efsmd","1536","864","en","qi02ng28","null","","","","learningBlock1","","","","<div style=""font-size:60px;""> </div>","null","FL","learning/Slide74.JPG","That was a dep.","",""
"","image-keyboard-response","229","209455","0.0-6.0-0.74","FL","sob32efsmd","1536","864","en","qi02ng28","null","","","","","","","","learning/Slide75.JPG","null","","","","",""
"","html-keyboard-response","230","210623","0.0-6.0-1.74","FL","sob32efsmd","1536","864","en","qi02ng28","null","","","","learningBlock1","","","","That was a tob.","null","","","","",""
"","html-keyboard-response","231","211632","0.0-6.0-2.74","FL","sob32efsmd","1536","864","en","qi02ng28","null","","","","learningBlock1","","","","<div style=""font-size:60px;""> </div>","null","FL","learning/Slide75.JPG","That was a tob.","",""
"","image-keyboard-response","232","211823","0.0-6.0-0.75","FL","sob32efsmd","1536","864","en","qi02ng28","null","","","","","","","","learning/Slide76.JPG","null","","","","",""
"","html-keyboard-response","233","212985","0.0-6.0-1.75","FL","sob32efsmd","1536","864","en","qi02ng28","null","","","","learningBlock1","","","","That was a bim.","null","","","","",""
"","html-keyboard-response","234","213995","0.0-6.0-2.75","FL","sob32efsmd","1536","864","en","qi02ng28","null","","","","learningBlock1","","","","<div style=""font-size:60px;""> </div>","null","FL","learning/Slide76.JPG","That was a bim.","",""
"","image-keyboard-response","235","214174","0.0-6.0-0.76","FL","sob32efsmd","1536","864","en","qi02ng28","null","","","","","","","","learning/Slide77.JPG","null","","","","",""
"","html-keyboard-response","236","215334","0.0-6.0-1.76","FL","sob32efsmd","1536","864","en","qi02ng28","null","","","","learningBlock1","","","","That was a tob.","null","","","","",""
"","html-keyboard-response","237","216336","0.0-6.0-2.76","FL","sob32efsmd","1536","864","en","qi02ng28","null","","","","learningBlock1","","","","<div style=""font-size:60px;""> </div>","null","FL","learning/Slide77.JPG","That was a tob.","",""
"","image-keyboard-response","238","216522","0.0-6.0-0.77","FL","sob32efsmd","1536","864","en","qi02ng28","null","","","","","","","","learning/Slide78.JPG","null","","","","",""
"","html-keyboard-response","239","217687","0.0-6.0-1.77","FL","sob32efsmd","1536","864","en","qi02ng28","null","","","","learningBlock1","","","","That was a wug.","null","","","","",""
"","html-keyboard-response","240","218693","0.0-6.0-2.77","FL","sob32efsmd","1536","864","en","qi02ng28","null","","","","learningBlock1","","","","<div style=""font-size:60px;""> </div>","null","FL","learning/Slide78.JPG","That was a wug.","",""
"","image-keyboard-response","241","218870","0.0-6.0-0.78","FL","sob32efsmd","1536","864","en","qi02ng28","null","","","","","","","","learning/Slide79.JPG","null","","","","",""
"","html-keyboard-response","242","220036","0.0-6.0-1.78","FL","sob32efsmd","1536","864","en","qi02ng28","null","","","","learningBlock1","","","","That was a bim.","null","","","","",""
"","html-keyboard-response","243","221050","0.0-6.0-2.78","FL","sob32efsmd","1536","864","en","qi02ng28","null","","","","learningBlock1","","","","<div style=""font-size:60px;""> </div>","null","FL","learning/Slide79.JPG","That was a bim.","",""
"","image-keyboard-response","244","221232","0.0-6.0-0.79","FL","sob32efsmd","1536","864","en","qi02ng28","null","","","","","","","","learning/Slide80.JPG","null","","","","",""
"","html-keyboard-response","245","222398","0.0-6.0-1.79","FL","sob32efsmd","1536","864","en","qi02ng28","null","","","","learningBlock1","","","","That was a tob.","null","","","","",""
"","html-keyboard-response","246","223411","0.0-6.0-2.79","FL","sob32efsmd","1536","864","en","qi02ng28","null","","","","learningBlock1","","","","<div style=""font-size:60px;""> </div>","null","FL","learning/Slide80.JPG","That was a tob.","",""
"","instructions","247","227110","0.0-7.0","FL","sob32efsmd","1536","864","en","qi02ng28","NA","","","[{""page_index"":0,""viewing_time"":3697.779999987688}]","instructions","","","","","","","","","",""
"","image-keyboard-response","248","227295","0.0-8.0-0.0","FL","sob32efsmd","1536","864","en","qi02ng28","null","","","","","","","","learning/Slide81.JPG","null","","","","",""
"","html-keyboard-response","249","228460","0.0-8.0-1.0","FL","sob32efsmd","1536","864","en","qi02ng28","null","","","","learningBlock2","","","","That was a wug.","null","","","","",""
"","html-keyboard-response","250","229465","0.0-8.0-2.0","FL","sob32efsmd","1536","864","en","qi02ng28","null","","","","learningBlock2","","","","<div style=""font-size:60px;""> </div>","null","FL","learning/Slide81.JPG","That was a wug.","",""
"","image-keyboard-response","251","229644","0.0-8.0-0.1","FL","sob32efsmd","1536","864","en","qi02ng28","null","","","","","","","","learning/Slide82.JPG","null","","","","",""
"","html-keyboard-response","252","230804","0.0-8.0-1.1","FL","sob32efsmd","1536","864","en","qi02ng28","null","","","","learningBlock2","","","","That was a bim.","null","","","","",""
"","html-keyboard-response","253","231807","0.0-8.0-2.1","FL","sob32efsmd","1536","864","en","qi02ng28","null","","","","learningBlock2","","","","<div style=""font-size:60px;""> </div>","null","FL","learning/Slide82.JPG","That was a bim.","",""
"","image-keyboard-response","254","231984","0.0-8.0-0.2","FL","sob32efsmd","1536","864","en","qi02ng28","null","","","","","","","","learning/Slide83.JPG","null","","","","",""
"","html-keyboard-response","255","233148","0.0-8.0-1.2","FL","sob32efsmd","1536","864","en","qi02ng28","null","","","","learningBlock2","","","","That was a wug.","null","","","","",""
"","html-keyboard-response","256","234161","0.0-8.0-2.2","FL","sob32efsmd","1536","864","en","qi02ng28","null","","","","learningBlock2","","","","<div style=""font-size:60px;""> </div>","null","FL","learning/Slide83.JPG","That was a wug.","",""
"","image-keyboard-response","257","234343","0.0-8.0-0.3","FL","sob32efsmd","1536","864","en","qi02ng28","null","","","","","","","","learning/Slide84.JPG","null","","","","",""
"","html-keyboard-response","258","235515","0.0-8.0-1.3","FL","sob32efsmd","1536","864","en","qi02ng28","null","","","","learningBlock2","","","","That was a dep.","null","","","","",""
"","html-keyboard-response","259","236520","0.0-8.0-2.3","FL","sob32efsmd","1536","864","en","qi02ng28","null","","","","learningBlock2","","","","<div style=""font-size:60px;""> </div>","null","FL","learning/Slide84.JPG","That was a dep.","",""
"","image-keyboard-response","260","236704","0.0-8.0-0.4","FL","sob32efsmd","1536","864","en","qi02ng28","null","","","","","","","","learning/Slide85.JPG","null","","","","",""
"","html-keyboard-response","261","237870","0.0-8.0-1.4","FL","sob32efsmd","1536","864","en","qi02ng28","null","","","","learningBlock2","","","","That was a bim.","null","","","","",""
"","html-keyboard-response","262","238879","0.0-8.0-2.4","FL","sob32efsmd","1536","864","en","qi02ng28","null","","","","learningBlock2","","","","<div style=""font-size:60px;""> </div>","null","FL","learning/Slide85.JPG","That was a bim.","",""
"","image-keyboard-response","263","239059","0.0-8.0-0.5","FL","sob32efsmd","1536","864","en","qi02ng28","null","","","","","","","","learning/Slide86.JPG","null","","","","",""
"","html-keyboard-response","264","240221","0.0-8.0-1.5","FL","sob32efsmd","1536","864","en","qi02ng28","null","","","","learningBlock2","","","","That was a tob.","null","","","","",""
"","html-keyboard-response","265","241235","0.0-8.0-2.5","FL","sob32efsmd","1536","864","en","qi02ng28","null","","","","learningBlock2","","","","<div style=""font-size:60px;""> </div>","null","FL","learning/Slide86.JPG","That was a tob.","",""
"","image-keyboard-response","266","241415","0.0-8.0-0.6","FL","sob32efsmd","1536","864","en","qi02ng28","null","","","","","","","","learning/Slide87.JPG","null","","","","",""
"","html-keyboard-response","267","242589","0.0-8.0-1.6","FL","sob32efsmd","1536","864","en","qi02ng28","null","","","","learningBlock2","","","","That was a wug.","null","","","","",""
"","html-keyboard-response","268","243596","0.0-8.0-2.6","FL","sob32efsmd","1536","864","en","qi02ng28","null","","","","learningBlock2","","","","<div style=""font-size:60px;""> </div>","null","FL","learning/Slide87.JPG","That was a wug.","",""
"","image-keyboard-response","269","243780","0.0-8.0-0.7","FL","sob32efsmd","1536","864","en","qi02ng28","null","","","","","","","","learning/Slide88.JPG","null","","","","",""
"","html-keyboard-response","270","244947","0.0-8.0-1.7","FL","sob32efsmd","1536","864","en","qi02ng28","null","","","","learningBlock2","","","","That was a tob.","null","","","","",""
"","html-keyboard-response","271","245961","0.0-8.0-2.7","FL","sob32efsmd","1536","864","en","qi02ng28","null","","","","learningBlock2","","","","<div style=""font-size:60px;""> </div>","null","FL","learning/Slide88.JPG","That was a tob.","",""
"","image-keyboard-response","272","246139","0.0-8.0-0.8","FL","sob32efsmd","1536","864","en","qi02ng28","null","","","","","","","","learning/Slide89.JPG","null","","","","",""
"","html-keyboard-response","273","247306","0.0-8.0-1.8","FL","sob32efsmd","1536","864","en","qi02ng28","null","","","","learningBlock2","","","","That was a bim.","null","","","","",""
"","html-keyboard-response","274","248321","0.0-8.0-2.8","FL","sob32efsmd","1536","864","en","qi02ng28","null","","","","learningBlock2","","","","<div style=""font-size:60px;""> </div>","null","FL","learning/Slide89.JPG","That was a bim.","",""
"","image-keyboard-response","275","248498","0.0-8.0-0.9","FL","sob32efsmd","1536","864","en","qi02ng28","null","","","","","","","","learning/Slide90.JPG","null","","","","",""
"","html-keyboard-response","276","249672","0.0-8.0-1.9","FL","sob32efsmd","1536","864","en","qi02ng28","null","","","","learningBlock2","","","","That was a dep.","null","","","","",""
"","html-keyboard-response","277","250684","0.0-8.0-2.9","FL","sob32efsmd","1536","864","en","qi02ng28","null","","","","learningBlock2","","","","<div style=""font-size:60px;""> </div>","null","FL","learning/Slide90.JPG","That was a dep.","",""
"","image-keyboard-response","278","250868","0.0-8.0-0.10","FL","sob32efsmd","1536","864","en","qi02ng28","null","","","","","","","","learning/Slide91.JPG","null","","","","",""
"","html-keyboard-response","279","252047","0.0-8.0-1.10","FL","sob32efsmd","1536","864","en","qi02ng28","null","","","","learningBlock2","","","","That was a wug.","null","","","","",""
"","html-keyboard-response","280","253051","0.0-8.0-2.10","FL","sob32efsmd","1536","864","en","qi02ng28","null","","","","learningBlock2","","","","<div style=""font-size:60px;""> </div>","null","FL","learning/Slide91.JPG","That was a wug.","",""
"","image-keyboard-response","281","253242","0.0-8.0-0.11","FL","sob32efsmd","1536","864","en","qi02ng28","null","","","","","","","","learning/Slide92.JPG","null","","","","",""
"","html-keyboard-response","282","254411","0.0-8.0-1.11","FL","sob32efsmd","1536","864","en","qi02ng28","null","","","","learningBlock2","","","","That was a tob.","null","","","","",""
"","html-keyboard-response","283","255422","0.0-8.0-2.11","FL","sob32efsmd","1536","864","en","qi02ng28","null","","","","learningBlock2","","","","<div style=""font-size:60px;""> </div>","null","FL","learning/Slide92.JPG","That was a tob.","",""
"","image-keyboard-response","284","255612","0.0-8.0-0.12","FL","sob32efsmd","1536","864","en","qi02ng28","null","","","","","","","","learning/Slide93.JPG","null","","","","",""
"","html-keyboard-response","285","256766","0.0-8.0-1.12","FL","sob32efsmd","1536","864","en","qi02ng28","null","","","","learningBlock2","","","","That was a bim.","null","","","","",""
"","html-keyboard-response","286","257772","0.0-8.0-2.12","FL","sob32efsmd","1536","864","en","qi02ng28","null","","","","learningBlock2","","","","<div style=""font-size:60px;""> </div>","null","FL","learning/Slide93.JPG","That was a bim.","",""
"","image-keyboard-response","287","257948","0.0-8.0-0.13","FL","sob32efsmd","1536","864","en","qi02ng28","null","","","","","","","","learning/Slide94.JPG","null","","","","",""
"","html-keyboard-response","288","259107","0.0-8.0-1.13","FL","sob32efsmd","1536","864","en","qi02ng28","null","","","","learningBlock2","","","","That was a tob.","null","","","","",""
"","html-keyboard-response","289","260121","0.0-8.0-2.13","FL","sob32efsmd","1536","864","en","qi02ng28","null","","","","learningBlock2","","","","<div style=""font-size:60px;""> </div>","null","FL","learning/Slide94.JPG","That was a tob.","",""
"","image-keyboard-response","290","260300","0.0-8.0-0.14","FL","sob32efsmd","1536","864","en","qi02ng28","null","","","","","","","","learning/Slide95.JPG","null","","","","",""
"","html-keyboard-response","291","261470","0.0-8.0-1.14","FL","sob32efsmd","1536","864","en","qi02ng28","null","","","","learningBlock2","","","","That was a wug.","null","","","","",""
"","html-keyboard-response","292","262475","0.0-8.0-2.14","FL","sob32efsmd","1536","864","en","qi02ng28","null","","","","learningBlock2","","","","<div style=""font-size:60px;""> </div>","null","FL","learning/Slide95.JPG","That was a wug.","",""
"","image-keyboard-response","293","262659","0.0-8.0-0.15","FL","sob32efsmd","1536","864","en","qi02ng28","null","","","","","","","","learning/Slide96.JPG","null","","","","",""
"","html-keyboard-response","294","263821","0.0-8.0-1.15","FL","sob32efsmd","1536","864","en","qi02ng28","null","","","","learningBlock2","","","","That was a tob.","null","","","","",""
"","html-keyboard-response","295","264831","0.0-8.0-2.15","FL","sob32efsmd","1536","864","en","qi02ng28","null","","","","learningBlock2","","","","<div style=""font-size:60px;""> </div>","null","FL","learning/Slide96.JPG","That was a tob.","",""
"","image-keyboard-response","296","265012","0.0-8.0-0.16","FL","sob32efsmd","1536","864","en","qi02ng28","null","","","","","","","","learning/Slide97.JPG","null","","","","",""
"","html-keyboard-response","297","266180","0.0-8.0-1.16","FL","sob32efsmd","1536","864","en","qi02ng28","null","","","","learningBlock2","","","","That was a dep.","null","","","","",""
"","html-keyboard-response","298","267186","0.0-8.0-2.16","FL","sob32efsmd","1536","864","en","qi02ng28","null","","","","learningBlock2","","","","<div style=""font-size:60px;""> </div>","null","FL","learning/Slide97.JPG","That was a dep.","",""
"","image-keyboard-response","299","267365","0.0-8.0-0.17","FL","sob32efsmd","1536","864","en","qi02ng28","null","","","","","","","","learning/Slide98.JPG","null","","","","",""
"","html-keyboard-response","300","268530","0.0-8.0-1.17","FL","sob32efsmd","1536","864","en","qi02ng28","null","","","","learningBlock2","","","","That was a bim.","null","","","","",""
"","html-keyboard-response","301","269538","0.0-8.0-2.17","FL","sob32efsmd","1536","864","en","qi02ng28","null","","","","learningBlock2","","","","<div style=""font-size:60px;""> </div>","null","FL","learning/Slide98.JPG","That was a bim.","",""
"","image-keyboard-response","302","269723","0.0-8.0-0.18","FL","sob32efsmd","1536","864","en","qi02ng28","null","","","","","","","","learning/Slide99.JPG","null","","","","",""
"","html-keyboard-response","303","270889","0.0-8.0-1.18","FL","sob32efsmd","1536","864","en","qi02ng28","null","","","","learningBlock2","","","","That was a dep.","null","","","","",""
"","html-keyboard-response","304","271897","0.0-8.0-2.18","FL","sob32efsmd","1536","864","en","qi02ng28","null","","","","learningBlock2","","","","<div style=""font-size:60px;""> </div>","null","FL","learning/Slide99.JPG","That was a dep.","",""
"","image-keyboard-response","305","272076","0.0-8.0-0.19","FL","sob32efsmd","1536","864","en","qi02ng28","null","","","","","","","","learning/Slide100.JPG","null","","","","",""
"","html-keyboard-response","306","273231","0.0-8.0-1.19","FL","sob32efsmd","1536","864","en","qi02ng28","null","","","","learningBlock2","","","","That was a bim.","null","","","","",""
"","html-keyboard-response","307","274248","0.0-8.0-2.19","FL","sob32efsmd","1536","864","en","qi02ng28","null","","","","learningBlock2","","","","<div style=""font-size:60px;""> </div>","null","FL","learning/Slide100.JPG","That was a bim.","",""
"","image-keyboard-response","308","274435","0.0-8.0-0.20","FL","sob32efsmd","1536","864","en","qi02ng28","null","","","","","","","","learning/Slide101.JPG","null","","","","",""
"","html-keyboard-response","309","275604","0.0-8.0-1.20","FL","sob32efsmd","1536","864","en","qi02ng28","null","","","","learningBlock2","","","","That was a tob.","null","","","","",""
"","html-keyboard-response","310","276614","0.0-8.0-2.20","FL","sob32efsmd","1536","864","en","qi02ng28","null","","","","learningBlock2","","","","<div style=""font-size:60px;""> </div>","null","FL","learning/Slide101.JPG","That was a tob.","",""
"","image-keyboard-response","311","276806","0.0-8.0-0.21","FL","sob32efsmd","1536","864","en","qi02ng28","null","","","","","","","","learning/Slide102.JPG","null","","","","",""
"","html-keyboard-response","312","277963","0.0-8.0-1.21","FL","sob32efsmd","1536","864","en","qi02ng28","null","","","","learningBlock2","","","","That was a bim.","null","","","","",""
"","html-keyboard-response","313","278970","0.0-8.0-2.21","FL","sob32efsmd","1536","864","en","qi02ng28","null","","","","learningBlock2","","","","<div style=""font-size:60px;""> </div>","null","FL","learning/Slide102.JPG","That was a bim.","",""
"","image-keyboard-response","314","279152","0.0-8.0-0.22","FL","sob32efsmd","1536","864","en","qi02ng28","null","","","","","","","","learning/Slide103.JPG","null","","","","",""
"","html-keyboard-response","315","280330","0.0-8.0-1.22","FL","sob32efsmd","1536","864","en","qi02ng28","null","","","","learningBlock2","","","","That was a dep.","null","","","","",""
"","html-keyboard-response","316","281333","0.0-8.0-2.22","FL","sob32efsmd","1536","864","en","qi02ng28","null","","","","learningBlock2","","","","<div style=""font-size:60px;""> </div>","null","FL","learning/Slide103.JPG","That was a dep.","",""
"","image-keyboard-response","317","281520","0.0-8.0-0.23","FL","sob32efsmd","1536","864","en","qi02ng28","null","","","","","","","","learning/Slide104.JPG","null","","","","",""
"","html-keyboard-response","318","282691","0.0-8.0-1.23","FL","sob32efsmd","1536","864","en","qi02ng28","null","","","","learningBlock2","","","","That was a tob.","null","","","","",""
"","html-keyboard-response","319","283700","0.0-8.0-2.23","FL","sob32efsmd","1536","864","en","qi02ng28","null","","","","learningBlock2","","","","<div style=""font-size:60px;""> </div>","null","FL","learning/Slide104.JPG","That was a tob.","",""
"","image-keyboard-response","320","283884","0.0-8.0-0.24","FL","sob32efsmd","1536","864","en","qi02ng28","null","","","","","","","","learning/Slide105.JPG","null","","","","",""
"","html-keyboard-response","321","285058","0.0-8.0-1.24","FL","sob32efsmd","1536","864","en","qi02ng28","null","","","","learningBlock2","","","","That was a dep.","null","","","","",""
"","html-keyboard-response","322","286073","0.0-8.0-2.24","FL","sob32efsmd","1536","864","en","qi02ng28","null","","","","learningBlock2","","","","<div style=""font-size:60px;""> </div>","null","FL","learning/Slide105.JPG","That was a dep.","",""
"","image-keyboard-response","323","286257","0.0-8.0-0.25","FL","sob32efsmd","1536","864","en","qi02ng28","null","","","","","","","","learning/Slide106.JPG","null","","","","",""
"","html-keyboard-response","324","287414","0.0-8.0-1.25","FL","sob32efsmd","1536","864","en","qi02ng28","null","","","","learningBlock2","","","","That was a wug.","null","","","","",""
"","html-keyboard-response","325","288423","0.0-8.0-2.25","FL","sob32efsmd","1536","864","en","qi02ng28","null","","","","learningBlock2","","","","<div style=""font-size:60px;""> </div>","null","FL","learning/Slide106.JPG","That was a wug.","",""
"","image-keyboard-response","326","288607","0.0-8.0-0.26","FL","sob32efsmd","1536","864","en","qi02ng28","null","","","","","","","","learning/Slide107.JPG","null","","","","",""
"","html-keyboard-response","327","289780","0.0-8.0-1.26","FL","sob32efsmd","1536","864","en","qi02ng28","null","","","","learningBlock2","","","","That was a bim.","null","","","","",""
"","html-keyboard-response","328","290784","0.0-8.0-2.26","FL","sob32efsmd","1536","864","en","qi02ng28","null","","","","learningBlock2","","","","<div style=""font-size:60px;""> </div>","null","FL","learning/Slide107.JPG","That was a bim.","",""
"","image-keyboard-response","329","290970","0.0-8.0-0.27","FL","sob32efsmd","1536","864","en","qi02ng28","null","","","","","","","","learning/Slide108.JPG","null","","","","",""
"","html-keyboard-response","330","292142","0.0-8.0-1.27","FL","sob32efsmd","1536","864","en","qi02ng28","null","","","","learningBlock2","","","","That was a dep.","null","","","","",""
"","html-keyboard-response","331","293156","0.0-8.0-2.27","FL","sob32efsmd","1536","864","en","qi02ng28","null","","","","learningBlock2","","","","<div style=""font-size:60px;""> </div>","null","FL","learning/Slide108.JPG","That was a dep.","",""
"","image-keyboard-response","332","293340","0.0-8.0-0.28","FL","sob32efsmd","1536","864","en","qi02ng28","null","","","","","","","","learning/Slide109.JPG","null","","","","",""
"","html-keyboard-response","333","294504","0.0-8.0-1.28","FL","sob32efsmd","1536","864","en","qi02ng28","null","","","","learningBlock2","","","","That was a wug.","null","","","","",""
"","html-keyboard-response","334","295505","0.0-8.0-2.28","FL","sob32efsmd","1536","864","en","qi02ng28","null","","","","learningBlock2","","","","<div style=""font-size:60px;""> </div>","null","FL","learning/Slide109.JPG","That was a wug.","",""
"","image-keyboard-response","335","295687","0.0-8.0-0.29","FL","sob32efsmd","1536","864","en","qi02ng28","null","","","","","","","","learning/Slide110.JPG","null","","","","",""
"","html-keyboard-response","336","296861","0.0-8.0-1.29","FL","sob32efsmd","1536","864","en","qi02ng28","null","","","","learningBlock2","","","","That was a bim.","null","","","","",""
"","html-keyboard-response","337","297862","0.0-8.0-2.29","FL","sob32efsmd","1536","864","en","qi02ng28","null","","","","learningBlock2","","","","<div style=""font-size:60px;""> </div>","null","FL","learning/Slide110.JPG","That was a bim.","",""
"","image-keyboard-response","338","298049","0.0-8.0-0.30","FL","sob32efsmd","1536","864","en","qi02ng28","null","","","","","","","","learning/Slide111.JPG","null","","","","",""
"","html-keyboard-response","339","299215","0.0-8.0-1.30","FL","sob32efsmd","1536","864","en","qi02ng28","null","","","","learningBlock2","","","","That was a tob.","null","","","","",""
"","html-keyboard-response","340","300223","0.0-8.0-2.30","FL","sob32efsmd","1536","864","en","qi02ng28","null","","","","learningBlock2","","","","<div style=""font-size:60px;""> </div>","null","FL","learning/Slide111.JPG","That was a tob.","",""
"","image-keyboard-response","341","300401","0.0-8.0-0.31","FL","sob32efsmd","1536","864","en","qi02ng28","null","","","","","","","","learning/Slide112.JPG","null","","","","",""
"","html-keyboard-response","342","301559","0.0-8.0-1.31","FL","sob32efsmd","1536","864","en","qi02ng28","null","","","","learningBlock2","","","","That was a wug.","null","","","","",""
"","html-keyboard-response","343","302565","0.0-8.0-2.31","FL","sob32efsmd","1536","864","en","qi02ng28","null","","","","learningBlock2","","","","<div style=""font-size:60px;""> </div>","null","FL","learning/Slide112.JPG","That was a wug.","",""
"","image-keyboard-response","344","302745","0.0-8.0-0.32","FL","sob32efsmd","1536","864","en","qi02ng28","null","","","","","","","","learning/Slide113.JPG","null","","","","",""
"","html-keyboard-response","345","303912","0.0-8.0-1.32","FL","sob32efsmd","1536","864","en","qi02ng28","null","","","","learningBlock2","","","","That was a tob.","null","","","","",""
"","html-keyboard-response","346","304919","0.0-8.0-2.32","FL","sob32efsmd","1536","864","en","qi02ng28","null","","","","learningBlock2","","","","<div style=""font-size:60px;""> </div>","null","FL","learning/Slide113.JPG","That was a tob.","",""
"","image-keyboard-response","347","305108","0.0-8.0-0.33","FL","sob32efsmd","1536","864","en","qi02ng28","null","","","","","","","","learning/Slide114.JPG","null","","","","",""
"","html-keyboard-response","348","306266","0.0-8.0-1.33","FL","sob32efsmd","1536","864","en","qi02ng28","null","","","","learningBlock2","","","","That was a wug.","null","","","","",""
"","html-keyboard-response","349","307270","0.0-8.0-2.33","FL","sob32efsmd","1536","864","en","qi02ng28","null","","","","learningBlock2","","","","<div style=""font-size:60px;""> </div>","null","FL","learning/Slide114.JPG","That was a wug.","",""
"","image-keyboard-response","350","307452","0.0-8.0-0.34","FL","sob32efsmd","1536","864","en","qi02ng28","null","","","","","","","","learning/Slide115.JPG","null","","","","",""
"","html-keyboard-response","351","308608","0.0-8.0-1.34","FL","sob32efsmd","1536","864","en","qi02ng28","null","","","","learningBlock2","","","","That was a bim.","null","","","","",""
"","html-keyboard-response","352","309609","0.0-8.0-2.34","FL","sob32efsmd","1536","864","en","qi02ng28","null","","","","learningBlock2","","","","<div style=""font-size:60px;""> </div>","null","FL","learning/Slide115.JPG","That was a bim.","",""
"","image-keyboard-response","353","309786","0.0-8.0-0.35","FL","sob32efsmd","1536","864","en","qi02ng28","null","","","","","","","","learning/Slide116.JPG","null","","","","",""
"","html-keyboard-response","354","310950","0.0-8.0-1.35","FL","sob32efsmd","1536","864","en","qi02ng28","null","","","","learningBlock2","","","","That was a dep.","null","","","","",""
"","html-keyboard-response","355","311955","0.0-8.0-2.35","FL","sob32efsmd","1536","864","en","qi02ng28","null","","","","learningBlock2","","","","<div style=""font-size:60px;""> </div>","null","FL","learning/Slide116.JPG","That was a dep.","",""
"","image-keyboard-response","356","312133","0.0-8.0-0.36","FL","sob32efsmd","1536","864","en","qi02ng28","null","","","","","","","","learning/Slide117.JPG","null","","","","",""
"","html-keyboard-response","357","313295","0.0-8.0-1.36","FL","sob32efsmd","1536","864","en","qi02ng28","null","","","","learningBlock2","","","","That was a tob.","null","","","","",""
"","html-keyboard-response","358","314303","0.0-8.0-2.36","FL","sob32efsmd","1536","864","en","qi02ng28","null","","","","learningBlock2","","","","<div style=""font-size:60px;""> </div>","null","FL","learning/Slide117.JPG","That was a tob.","",""
"","image-keyboard-response","359","314480","0.0-8.0-0.37","FL","sob32efsmd","1536","864","en","qi02ng28","null","","","","","","","","learning/Slide118.JPG","null","","","","",""
"","html-keyboard-response","360","315645","0.0-8.0-1.37","FL","sob32efsmd","1536","864","en","qi02ng28","null","","","","learningBlock2","","","","That was a dep.","null","","","","",""
"","html-keyboard-response","361","316647","0.0-8.0-2.37","FL","sob32efsmd","1536","864","en","qi02ng28","null","","","","learningBlock2","","","","<div style=""font-size:60px;""> </div>","null","FL","learning/Slide118.JPG","That was a dep.","",""
"","image-keyboard-response","362","316828","0.0-8.0-0.38","FL","sob32efsmd","1536","864","en","qi02ng28","null","","","","","","","","learning/Slide119.JPG","null","","","","",""
"","html-keyboard-response","363","317989","0.0-8.0-1.38","FL","sob32efsmd","1536","864","en","qi02ng28","null","","","","learningBlock2","","","","That was a wug.","null","","","","",""
"","html-keyboard-response","364","319006","0.0-8.0-2.38","FL","sob32efsmd","1536","864","en","qi02ng28","null","","","","learningBlock2","","","","<div style=""font-size:60px;""> </div>","null","FL","learning/Slide119.JPG","That was a wug.","",""
"","image-keyboard-response","365","319183","0.0-8.0-0.39","FL","sob32efsmd","1536","864","en","qi02ng28","null","","","","","","","","learning/Slide120.JPG","null","","","","",""
"","html-keyboard-response","366","320359","0.0-8.0-1.39","FL","sob32efsmd","1536","864","en","qi02ng28","null","","","","learningBlock2","","","","That was a dep.","null","","","","",""
"","html-keyboard-response","367","321361","0.0-8.0-2.39","FL","sob32efsmd","1536","864","en","qi02ng28","null","","","","learningBlock2","","","","<div style=""font-size:60px;""> </div>","null","FL","learning/Slide120.JPG","That was a dep.","",""
"","image-keyboard-response","368","321543","0.0-8.0-0.40","FL","sob32efsmd","1536","864","en","qi02ng28","null","","","","","","","","learning/Slide121.JPG","null","","","","",""
"","html-keyboard-response","369","322702","0.0-8.0-1.40","FL","sob32efsmd","1536","864","en","qi02ng28","null","","","","learningBlock2","","","","That was a bim.","null","","","","",""
"","html-keyboard-response","370","323704","0.0-8.0-2.40","FL","sob32efsmd","1536","864","en","qi02ng28","null","","","","learningBlock2","","","","<div style=""font-size:60px;""> </div>","null","FL","learning/Slide121.JPG","That was a bim.","",""
"","image-keyboard-response","371","323886","0.0-8.0-0.41","FL","sob32efsmd","1536","864","en","qi02ng28","null","","","","","","","","learning/Slide122.JPG","null","","","","",""
"","html-keyboard-response","372","325059","0.0-8.0-1.41","FL","sob32efsmd","1536","864","en","qi02ng28","null","","","","learningBlock2","","","","That was a wug.","null","","","","",""
"","html-keyboard-response","373","326068","0.0-8.0-2.41","FL","sob32efsmd","1536","864","en","qi02ng28","null","","","","learningBlock2","","","","<div style=""font-size:60px;""> </div>","null","FL","learning/Slide122.JPG","That was a wug.","",""
"","image-keyboard-response","374","326245","0.0-8.0-0.42","FL","sob32efsmd","1536","864","en","qi02ng28","null","","","","","","","","learning/Slide123.JPG","null","","","","",""
"","html-keyboard-response","375","327399","0.0-8.0-1.42","FL","sob32efsmd","1536","864","en","qi02ng28","null","","","","learningBlock2","","","","That was a bim.","null","","","","",""
"","html-keyboard-response","376","328407","0.0-8.0-2.42","FL","sob32efsmd","1536","864","en","qi02ng28","null","","","","learningBlock2","","","","<div style=""font-size:60px;""> </div>","null","FL","learning/Slide123.JPG","That was a bim.","",""
"","image-keyboard-response","377","328584","0.0-8.0-0.43","FL","sob32efsmd","1536","864","en","qi02ng28","null","","","","","","","","learning/Slide124.JPG","null","","","","",""
"","html-keyboard-response","378","329749","0.0-8.0-1.43","FL","sob32efsmd","1536","864","en","qi02ng28","null","","","","learningBlock2","","","","That was a tob.","null","","","","",""
"","html-keyboard-response","379","330763","0.0-8.0-2.43","FL","sob32efsmd","1536","864","en","qi02ng28","null","","","","learningBlock2","","","","<div style=""font-size:60px;""> </div>","null","FL","learning/Slide124.JPG","That was a tob.","",""
"","image-keyboard-response","380","330947","0.0-8.0-0.44","FL","sob32efsmd","1536","864","en","qi02ng28","null","","","","","","","","learning/Slide125.JPG","null","","","","",""
"","html-keyboard-response","381","332109","0.0-8.0-1.44","FL","sob32efsmd","1536","864","en","qi02ng28","null","","","","learningBlock2","","","","That was a bim.","null","","","","",""
"","html-keyboard-response","382","333111","0.0-8.0-2.44","FL","sob32efsmd","1536","864","en","qi02ng28","null","","","","learningBlock2","","","","<div style=""font-size:60px;""> </div>","null","FL","learning/Slide125.JPG","That was a bim.","",""
"","image-keyboard-response","383","333297","0.0-8.0-0.45","FL","sob32efsmd","1536","864","en","qi02ng28","null","","","","","","","","learning/Slide126.JPG","null","","","","",""
"","html-keyboard-response","384","334464","0.0-8.0-1.45","FL","sob32efsmd","1536","864","en","qi02ng28","null","","","","learningBlock2","","","","That was a tob.","null","","","","",""
"","html-keyboard-response","385","335467","0.0-8.0-2.45","FL","sob32efsmd","1536","864","en","qi02ng28","null","","","","learningBlock2","","","","<div style=""font-size:60px;""> </div>","null","FL","learning/Slide126.JPG","That was a tob.","",""
"","image-keyboard-response","386","335644","0.0-8.0-0.46","FL","sob32efsmd","1536","864","en","qi02ng28","null","","","","","","","","learning/Slide127.JPG","null","","","","",""
"","html-keyboard-response","387","336804","0.0-8.0-1.46","FL","sob32efsmd","1536","864","en","qi02ng28","null","","","","learningBlock2","","","","That was a dep.","null","","","","",""
"","html-keyboard-response","388","337811","0.0-8.0-2.46","FL","sob32efsmd","1536","864","en","qi02ng28","null","","","","learningBlock2","","","","<div style=""font-size:60px;""> </div>","null","FL","learning/Slide127.JPG","That was a dep.","",""
"","image-keyboard-response","389","337995","0.0-8.0-0.47","FL","sob32efsmd","1536","864","en","qi02ng28","null","","","","","","","","learning/Slide128.JPG","null","","","","",""
"","html-keyboard-response","390","339175","0.0-8.0-1.47","FL","sob32efsmd","1536","864","en","qi02ng28","null","","","","learningBlock2","","","","That was a wug.","null","","","","",""
"","html-keyboard-response","391","340187","0.0-8.0-2.47","FL","sob32efsmd","1536","864","en","qi02ng28","null","","","","learningBlock2","","","","<div style=""font-size:60px;""> </div>","null","FL","learning/Slide128.JPG","That was a wug.","",""
"","image-keyboard-response","392","340363","0.0-8.0-0.48","FL","sob32efsmd","1536","864","en","qi02ng28","null","","","","","","","","learning/Slide129.JPG","null","","","","",""
"","html-keyboard-response","393","341525","0.0-8.0-1.48","FL","sob32efsmd","1536","864","en","qi02ng28","null","","","","learningBlock2","","","","That was a tob.","null","","","","",""
"","html-keyboard-response","394","342539","0.0-8.0-2.48","FL","sob32efsmd","1536","864","en","qi02ng28","null","","","","learningBlock2","","","","<div style=""font-size:60px;""> </div>","null","FL","learning/Slide129.JPG","That was a tob.","",""
"","image-keyboard-response","395","342725","0.0-8.0-0.49","FL","sob32efsmd","1536","864","en","qi02ng28","null","","","","","","","","learning/Slide130.JPG","null","","","","",""
"","html-keyboard-response","396","343879","0.0-8.0-1.49","FL","sob32efsmd","1536","864","en","qi02ng28","null","","","","learningBlock2","","","","That was a wug.","null","","","","",""
"","html-keyboard-response","397","344895","0.0-8.0-2.49","FL","sob32efsmd","1536","864","en","qi02ng28","null","","","","learningBlock2","","","","<div style=""font-size:60px;""> </div>","null","FL","learning/Slide130.JPG","That was a wug.","",""
"","image-keyboard-response","398","345077","0.0-8.0-0.50","FL","sob32efsmd","1536","864","en","qi02ng28","null","","","","","","","","learning/Slide131.JPG","null","","","","",""
"","html-keyboard-response","399","346240","0.0-8.0-1.50","FL","sob32efsmd","1536","864","en","qi02ng28","null","","","","learningBlock2","","","","That was a bim.","null","","","","",""
"","html-keyboard-response","400","347250","0.0-8.0-2.50","FL","sob32efsmd","1536","864","en","qi02ng28","null","","","","learningBlock2","","","","<div style=""font-size:60px;""> </div>","null","FL","learning/Slide131.JPG","That was a bim.","",""
"","image-keyboard-response","401","347427","0.0-8.0-0.51","FL","sob32efsmd","1536","864","en","qi02ng28","null","","","","","","","","learning/Slide132.JPG","null","","","","",""
"","html-keyboard-response","402","348588","0.0-8.0-1.51","FL","sob32efsmd","1536","864","en","qi02ng28","null","","","","learningBlock2","","","","That was a dep.","null","","","","",""
"","html-keyboard-response","403","349601","0.0-8.0-2.51","FL","sob32efsmd","1536","864","en","qi02ng28","null","","","","learningBlock2","","","","<div style=""font-size:60px;""> </div>","null","FL","learning/Slide132.JPG","That was a dep.","",""
"","image-keyboard-response","404","349788","0.0-8.0-0.52","FL","sob32efsmd","1536","864","en","qi02ng28","null","","","","","","","","learning/Slide133.JPG","null","","","","",""
"","html-keyboard-response","405","350950","0.0-8.0-1.52","FL","sob32efsmd","1536","864","en","qi02ng28","null","","","","learningBlock2","","","","That was a tob.","null","","","","",""
"","html-keyboard-response","406","351964","0.0-8.0-2.52","FL","sob32efsmd","1536","864","en","qi02ng28","null","","","","learningBlock2","","","","<div style=""font-size:60px;""> </div>","null","FL","learning/Slide133.JPG","That was a tob.","",""
"","image-keyboard-response","407","352148","0.0-8.0-0.53","FL","sob32efsmd","1536","864","en","qi02ng28","null","","","","","","","","learning/Slide134.JPG","null","","","","",""
"","html-keyboard-response","408","353310","0.0-8.0-1.53","FL","sob32efsmd","1536","864","en","qi02ng28","null","","","","learningBlock2","","","","That was a dep.","null","","","","",""
"","html-keyboard-response","409","354323","0.0-8.0-2.53","FL","sob32efsmd","1536","864","en","qi02ng28","null","","","","learningBlock2","","","","<div style=""font-size:60px;""> </div>","null","FL","learning/Slide134.JPG","That was a dep.","",""
"","image-keyboard-response","410","354501","0.0-8.0-0.54","FL","sob32efsmd","1536","864","en","qi02ng28","null","","","","","","","","learning/Slide135.JPG","null","","","","",""
"","html-keyboard-response","411","355667","0.0-8.0-1.54","FL","sob32efsmd","1536","864","en","qi02ng28","null","","","","learningBlock2","","","","That was a tob.","null","","","","",""
"","html-keyboard-response","412","356679","0.0-8.0-2.54","FL","sob32efsmd","1536","864","en","qi02ng28","null","","","","learningBlock2","","","","<div style=""font-size:60px;""> </div>","null","FL","learning/Slide135.JPG","That was a tob.","",""
"","image-keyboard-response","413","356865","0.0-8.0-0.55","FL","sob32efsmd","1536","864","en","qi02ng28","null","","","","","","","","learning/Slide136.JPG","null","","","","",""
"","html-keyboard-response","414","358031","0.0-8.0-1.55","FL","sob32efsmd","1536","864","en","qi02ng28","null","","","","learningBlock2","","","","That was a wug.","null","","","","",""
"","html-keyboard-response","415","359033","0.0-8.0-2.55","FL","sob32efsmd","1536","864","en","qi02ng28","null","","","","learningBlock2","","","","<div style=""font-size:60px;""> </div>","null","FL","learning/Slide136.JPG","That was a wug.","",""
"","image-keyboard-response","416","359220","0.0-8.0-0.56","FL","sob32efsmd","1536","864","en","qi02ng28","null","","","","","","","","learning/Slide137.JPG","null","","","","",""
"","html-keyboard-response","417","360388","0.0-8.0-1.56","FL","sob32efsmd","1536","864","en","qi02ng28","null","","","","learningBlock2","","","","That was a tob.","null","","","","",""
"","html-keyboard-response","418","361396","0.0-8.0-2.56","FL","sob32efsmd","1536","864","en","qi02ng28","null","","","","learningBlock2","","","","<div style=""font-size:60px;""> </div>","null","FL","learning/Slide137.JPG","That was a tob.","",""
"","image-keyboard-response","419","361577","0.0-8.0-0.57","FL","sob32efsmd","1536","864","en","qi02ng28","null","","","","","","","","learning/Slide138.JPG","null","","","","",""
"","html-keyboard-response","420","362738","0.0-8.0-1.57","FL","sob32efsmd","1536","864","en","qi02ng28","null","","","","learningBlock2","","","","That was a bim.","null","","","","",""
"","html-keyboard-response","421","363748","0.0-8.0-2.57","FL","sob32efsmd","1536","864","en","qi02ng28","null","","","","learningBlock2","","","","<div style=""font-size:60px;""> </div>","null","FL","learning/Slide138.JPG","That was a bim.","",""
"","image-keyboard-response","422","363939","0.0-8.0-0.58","FL","sob32efsmd","1536","864","en","qi02ng28","null","","","","","","","","learning/Slide139.JPG","null","","","","",""
"","html-keyboard-response","423","365120","0.0-8.0-1.58","FL","sob32efsmd","1536","864","en","qi02ng28","null","","","","learningBlock2","","","","That was a wug.","null","","","","",""
"","html-keyboard-response","424","366134","0.0-8.0-2.58","FL","sob32efsmd","1536","864","en","qi02ng28","null","","","","learningBlock2","","","","<div style=""font-size:60px;""> </div>","null","FL","learning/Slide139.JPG","That was a wug.","",""
"","image-keyboard-response","425","366318","0.0-8.0-0.59","FL","sob32efsmd","1536","864","en","qi02ng28","null","","","","","","","","learning/Slide140.JPG","null","","","","",""
"","html-keyboard-response","426","367482","0.0-8.0-1.59","FL","sob32efsmd","1536","864","en","qi02ng28","null","","","","learningBlock2","","","","That was a dep.","null","","","","",""
"","html-keyboard-response","427","368488","0.0-8.0-2.59","FL","sob32efsmd","1536","864","en","qi02ng28","null","","","","learningBlock2","","","","<div style=""font-size:60px;""> </div>","null","FL","learning/Slide140.JPG","That was a dep.","",""
"","image-keyboard-response","428","368665","0.0-8.0-0.60","FL","sob32efsmd","1536","864","en","qi02ng28","null","","","","","","","","learning/Slide141.JPG","null","","","","",""
"","html-keyboard-response","429","369820","0.0-8.0-1.60","FL","sob32efsmd","1536","864","en","qi02ng28","null","","","","learningBlock2","","","","That was a tob.","null","","","","",""
"","html-keyboard-response","430","370834","0.0-8.0-2.60","FL","sob32efsmd","1536","864","en","qi02ng28","null","","","","learningBlock2","","","","<div style=""font-size:60px;""> </div>","null","FL","learning/Slide141.JPG","That was a tob.","",""
"","image-keyboard-response","431","371016","0.0-8.0-0.61","FL","sob32efsmd","1536","864","en","qi02ng28","null","","","","","","","","learning/Slide142.JPG","null","","","","",""
"","html-keyboard-response","432","372191","0.0-8.0-1.61","FL","sob32efsmd","1536","864","en","qi02ng28","null","","","","learningBlock2","","","","That was a wug.","null","","","","",""
"","html-keyboard-response","433","373208","0.0-8.0-2.61","FL","sob32efsmd","1536","864","en","qi02ng28","null","","","","learningBlock2","","","","<div style=""font-size:60px;""> </div>","null","FL","learning/Slide142.JPG","That was a wug.","",""
"","image-keyboard-response","434","373398","0.0-8.0-0.62","FL","sob32efsmd","1536","864","en","qi02ng28","null","","","","","","","","learning/Slide143.JPG","null","","","","",""
"","html-keyboard-response","435","374566","0.0-8.0-1.62","FL","sob32efsmd","1536","864","en","qi02ng28","null","","","","learningBlock2","","","","That was a bim.","null","","","","",""
"","html-keyboard-response","436","375571","0.0-8.0-2.62","FL","sob32efsmd","1536","864","en","qi02ng28","null","","","","learningBlock2","","","","<div style=""font-size:60px;""> </div>","null","FL","learning/Slide143.JPG","That was a bim.","",""
"","image-keyboard-response","437","375755","0.0-8.0-0.63","FL","sob32efsmd","1536","864","en","qi02ng28","null","","","","","","","","learning/Slide144.JPG","null","","","","",""
"","html-keyboard-response","438","376921","0.0-8.0-1.63","FL","sob32efsmd","1536","864","en","qi02ng28","null","","","","learningBlock2","","","","That was a dep.","null","","","","",""
"","html-keyboard-response","439","377934","0.0-8.0-2.63","FL","sob32efsmd","1536","864","en","qi02ng28","null","","","","learningBlock2","","","","<div style=""font-size:60px;""> </div>","null","FL","learning/Slide144.JPG","That was a dep.","",""
"","image-keyboard-response","440","378117","0.0-8.0-0.64","FL","sob32efsmd","1536","864","en","qi02ng28","null","","","","","","","","learning/Slide145.JPG","null","","","","",""
"","html-keyboard-response","441","379270","0.0-8.0-1.64","FL","sob32efsmd","1536","864","en","qi02ng28","null","","","","learningBlock2","","","","That was a bim.","null","","","","",""
"","html-keyboard-response","442","380286","0.0-8.0-2.64","FL","sob32efsmd","1536","864","en","qi02ng28","null","","","","learningBlock2","","","","<div style=""font-size:60px;""> </div>","null","FL","learning/Slide145.JPG","That was a bim.","",""
"","image-keyboard-response","443","380463","0.0-8.0-0.65","FL","sob32efsmd","1536","864","en","qi02ng28","null","","","","","","","","learning/Slide146.JPG","null","","","","",""
"","html-keyboard-response","444","381627","0.0-8.0-1.65","FL","sob32efsmd","1536","864","en","qi02ng28","null","","","","learningBlock2","","","","That was a tob.","null","","","","",""
"","html-keyboard-response","445","382640","0.0-8.0-2.65","FL","sob32efsmd","1536","864","en","qi02ng28","null","","","","learningBlock2","","","","<div style=""font-size:60px;""> </div>","null","FL","learning/Slide146.JPG","That was a tob.","",""
"","image-keyboard-response","446","382817","0.0-8.0-0.66","FL","sob32efsmd","1536","864","en","qi02ng28","null","","","","","","","","learning/Slide147.JPG","null","","","","",""
"","html-keyboard-response","447","383978","0.0-8.0-1.66","FL","sob32efsmd","1536","864","en","qi02ng28","null","","","","learningBlock2","","","","That was a wug.","null","","","","",""
"","html-keyboard-response","448","384984","0.0-8.0-2.66","FL","sob32efsmd","1536","864","en","qi02ng28","null","","","","learningBlock2","","","","<div style=""font-size:60px;""> </div>","null","FL","learning/Slide147.JPG","That was a wug.","",""
"","image-keyboard-response","449","385165","0.0-8.0-0.67","FL","sob32efsmd","1536","864","en","qi02ng28","null","","","","","","","","learning/Slide148.JPG","null","","","","",""
"","html-keyboard-response","450","386339","0.0-8.0-1.67","FL","sob32efsmd","1536","864","en","qi02ng28","null","","","","learningBlock2","","","","That was a bim.","null","","","","",""
"","html-keyboard-response","451","387347","0.0-8.0-2.67","FL","sob32efsmd","1536","864","en","qi02ng28","null","","","","learningBlock2","","","","<div style=""font-size:60px;""> </div>","null","FL","learning/Slide148.JPG","That was a bim.","",""
"","image-keyboard-response","452","387524","0.0-8.0-0.68","FL","sob32efsmd","1536","864","en","qi02ng28","null","","","","","","","","learning/Slide149.JPG","null","","","","",""
"","html-keyboard-response","453","388681","0.0-8.0-1.68","FL","sob32efsmd","1536","864","en","qi02ng28","null","","","","learningBlock2","","","","That was a dep.","null","","","","",""
"","html-keyboard-response","454","389684","0.0-8.0-2.68","FL","sob32efsmd","1536","864","en","qi02ng28","null","","","","learningBlock2","","","","<div style=""font-size:60px;""> </div>","null","FL","learning/Slide149.JPG","That was a dep.","",""
"","image-keyboard-response","455","389864","0.0-8.0-0.69","FL","sob32efsmd","1536","864","en","qi02ng28","null","","","","","","","","learning/Slide150.JPG","null","","","","",""
"","html-keyboard-response","456","391034","0.0-8.0-1.69","FL","sob32efsmd","1536","864","en","qi02ng28","null","","","","learningBlock2","","","","That was a wug.","null","","","","",""
"","html-keyboard-response","457","392042","0.0-8.0-2.69","FL","sob32efsmd","1536","864","en","qi02ng28","null","","","","learningBlock2","","","","<div style=""font-size:60px;""> </div>","null","FL","learning/Slide150.JPG","That was a wug.","",""
"","image-keyboard-response","458","392224","0.0-8.0-0.70","FL","sob32efsmd","1536","864","en","qi02ng28","null","","","","","","","","learning/Slide151.JPG","null","","","","",""
"","html-keyboard-response","459","393390","0.0-8.0-1.70","FL","sob32efsmd","1536","864","en","qi02ng28","null","","","","learningBlock2","","","","That was a dep.","null","","","","",""
"","html-keyboard-response","460","394395","0.0-8.0-2.70","FL","sob32efsmd","1536","864","en","qi02ng28","null","","","","learningBlock2","","","","<div style=""font-size:60px;""> </div>","null","FL","learning/Slide151.JPG","That was a dep.","",""
"","image-keyboard-response","461","394579","0.0-8.0-0.71","FL","sob32efsmd","1536","864","en","qi02ng28","null","","","","","","","","learning/Slide152.JPG","null","","","","",""
"","html-keyboard-response","462","395748","0.0-8.0-1.71","FL","sob32efsmd","1536","864","en","qi02ng28","null","","","","learningBlock2","","","","That was a wug.","null","","","","",""
"","html-keyboard-response","463","396756","0.0-8.0-2.71","FL","sob32efsmd","1536","864","en","qi02ng28","null","","","","learningBlock2","","","","<div style=""font-size:60px;""> </div>","null","FL","learning/Slide152.JPG","That was a wug.","",""
"","image-keyboard-response","464","396941","0.0-8.0-0.72","FL","sob32efsmd","1536","864","en","qi02ng28","null","","","","","","","","learning/Slide153.JPG","null","","","","",""
"","html-keyboard-response","465","398109","0.0-8.0-1.72","FL","sob32efsmd","1536","864","en","qi02ng28","null","","","","learningBlock2","","","","That was a bim.","null","","","","",""
"","html-keyboard-response","466","399112","0.0-8.0-2.72","FL","sob32efsmd","1536","864","en","qi02ng28","null","","","","learningBlock2","","","","<div style=""font-size:60px;""> </div>","null","FL","learning/Slide153.JPG","That was a bim.","",""
"","image-keyboard-response","467","399302","0.0-8.0-0.73","FL","sob32efsmd","1536","864","en","qi02ng28","null","","","","","","","","learning/Slide154.JPG","null","","","","",""
"","html-keyboard-response","468","400466","0.0-8.0-1.73","FL","sob32efsmd","1536","864","en","qi02ng28","null","","","","learningBlock2","","","","That was a tob.","null","","","","",""
"","html-keyboard-response","469","401474","0.0-8.0-2.73","FL","sob32efsmd","1536","864","en","qi02ng28","null","","","","learningBlock2","","","","<div style=""font-size:60px;""> </div>","null","FL","learning/Slide154.JPG","That was a tob.","",""
"","image-keyboard-response","470","401653","0.0-8.0-0.74","FL","sob32efsmd","1536","864","en","qi02ng28","null","","","","","","","","learning/Slide155.JPG","null","","","","",""
"","html-keyboard-response","471","402817","0.0-8.0-1.74","FL","sob32efsmd","1536","864","en","qi02ng28","null","","","","learningBlock2","","","","That was a dep.","null","","","","",""
"","html-keyboard-response","472","403825","0.0-8.0-2.74","FL","sob32efsmd","1536","864","en","qi02ng28","null","","","","learningBlock2","","","","<div style=""font-size:60px;""> </div>","null","FL","learning/Slide155.JPG","That was a dep.","",""
"","image-keyboard-response","473","404012","0.0-8.0-0.75","FL","sob32efsmd","1536","864","en","qi02ng28","null","","","","","","","","learning/Slide156.JPG","null","","","","",""
"","html-keyboard-response","474","405172","0.0-8.0-1.75","FL","sob32efsmd","1536","864","en","qi02ng28","null","","","","learningBlock2","","","","That was a bim.","null","","","","",""
"","html-keyboard-response","475","406178","0.0-8.0-2.75","FL","sob32efsmd","1536","864","en","qi02ng28","null","","","","learningBlock2","","","","<div style=""font-size:60px;""> </div>","null","FL","learning/Slide156.JPG","That was a bim.","",""
"","image-keyboard-response","476","406360","0.0-8.0-0.76","FL","sob32efsmd","1536","864","en","qi02ng28","null","","","","","","","","learning/Slide157.JPG","null","","","","",""
"","html-keyboard-response","477","407525","0.0-8.0-1.76","FL","sob32efsmd","1536","864","en","qi02ng28","null","","","","learningBlock2","","","","That was a dep.","null","","","","",""
"","html-keyboard-response","478","408536","0.0-8.0-2.76","FL","sob32efsmd","1536","864","en","qi02ng28","null","","","","learningBlock2","","","","<div style=""font-size:60px;""> </div>","null","FL","learning/Slide157.JPG","That was a dep.","",""
"","image-keyboard-response","479","408720","0.0-8.0-0.77","FL","sob32efsmd","1536","864","en","qi02ng28","null","","","","","","","","learning/Slide158.JPG","null","","","","",""
"","html-keyboard-response","480","409873","0.0-8.0-1.77","FL","sob32efsmd","1536","864","en","qi02ng28","null","","","","learningBlock2","","","","That was a tob.","null","","","","",""
"","html-keyboard-response","481","410886","0.0-8.0-2.77","FL","sob32efsmd","1536","864","en","qi02ng28","null","","","","learningBlock2","","","","<div style=""font-size:60px;""> </div>","null","FL","learning/Slide158.JPG","That was a tob.","",""
"","image-keyboard-response","482","411064","0.0-8.0-0.78","FL","sob32efsmd","1536","864","en","qi02ng28","null","","","","","","","","learning/Slide159.JPG","null","","","","",""
"","html-keyboard-response","483","412221","0.0-8.0-1.78","FL","sob32efsmd","1536","864","en","qi02ng28","null","","","","learningBlock2","","","","That was a dep.","null","","","","",""
"","html-keyboard-response","484","413234","0.0-8.0-2.78","FL","sob32efsmd","1536","864","en","qi02ng28","null","","","","learningBlock2","","","","<div style=""font-size:60px;""> </div>","null","FL","learning/Slide159.JPG","That was a dep.","",""
"","image-keyboard-response","485","413414","0.0-8.0-0.79","FL","sob32efsmd","1536","864","en","qi02ng28","null","","","","","","","","learning/Slide160.JPG","null","","","","",""
"","html-keyboard-response","486","414596","0.0-8.0-1.79","FL","sob32efsmd","1536","864","en","qi02ng28","null","","","","learningBlock2","","","","That was a wug.","null","","","","",""
"","html-keyboard-response","487","415599","0.0-8.0-2.79","FL","sob32efsmd","1536","864","en","qi02ng28","null","","","","learningBlock2","","","","<div style=""font-size:60px;""> </div>","null","FL","learning/Slide160.JPG","That was a wug.","",""
"","resize2","488","419510","0.0-9.0","FL","sob32efsmd","1536","864","en","qi02ng28","","","","","","","104","1.04","","","","","","",""
