"success","trial_type","trial_index","time_elapsed","internal_node_id","condition","subject","screen_width","screen_height","language","codeword","rt","responses","url","view_history","test_part","final_height_px","final_width_px","scale_factor","stimulus","key_press","learningType","presentedImage","presentedLabel","button_pressed","response"
"true","fullscreen","0","2513","0.0-0.0","FL","g0qt0dz9h6","1536","864","en","LD05ND12","","","","","","","","","","","","","","",""
"","survey-html-form","1","3632","0.0-1.0","FL","g0qt0dz9h6","1536","864","en","LD05ND12","1115.4250000836328","{""language"":""en""}","","","","","","","","","","","","",""
"","external-html","2","31438","0.0-3.0-0.0","FL","g0qt0dz9h6","1536","864","en","LD05ND12","27792.13499999605","","text/information_english.html","","","","","","","","","","","",""
"","external-html","3","106452","0.0-3.0-1.0","FL","g0qt0dz9h6","1536","864","en","LD05ND12","74925.68999994546","","text/consent_english.html","","","","","","","","","","","",""
"","survey-html-form","4","190657","0.0-3.0-2.0","FL","g0qt0dz9h6","1536","864","en","LD05ND12","84196.809999994","{""codeword_enter"":""LD05ND12""}","","","","","","","","","","","","",""
"","instructions","5","207169","0.0-4.0","FL","g0qt0dz9h6","1536","864","en","LD05ND12","NA","","","[{""page_index"":0,""viewing_time"":2328.1999999890104},{""page_index"":1,""viewing_time"":12663.709999993443}]","instructions","","","","","","","","","",""
"","resize","6","267550","0.0-5.0","FL","g0qt0dz9h6","1536","864","en","LD05ND12","","","","","","","382","2.425396825396825","","","","","","",""
"","image-keyboard-response","7","267735","0.0-6.0-0.0","FL","g0qt0dz9h6","1536","864","en","LD05ND12","null","","","","","","","","learning/Slide1.JPG","null","","","","",""
"","html-keyboard-response","8","268901","0.0-6.0-1.0","FL","g0qt0dz9h6","1536","864","en","LD05ND12","null","","","","learningBlock1","","","","That was a tob.","null","","","","",""
"","html-keyboard-response","9","269918","0.0-6.0-2.0","FL","g0qt0dz9h6","1536","864","en","LD05ND12","null","","","","learningBlock1","","","","<div style=""font-size:60px;""> </div>","null","FL","learning/Slide1.JPG","That was a tob.","",""
"","image-keyboard-response","10","270102","0.0-6.0-0.1","FL","g0qt0dz9h6","1536","864","en","LD05ND12","null","","","","","","","","learning/Slide2.JPG","null","","","","",""
"","html-keyboard-response","11","271257","0.0-6.0-1.1","FL","g0qt0dz9h6","1536","864","en","LD05ND12","null","","","","learningBlock1","","","","That was a wug.","null","","","","",""
"","html-keyboard-response","12","272260","0.0-6.0-2.1","FL","g0qt0dz9h6","1536","864","en","LD05ND12","null","","","","learningBlock1","","","","<div style=""font-size:60px;""> </div>","null","FL","learning/Slide2.JPG","That was a wug.","",""
"","image-keyboard-response","13","272445","0.0-6.0-0.2","FL","g0qt0dz9h6","1536","864","en","LD05ND12","null","","","","","","","","learning/Slide3.JPG","null","","","","",""
"","html-keyboard-response","14","273609","0.0-6.0-1.2","FL","g0qt0dz9h6","1536","864","en","LD05ND12","null","","","","learningBlock1","","","","That was a bim.","null","","","","",""
"","html-keyboard-response","15","274611","0.0-6.0-2.2","FL","g0qt0dz9h6","1536","864","en","LD05ND12","null","","","","learningBlock1","","","","<div style=""font-size:60px;""> </div>","null","FL","learning/Slide3.JPG","That was a bim.","",""
"","image-keyboard-response","16","274796","0.0-6.0-0.3","FL","g0qt0dz9h6","1536","864","en","LD05ND12","null","","","","","","","","learning/Slide4.JPG","null","","","","",""
"","html-keyboard-response","17","275952","0.0-6.0-1.3","FL","g0qt0dz9h6","1536","864","en","LD05ND12","null","","","","learningBlock1","","","","That was a dep.","null","","","","",""
"","html-keyboard-response","18","276969","0.0-6.0-2.3","FL","g0qt0dz9h6","1536","864","en","LD05ND12","null","","","","learningBlock1","","","","<div style=""font-size:60px;""> </div>","null","FL","learning/Slide4.JPG","That was a dep.","",""
"","image-keyboard-response","19","277154","0.0-6.0-0.4","FL","g0qt0dz9h6","1536","864","en","LD05ND12","null","","","","","","","","learning/Slide5.JPG","null","","","","",""
"","html-keyboard-response","20","278318","0.0-6.0-1.4","FL","g0qt0dz9h6","1536","864","en","LD05ND12","null","","","","learningBlock1","","","","That was a wug.","null","","","","",""
"","html-keyboard-response","21","279319","0.0-6.0-2.4","FL","g0qt0dz9h6","1536","864","en","LD05ND12","null","","","","learningBlock1","","","","<div style=""font-size:60px;""> </div>","null","FL","learning/Slide5.JPG","That was a wug.","",""
"","image-keyboard-response","22","279507","0.0-6.0-0.5","FL","g0qt0dz9h6","1536","864","en","LD05ND12","null","","","","","","","","learning/Slide6.JPG","null","","","","",""
"","html-keyboard-response","23","280676","0.0-6.0-1.5","FL","g0qt0dz9h6","1536","864","en","LD05ND12","null","","","","learningBlock1","","","","That was a dep.","null","","","","",""
"","html-keyboard-response","24","281694","0.0-6.0-2.5","FL","g0qt0dz9h6","1536","864","en","LD05ND12","null","","","","learningBlock1","","","","<div style=""font-size:60px;""> </div>","null","FL","learning/Slide6.JPG","That was a dep.","",""
"","image-keyboard-response","25","281878","0.0-6.0-0.6","FL","g0qt0dz9h6","1536","864","en","LD05ND12","null","","","","","","","","learning/Slide7.JPG","null","","","","",""
"","html-keyboard-response","26","283043","0.0-6.0-1.6","FL","g0qt0dz9h6","1536","864","en","LD05ND12","null","","","","learningBlock1","","","","That was a wug.","null","","","","",""
"","html-keyboard-response","27","284045","0.0-6.0-2.6","FL","g0qt0dz9h6","1536","864","en","LD05ND12","null","","","","learningBlock1","","","","<div style=""font-size:60px;""> </div>","null","FL","learning/Slide7.JPG","That was a wug.","",""
"","image-keyboard-response","28","284229","0.0-6.0-0.7","FL","g0qt0dz9h6","1536","864","en","LD05ND12","null","","","","","","","","learning/Slide8.JPG","null","","","","",""
"","html-keyboard-response","29","285385","0.0-6.0-1.7","FL","g0qt0dz9h6","1536","864","en","LD05ND12","null","","","","learningBlock1","","","","That was a bim.","null","","","","",""
"","html-keyboard-response","30","286387","0.0-6.0-2.7","FL","g0qt0dz9h6","1536","864","en","LD05ND12","null","","","","learningBlock1","","","","<div style=""font-size:60px;""> </div>","null","FL","learning/Slide8.JPG","That was a bim.","",""
"","image-keyboard-response","31","286572","0.0-6.0-0.8","FL","g0qt0dz9h6","1536","864","en","LD05ND12","null","","","","","","","","learning/Slide9.JPG","null","","","","",""
"","html-keyboard-response","32","287737","0.0-6.0-1.8","FL","g0qt0dz9h6","1536","864","en","LD05ND12","null","","","","learningBlock1","","","","That was a wug.","null","","","","",""
"","html-keyboard-response","33","288739","0.0-6.0-2.8","FL","g0qt0dz9h6","1536","864","en","LD05ND12","null","","","","learningBlock1","","","","<div style=""font-size:60px;""> </div>","null","FL","learning/Slide9.JPG","That was a wug.","",""
"","image-keyboard-response","34","288924","0.0-6.0-0.9","FL","g0qt0dz9h6","1536","864","en","LD05ND12","null","","","","","","","","learning/Slide10.JPG","null","","","","",""
"","html-keyboard-response","35","290080","0.0-6.0-1.9","FL","g0qt0dz9h6","1536","864","en","LD05ND12","null","","","","learningBlock1","","","","That was a dep.","null","","","","",""
"","html-keyboard-response","36","291082","0.0-6.0-2.9","FL","g0qt0dz9h6","1536","864","en","LD05ND12","null","","","","learningBlock1","","","","<div style=""font-size:60px;""> </div>","null","FL","learning/Slide10.JPG","That was a dep.","",""
"","image-keyboard-response","37","291261","0.0-6.0-0.10","FL","g0qt0dz9h6","1536","864","en","LD05ND12","null","","","","","","","","learning/Slide11.JPG","null","","","","",""
"","html-keyboard-response","38","292416","0.0-6.0-1.10","FL","g0qt0dz9h6","1536","864","en","LD05ND12","null","","","","learningBlock1","","","","That was a tob.","null","","","","",""
"","html-keyboard-response","39","293418","0.0-6.0-2.10","FL","g0qt0dz9h6","1536","864","en","LD05ND12","null","","","","learningBlock1","","","","<div style=""font-size:60px;""> </div>","null","FL","learning/Slide11.JPG","That was a tob.","",""
"","image-keyboard-response","40","293603","0.0-6.0-0.11","FL","g0qt0dz9h6","1536","864","en","LD05ND12","null","","","","","","","","learning/Slide12.JPG","null","","","","",""
"","html-keyboard-response","41","294767","0.0-6.0-1.11","FL","g0qt0dz9h6","1536","864","en","LD05ND12","null","","","","learningBlock1","","","","That was a dep.","null","","","","",""
"","html-keyboard-response","42","295769","0.0-6.0-2.11","FL","g0qt0dz9h6","1536","864","en","LD05ND12","null","","","","learningBlock1","","","","<div style=""font-size:60px;""> </div>","null","FL","learning/Slide12.JPG","That was a dep.","",""
"","image-keyboard-response","43","295954","0.0-6.0-0.12","FL","g0qt0dz9h6","1536","864","en","LD05ND12","null","","","","","","","","learning/Slide13.JPG","null","","","","",""
"","html-keyboard-response","44","297110","0.0-6.0-1.12","FL","g0qt0dz9h6","1536","864","en","LD05ND12","null","","","","learningBlock1","","","","That was a bim.","null","","","","",""
"","html-keyboard-response","45","298112","0.0-6.0-2.12","FL","g0qt0dz9h6","1536","864","en","LD05ND12","null","","","","learningBlock1","","","","<div style=""font-size:60px;""> </div>","null","FL","learning/Slide13.JPG","That was a bim.","",""
"","image-keyboard-response","46","298297","0.0-6.0-0.13","FL","g0qt0dz9h6","1536","864","en","LD05ND12","null","","","","","","","","learning/Slide14.JPG","null","","","","",""
"","html-keyboard-response","47","299462","0.0-6.0-1.13","FL","g0qt0dz9h6","1536","864","en","LD05ND12","null","","","","learningBlock1","","","","That was a wug.","null","","","","",""
"","html-keyboard-response","48","300465","0.0-6.0-2.13","FL","g0qt0dz9h6","1536","864","en","LD05ND12","null","","","","learningBlock1","","","","<div style=""font-size:60px;""> </div>","null","FL","learning/Slide14.JPG","That was a wug.","",""
"","image-keyboard-response","49","300649","0.0-6.0-0.14","FL","g0qt0dz9h6","1536","864","en","LD05ND12","null","","","","","","","","learning/Slide15.JPG","null","","","","",""
"","html-keyboard-response","50","301805","0.0-6.0-1.14","FL","g0qt0dz9h6","1536","864","en","LD05ND12","null","","","","learningBlock1","","","","That was a tob.","null","","","","",""
"","html-keyboard-response","51","302807","0.0-6.0-2.14","FL","g0qt0dz9h6","1536","864","en","LD05ND12","null","","","","learningBlock1","","","","<div style=""font-size:60px;""> </div>","null","FL","learning/Slide15.JPG","That was a tob.","",""
"","image-keyboard-response","52","302985","0.0-6.0-0.15","FL","g0qt0dz9h6","1536","864","en","LD05ND12","null","","","","","","","","learning/Slide16.JPG","null","","","","",""
"","html-keyboard-response","53","304140","0.0-6.0-1.15","FL","g0qt0dz9h6","1536","864","en","LD05ND12","null","","","","learningBlock1","","","","That was a dep.","null","","","","",""
"","html-keyboard-response","54","305143","0.0-6.0-2.15","FL","g0qt0dz9h6","1536","864","en","LD05ND12","null","","","","learningBlock1","","","","<div style=""font-size:60px;""> </div>","null","FL","learning/Slide16.JPG","That was a dep.","",""
"","image-keyboard-response","55","305327","0.0-6.0-0.16","FL","g0qt0dz9h6","1536","864","en","LD05ND12","null","","","","","","","","learning/Slide17.JPG","null","","","","",""
"","html-keyboard-response","56","306493","0.0-6.0-1.16","FL","g0qt0dz9h6","1536","864","en","LD05ND12","null","","","","learningBlock1","","","","That was a bim.","null","","","","",""
"","html-keyboard-response","57","307495","0.0-6.0-2.16","FL","g0qt0dz9h6","1536","864","en","LD05ND12","null","","","","learningBlock1","","","","<div style=""font-size:60px;""> </div>","null","FL","learning/Slide17.JPG","That was a bim.","",""
"","image-keyboard-response","58","307682","0.0-6.0-0.17","FL","g0qt0dz9h6","1536","864","en","LD05ND12","null","","","","","","","","learning/Slide18.JPG","null","","","","",""
"","html-keyboard-response","59","308850","0.0-6.0-1.17","FL","g0qt0dz9h6","1536","864","en","LD05ND12","null","","","","learningBlock1","","","","That was a tob.","null","","","","",""
"","html-keyboard-response","60","309852","0.0-6.0-2.17","FL","g0qt0dz9h6","1536","864","en","LD05ND12","null","","","","learningBlock1","","","","<div style=""font-size:60px;""> </div>","null","FL","learning/Slide18.JPG","That was a tob.","",""
"","image-keyboard-response","61","310037","0.0-6.0-0.18","FL","g0qt0dz9h6","1536","864","en","LD05ND12","null","","","","","","","","learning/Slide19.JPG","null","","","","",""
"","html-keyboard-response","62","311201","0.0-6.0-1.18","FL","g0qt0dz9h6","1536","864","en","LD05ND12","null","","","","learningBlock1","","","","That was a wug.","null","","","","",""
"","html-keyboard-response","63","312203","0.0-6.0-2.18","FL","g0qt0dz9h6","1536","864","en","LD05ND12","null","","","","learningBlock1","","","","<div style=""font-size:60px;""> </div>","null","FL","learning/Slide19.JPG","That was a wug.","",""
"","image-keyboard-response","64","312388","0.0-6.0-0.19","FL","g0qt0dz9h6","1536","864","en","LD05ND12","null","","","","","","","","learning/Slide20.JPG","null","","","","",""
"","html-keyboard-response","65","313544","0.0-6.0-1.19","FL","g0qt0dz9h6","1536","864","en","LD05ND12","null","","","","learningBlock1","","","","That was a bim.","null","","","","",""
"","html-keyboard-response","66","314547","0.0-6.0-2.19","FL","g0qt0dz9h6","1536","864","en","LD05ND12","null","","","","learningBlock1","","","","<div style=""font-size:60px;""> </div>","null","FL","learning/Slide20.JPG","That was a bim.","",""
"","image-keyboard-response","67","314732","0.0-6.0-0.20","FL","g0qt0dz9h6","1536","864","en","LD05ND12","null","","","","","","","","learning/Slide21.JPG","null","","","","",""
"","html-keyboard-response","68","315900","0.0-6.0-1.20","FL","g0qt0dz9h6","1536","864","en","LD05ND12","null","","","","learningBlock1","","","","That was a dep.","null","","","","",""
"","html-keyboard-response","69","316914","0.0-6.0-2.20","FL","g0qt0dz9h6","1536","864","en","LD05ND12","null","","","","learningBlock1","","","","<div style=""font-size:60px;""> </div>","null","FL","learning/Slide21.JPG","That was a dep.","",""
"","image-keyboard-response","70","317098","0.0-6.0-0.21","FL","g0qt0dz9h6","1536","864","en","LD05ND12","null","","","","","","","","learning/Slide22.JPG","null","","","","",""
"","html-keyboard-response","71","318255","0.0-6.0-1.21","FL","g0qt0dz9h6","1536","864","en","LD05ND12","null","","","","learningBlock1","","","","That was a bim.","null","","","","",""
"","html-keyboard-response","72","319272","0.0-6.0-2.21","FL","g0qt0dz9h6","1536","864","en","LD05ND12","null","","","","learningBlock1","","","","<div style=""font-size:60px;""> </div>","null","FL","learning/Slide22.JPG","That was a bim.","",""
"","image-keyboard-response","73","319455","0.0-6.0-0.22","FL","g0qt0dz9h6","1536","864","en","LD05ND12","null","","","","","","","","learning/Slide23.JPG","null","","","","",""
"","html-keyboard-response","74","320622","0.0-6.0-1.22","FL","g0qt0dz9h6","1536","864","en","LD05ND12","null","","","","learningBlock1","","","","That was a tob.","null","","","","",""
"","html-keyboard-response","75","321625","0.0-6.0-2.22","FL","g0qt0dz9h6","1536","864","en","LD05ND12","null","","","","learningBlock1","","","","<div style=""font-size:60px;""> </div>","null","FL","learning/Slide23.JPG","That was a tob.","",""
"","image-keyboard-response","76","321810","0.0-6.0-0.23","FL","g0qt0dz9h6","1536","864","en","LD05ND12","null","","","","","","","","learning/Slide24.JPG","null","","","","",""
"","html-keyboard-response","77","322979","0.0-6.0-1.23","FL","g0qt0dz9h6","1536","864","en","LD05ND12","null","","","","learningBlock1","","","","That was a wug.","null","","","","",""
"","html-keyboard-response","78","323983","0.0-6.0-2.23","FL","g0qt0dz9h6","1536","864","en","LD05ND12","null","","","","learningBlock1","","","","<div style=""font-size:60px;""> </div>","null","FL","learning/Slide24.JPG","That was a wug.","",""
"","image-keyboard-response","79","324168","0.0-6.0-0.24","FL","g0qt0dz9h6","1536","864","en","LD05ND12","null","","","","","","","","learning/Slide25.JPG","null","","","","",""
"","html-keyboard-response","80","325335","0.0-6.0-1.24","FL","g0qt0dz9h6","1536","864","en","LD05ND12","null","","","","learningBlock1","","","","That was a dep.","null","","","","",""
"","html-keyboard-response","81","326359","0.0-6.0-2.24","FL","g0qt0dz9h6","1536","864","en","LD05ND12","null","","","","learningBlock1","","","","<div style=""font-size:60px;""> </div>","null","FL","learning/Slide25.JPG","That was a dep.","",""
"","image-keyboard-response","82","326538","0.0-6.0-0.25","FL","g0qt0dz9h6","1536","864","en","LD05ND12","null","","","","","","","","learning/Slide26.JPG","null","","","","",""
"","html-keyboard-response","83","327711","0.0-6.0-1.25","FL","g0qt0dz9h6","1536","864","en","LD05ND12","null","","","","learningBlock1","","","","That was a wug.","null","","","","",""
"","html-keyboard-response","84","328726","0.0-6.0-2.25","FL","g0qt0dz9h6","1536","864","en","LD05ND12","null","","","","learningBlock1","","","","<div style=""font-size:60px;""> </div>","null","FL","learning/Slide26.JPG","That was a wug.","",""
"","image-keyboard-response","85","328911","0.0-6.0-0.26","FL","g0qt0dz9h6","1536","864","en","LD05ND12","null","","","","","","","","learning/Slide27.JPG","null","","","","",""
"","html-keyboard-response","86","330067","0.0-6.0-1.26","FL","g0qt0dz9h6","1536","864","en","LD05ND12","null","","","","learningBlock1","","","","That was a bim.","null","","","","",""
"","html-keyboard-response","87","331085","0.0-6.0-2.26","FL","g0qt0dz9h6","1536","864","en","LD05ND12","null","","","","learningBlock1","","","","<div style=""font-size:60px;""> </div>","null","FL","learning/Slide27.JPG","That was a bim.","",""
"","image-keyboard-response","88","331270","0.0-6.0-0.27","FL","g0qt0dz9h6","1536","864","en","LD05ND12","null","","","","","","","","learning/Slide28.JPG","null","","","","",""
"","html-keyboard-response","89","332434","0.0-6.0-1.27","FL","g0qt0dz9h6","1536","864","en","LD05ND12","null","","","","learningBlock1","","","","That was a dep.","null","","","","",""
"","html-keyboard-response","90","333437","0.0-6.0-2.27","FL","g0qt0dz9h6","1536","864","en","LD05ND12","null","","","","learningBlock1","","","","<div style=""font-size:60px;""> </div>","null","FL","learning/Slide28.JPG","That was a dep.","",""
"","image-keyboard-response","91","333622","0.0-6.0-0.28","FL","g0qt0dz9h6","1536","864","en","LD05ND12","null","","","","","","","","learning/Slide29.JPG","null","","","","",""
"","html-keyboard-response","92","334796","0.0-6.0-1.28","FL","g0qt0dz9h6","1536","864","en","LD05ND12","null","","","","learningBlock1","","","","That was a tob.","null","","","","",""
"","html-keyboard-response","93","335815","0.0-6.0-2.28","FL","g0qt0dz9h6","1536","864","en","LD05ND12","null","","","","learningBlock1","","","","<div style=""font-size:60px;""> </div>","null","FL","learning/Slide29.JPG","That was a tob.","",""
"","image-keyboard-response","94","335999","0.0-6.0-0.29","FL","g0qt0dz9h6","1536","864","en","LD05ND12","null","","","","","","","","learning/Slide30.JPG","null","","","","",""
"","html-keyboard-response","95","337164","0.0-6.0-1.29","FL","g0qt0dz9h6","1536","864","en","LD05ND12","null","","","","learningBlock1","","","","That was a dep.","null","","","","",""
"","html-keyboard-response","96","338167","0.0-6.0-2.29","FL","g0qt0dz9h6","1536","864","en","LD05ND12","null","","","","learningBlock1","","","","<div style=""font-size:60px;""> </div>","null","FL","learning/Slide30.JPG","That was a dep.","",""
"","image-keyboard-response","97","338353","0.0-6.0-0.30","FL","g0qt0dz9h6","1536","864","en","LD05ND12","null","","","","","","","","learning/Slide31.JPG","null","","","","",""
"","html-keyboard-response","98","339524","0.0-6.0-1.30","FL","g0qt0dz9h6","1536","864","en","LD05ND12","null","","","","learningBlock1","","","","That was a wug.","null","","","","",""
"","html-keyboard-response","99","340542","0.0-6.0-2.30","FL","g0qt0dz9h6","1536","864","en","LD05ND12","null","","","","learningBlock1","","","","<div style=""font-size:60px;""> </div>","null","FL","learning/Slide31.JPG","That was a wug.","",""
"","image-keyboard-response","100","340729","0.0-6.0-0.31","FL","g0qt0dz9h6","1536","864","en","LD05ND12","null","","","","","","","","learning/Slide32.JPG","null","","","","",""
"","html-keyboard-response","101","341898","0.0-6.0-1.31","FL","g0qt0dz9h6","1536","864","en","LD05ND12","null","","","","learningBlock1","","","","That was a tob.","null","","","","",""
"","html-keyboard-response","102","342915","0.0-6.0-2.31","FL","g0qt0dz9h6","1536","864","en","LD05ND12","null","","","","learningBlock1","","","","<div style=""font-size:60px;""> </div>","null","FL","learning/Slide32.JPG","That was a tob.","",""
"","image-keyboard-response","103","343101","0.0-6.0-0.32","FL","g0qt0dz9h6","1536","864","en","LD05ND12","null","","","","","","","","learning/Slide33.JPG","null","","","","",""
"","html-keyboard-response","104","344268","0.0-6.0-1.32","FL","g0qt0dz9h6","1536","864","en","LD05ND12","null","","","","learningBlock1","","","","That was a bim.","null","","","","",""
"","html-keyboard-response","105","345285","0.0-6.0-2.32","FL","g0qt0dz9h6","1536","864","en","LD05ND12","null","","","","learningBlock1","","","","<div style=""font-size:60px;""> </div>","null","FL","learning/Slide33.JPG","That was a bim.","",""
"","image-keyboard-response","106","345470","0.0-6.0-0.33","FL","g0qt0dz9h6","1536","864","en","LD05ND12","null","","","","","","","","learning/Slide34.JPG","null","","","","",""
"","html-keyboard-response","107","346644","0.0-6.0-1.33","FL","g0qt0dz9h6","1536","864","en","LD05ND12","null","","","","learningBlock1","","","","That was a tob.","null","","","","",""
"","html-keyboard-response","108","347663","0.0-6.0-2.33","FL","g0qt0dz9h6","1536","864","en","LD05ND12","null","","","","learningBlock1","","","","<div style=""font-size:60px;""> </div>","null","FL","learning/Slide34.JPG","That was a tob.","",""
"","image-keyboard-response","109","347845","0.0-6.0-0.34","FL","g0qt0dz9h6","1536","864","en","LD05ND12","null","","","","","","","","learning/Slide35.JPG","null","","","","",""
"","html-keyboard-response","110","349016","0.0-6.0-1.34","FL","g0qt0dz9h6","1536","864","en","LD05ND12","null","","","","learningBlock1","","","","That was a bim.","null","","","","",""
"","html-keyboard-response","111","350034","0.0-6.0-2.34","FL","g0qt0dz9h6","1536","864","en","LD05ND12","null","","","","learningBlock1","","","","<div style=""font-size:60px;""> </div>","null","FL","learning/Slide35.JPG","That was a bim.","",""
"","image-keyboard-response","112","350219","0.0-6.0-0.35","FL","g0qt0dz9h6","1536","864","en","LD05ND12","null","","","","","","","","learning/Slide36.JPG","null","","","","",""
"","html-keyboard-response","113","351399","0.0-6.0-1.35","FL","g0qt0dz9h6","1536","864","en","LD05ND12","null","","","","learningBlock1","","","","That was a dep.","null","","","","",""
"","html-keyboard-response","114","352403","0.0-6.0-2.35","FL","g0qt0dz9h6","1536","864","en","LD05ND12","null","","","","learningBlock1","","","","<div style=""font-size:60px;""> </div>","null","FL","learning/Slide36.JPG","That was a dep.","",""
"","image-keyboard-response","115","352589","0.0-6.0-0.36","FL","g0qt0dz9h6","1536","864","en","LD05ND12","null","","","","","","","","learning/Slide37.JPG","null","","","","",""
"","html-keyboard-response","116","353743","0.0-6.0-1.36","FL","g0qt0dz9h6","1536","864","en","LD05ND12","null","","","","learningBlock1","","","","That was a tob.","null","","","","",""
"","html-keyboard-response","117","354763","0.0-6.0-2.36","FL","g0qt0dz9h6","1536","864","en","LD05ND12","null","","","","learningBlock1","","","","<div style=""font-size:60px;""> </div>","null","FL","learning/Slide37.JPG","That was a tob.","",""
"","image-keyboard-response","118","354945","0.0-6.0-0.37","FL","g0qt0dz9h6","1536","864","en","LD05ND12","null","","","","","","","","learning/Slide38.JPG","null","","","","",""
"","html-keyboard-response","119","356109","0.0-6.0-1.37","FL","g0qt0dz9h6","1536","864","en","LD05ND12","null","","","","learningBlock1","","","","That was a wug.","null","","","","",""
"","html-keyboard-response","120","357136","0.0-6.0-2.37","FL","g0qt0dz9h6","1536","864","en","LD05ND12","null","","","","learningBlock1","","","","<div style=""font-size:60px;""> </div>","null","FL","learning/Slide38.JPG","That was a wug.","",""
"","image-keyboard-response","121","357336","0.0-6.0-0.38","FL","g0qt0dz9h6","1536","864","en","LD05ND12","null","","","","","","","","learning/Slide39.JPG","null","","","","",""
"","html-keyboard-response","122","358500","0.0-6.0-1.38","FL","g0qt0dz9h6","1536","864","en","LD05ND12","null","","","","learningBlock1","","","","That was a bim.","null","","","","",""
"","html-keyboard-response","123","359503","0.0-6.0-2.38","FL","g0qt0dz9h6","1536","864","en","LD05ND12","null","","","","learningBlock1","","","","<div style=""font-size:60px;""> </div>","null","FL","learning/Slide39.JPG","That was a bim.","",""
"","image-keyboard-response","124","359691","0.0-6.0-0.39","FL","g0qt0dz9h6","1536","864","en","LD05ND12","null","","","","","","","","learning/Slide40.JPG","null","","","","",""
"","html-keyboard-response","125","360874","0.0-6.0-1.39","FL","g0qt0dz9h6","1536","864","en","LD05ND12","null","","","","learningBlock1","","","","That was a tob.","null","","","","",""
"","html-keyboard-response","126","361893","0.0-6.0-2.39","FL","g0qt0dz9h6","1536","864","en","LD05ND12","null","","","","learningBlock1","","","","<div style=""font-size:60px;""> </div>","null","FL","learning/Slide40.JPG","That was a tob.","",""
"","image-keyboard-response","127","362078","0.0-6.0-0.40","FL","g0qt0dz9h6","1536","864","en","LD05ND12","null","","","","","","","","learning/Slide41.JPG","null","","","","",""
"","html-keyboard-response","128","363247","0.0-6.0-1.40","FL","g0qt0dz9h6","1536","864","en","LD05ND12","null","","","","learningBlock1","","","","That was a bim.","null","","","","",""
"","html-keyboard-response","129","364250","0.0-6.0-2.40","FL","g0qt0dz9h6","1536","864","en","LD05ND12","null","","","","learningBlock1","","","","<div style=""font-size:60px;""> </div>","null","FL","learning/Slide41.JPG","That was a bim.","",""
"","image-keyboard-response","130","364452","0.0-6.0-0.41","FL","g0qt0dz9h6","1536","864","en","LD05ND12","null","","","","","","","","learning/Slide42.JPG","null","","","","",""
"","html-keyboard-response","131","365617","0.0-6.0-1.41","FL","g0qt0dz9h6","1536","864","en","LD05ND12","null","","","","learningBlock1","","","","That was a dep.","null","","","","",""
"","html-keyboard-response","132","366634","0.0-6.0-2.41","FL","g0qt0dz9h6","1536","864","en","LD05ND12","null","","","","learningBlock1","","","","<div style=""font-size:60px;""> </div>","null","FL","learning/Slide42.JPG","That was a dep.","",""
"","image-keyboard-response","133","366820","0.0-6.0-0.42","FL","g0qt0dz9h6","1536","864","en","LD05ND12","null","","","","","","","","learning/Slide43.JPG","null","","","","",""
"","html-keyboard-response","134","367991","0.0-6.0-1.42","FL","g0qt0dz9h6","1536","864","en","LD05ND12","null","","","","learningBlock1","","","","That was a wug.","null","","","","",""
"","html-keyboard-response","135","369011","0.0-6.0-2.42","FL","g0qt0dz9h6","1536","864","en","LD05ND12","null","","","","learningBlock1","","","","<div style=""font-size:60px;""> </div>","null","FL","learning/Slide43.JPG","That was a wug.","",""
"","image-keyboard-response","136","369196","0.0-6.0-0.43","FL","g0qt0dz9h6","1536","864","en","LD05ND12","null","","","","","","","","learning/Slide44.JPG","null","","","","",""
"","html-keyboard-response","137","370365","0.0-6.0-1.43","FL","g0qt0dz9h6","1536","864","en","LD05ND12","null","","","","learningBlock1","","","","That was a bim.","null","","","","",""
"","html-keyboard-response","138","371383","0.0-6.0-2.43","FL","g0qt0dz9h6","1536","864","en","LD05ND12","null","","","","learningBlock1","","","","<div style=""font-size:60px;""> </div>","null","FL","learning/Slide44.JPG","That was a bim.","",""
"","image-keyboard-response","139","371566","0.0-6.0-0.44","FL","g0qt0dz9h6","1536","864","en","LD05ND12","null","","","","","","","","learning/Slide45.JPG","null","","","","",""
"","html-keyboard-response","140","372748","0.0-6.0-1.44","FL","g0qt0dz9h6","1536","864","en","LD05ND12","null","","","","learningBlock1","","","","That was a wug.","null","","","","",""
"","html-keyboard-response","141","373773","0.0-6.0-2.44","FL","g0qt0dz9h6","1536","864","en","LD05ND12","null","","","","learningBlock1","","","","<div style=""font-size:60px;""> </div>","null","FL","learning/Slide45.JPG","That was a wug.","",""
"","image-keyboard-response","142","373975","0.0-6.0-0.45","FL","g0qt0dz9h6","1536","864","en","LD05ND12","null","","","","","","","","learning/Slide46.JPG","null","","","","",""
"","html-keyboard-response","143","375154","0.0-6.0-1.45","FL","g0qt0dz9h6","1536","864","en","LD05ND12","null","","","","learningBlock1","","","","That was a dep.","null","","","","",""
"","html-keyboard-response","144","376179","0.0-6.0-2.45","FL","g0qt0dz9h6","1536","864","en","LD05ND12","null","","","","learningBlock1","","","","<div style=""font-size:60px;""> </div>","null","FL","learning/Slide46.JPG","That was a dep.","",""
"","image-keyboard-response","145","376379","0.0-6.0-0.46","FL","g0qt0dz9h6","1536","864","en","LD05ND12","null","","","","","","","","learning/Slide47.JPG","null","","","","",""
"","html-keyboard-response","146","377545","0.0-6.0-1.46","FL","g0qt0dz9h6","1536","864","en","LD05ND12","null","","","","learningBlock1","","","","That was a tob.","null","","","","",""
"","html-keyboard-response","147","378563","0.0-6.0-2.46","FL","g0qt0dz9h6","1536","864","en","LD05ND12","null","","","","learningBlock1","","","","<div style=""font-size:60px;""> </div>","null","FL","learning/Slide47.JPG","That was a tob.","",""
"","image-keyboard-response","148","378746","0.0-6.0-0.47","FL","g0qt0dz9h6","1536","864","en","LD05ND12","null","","","","","","","","learning/Slide48.JPG","null","","","","",""
"","html-keyboard-response","149","379902","0.0-6.0-1.47","FL","g0qt0dz9h6","1536","864","en","LD05ND12","null","","","","learningBlock1","","","","That was a bim.","null","","","","",""
"","html-keyboard-response","150","380903","0.0-6.0-2.47","FL","g0qt0dz9h6","1536","864","en","LD05ND12","null","","","","learningBlock1","","","","<div style=""font-size:60px;""> </div>","null","FL","learning/Slide48.JPG","That was a bim.","",""
"","image-keyboard-response","151","381103","0.0-6.0-0.48","FL","g0qt0dz9h6","1536","864","en","LD05ND12","null","","","","","","","","learning/Slide49.JPG","null","","","","",""
"","html-keyboard-response","152","382285","0.0-6.0-1.48","FL","g0qt0dz9h6","1536","864","en","LD05ND12","null","","","","learningBlock1","","","","That was a dep.","null","","","","",""
"","html-keyboard-response","153","383309","0.0-6.0-2.48","FL","g0qt0dz9h6","1536","864","en","LD05ND12","null","","","","learningBlock1","","","","<div style=""font-size:60px;""> </div>","null","FL","learning/Slide49.JPG","That was a dep.","",""
"","image-keyboard-response","154","383488","0.0-6.0-0.49","FL","g0qt0dz9h6","1536","864","en","LD05ND12","null","","","","","","","","learning/Slide50.JPG","null","","","","",""
"","html-keyboard-response","155","384658","0.0-6.0-1.49","FL","g0qt0dz9h6","1536","864","en","LD05ND12","null","","","","learningBlock1","","","","That was a tob.","null","","","","",""
"","html-keyboard-response","156","385663","0.0-6.0-2.49","FL","g0qt0dz9h6","1536","864","en","LD05ND12","null","","","","learningBlock1","","","","<div style=""font-size:60px;""> </div>","null","FL","learning/Slide50.JPG","That was a tob.","",""
"","image-keyboard-response","157","385845","0.0-6.0-0.50","FL","g0qt0dz9h6","1536","864","en","LD05ND12","null","","","","","","","","learning/Slide51.JPG","null","","","","",""
"","html-keyboard-response","158","387019","0.0-6.0-1.50","FL","g0qt0dz9h6","1536","864","en","LD05ND12","null","","","","learningBlock1","","","","That was a bim.","null","","","","",""
"","html-keyboard-response","159","388034","0.0-6.0-2.50","FL","g0qt0dz9h6","1536","864","en","LD05ND12","null","","","","learningBlock1","","","","<div style=""font-size:60px;""> </div>","null","FL","learning/Slide51.JPG","That was a bim.","",""
"","image-keyboard-response","160","388221","0.0-6.0-0.51","FL","g0qt0dz9h6","1536","864","en","LD05ND12","null","","","","","","","","learning/Slide52.JPG","null","","","","",""
"","html-keyboard-response","161","389398","0.0-6.0-1.51","FL","g0qt0dz9h6","1536","864","en","LD05ND12","null","","","","learningBlock1","","","","That was a wug.","null","","","","",""
"","html-keyboard-response","162","390401","0.0-6.0-2.51","FL","g0qt0dz9h6","1536","864","en","LD05ND12","null","","","","learningBlock1","","","","<div style=""font-size:60px;""> </div>","null","FL","learning/Slide52.JPG","That was a wug.","",""
"","image-keyboard-response","163","390585","0.0-6.0-0.52","FL","g0qt0dz9h6","1536","864","en","LD05ND12","null","","","","","","","","learning/Slide53.JPG","null","","","","",""
"","html-keyboard-response","164","391739","0.0-6.0-1.52","FL","g0qt0dz9h6","1536","864","en","LD05ND12","null","","","","learningBlock1","","","","That was a tob.","null","","","","",""
"","html-keyboard-response","165","392741","0.0-6.0-2.52","FL","g0qt0dz9h6","1536","864","en","LD05ND12","null","","","","learningBlock1","","","","<div style=""font-size:60px;""> </div>","null","FL","learning/Slide53.JPG","That was a tob.","",""
"","image-keyboard-response","166","392933","0.0-6.0-0.53","FL","g0qt0dz9h6","1536","864","en","LD05ND12","null","","","","","","","","learning/Slide54.JPG","null","","","","",""
"","html-keyboard-response","167","394093","0.0-6.0-1.53","FL","g0qt0dz9h6","1536","864","en","LD05ND12","null","","","","learningBlock1","","","","That was a dep.","null","","","","",""
"","html-keyboard-response","168","395110","0.0-6.0-2.53","FL","g0qt0dz9h6","1536","864","en","LD05ND12","null","","","","learningBlock1","","","","<div style=""font-size:60px;""> </div>","null","FL","learning/Slide54.JPG","That was a dep.","",""
"","image-keyboard-response","169","395294","0.0-6.0-0.54","FL","g0qt0dz9h6","1536","864","en","LD05ND12","null","","","","","","","","learning/Slide55.JPG","null","","","","",""
"","html-keyboard-response","170","396449","0.0-6.0-1.54","FL","g0qt0dz9h6","1536","864","en","LD05ND12","null","","","","learningBlock1","","","","That was a bim.","null","","","","",""
"","html-keyboard-response","171","397469","0.0-6.0-2.54","FL","g0qt0dz9h6","1536","864","en","LD05ND12","null","","","","learningBlock1","","","","<div style=""font-size:60px;""> </div>","null","FL","learning/Slide55.JPG","That was a bim.","",""
"","image-keyboard-response","172","397654","0.0-6.0-0.55","FL","g0qt0dz9h6","1536","864","en","LD05ND12","null","","","","","","","","learning/Slide56.JPG","null","","","","",""
"","html-keyboard-response","173","398818","0.0-6.0-1.55","FL","g0qt0dz9h6","1536","864","en","LD05ND12","null","","","","learningBlock1","","","","That was a tob.","null","","","","",""
"","html-keyboard-response","174","399843","0.0-6.0-2.55","FL","g0qt0dz9h6","1536","864","en","LD05ND12","null","","","","learningBlock1","","","","<div style=""font-size:60px;""> </div>","null","FL","learning/Slide56.JPG","That was a tob.","",""
"","image-keyboard-response","175","400045","0.0-6.0-0.56","FL","g0qt0dz9h6","1536","864","en","LD05ND12","null","","","","","","","","learning/Slide57.JPG","null","","","","",""
"","html-keyboard-response","176","401209","0.0-6.0-1.56","FL","g0qt0dz9h6","1536","864","en","LD05ND12","null","","","","learningBlock1","","","","That was a dep.","null","","","","",""
"","html-keyboard-response","177","402225","0.0-6.0-2.56","FL","g0qt0dz9h6","1536","864","en","LD05ND12","null","","","","learningBlock1","","","","<div style=""font-size:60px;""> </div>","null","FL","learning/Slide57.JPG","That was a dep.","",""
"","image-keyboard-response","178","402410","0.0-6.0-0.57","FL","g0qt0dz9h6","1536","864","en","LD05ND12","null","","","","","","","","learning/Slide58.JPG","null","","","","",""
"","html-keyboard-response","179","403582","0.0-6.0-1.57","FL","g0qt0dz9h6","1536","864","en","LD05ND12","null","","","","learningBlock1","","","","That was a wug.","null","","","","",""
"","html-keyboard-response","180","404584","0.0-6.0-2.57","FL","g0qt0dz9h6","1536","864","en","LD05ND12","null","","","","learningBlock1","","","","<div style=""font-size:60px;""> </div>","null","FL","learning/Slide58.JPG","That was a wug.","",""
"","image-keyboard-response","181","404770","0.0-6.0-0.58","FL","g0qt0dz9h6","1536","864","en","LD05ND12","null","","","","","","","","learning/Slide59.JPG","null","","","","",""
"","html-keyboard-response","182","405934","0.0-6.0-1.58","FL","g0qt0dz9h6","1536","864","en","LD05ND12","null","","","","learningBlock1","","","","That was a dep.","null","","","","",""
"","html-keyboard-response","183","406937","0.0-6.0-2.58","FL","g0qt0dz9h6","1536","864","en","LD05ND12","null","","","","learningBlock1","","","","<div style=""font-size:60px;""> </div>","null","FL","learning/Slide59.JPG","That was a dep.","",""
"","image-keyboard-response","184","407123","0.0-6.0-0.59","FL","g0qt0dz9h6","1536","864","en","LD05ND12","null","","","","","","","","learning/Slide60.JPG","null","","","","",""
"","html-keyboard-response","185","408293","0.0-6.0-1.59","FL","g0qt0dz9h6","1536","864","en","LD05ND12","null","","","","learningBlock1","","","","That was a wug.","null","","","","",""
"","html-keyboard-response","186","409311","0.0-6.0-2.59","FL","g0qt0dz9h6","1536","864","en","LD05ND12","null","","","","learningBlock1","","","","<div style=""font-size:60px;""> </div>","null","FL","learning/Slide60.JPG","That was a wug.","",""
"","image-keyboard-response","187","409497","0.0-6.0-0.60","FL","g0qt0dz9h6","1536","864","en","LD05ND12","null","","","","","","","","learning/Slide61.JPG","null","","","","",""
"","html-keyboard-response","188","410666","0.0-6.0-1.60","FL","g0qt0dz9h6","1536","864","en","LD05ND12","null","","","","learningBlock1","","","","That was a bim.","null","","","","",""
"","html-keyboard-response","189","411670","0.0-6.0-2.60","FL","g0qt0dz9h6","1536","864","en","LD05ND12","null","","","","learningBlock1","","","","<div style=""font-size:60px;""> </div>","null","FL","learning/Slide61.JPG","That was a bim.","",""
"","image-keyboard-response","190","411848","0.0-6.0-0.61","FL","g0qt0dz9h6","1536","864","en","LD05ND12","null","","","","","","","","learning/Slide62.JPG","null","","","","",""
"","html-keyboard-response","191","413005","0.0-6.0-1.61","FL","g0qt0dz9h6","1536","864","en","LD05ND12","null","","","","learningBlock1","","","","That was a dep.","null","","","","",""
"","html-keyboard-response","192","414024","0.0-6.0-2.61","FL","g0qt0dz9h6","1536","864","en","LD05ND12","null","","","","learningBlock1","","","","<div style=""font-size:60px;""> </div>","null","FL","learning/Slide62.JPG","That was a dep.","",""
"","image-keyboard-response","193","414210","0.0-6.0-0.62","FL","g0qt0dz9h6","1536","864","en","LD05ND12","null","","","","","","","","learning/Slide63.JPG","null","","","","",""
"","html-keyboard-response","194","415383","0.0-6.0-1.62","FL","g0qt0dz9h6","1536","864","en","LD05ND12","null","","","","learningBlock1","","","","That was a bim.","null","","","","",""
"","html-keyboard-response","195","416399","0.0-6.0-2.62","FL","g0qt0dz9h6","1536","864","en","LD05ND12","null","","","","learningBlock1","","","","<div style=""font-size:60px;""> </div>","null","FL","learning/Slide63.JPG","That was a bim.","",""
"","image-keyboard-response","196","416586","0.0-6.0-0.63","FL","g0qt0dz9h6","1536","864","en","LD05ND12","null","","","","","","","","learning/Slide64.JPG","null","","","","",""
"","html-keyboard-response","197","417749","0.0-6.0-1.63","FL","g0qt0dz9h6","1536","864","en","LD05ND12","null","","","","learningBlock1","","","","That was a tob.","null","","","","",""
"","html-keyboard-response","198","418752","0.0-6.0-2.63","FL","g0qt0dz9h6","1536","864","en","LD05ND12","null","","","","learningBlock1","","","","<div style=""font-size:60px;""> </div>","null","FL","learning/Slide64.JPG","That was a tob.","",""
"","image-keyboard-response","199","418938","0.0-6.0-0.64","FL","g0qt0dz9h6","1536","864","en","LD05ND12","null","","","","","","","","learning/Slide65.JPG","null","","","","",""
"","html-keyboard-response","200","420094","0.0-6.0-1.64","FL","g0qt0dz9h6","1536","864","en","LD05ND12","null","","","","learningBlock1","","","","That was a wug.","null","","","","",""
"","html-keyboard-response","201","421112","0.0-6.0-2.64","FL","g0qt0dz9h6","1536","864","en","LD05ND12","null","","","","learningBlock1","","","","<div style=""font-size:60px;""> </div>","null","FL","learning/Slide65.JPG","That was a wug.","",""
"","image-keyboard-response","202","421297","0.0-6.0-0.65","FL","g0qt0dz9h6","1536","864","en","LD05ND12","null","","","","","","","","learning/Slide66.JPG","null","","","","",""
"","html-keyboard-response","203","422477","0.0-6.0-1.65","FL","g0qt0dz9h6","1536","864","en","LD05ND12","null","","","","learningBlock1","","","","That was a dep.","null","","","","",""
"","html-keyboard-response","204","423501","0.0-6.0-2.65","FL","g0qt0dz9h6","1536","864","en","LD05ND12","null","","","","learningBlock1","","","","<div style=""font-size:60px;""> </div>","null","FL","learning/Slide66.JPG","That was a dep.","",""
"","image-keyboard-response","205","423681","0.0-6.0-0.66","FL","g0qt0dz9h6","1536","864","en","LD05ND12","null","","","","","","","","learning/Slide67.JPG","null","","","","",""
"","html-keyboard-response","206","424851","0.0-6.0-1.66","FL","g0qt0dz9h6","1536","864","en","LD05ND12","null","","","","learningBlock1","","","","That was a tob.","null","","","","",""
"","html-keyboard-response","207","425870","0.0-6.0-2.66","FL","g0qt0dz9h6","1536","864","en","LD05ND12","null","","","","learningBlock1","","","","<div style=""font-size:60px;""> </div>","null","FL","learning/Slide67.JPG","That was a tob.","",""
"","image-keyboard-response","208","426053","0.0-6.0-0.67","FL","g0qt0dz9h6","1536","864","en","LD05ND12","null","","","","","","","","learning/Slide68.JPG","null","","","","",""
"","html-keyboard-response","209","427225","0.0-6.0-1.67","FL","g0qt0dz9h6","1536","864","en","LD05ND12","null","","","","learningBlock1","","","","That was a wug.","null","","","","",""
"","html-keyboard-response","210","428244","0.0-6.0-2.67","FL","g0qt0dz9h6","1536","864","en","LD05ND12","null","","","","learningBlock1","","","","<div style=""font-size:60px;""> </div>","null","FL","learning/Slide68.JPG","That was a wug.","",""
"","image-keyboard-response","211","428428","0.0-6.0-0.68","FL","g0qt0dz9h6","1536","864","en","LD05ND12","null","","","","","","","","learning/Slide69.JPG","null","","","","",""
"","html-keyboard-response","212","429593","0.0-6.0-1.68","FL","g0qt0dz9h6","1536","864","en","LD05ND12","null","","","","learningBlock1","","","","That was a tob.","null","","","","",""
"","html-keyboard-response","213","430596","0.0-6.0-2.68","FL","g0qt0dz9h6","1536","864","en","LD05ND12","null","","","","learningBlock1","","","","<div style=""font-size:60px;""> </div>","null","FL","learning/Slide69.JPG","That was a tob.","",""
"","image-keyboard-response","214","430781","0.0-6.0-0.69","FL","g0qt0dz9h6","1536","864","en","LD05ND12","null","","","","","","","","learning/Slide70.JPG","null","","","","",""
"","html-keyboard-response","215","431937","0.0-6.0-1.69","FL","g0qt0dz9h6","1536","864","en","LD05ND12","null","","","","learningBlock1","","","","That was a dep.","null","","","","",""
"","html-keyboard-response","216","432940","0.0-6.0-2.69","FL","g0qt0dz9h6","1536","864","en","LD05ND12","null","","","","learningBlock1","","","","<div style=""font-size:60px;""> </div>","null","FL","learning/Slide70.JPG","That was a dep.","",""
"","image-keyboard-response","217","433125","0.0-6.0-0.70","FL","g0qt0dz9h6","1536","864","en","LD05ND12","null","","","","","","","","learning/Slide71.JPG","null","","","","",""
"","html-keyboard-response","218","434288","0.0-6.0-1.70","FL","g0qt0dz9h6","1536","864","en","LD05ND12","null","","","","learningBlock1","","","","That was a wug.","null","","","","",""
"","html-keyboard-response","219","435305","0.0-6.0-2.70","FL","g0qt0dz9h6","1536","864","en","LD05ND12","null","","","","learningBlock1","","","","<div style=""font-size:60px;""> </div>","null","FL","learning/Slide71.JPG","That was a wug.","",""
"","image-keyboard-response","220","435493","0.0-6.0-0.71","FL","g0qt0dz9h6","1536","864","en","LD05ND12","null","","","","","","","","learning/Slide72.JPG","null","","","","",""
"","html-keyboard-response","221","436663","0.0-6.0-1.71","FL","g0qt0dz9h6","1536","864","en","LD05ND12","null","","","","learningBlock1","","","","That was a bim.","null","","","","",""
"","html-keyboard-response","222","437671","0.0-6.0-2.71","FL","g0qt0dz9h6","1536","864","en","LD05ND12","null","","","","learningBlock1","","","","<div style=""font-size:60px;""> </div>","null","FL","learning/Slide72.JPG","That was a bim.","",""
"","image-keyboard-response","223","437865","0.0-6.0-0.72","FL","g0qt0dz9h6","1536","864","en","LD05ND12","null","","","","","","","","learning/Slide73.JPG","null","","","","",""
"","html-keyboard-response","224","439036","0.0-6.0-1.72","FL","g0qt0dz9h6","1536","864","en","LD05ND12","null","","","","learningBlock1","","","","That was a wug.","null","","","","",""
"","html-keyboard-response","225","440055","0.0-6.0-2.72","FL","g0qt0dz9h6","1536","864","en","LD05ND12","null","","","","learningBlock1","","","","<div style=""font-size:60px;""> </div>","null","FL","learning/Slide73.JPG","That was a wug.","",""
"","image-keyboard-response","226","440240","0.0-6.0-0.73","FL","g0qt0dz9h6","1536","864","en","LD05ND12","null","","","","","","","","learning/Slide74.JPG","null","","","","",""
"","html-keyboard-response","227","441419","0.0-6.0-1.73","FL","g0qt0dz9h6","1536","864","en","LD05ND12","null","","","","learningBlock1","","","","That was a dep.","null","","","","",""
"","html-keyboard-response","228","442444","0.0-6.0-2.73","FL","g0qt0dz9h6","1536","864","en","LD05ND12","null","","","","learningBlock1","","","","<div style=""font-size:60px;""> </div>","null","FL","learning/Slide74.JPG","That was a dep.","",""
"","image-keyboard-response","229","442643","0.0-6.0-0.74","FL","g0qt0dz9h6","1536","864","en","LD05ND12","null","","","","","","","","learning/Slide75.JPG","null","","","","",""
"","html-keyboard-response","230","443809","0.0-6.0-1.74","FL","g0qt0dz9h6","1536","864","en","LD05ND12","null","","","","learningBlock1","","","","That was a tob.","null","","","","",""
"","html-keyboard-response","231","444826","0.0-6.0-2.74","FL","g0qt0dz9h6","1536","864","en","LD05ND12","null","","","","learningBlock1","","","","<div style=""font-size:60px;""> </div>","null","FL","learning/Slide75.JPG","That was a tob.","",""
"","image-keyboard-response","232","445012","0.0-6.0-0.75","FL","g0qt0dz9h6","1536","864","en","LD05ND12","null","","","","","","","","learning/Slide76.JPG","null","","","","",""
"","html-keyboard-response","233","446182","0.0-6.0-1.75","FL","g0qt0dz9h6","1536","864","en","LD05ND12","null","","","","learningBlock1","","","","That was a bim.","null","","","","",""
"","html-keyboard-response","234","447185","0.0-6.0-2.75","FL","g0qt0dz9h6","1536","864","en","LD05ND12","null","","","","learningBlock1","","","","<div style=""font-size:60px;""> </div>","null","FL","learning/Slide76.JPG","That was a bim.","",""
"","image-keyboard-response","235","447372","0.0-6.0-0.76","FL","g0qt0dz9h6","1536","864","en","LD05ND12","null","","","","","","","","learning/Slide77.JPG","null","","","","",""
"","html-keyboard-response","236","448539","0.0-6.0-1.76","FL","g0qt0dz9h6","1536","864","en","LD05ND12","null","","","","learningBlock1","","","","That was a tob.","null","","","","",""
"","html-keyboard-response","237","449561","0.0-6.0-2.76","FL","g0qt0dz9h6","1536","864","en","LD05ND12","null","","","","learningBlock1","","","","<div style=""font-size:60px;""> </div>","null","FL","learning/Slide77.JPG","That was a tob.","",""
"","image-keyboard-response","238","449764","0.0-6.0-0.77","FL","g0qt0dz9h6","1536","864","en","LD05ND12","null","","","","","","","","learning/Slide78.JPG","null","","","","",""
"","html-keyboard-response","239","450926","0.0-6.0-1.77","FL","g0qt0dz9h6","1536","864","en","LD05ND12","null","","","","learningBlock1","","","","That was a wug.","null","","","","",""
"","html-keyboard-response","240","451944","0.0-6.0-2.77","FL","g0qt0dz9h6","1536","864","en","LD05ND12","null","","","","learningBlock1","","","","<div style=""font-size:60px;""> </div>","null","FL","learning/Slide78.JPG","That was a wug.","",""
"","image-keyboard-response","241","452130","0.0-6.0-0.78","FL","g0qt0dz9h6","1536","864","en","LD05ND12","null","","","","","","","","learning/Slide79.JPG","null","","","","",""
"","html-keyboard-response","242","453300","0.0-6.0-1.78","FL","g0qt0dz9h6","1536","864","en","LD05ND12","null","","","","learningBlock1","","","","That was a bim.","null","","","","",""
"","html-keyboard-response","243","454304","0.0-6.0-2.78","FL","g0qt0dz9h6","1536","864","en","LD05ND12","null","","","","learningBlock1","","","","<div style=""font-size:60px;""> </div>","null","FL","learning/Slide79.JPG","That was a bim.","",""
"","image-keyboard-response","244","454490","0.0-6.0-0.79","FL","g0qt0dz9h6","1536","864","en","LD05ND12","null","","","","","","","","learning/Slide80.JPG","null","","","","",""
"","html-keyboard-response","245","455655","0.0-6.0-1.79","FL","g0qt0dz9h6","1536","864","en","LD05ND12","null","","","","learningBlock1","","","","That was a tob.","null","","","","",""
"","html-keyboard-response","246","456678","0.0-6.0-2.79","FL","g0qt0dz9h6","1536","864","en","LD05ND12","null","","","","learningBlock1","","","","<div style=""font-size:60px;""> </div>","null","FL","learning/Slide80.JPG","That was a tob.","",""
"","instructions","247","472615","0.0-7.0","FL","g0qt0dz9h6","1536","864","en","LD05ND12","NA","","","[{""page_index"":0,""viewing_time"":15935.799999977462}]","instructions","","","","","","","","","",""
"","image-keyboard-response","248","472810","0.0-8.0-0.0","FL","g0qt0dz9h6","1536","864","en","LD05ND12","null","","","","","","","","learning/Slide81.JPG","null","","","","",""
"","html-keyboard-response","249","473977","0.0-8.0-1.0","FL","g0qt0dz9h6","1536","864","en","LD05ND12","null","","","","learningBlock2","","","","That was a wug.","null","","","","",""
"","html-keyboard-response","250","474995","0.0-8.0-2.0","FL","g0qt0dz9h6","1536","864","en","LD05ND12","null","","","","learningBlock2","","","","<div style=""font-size:60px;""> </div>","null","FL","learning/Slide81.JPG","That was a wug.","",""
"","image-keyboard-response","251","475180","0.0-8.0-0.1","FL","g0qt0dz9h6","1536","864","en","LD05ND12","null","","","","","","","","learning/Slide82.JPG","null","","","","",""
"","html-keyboard-response","252","476367","0.0-8.0-1.1","FL","g0qt0dz9h6","1536","864","en","LD05ND12","null","","","","learningBlock2","","","","That was a bim.","null","","","","",""
"","html-keyboard-response","253","477385","0.0-8.0-2.1","FL","g0qt0dz9h6","1536","864","en","LD05ND12","null","","","","learningBlock2","","","","<div style=""font-size:60px;""> </div>","null","FL","learning/Slide82.JPG","That was a bim.","",""
"","image-keyboard-response","254","477569","0.0-8.0-0.2","FL","g0qt0dz9h6","1536","864","en","LD05ND12","null","","","","","","","","learning/Slide83.JPG","null","","","","",""
"","html-keyboard-response","255","478741","0.0-8.0-1.2","FL","g0qt0dz9h6","1536","864","en","LD05ND12","null","","","","learningBlock2","","","","That was a wug.","null","","","","",""
"","html-keyboard-response","256","479758","0.0-8.0-2.2","FL","g0qt0dz9h6","1536","864","en","LD05ND12","null","","","","learningBlock2","","","","<div style=""font-size:60px;""> </div>","null","FL","learning/Slide83.JPG","That was a wug.","",""
"","image-keyboard-response","257","479943","0.0-8.0-0.3","FL","g0qt0dz9h6","1536","864","en","LD05ND12","null","","","","","","","","learning/Slide84.JPG","null","","","","",""
"","html-keyboard-response","258","481132","0.0-8.0-1.3","FL","g0qt0dz9h6","1536","864","en","LD05ND12","null","","","","learningBlock2","","","","That was a dep.","null","","","","",""
"","html-keyboard-response","259","482148","0.0-8.0-2.3","FL","g0qt0dz9h6","1536","864","en","LD05ND12","null","","","","learningBlock2","","","","<div style=""font-size:60px;""> </div>","null","FL","learning/Slide84.JPG","That was a dep.","",""
"","image-keyboard-response","260","482333","0.0-8.0-0.4","FL","g0qt0dz9h6","1536","864","en","LD05ND12","null","","","","","","","","learning/Slide85.JPG","null","","","","",""
"","html-keyboard-response","261","483500","0.0-8.0-1.4","FL","g0qt0dz9h6","1536","864","en","LD05ND12","null","","","","learningBlock2","","","","That was a bim.","null","","","","",""
"","html-keyboard-response","262","484517","0.0-8.0-2.4","FL","g0qt0dz9h6","1536","864","en","LD05ND12","null","","","","learningBlock2","","","","<div style=""font-size:60px;""> </div>","null","FL","learning/Slide85.JPG","That was a bim.","",""
"","image-keyboard-response","263","484700","0.0-8.0-0.5","FL","g0qt0dz9h6","1536","864","en","LD05ND12","null","","","","","","","","learning/Slide86.JPG","null","","","","",""
"","html-keyboard-response","264","485856","0.0-8.0-1.5","FL","g0qt0dz9h6","1536","864","en","LD05ND12","null","","","","learningBlock2","","","","That was a tob.","null","","","","",""
"","html-keyboard-response","265","486877","0.0-8.0-2.5","FL","g0qt0dz9h6","1536","864","en","LD05ND12","null","","","","learningBlock2","","","","<div style=""font-size:60px;""> </div>","null","FL","learning/Slide86.JPG","That was a tob.","",""
"","image-keyboard-response","266","487059","0.0-8.0-0.6","FL","g0qt0dz9h6","1536","864","en","LD05ND12","null","","","","","","","","learning/Slide87.JPG","null","","","","",""
"","html-keyboard-response","267","488248","0.0-8.0-1.6","FL","g0qt0dz9h6","1536","864","en","LD05ND12","null","","","","learningBlock2","","","","That was a wug.","null","","","","",""
"","html-keyboard-response","268","489263","0.0-8.0-2.6","FL","g0qt0dz9h6","1536","864","en","LD05ND12","null","","","","learningBlock2","","","","<div style=""font-size:60px;""> </div>","null","FL","learning/Slide87.JPG","That was a wug.","",""
"","image-keyboard-response","269","489448","0.0-8.0-0.7","FL","g0qt0dz9h6","1536","864","en","LD05ND12","null","","","","","","","","learning/Slide88.JPG","null","","","","",""
"","html-keyboard-response","270","490612","0.0-8.0-1.7","FL","g0qt0dz9h6","1536","864","en","LD05ND12","null","","","","learningBlock2","","","","That was a tob.","null","","","","",""
"","html-keyboard-response","271","491615","0.0-8.0-2.7","FL","g0qt0dz9h6","1536","864","en","LD05ND12","null","","","","learningBlock2","","","","<div style=""font-size:60px;""> </div>","null","FL","learning/Slide88.JPG","That was a tob.","",""
"","image-keyboard-response","272","491801","0.0-8.0-0.8","FL","g0qt0dz9h6","1536","864","en","LD05ND12","null","","","","","","","","learning/Slide89.JPG","null","","","","",""
"","html-keyboard-response","273","492986","0.0-8.0-1.8","FL","g0qt0dz9h6","1536","864","en","LD05ND12","null","","","","learningBlock2","","","","That was a bim.","null","","","","",""
"","html-keyboard-response","274","494004","0.0-8.0-2.8","FL","g0qt0dz9h6","1536","864","en","LD05ND12","null","","","","learningBlock2","","","","<div style=""font-size:60px;""> </div>","null","FL","learning/Slide89.JPG","That was a bim.","",""
"","image-keyboard-response","275","494188","0.0-8.0-0.9","FL","g0qt0dz9h6","1536","864","en","LD05ND12","null","","","","","","","","learning/Slide90.JPG","null","","","","",""
"","html-keyboard-response","276","495359","0.0-8.0-1.9","FL","g0qt0dz9h6","1536","864","en","LD05ND12","null","","","","learningBlock2","","","","That was a dep.","null","","","","",""
"","html-keyboard-response","277","496378","0.0-8.0-2.9","FL","g0qt0dz9h6","1536","864","en","LD05ND12","null","","","","learningBlock2","","","","<div style=""font-size:60px;""> </div>","null","FL","learning/Slide90.JPG","That was a dep.","",""
"","image-keyboard-response","278","496563","0.0-8.0-0.10","FL","g0qt0dz9h6","1536","864","en","LD05ND12","null","","","","","","","","learning/Slide91.JPG","null","","","","",""
"","html-keyboard-response","279","497728","0.0-8.0-1.10","FL","g0qt0dz9h6","1536","864","en","LD05ND12","null","","","","learningBlock2","","","","That was a wug.","null","","","","",""
"","html-keyboard-response","280","498746","0.0-8.0-2.10","FL","g0qt0dz9h6","1536","864","en","LD05ND12","null","","","","learningBlock2","","","","<div style=""font-size:60px;""> </div>","null","FL","learning/Slide91.JPG","That was a wug.","",""
"","image-keyboard-response","281","498933","0.0-8.0-0.11","FL","g0qt0dz9h6","1536","864","en","LD05ND12","null","","","","","","","","learning/Slide92.JPG","null","","","","",""
"","html-keyboard-response","282","500101","0.0-8.0-1.11","FL","g0qt0dz9h6","1536","864","en","LD05ND12","null","","","","learningBlock2","","","","That was a tob.","null","","","","",""
"","html-keyboard-response","283","501105","0.0-8.0-2.11","FL","g0qt0dz9h6","1536","864","en","LD05ND12","null","","","","learningBlock2","","","","<div style=""font-size:60px;""> </div>","null","FL","learning/Slide92.JPG","That was a tob.","",""
"","image-keyboard-response","284","501289","0.0-8.0-0.12","FL","g0qt0dz9h6","1536","864","en","LD05ND12","null","","","","","","","","learning/Slide93.JPG","null","","","","",""
"","html-keyboard-response","285","502454","0.0-8.0-1.12","FL","g0qt0dz9h6","1536","864","en","LD05ND12","null","","","","learningBlock2","","","","That was a bim.","null","","","","",""
"","html-keyboard-response","286","503479","0.0-8.0-2.12","FL","g0qt0dz9h6","1536","864","en","LD05ND12","null","","","","learningBlock2","","","","<div style=""font-size:60px;""> </div>","null","FL","learning/Slide93.JPG","That was a bim.","",""
"","image-keyboard-response","287","503659","0.0-8.0-0.13","FL","g0qt0dz9h6","1536","864","en","LD05ND12","null","","","","","","","","learning/Slide94.JPG","null","","","","",""
"","html-keyboard-response","288","504828","0.0-8.0-1.13","FL","g0qt0dz9h6","1536","864","en","LD05ND12","null","","","","learningBlock2","","","","That was a tob.","null","","","","",""
"","html-keyboard-response","289","505831","0.0-8.0-2.13","FL","g0qt0dz9h6","1536","864","en","LD05ND12","null","","","","learningBlock2","","","","<div style=""font-size:60px;""> </div>","null","FL","learning/Slide94.JPG","That was a tob.","",""
"","image-keyboard-response","290","506018","0.0-8.0-0.14","FL","g0qt0dz9h6","1536","864","en","LD05ND12","null","","","","","","","","learning/Slide95.JPG","null","","","","",""
"","html-keyboard-response","291","507189","0.0-8.0-1.14","FL","g0qt0dz9h6","1536","864","en","LD05ND12","null","","","","learningBlock2","","","","That was a wug.","null","","","","",""
"","html-keyboard-response","292","508206","0.0-8.0-2.14","FL","g0qt0dz9h6","1536","864","en","LD05ND12","null","","","","learningBlock2","","","","<div style=""font-size:60px;""> </div>","null","FL","learning/Slide95.JPG","That was a wug.","",""
"","image-keyboard-response","293","508390","0.0-8.0-0.15","FL","g0qt0dz9h6","1536","864","en","LD05ND12","null","","","","","","","","learning/Slide96.JPG","null","","","","",""
"","html-keyboard-response","294","509570","0.0-8.0-1.15","FL","g0qt0dz9h6","1536","864","en","LD05ND12","null","","","","learningBlock2","","","","That was a tob.","null","","","","",""
"","html-keyboard-response","295","510595","0.0-8.0-2.15","FL","g0qt0dz9h6","1536","864","en","LD05ND12","null","","","","learningBlock2","","","","<div style=""font-size:60px;""> </div>","null","FL","learning/Slide96.JPG","That was a tob.","",""
"","image-keyboard-response","296","510794","0.0-8.0-0.16","FL","g0qt0dz9h6","1536","864","en","LD05ND12","null","","","","","","","","learning/Slide97.JPG","null","","","","",""
"","html-keyboard-response","297","511960","0.0-8.0-1.16","FL","g0qt0dz9h6","1536","864","en","LD05ND12","null","","","","learningBlock2","","","","That was a dep.","null","","","","",""
"","html-keyboard-response","298","512977","0.0-8.0-2.16","FL","g0qt0dz9h6","1536","864","en","LD05ND12","null","","","","learningBlock2","","","","<div style=""font-size:60px;""> </div>","null","FL","learning/Slide97.JPG","That was a dep.","",""
"","image-keyboard-response","299","513162","0.0-8.0-0.17","FL","g0qt0dz9h6","1536","864","en","LD05ND12","null","","","","","","","","learning/Slide98.JPG","null","","","","",""
"","html-keyboard-response","300","514317","0.0-8.0-1.17","FL","g0qt0dz9h6","1536","864","en","LD05ND12","null","","","","learningBlock2","","","","That was a bim.","null","","","","",""
"","html-keyboard-response","301","515319","0.0-8.0-2.17","FL","g0qt0dz9h6","1536","864","en","LD05ND12","null","","","","learningBlock2","","","","<div style=""font-size:60px;""> </div>","null","FL","learning/Slide98.JPG","That was a bim.","",""
"","image-keyboard-response","302","515506","0.0-8.0-0.18","FL","g0qt0dz9h6","1536","864","en","LD05ND12","null","","","","","","","","learning/Slide99.JPG","null","","","","",""
"","html-keyboard-response","303","516687","0.0-8.0-1.18","FL","g0qt0dz9h6","1536","864","en","LD05ND12","null","","","","learningBlock2","","","","That was a dep.","null","","","","",""
"","html-keyboard-response","304","517694","0.0-8.0-2.18","FL","g0qt0dz9h6","1536","864","en","LD05ND12","null","","","","learningBlock2","","","","<div style=""font-size:60px;""> </div>","null","FL","learning/Slide99.JPG","That was a dep.","",""
"","image-keyboard-response","305","517875","0.0-8.0-0.19","FL","g0qt0dz9h6","1536","864","en","LD05ND12","null","","","","","","","","learning/Slide100.JPG","null","","","","",""
"","html-keyboard-response","306","519031","0.0-8.0-1.19","FL","g0qt0dz9h6","1536","864","en","LD05ND12","null","","","","learningBlock2","","","","That was a bim.","null","","","","",""
"","html-keyboard-response","307","520050","0.0-8.0-2.19","FL","g0qt0dz9h6","1536","864","en","LD05ND12","null","","","","learningBlock2","","","","<div style=""font-size:60px;""> </div>","null","FL","learning/Slide100.JPG","That was a bim.","",""
"","image-keyboard-response","308","520233","0.0-8.0-0.20","FL","g0qt0dz9h6","1536","864","en","LD05ND12","null","","","","","","","","learning/Slide101.JPG","null","","","","",""
"","html-keyboard-response","309","521397","0.0-8.0-1.20","FL","g0qt0dz9h6","1536","864","en","LD05ND12","null","","","","learningBlock2","","","","That was a tob.","null","","","","",""
"","html-keyboard-response","310","522421","0.0-8.0-2.20","FL","g0qt0dz9h6","1536","864","en","LD05ND12","null","","","","learningBlock2","","","","<div style=""font-size:60px;""> </div>","null","FL","learning/Slide101.JPG","That was a tob.","",""
"","image-keyboard-response","311","522600","0.0-8.0-0.21","FL","g0qt0dz9h6","1536","864","en","LD05ND12","null","","","","","","","","learning/Slide102.JPG","null","","","","",""
"","html-keyboard-response","312","523771","0.0-8.0-1.21","FL","g0qt0dz9h6","1536","864","en","LD05ND12","null","","","","learningBlock2","","","","That was a bim.","null","","","","",""
"","html-keyboard-response","313","524789","0.0-8.0-2.21","FL","g0qt0dz9h6","1536","864","en","LD05ND12","null","","","","learningBlock2","","","","<div style=""font-size:60px;""> </div>","null","FL","learning/Slide102.JPG","That was a bim.","",""
"","image-keyboard-response","314","524976","0.0-8.0-0.22","FL","g0qt0dz9h6","1536","864","en","LD05ND12","null","","","","","","","","learning/Slide103.JPG","null","","","","",""
"","html-keyboard-response","315","526145","0.0-8.0-1.22","FL","g0qt0dz9h6","1536","864","en","LD05ND12","null","","","","learningBlock2","","","","That was a dep.","null","","","","",""
"","html-keyboard-response","316","527149","0.0-8.0-2.22","FL","g0qt0dz9h6","1536","864","en","LD05ND12","null","","","","learningBlock2","","","","<div style=""font-size:60px;""> </div>","null","FL","learning/Slide103.JPG","That was a dep.","",""
"","image-keyboard-response","317","527333","0.0-8.0-0.23","FL","g0qt0dz9h6","1536","864","en","LD05ND12","null","","","","","","","","learning/Slide104.JPG","null","","","","",""
"","html-keyboard-response","318","528500","0.0-8.0-1.23","FL","g0qt0dz9h6","1536","864","en","LD05ND12","null","","","","learningBlock2","","","","That was a tob.","null","","","","",""
"","html-keyboard-response","319","529518","0.0-8.0-2.23","FL","g0qt0dz9h6","1536","864","en","LD05ND12","null","","","","learningBlock2","","","","<div style=""font-size:60px;""> </div>","null","FL","learning/Slide104.JPG","That was a tob.","",""
"","image-keyboard-response","320","529706","0.0-8.0-0.24","FL","g0qt0dz9h6","1536","864","en","LD05ND12","null","","","","","","","","learning/Slide105.JPG","null","","","","",""
"","html-keyboard-response","321","530872","0.0-8.0-1.24","FL","g0qt0dz9h6","1536","864","en","LD05ND12","null","","","","learningBlock2","","","","That was a dep.","null","","","","",""
"","html-keyboard-response","322","531889","0.0-8.0-2.24","FL","g0qt0dz9h6","1536","864","en","LD05ND12","null","","","","learningBlock2","","","","<div style=""font-size:60px;""> </div>","null","FL","learning/Slide105.JPG","That was a dep.","",""
"","image-keyboard-response","323","532076","0.0-8.0-0.25","FL","g0qt0dz9h6","1536","864","en","LD05ND12","null","","","","","","","","learning/Slide106.JPG","null","","","","",""
"","html-keyboard-response","324","533247","0.0-8.0-1.25","FL","g0qt0dz9h6","1536","864","en","LD05ND12","null","","","","learningBlock2","","","","That was a wug.","null","","","","",""
"","html-keyboard-response","325","534265","0.0-8.0-2.25","FL","g0qt0dz9h6","1536","864","en","LD05ND12","null","","","","learningBlock2","","","","<div style=""font-size:60px;""> </div>","null","FL","learning/Slide106.JPG","That was a wug.","",""
"","image-keyboard-response","326","534450","0.0-8.0-0.26","FL","g0qt0dz9h6","1536","864","en","LD05ND12","null","","","","","","","","learning/Slide107.JPG","null","","","","",""
"","html-keyboard-response","327","535615","0.0-8.0-1.26","FL","g0qt0dz9h6","1536","864","en","LD05ND12","null","","","","learningBlock2","","","","That was a bim.","null","","","","",""
"","html-keyboard-response","328","536634","0.0-8.0-2.26","FL","g0qt0dz9h6","1536","864","en","LD05ND12","null","","","","learningBlock2","","","","<div style=""font-size:60px;""> </div>","null","FL","learning/Slide107.JPG","That was a bim.","",""
"","image-keyboard-response","329","536819","0.0-8.0-0.27","FL","g0qt0dz9h6","1536","864","en","LD05ND12","null","","","","","","","","learning/Slide108.JPG","null","","","","",""
"","html-keyboard-response","330","537990","0.0-8.0-1.27","FL","g0qt0dz9h6","1536","864","en","LD05ND12","null","","","","learningBlock2","","","","That was a dep.","null","","","","",""
"","html-keyboard-response","331","539009","0.0-8.0-2.27","FL","g0qt0dz9h6","1536","864","en","LD05ND12","null","","","","learningBlock2","","","","<div style=""font-size:60px;""> </div>","null","FL","learning/Slide108.JPG","That was a dep.","",""
"","image-keyboard-response","332","539192","0.0-8.0-0.28","FL","g0qt0dz9h6","1536","864","en","LD05ND12","null","","","","","","","","learning/Slide109.JPG","null","","","","",""
"","html-keyboard-response","333","540379","0.0-8.0-1.28","FL","g0qt0dz9h6","1536","864","en","LD05ND12","null","","","","learningBlock2","","","","That was a wug.","null","","","","",""
"","html-keyboard-response","334","541399","0.0-8.0-2.28","FL","g0qt0dz9h6","1536","864","en","LD05ND12","null","","","","learningBlock2","","","","<div style=""font-size:60px;""> </div>","null","FL","learning/Slide109.JPG","That was a wug.","",""
"","image-keyboard-response","335","541582","0.0-8.0-0.29","FL","g0qt0dz9h6","1536","864","en","LD05ND12","null","","","","","","","","learning/Slide110.JPG","null","","","","",""
"","html-keyboard-response","336","542747","0.0-8.0-1.29","FL","g0qt0dz9h6","1536","864","en","LD05ND12","null","","","","learningBlock2","","","","That was a bim.","null","","","","",""
"","html-keyboard-response","337","543772","0.0-8.0-2.29","FL","g0qt0dz9h6","1536","864","en","LD05ND12","null","","","","learningBlock2","","","","<div style=""font-size:60px;""> </div>","null","FL","learning/Slide110.JPG","That was a bim.","",""
"","image-keyboard-response","338","543971","0.0-8.0-0.30","FL","g0qt0dz9h6","1536","864","en","LD05ND12","null","","","","","","","","learning/Slide111.JPG","null","","","","",""
"","html-keyboard-response","339","545137","0.0-8.0-1.30","FL","g0qt0dz9h6","1536","864","en","LD05ND12","null","","","","learningBlock2","","","","That was a tob.","null","","","","",""
"","html-keyboard-response","340","546155","0.0-8.0-2.30","FL","g0qt0dz9h6","1536","864","en","LD05ND12","null","","","","learningBlock2","","","","<div style=""font-size:60px;""> </div>","null","FL","learning/Slide111.JPG","That was a tob.","",""
"","image-keyboard-response","341","546342","0.0-8.0-0.31","FL","g0qt0dz9h6","1536","864","en","LD05ND12","null","","","","","","","","learning/Slide112.JPG","null","","","","",""
"","html-keyboard-response","342","547509","0.0-8.0-1.31","FL","g0qt0dz9h6","1536","864","en","LD05ND12","null","","","","learningBlock2","","","","That was a wug.","null","","","","",""
"","html-keyboard-response","343","548516","0.0-8.0-2.31","FL","g0qt0dz9h6","1536","864","en","LD05ND12","null","","","","learningBlock2","","","","<div style=""font-size:60px;""> </div>","null","FL","learning/Slide112.JPG","That was a wug.","",""
"","image-keyboard-response","344","548698","0.0-8.0-0.32","FL","g0qt0dz9h6","1536","864","en","LD05ND12","null","","","","","","","","learning/Slide113.JPG","null","","","","",""
"","html-keyboard-response","345","549886","0.0-8.0-1.32","FL","g0qt0dz9h6","1536","864","en","LD05ND12","null","","","","learningBlock2","","","","That was a tob.","null","","","","",""
"","html-keyboard-response","346","550904","0.0-8.0-2.32","FL","g0qt0dz9h6","1536","864","en","LD05ND12","null","","","","learningBlock2","","","","<div style=""font-size:60px;""> </div>","null","FL","learning/Slide113.JPG","That was a tob.","",""
"","image-keyboard-response","347","551089","0.0-8.0-0.33","FL","g0qt0dz9h6","1536","864","en","LD05ND12","null","","","","","","","","learning/Slide114.JPG","null","","","","",""
"","html-keyboard-response","348","552268","0.0-8.0-1.33","FL","g0qt0dz9h6","1536","864","en","LD05ND12","null","","","","learningBlock2","","","","That was a wug.","null","","","","",""
"","html-keyboard-response","349","553294","0.0-8.0-2.33","FL","g0qt0dz9h6","1536","864","en","LD05ND12","null","","","","learningBlock2","","","","<div style=""font-size:60px;""> </div>","null","FL","learning/Slide114.JPG","That was a wug.","",""
"","image-keyboard-response","350","553473","0.0-8.0-0.34","FL","g0qt0dz9h6","1536","864","en","LD05ND12","null","","","","","","","","learning/Slide115.JPG","null","","","","",""
"","html-keyboard-response","351","554628","0.0-8.0-1.34","FL","g0qt0dz9h6","1536","864","en","LD05ND12","null","","","","learningBlock2","","","","That was a bim.","null","","","","",""
"","html-keyboard-response","352","555634","0.0-8.0-2.34","FL","g0qt0dz9h6","1536","864","en","LD05ND12","null","","","","learningBlock2","","","","<div style=""font-size:60px;""> </div>","null","FL","learning/Slide115.JPG","That was a bim.","",""
"","image-keyboard-response","353","555817","0.0-8.0-0.35","FL","g0qt0dz9h6","1536","864","en","LD05ND12","null","","","","","","","","learning/Slide116.JPG","null","","","","",""
"","html-keyboard-response","354","557006","0.0-8.0-1.35","FL","g0qt0dz9h6","1536","864","en","LD05ND12","null","","","","learningBlock2","","","","That was a dep.","null","","","","",""
"","html-keyboard-response","355","558021","0.0-8.0-2.35","FL","g0qt0dz9h6","1536","864","en","LD05ND12","null","","","","learningBlock2","","","","<div style=""font-size:60px;""> </div>","null","FL","learning/Slide116.JPG","That was a dep.","",""
"","image-keyboard-response","356","558207","0.0-8.0-0.36","FL","g0qt0dz9h6","1536","864","en","LD05ND12","null","","","","","","","","learning/Slide117.JPG","null","","","","",""
"","html-keyboard-response","357","559371","0.0-8.0-1.36","FL","g0qt0dz9h6","1536","864","en","LD05ND12","null","","","","learningBlock2","","","","That was a tob.","null","","","","",""
"","html-keyboard-response","358","560374","0.0-8.0-2.36","FL","g0qt0dz9h6","1536","864","en","LD05ND12","null","","","","learningBlock2","","","","<div style=""font-size:60px;""> </div>","null","FL","learning/Slide117.JPG","That was a tob.","",""
"","image-keyboard-response","359","560558","0.0-8.0-0.37","FL","g0qt0dz9h6","1536","864","en","LD05ND12","null","","","","","","","","learning/Slide118.JPG","null","","","","",""
"","html-keyboard-response","360","561732","0.0-8.0-1.37","FL","g0qt0dz9h6","1536","864","en","LD05ND12","null","","","","learningBlock2","","","","That was a dep.","null","","","","",""
"","html-keyboard-response","361","562750","0.0-8.0-2.37","FL","g0qt0dz9h6","1536","864","en","LD05ND12","null","","","","learningBlock2","","","","<div style=""font-size:60px;""> </div>","null","FL","learning/Slide118.JPG","That was a dep.","",""
"","image-keyboard-response","362","562933","0.0-8.0-0.38","FL","g0qt0dz9h6","1536","864","en","LD05ND12","null","","","","","","","","learning/Slide119.JPG","null","","","","",""
"","html-keyboard-response","363","564098","0.0-8.0-1.38","FL","g0qt0dz9h6","1536","864","en","LD05ND12","null","","","","learningBlock2","","","","That was a wug.","null","","","","",""
"","html-keyboard-response","364","565123","0.0-8.0-2.38","FL","g0qt0dz9h6","1536","864","en","LD05ND12","null","","","","learningBlock2","","","","<div style=""font-size:60px;""> </div>","null","FL","learning/Slide119.JPG","That was a wug.","",""
"","image-keyboard-response","365","565302","0.0-8.0-0.39","FL","g0qt0dz9h6","1536","864","en","LD05ND12","null","","","","","","","","learning/Slide120.JPG","null","","","","",""
"","html-keyboard-response","366","566472","0.0-8.0-1.39","FL","g0qt0dz9h6","1536","864","en","LD05ND12","null","","","","learningBlock2","","","","That was a dep.","null","","","","",""
"","html-keyboard-response","367","567493","0.0-8.0-2.39","FL","g0qt0dz9h6","1536","864","en","LD05ND12","null","","","","learningBlock2","","","","<div style=""font-size:60px;""> </div>","null","FL","learning/Slide120.JPG","That was a dep.","",""
"","image-keyboard-response","368","567678","0.0-8.0-0.40","FL","g0qt0dz9h6","1536","864","en","LD05ND12","null","","","","","","","","learning/Slide121.JPG","null","","","","",""
"","html-keyboard-response","369","568847","0.0-8.0-1.40","FL","g0qt0dz9h6","1536","864","en","LD05ND12","null","","","","learningBlock2","","","","That was a bim.","null","","","","",""
"","html-keyboard-response","370","569865","0.0-8.0-2.40","FL","g0qt0dz9h6","1536","864","en","LD05ND12","null","","","","learningBlock2","","","","<div style=""font-size:60px;""> </div>","null","FL","learning/Slide121.JPG","That was a bim.","",""
"","image-keyboard-response","371","570052","0.0-8.0-0.41","FL","g0qt0dz9h6","1536","864","en","LD05ND12","null","","","","","","","","learning/Slide122.JPG","null","","","","",""
"","html-keyboard-response","372","571215","0.0-8.0-1.41","FL","g0qt0dz9h6","1536","864","en","LD05ND12","null","","","","learningBlock2","","","","That was a wug.","null","","","","",""
"","html-keyboard-response","373","572242","0.0-8.0-2.41","FL","g0qt0dz9h6","1536","864","en","LD05ND12","null","","","","learningBlock2","","","","<div style=""font-size:60px;""> </div>","null","FL","learning/Slide122.JPG","That was a wug.","",""
"","image-keyboard-response","374","572442","0.0-8.0-0.42","FL","g0qt0dz9h6","1536","864","en","LD05ND12","null","","","","","","","","learning/Slide123.JPG","null","","","","",""
"","html-keyboard-response","375","573618","0.0-8.0-1.42","FL","g0qt0dz9h6","1536","864","en","LD05ND12","null","","","","learningBlock2","","","","That was a bim.","null","","","","",""
"","html-keyboard-response","376","574620","0.0-8.0-2.42","FL","g0qt0dz9h6","1536","864","en","LD05ND12","null","","","","learningBlock2","","","","<div style=""font-size:60px;""> </div>","null","FL","learning/Slide123.JPG","That was a bim.","",""
"","image-keyboard-response","377","574805","0.0-8.0-0.43","FL","g0qt0dz9h6","1536","864","en","LD05ND12","null","","","","","","","","learning/Slide124.JPG","null","","","","",""
"","html-keyboard-response","378","575964","0.0-8.0-1.43","FL","g0qt0dz9h6","1536","864","en","LD05ND12","null","","","","learningBlock2","","","","That was a tob.","null","","","","",""
"","html-keyboard-response","379","576979","0.0-8.0-2.43","FL","g0qt0dz9h6","1536","864","en","LD05ND12","null","","","","learningBlock2","","","","<div style=""font-size:60px;""> </div>","null","FL","learning/Slide124.JPG","That was a tob.","",""
"","image-keyboard-response","380","577168","0.0-8.0-0.44","FL","g0qt0dz9h6","1536","864","en","LD05ND12","null","","","","","","","","learning/Slide125.JPG","null","","","","",""
"","html-keyboard-response","381","578353","0.0-8.0-1.44","FL","g0qt0dz9h6","1536","864","en","LD05ND12","null","","","","learningBlock2","","","","That was a bim.","null","","","","",""
"","html-keyboard-response","382","579372","0.0-8.0-2.44","FL","g0qt0dz9h6","1536","864","en","LD05ND12","null","","","","learningBlock2","","","","<div style=""font-size:60px;""> </div>","null","FL","learning/Slide125.JPG","That was a bim.","",""
"","image-keyboard-response","383","579556","0.0-8.0-0.45","FL","g0qt0dz9h6","1536","864","en","LD05ND12","null","","","","","","","","learning/Slide126.JPG","null","","","","",""
"","html-keyboard-response","384","580720","0.0-8.0-1.45","FL","g0qt0dz9h6","1536","864","en","LD05ND12","null","","","","learningBlock2","","","","That was a tob.","null","","","","",""
"","html-keyboard-response","385","581722","0.0-8.0-2.45","FL","g0qt0dz9h6","1536","864","en","LD05ND12","null","","","","learningBlock2","","","","<div style=""font-size:60px;""> </div>","null","FL","learning/Slide126.JPG","That was a tob.","",""
"","image-keyboard-response","386","581911","0.0-8.0-0.46","FL","g0qt0dz9h6","1536","864","en","LD05ND12","null","","","","","","","","learning/Slide127.JPG","null","","","","",""
"","html-keyboard-response","387","583080","0.0-8.0-1.46","FL","g0qt0dz9h6","1536","864","en","LD05ND12","null","","","","learningBlock2","","","","That was a dep.","null","","","","",""
"","html-keyboard-response","388","584099","0.0-8.0-2.46","FL","g0qt0dz9h6","1536","864","en","LD05ND12","null","","","","learningBlock2","","","","<div style=""font-size:60px;""> </div>","null","FL","learning/Slide127.JPG","That was a dep.","",""
"","image-keyboard-response","389","584284","0.0-8.0-0.47","FL","g0qt0dz9h6","1536","864","en","LD05ND12","null","","","","","","","","learning/Slide128.JPG","null","","","","",""
"","html-keyboard-response","390","585449","0.0-8.0-1.47","FL","g0qt0dz9h6","1536","864","en","LD05ND12","null","","","","learningBlock2","","","","That was a wug.","null","","","","",""
"","html-keyboard-response","391","586474","0.0-8.0-2.47","FL","g0qt0dz9h6","1536","864","en","LD05ND12","null","","","","learningBlock2","","","","<div style=""font-size:60px;""> </div>","null","FL","learning/Slide128.JPG","That was a wug.","",""
"","image-keyboard-response","392","586673","0.0-8.0-0.48","FL","g0qt0dz9h6","1536","864","en","LD05ND12","null","","","","","","","","learning/Slide129.JPG","null","","","","",""
"","html-keyboard-response","393","587837","0.0-8.0-1.48","FL","g0qt0dz9h6","1536","864","en","LD05ND12","null","","","","learningBlock2","","","","That was a tob.","null","","","","",""
"","html-keyboard-response","394","588843","0.0-8.0-2.48","FL","g0qt0dz9h6","1536","864","en","LD05ND12","null","","","","learningBlock2","","","","<div style=""font-size:60px;""> </div>","null","FL","learning/Slide129.JPG","That was a tob.","",""
"","image-keyboard-response","395","589025","0.0-8.0-0.49","FL","g0qt0dz9h6","1536","864","en","LD05ND12","null","","","","","","","","learning/Slide130.JPG","null","","","","",""
"","html-keyboard-response","396","590197","0.0-8.0-1.49","FL","g0qt0dz9h6","1536","864","en","LD05ND12","null","","","","learningBlock2","","","","That was a wug.","null","","","","",""
"","html-keyboard-response","397","591215","0.0-8.0-2.49","FL","g0qt0dz9h6","1536","864","en","LD05ND12","null","","","","learningBlock2","","","","<div style=""font-size:60px;""> </div>","null","FL","learning/Slide130.JPG","That was a wug.","",""
"","image-keyboard-response","398","591401","0.0-8.0-0.50","FL","g0qt0dz9h6","1536","864","en","LD05ND12","null","","","","","","","","learning/Slide131.JPG","null","","","","",""
"","html-keyboard-response","399","592571","0.0-8.0-1.50","FL","g0qt0dz9h6","1536","864","en","LD05ND12","null","","","","learningBlock2","","","","That was a bim.","null","","","","",""
"","html-keyboard-response","400","593591","0.0-8.0-2.50","FL","g0qt0dz9h6","1536","864","en","LD05ND12","null","","","","learningBlock2","","","","<div style=""font-size:60px;""> </div>","null","FL","learning/Slide131.JPG","That was a bim.","",""
"","image-keyboard-response","401","593789","0.0-8.0-0.51","FL","g0qt0dz9h6","1536","864","en","LD05ND12","null","","","","","","","","learning/Slide132.JPG","null","","","","",""
"","html-keyboard-response","402","594972","0.0-8.0-1.51","FL","g0qt0dz9h6","1536","864","en","LD05ND12","null","","","","learningBlock2","","","","That was a dep.","null","","","","",""
"","html-keyboard-response","403","595995","0.0-8.0-2.51","FL","g0qt0dz9h6","1536","864","en","LD05ND12","null","","","","learningBlock2","","","","<div style=""font-size:60px;""> </div>","null","FL","learning/Slide132.JPG","That was a dep.","",""
"","image-keyboard-response","404","596199","0.0-8.0-0.52","FL","g0qt0dz9h6","1536","864","en","LD05ND12","null","","","","","","","","learning/Slide133.JPG","null","","","","",""
"","html-keyboard-response","405","597375","0.0-8.0-1.52","FL","g0qt0dz9h6","1536","864","en","LD05ND12","null","","","","learningBlock2","","","","That was a tob.","null","","","","",""
"","html-keyboard-response","406","598399","0.0-8.0-2.52","FL","g0qt0dz9h6","1536","864","en","LD05ND12","null","","","","learningBlock2","","","","<div style=""font-size:60px;""> </div>","null","FL","learning/Slide133.JPG","That was a tob.","",""
"","image-keyboard-response","407","598600","0.0-8.0-0.53","FL","g0qt0dz9h6","1536","864","en","LD05ND12","null","","","","","","","","learning/Slide134.JPG","null","","","","",""
"","html-keyboard-response","408","599764","0.0-8.0-1.53","FL","g0qt0dz9h6","1536","864","en","LD05ND12","null","","","","learningBlock2","","","","That was a dep.","null","","","","",""
"","html-keyboard-response","409","600782","0.0-8.0-2.53","FL","g0qt0dz9h6","1536","864","en","LD05ND12","null","","","","learningBlock2","","","","<div style=""font-size:60px;""> </div>","null","FL","learning/Slide134.JPG","That was a dep.","",""
"","image-keyboard-response","410","600966","0.0-8.0-0.54","FL","g0qt0dz9h6","1536","864","en","LD05ND12","null","","","","","","","","learning/Slide135.JPG","null","","","","",""
"","html-keyboard-response","411","602123","0.0-8.0-1.54","FL","g0qt0dz9h6","1536","864","en","LD05ND12","null","","","","learningBlock2","","","","That was a tob.","null","","","","",""
"","html-keyboard-response","412","603142","0.0-8.0-2.54","FL","g0qt0dz9h6","1536","864","en","LD05ND12","null","","","","learningBlock2","","","","<div style=""font-size:60px;""> </div>","null","FL","learning/Slide135.JPG","That was a tob.","",""
"","image-keyboard-response","413","603326","0.0-8.0-0.55","FL","g0qt0dz9h6","1536","864","en","LD05ND12","null","","","","","","","","learning/Slide136.JPG","null","","","","",""
"","html-keyboard-response","414","604495","0.0-8.0-1.55","FL","g0qt0dz9h6","1536","864","en","LD05ND12","null","","","","learningBlock2","","","","That was a wug.","null","","","","",""
"","html-keyboard-response","415","605518","0.0-8.0-2.55","FL","g0qt0dz9h6","1536","864","en","LD05ND12","null","","","","learningBlock2","","","","<div style=""font-size:60px;""> </div>","null","FL","learning/Slide136.JPG","That was a wug.","",""
"","image-keyboard-response","416","605699","0.0-8.0-0.56","FL","g0qt0dz9h6","1536","864","en","LD05ND12","null","","","","","","","","learning/Slide137.JPG","null","","","","",""
"","html-keyboard-response","417","606881","0.0-8.0-1.56","FL","g0qt0dz9h6","1536","864","en","LD05ND12","null","","","","learningBlock2","","","","That was a tob.","null","","","","",""
"","html-keyboard-response","418","607884","0.0-8.0-2.56","FL","g0qt0dz9h6","1536","864","en","LD05ND12","null","","","","learningBlock2","","","","<div style=""font-size:60px;""> </div>","null","FL","learning/Slide137.JPG","That was a tob.","",""
"","image-keyboard-response","419","608072","0.0-8.0-0.57","FL","g0qt0dz9h6","1536","864","en","LD05ND12","null","","","","","","","","learning/Slide138.JPG","null","","","","",""
"","html-keyboard-response","420","609256","0.0-8.0-1.57","FL","g0qt0dz9h6","1536","864","en","LD05ND12","null","","","","learningBlock2","","","","That was a bim.","null","","","","",""
"","html-keyboard-response","421","610273","0.0-8.0-2.57","FL","g0qt0dz9h6","1536","864","en","LD05ND12","null","","","","learningBlock2","","","","<div style=""font-size:60px;""> </div>","null","FL","learning/Slide138.JPG","That was a bim.","",""
"","image-keyboard-response","422","610459","0.0-8.0-0.58","FL","g0qt0dz9h6","1536","864","en","LD05ND12","null","","","","","","","","learning/Slide139.JPG","null","","","","",""
"","html-keyboard-response","423","611634","0.0-8.0-1.58","FL","g0qt0dz9h6","1536","864","en","LD05ND12","null","","","","learningBlock2","","","","That was a wug.","null","","","","",""
"","html-keyboard-response","424","612648","0.0-8.0-2.58","FL","g0qt0dz9h6","1536","864","en","LD05ND12","null","","","","learningBlock2","","","","<div style=""font-size:60px;""> </div>","null","FL","learning/Slide139.JPG","That was a wug.","",""
"","image-keyboard-response","425","612833","0.0-8.0-0.59","FL","g0qt0dz9h6","1536","864","en","LD05ND12","null","","","","","","","","learning/Slide140.JPG","null","","","","",""
"","html-keyboard-response","426","614013","0.0-8.0-1.59","FL","g0qt0dz9h6","1536","864","en","LD05ND12","null","","","","learningBlock2","","","","That was a dep.","null","","","","",""
"","html-keyboard-response","427","615038","0.0-8.0-2.59","FL","g0qt0dz9h6","1536","864","en","LD05ND12","null","","","","learningBlock2","","","","<div style=""font-size:60px;""> </div>","null","FL","learning/Slide140.JPG","That was a dep.","",""
"","image-keyboard-response","428","615215","0.0-8.0-0.60","FL","g0qt0dz9h6","1536","864","en","LD05ND12","null","","","","","","","","learning/Slide141.JPG","null","","","","",""
"","html-keyboard-response","429","616372","0.0-8.0-1.60","FL","g0qt0dz9h6","1536","864","en","LD05ND12","null","","","","learningBlock2","","","","That was a tob.","null","","","","",""
"","html-keyboard-response","430","617390","0.0-8.0-2.60","FL","g0qt0dz9h6","1536","864","en","LD05ND12","null","","","","learningBlock2","","","","<div style=""font-size:60px;""> </div>","null","FL","learning/Slide141.JPG","That was a tob.","",""
"","image-keyboard-response","431","617575","0.0-8.0-0.61","FL","g0qt0dz9h6","1536","864","en","LD05ND12","null","","","","","","","","learning/Slide142.JPG","null","","","","",""
"","html-keyboard-response","432","618761","0.0-8.0-1.61","FL","g0qt0dz9h6","1536","864","en","LD05ND12","null","","","","learningBlock2","","","","That was a wug.","null","","","","",""
"","html-keyboard-response","433","619778","0.0-8.0-2.61","FL","g0qt0dz9h6","1536","864","en","LD05ND12","null","","","","learningBlock2","","","","<div style=""font-size:60px;""> </div>","null","FL","learning/Slide142.JPG","That was a wug.","",""
"","image-keyboard-response","434","619967","0.0-8.0-0.62","FL","g0qt0dz9h6","1536","864","en","LD05ND12","null","","","","","","","","learning/Slide143.JPG","null","","","","",""
"","html-keyboard-response","435","621128","0.0-8.0-1.62","FL","g0qt0dz9h6","1536","864","en","LD05ND12","null","","","","learningBlock2","","","","That was a bim.","null","","","","",""
"","html-keyboard-response","436","622132","0.0-8.0-2.62","FL","g0qt0dz9h6","1536","864","en","LD05ND12","null","","","","learningBlock2","","","","<div style=""font-size:60px;""> </div>","null","FL","learning/Slide143.JPG","That was a bim.","",""
"","image-keyboard-response","437","622317","0.0-8.0-0.63","FL","g0qt0dz9h6","1536","864","en","LD05ND12","null","","","","","","","","learning/Slide144.JPG","null","","","","",""
"","html-keyboard-response","438","623492","0.0-8.0-1.63","FL","g0qt0dz9h6","1536","864","en","LD05ND12","null","","","","learningBlock2","","","","That was a dep.","null","","","","",""
"","html-keyboard-response","439","624508","0.0-8.0-2.63","FL","g0qt0dz9h6","1536","864","en","LD05ND12","null","","","","learningBlock2","","","","<div style=""font-size:60px;""> </div>","null","FL","learning/Slide144.JPG","That was a dep.","",""
"","image-keyboard-response","440","624691","0.0-8.0-0.64","FL","g0qt0dz9h6","1536","864","en","LD05ND12","null","","","","","","","","learning/Slide145.JPG","null","","","","",""
"","html-keyboard-response","441","625877","0.0-8.0-1.64","FL","g0qt0dz9h6","1536","864","en","LD05ND12","null","","","","learningBlock2","","","","That was a bim.","null","","","","",""
"","html-keyboard-response","442","626894","0.0-8.0-2.64","FL","g0qt0dz9h6","1536","864","en","LD05ND12","null","","","","learningBlock2","","","","<div style=""font-size:60px;""> </div>","null","FL","learning/Slide145.JPG","That was a bim.","",""
"","image-keyboard-response","443","627080","0.0-8.0-0.65","FL","g0qt0dz9h6","1536","864","en","LD05ND12","null","","","","","","","","learning/Slide146.JPG","null","","","","",""
"","html-keyboard-response","444","628266","0.0-8.0-1.65","FL","g0qt0dz9h6","1536","864","en","LD05ND12","null","","","","learningBlock2","","","","That was a tob.","null","","","","",""
"","html-keyboard-response","445","629283","0.0-8.0-2.65","FL","g0qt0dz9h6","1536","864","en","LD05ND12","null","","","","learningBlock2","","","","<div style=""font-size:60px;""> </div>","null","FL","learning/Slide146.JPG","That was a tob.","",""
"","image-keyboard-response","446","629468","0.0-8.0-0.66","FL","g0qt0dz9h6","1536","864","en","LD05ND12","null","","","","","","","","learning/Slide147.JPG","null","","","","",""
"","html-keyboard-response","447","630650","0.0-8.0-1.66","FL","g0qt0dz9h6","1536","864","en","LD05ND12","null","","","","learningBlock2","","","","That was a wug.","null","","","","",""
"","html-keyboard-response","448","631656","0.0-8.0-2.66","FL","g0qt0dz9h6","1536","864","en","LD05ND12","null","","","","learningBlock2","","","","<div style=""font-size:60px;""> </div>","null","FL","learning/Slide147.JPG","That was a wug.","",""
"","image-keyboard-response","449","631836","0.0-8.0-0.67","FL","g0qt0dz9h6","1536","864","en","LD05ND12","null","","","","","","","","learning/Slide148.JPG","null","","","","",""
"","html-keyboard-response","450","632992","0.0-8.0-1.67","FL","g0qt0dz9h6","1536","864","en","LD05ND12","null","","","","learningBlock2","","","","That was a bim.","null","","","","",""
"","html-keyboard-response","451","634009","0.0-8.0-2.67","FL","g0qt0dz9h6","1536","864","en","LD05ND12","null","","","","learningBlock2","","","","<div style=""font-size:60px;""> </div>","null","FL","learning/Slide148.JPG","That was a bim.","",""
"","image-keyboard-response","452","634194","0.0-8.0-0.68","FL","g0qt0dz9h6","1536","864","en","LD05ND12","null","","","","","","","","learning/Slide149.JPG","null","","","","",""
"","html-keyboard-response","453","635381","0.0-8.0-1.68","FL","g0qt0dz9h6","1536","864","en","LD05ND12","null","","","","learningBlock2","","","","That was a dep.","null","","","","",""
"","html-keyboard-response","454","636398","0.0-8.0-2.68","FL","g0qt0dz9h6","1536","864","en","LD05ND12","null","","","","learningBlock2","","","","<div style=""font-size:60px;""> </div>","null","FL","learning/Slide149.JPG","That was a dep.","",""
"","image-keyboard-response","455","636587","0.0-8.0-0.69","FL","g0qt0dz9h6","1536","864","en","LD05ND12","null","","","","","","","","learning/Slide150.JPG","null","","","","",""
"","html-keyboard-response","456","637751","0.0-8.0-1.69","FL","g0qt0dz9h6","1536","864","en","LD05ND12","null","","","","learningBlock2","","","","That was a wug.","null","","","","",""
"","html-keyboard-response","457","638767","0.0-8.0-2.69","FL","g0qt0dz9h6","1536","864","en","LD05ND12","null","","","","learningBlock2","","","","<div style=""font-size:60px;""> </div>","null","FL","learning/Slide150.JPG","That was a wug.","",""
"","image-keyboard-response","458","638954","0.0-8.0-0.70","FL","g0qt0dz9h6","1536","864","en","LD05ND12","null","","","","","","","","learning/Slide151.JPG","null","","","","",""
"","html-keyboard-response","459","640140","0.0-8.0-1.70","FL","g0qt0dz9h6","1536","864","en","LD05ND12","null","","","","learningBlock2","","","","That was a dep.","null","","","","",""
"","html-keyboard-response","460","641155","0.0-8.0-2.70","FL","g0qt0dz9h6","1536","864","en","LD05ND12","null","","","","learningBlock2","","","","<div style=""font-size:60px;""> </div>","null","FL","learning/Slide151.JPG","That was a dep.","",""
"","image-keyboard-response","461","641340","0.0-8.0-0.71","FL","g0qt0dz9h6","1536","864","en","LD05ND12","null","","","","","","","","learning/Slide152.JPG","null","","","","",""
"","html-keyboard-response","462","642514","0.0-8.0-1.71","FL","g0qt0dz9h6","1536","864","en","LD05ND12","null","","","","learningBlock2","","","","That was a wug.","null","","","","",""
"","html-keyboard-response","463","643530","0.0-8.0-2.71","FL","g0qt0dz9h6","1536","864","en","LD05ND12","null","","","","learningBlock2","","","","<div style=""font-size:60px;""> </div>","null","FL","learning/Slide152.JPG","That was a wug.","",""
"","image-keyboard-response","464","643717","0.0-8.0-0.72","FL","g0qt0dz9h6","1536","864","en","LD05ND12","null","","","","","","","","learning/Slide153.JPG","null","","","","",""
"","html-keyboard-response","465","644879","0.0-8.0-1.72","FL","g0qt0dz9h6","1536","864","en","LD05ND12","null","","","","learningBlock2","","","","That was a bim.","null","","","","",""
"","html-keyboard-response","466","645905","0.0-8.0-2.72","FL","g0qt0dz9h6","1536","864","en","LD05ND12","null","","","","learningBlock2","","","","<div style=""font-size:60px;""> </div>","null","FL","learning/Slide153.JPG","That was a bim.","",""
"","image-keyboard-response","467","646104","0.0-8.0-0.73","FL","g0qt0dz9h6","1536","864","en","LD05ND12","null","","","","","","","","learning/Slide154.JPG","null","","","","",""
"","html-keyboard-response","468","647269","0.0-8.0-1.73","FL","g0qt0dz9h6","1536","864","en","LD05ND12","null","","","","learningBlock2","","","","That was a tob.","null","","","","",""
"","html-keyboard-response","469","648287","0.0-8.0-2.73","FL","g0qt0dz9h6","1536","864","en","LD05ND12","null","","","","learningBlock2","","","","<div style=""font-size:60px;""> </div>","null","FL","learning/Slide154.JPG","That was a tob.","",""
"","image-keyboard-response","470","648471","0.0-8.0-0.74","FL","g0qt0dz9h6","1536","864","en","LD05ND12","null","","","","","","","","learning/Slide155.JPG","null","","","","",""
"","html-keyboard-response","471","649627","0.0-8.0-1.74","FL","g0qt0dz9h6","1536","864","en","LD05ND12","null","","","","learningBlock2","","","","That was a dep.","null","","","","",""
"","html-keyboard-response","472","650644","0.0-8.0-2.74","FL","g0qt0dz9h6","1536","864","en","LD05ND12","null","","","","learningBlock2","","","","<div style=""font-size:60px;""> </div>","null","FL","learning/Slide155.JPG","That was a dep.","",""
"","image-keyboard-response","473","650829","0.0-8.0-0.75","FL","g0qt0dz9h6","1536","864","en","LD05ND12","null","","","","","","","","learning/Slide156.JPG","null","","","","",""
"","html-keyboard-response","474","651994","0.0-8.0-1.75","FL","g0qt0dz9h6","1536","864","en","LD05ND12","null","","","","learningBlock2","","","","That was a bim.","null","","","","",""
"","html-keyboard-response","475","653018","0.0-8.0-2.75","FL","g0qt0dz9h6","1536","864","en","LD05ND12","null","","","","learningBlock2","","","","<div style=""font-size:60px;""> </div>","null","FL","learning/Slide156.JPG","That was a bim.","",""
"","image-keyboard-response","476","653198","0.0-8.0-0.76","FL","g0qt0dz9h6","1536","864","en","LD05ND12","null","","","","","","","","learning/Slide157.JPG","null","","","","",""
"","html-keyboard-response","477","654353","0.0-8.0-1.76","FL","g0qt0dz9h6","1536","864","en","LD05ND12","null","","","","learningBlock2","","","","That was a dep.","null","","","","",""
"","html-keyboard-response","478","655356","0.0-8.0-2.76","FL","g0qt0dz9h6","1536","864","en","LD05ND12","null","","","","learningBlock2","","","","<div style=""font-size:60px;""> </div>","null","FL","learning/Slide157.JPG","That was a dep.","",""
"","image-keyboard-response","479","655542","0.0-8.0-0.77","FL","g0qt0dz9h6","1536","864","en","LD05ND12","null","","","","","","","","learning/Slide158.JPG","null","","","","",""
"","html-keyboard-response","480","656727","0.0-8.0-1.77","FL","g0qt0dz9h6","1536","864","en","LD05ND12","null","","","","learningBlock2","","","","That was a tob.","null","","","","",""
"","html-keyboard-response","481","657747","0.0-8.0-2.77","FL","g0qt0dz9h6","1536","864","en","LD05ND12","null","","","","learningBlock2","","","","<div style=""font-size:60px;""> </div>","null","FL","learning/Slide158.JPG","That was a tob.","",""
"","image-keyboard-response","482","657930","0.0-8.0-0.78","FL","g0qt0dz9h6","1536","864","en","LD05ND12","null","","","","","","","","learning/Slide159.JPG","null","","","","",""
"","html-keyboard-response","483","659094","0.0-8.0-1.78","FL","g0qt0dz9h6","1536","864","en","LD05ND12","null","","","","learningBlock2","","","","That was a dep.","null","","","","",""
"","html-keyboard-response","484","660097","0.0-8.0-2.78","FL","g0qt0dz9h6","1536","864","en","LD05ND12","null","","","","learningBlock2","","","","<div style=""font-size:60px;""> </div>","null","FL","learning/Slide159.JPG","That was a dep.","",""
"","image-keyboard-response","485","660281","0.0-8.0-0.79","FL","g0qt0dz9h6","1536","864","en","LD05ND12","null","","","","","","","","learning/Slide160.JPG","null","","","","",""
"","html-keyboard-response","486","661454","0.0-8.0-1.79","FL","g0qt0dz9h6","1536","864","en","LD05ND12","null","","","","learningBlock2","","","","That was a wug.","null","","","","",""
"","html-keyboard-response","487","662470","0.0-8.0-2.79","FL","g0qt0dz9h6","1536","864","en","LD05ND12","null","","","","learningBlock2","","","","<div style=""font-size:60px;""> </div>","null","FL","learning/Slide160.JPG","That was a wug.","",""
"","resize2","488","840907","0.0-9.0","FL","g0qt0dz9h6","1536","864","en","LD05ND12","","","","","","","104","1.04","","","","","","",""
