"success","trial_type","trial_index","time_elapsed","internal_node_id","condition","subject","screen_width","screen_height","language","codeword","rt","responses","url","view_history","test_part","final_height_px","final_width_px","scale_factor","stimulus","key_press","learningType","presentedImage","presentedLabel","button_pressed","response"
"true","fullscreen","0","4052","0.0-0.0","LF","0ypu8hv44k","1280","720","de","en06oi05","","","","","","","","","","","","","","",""
"","survey-html-form","1","11816","0.0-1.0","LF","0ypu8hv44k","1280","720","de","en06oi05","7759.360000025481","{""language"":""de""}","","","","","","","","","","","","",""
"","external-html","2","120593","0.0-2.0-0.0","LF","0ypu8hv44k","1280","720","de","en06oi05","108678.10000001919","","text/information.html","","","","","","","","","","","",""
"","external-html","3","143180","0.0-2.0-1.0","LF","0ypu8hv44k","1280","720","de","en06oi05","22502.229999983683","","text/consent.html","","","","","","","","","","","",""
"","survey-html-form","4","218298","0.0-2.0-2.0","LF","0ypu8hv44k","1280","720","de","en06oi05","75113.39500005124","{""codeword_enter"":""en06oi05""}","","","","","","","","","","","","",""
"","instructions","5","231158","0.0-4.0","LF","0ypu8hv44k","1280","720","de","en06oi05","NA","","","[{""page_index"":0,""viewing_time"":2632.510000024922},{""page_index"":1,""viewing_time"":8713.8949999935}]","instructions","","","","","","","","","",""
"","resize","6","272067","0.0-5.0","LF","0ypu8hv44k","1280","720","de","en06oi05","","","","","","","372","2.361904761904762","","","","","","",""
"","html-keyboard-response","7","273073","0.0-6.0-0.0","LF","0ypu8hv44k","1280","720","de","en06oi05","null","","","","learningBlock1","","","","This is a tob:","null","","","","",""
"","image-keyboard-response","8","273401","0.0-6.0-1.0","LF","0ypu8hv44k","1280","720","de","en06oi05","null","","","","","","","","learning/Slide1.JPG","null","","","","",""
"","html-keyboard-response","9","274409","0.0-6.0-2.0","LF","0ypu8hv44k","1280","720","de","en06oi05","null","","","","learningBlock1","","","","<div style=""font-size:60px;""> </div>","null","LF","learning/Slide1.JPG","This is a tob:","",""
"","html-keyboard-response","10","275415","0.0-6.0-0.1","LF","0ypu8hv44k","1280","720","de","en06oi05","null","","","","learningBlock1","","","","This is a wug:","null","","","","",""
"","image-keyboard-response","11","275743","0.0-6.0-1.1","LF","0ypu8hv44k","1280","720","de","en06oi05","null","","","","","","","","learning/Slide2.JPG","null","","","","",""
"","html-keyboard-response","12","276751","0.0-6.0-2.1","LF","0ypu8hv44k","1280","720","de","en06oi05","null","","","","learningBlock1","","","","<div style=""font-size:60px;""> </div>","null","LF","learning/Slide2.JPG","This is a wug:","",""
"","html-keyboard-response","13","277759","0.0-6.0-0.2","LF","0ypu8hv44k","1280","720","de","en06oi05","null","","","","learningBlock1","","","","This is a bim:","null","","","","",""
"","image-keyboard-response","14","278095","0.0-6.0-1.2","LF","0ypu8hv44k","1280","720","de","en06oi05","null","","","","","","","","learning/Slide3.JPG","null","","","","",""
"","html-keyboard-response","15","279103","0.0-6.0-2.2","LF","0ypu8hv44k","1280","720","de","en06oi05","null","","","","learningBlock1","","","","<div style=""font-size:60px;""> </div>","null","LF","learning/Slide3.JPG","This is a bim:","",""
"","html-keyboard-response","16","280112","0.0-6.0-0.3","LF","0ypu8hv44k","1280","720","de","en06oi05","null","","","","learningBlock1","","","","This is a dep:","null","","","","",""
"","image-keyboard-response","17","280440","0.0-6.0-1.3","LF","0ypu8hv44k","1280","720","de","en06oi05","null","","","","","","","","learning/Slide4.JPG","null","","","","",""
"","html-keyboard-response","18","281448","0.0-6.0-2.3","LF","0ypu8hv44k","1280","720","de","en06oi05","null","","","","learningBlock1","","","","<div style=""font-size:60px;""> </div>","null","LF","learning/Slide4.JPG","This is a dep:","",""
"","html-keyboard-response","19","282456","0.0-6.0-0.4","LF","0ypu8hv44k","1280","720","de","en06oi05","null","","","","learningBlock1","","","","This is a wug:","null","","","","",""
"","image-keyboard-response","20","282784","0.0-6.0-1.4","LF","0ypu8hv44k","1280","720","de","en06oi05","null","","","","","","","","learning/Slide5.JPG","null","","","","",""
"","html-keyboard-response","21","283792","0.0-6.0-2.4","LF","0ypu8hv44k","1280","720","de","en06oi05","null","","","","learningBlock1","","","","<div style=""font-size:60px;""> </div>","null","LF","learning/Slide5.JPG","This is a wug:","",""
"","html-keyboard-response","22","284800","0.0-6.0-0.5","LF","0ypu8hv44k","1280","720","de","en06oi05","null","","","","learningBlock1","","","","This is a dep:","null","","","","",""
"","image-keyboard-response","23","285128","0.0-6.0-1.5","LF","0ypu8hv44k","1280","720","de","en06oi05","null","","","","","","","","learning/Slide6.JPG","null","","","","",""
"","html-keyboard-response","24","286136","0.0-6.0-2.5","LF","0ypu8hv44k","1280","720","de","en06oi05","null","","","","learningBlock1","","","","<div style=""font-size:60px;""> </div>","null","LF","learning/Slide6.JPG","This is a dep:","",""
"","html-keyboard-response","25","287144","0.0-6.0-0.6","LF","0ypu8hv44k","1280","720","de","en06oi05","null","","","","learningBlock1","","","","This is a wug:","null","","","","",""
"","image-keyboard-response","26","287472","0.0-6.0-1.6","LF","0ypu8hv44k","1280","720","de","en06oi05","null","","","","","","","","learning/Slide7.JPG","null","","","","",""
"","html-keyboard-response","27","288481","0.0-6.0-2.6","LF","0ypu8hv44k","1280","720","de","en06oi05","null","","","","learningBlock1","","","","<div style=""font-size:60px;""> </div>","null","LF","learning/Slide7.JPG","This is a wug:","",""
"","html-keyboard-response","28","289489","0.0-6.0-0.7","LF","0ypu8hv44k","1280","720","de","en06oi05","null","","","","learningBlock1","","","","This is a bim:","null","","","","",""
"","image-keyboard-response","29","289817","0.0-6.0-1.7","LF","0ypu8hv44k","1280","720","de","en06oi05","null","","","","","","","","learning/Slide8.JPG","null","","","","",""
"","html-keyboard-response","30","290825","0.0-6.0-2.7","LF","0ypu8hv44k","1280","720","de","en06oi05","null","","","","learningBlock1","","","","<div style=""font-size:60px;""> </div>","null","LF","learning/Slide8.JPG","This is a bim:","",""
"","html-keyboard-response","31","291833","0.0-6.0-0.8","LF","0ypu8hv44k","1280","720","de","en06oi05","null","","","","learningBlock1","","","","This is a wug:","null","","","","",""
"","image-keyboard-response","32","292169","0.0-6.0-1.8","LF","0ypu8hv44k","1280","720","de","en06oi05","null","","","","","","","","learning/Slide9.JPG","null","","","","",""
"","html-keyboard-response","33","293177","0.0-6.0-2.8","LF","0ypu8hv44k","1280","720","de","en06oi05","null","","","","learningBlock1","","","","<div style=""font-size:60px;""> </div>","null","LF","learning/Slide9.JPG","This is a wug:","",""
"","html-keyboard-response","34","294186","0.0-6.0-0.9","LF","0ypu8hv44k","1280","720","de","en06oi05","null","","","","learningBlock1","","","","This is a dep:","null","","","","",""
"","image-keyboard-response","35","294513","0.0-6.0-1.9","LF","0ypu8hv44k","1280","720","de","en06oi05","null","","","","","","","","learning/Slide10.JPG","null","","","","",""
"","html-keyboard-response","36","295521","0.0-6.0-2.9","LF","0ypu8hv44k","1280","720","de","en06oi05","null","","","","learningBlock1","","","","<div style=""font-size:60px;""> </div>","null","LF","learning/Slide10.JPG","This is a dep:","",""
"","html-keyboard-response","37","296530","0.0-6.0-0.10","LF","0ypu8hv44k","1280","720","de","en06oi05","null","","","","learningBlock1","","","","This is a tob:","null","","","","",""
"","image-keyboard-response","38","296858","0.0-6.0-1.10","LF","0ypu8hv44k","1280","720","de","en06oi05","null","","","","","","","","learning/Slide11.JPG","null","","","","",""
"","html-keyboard-response","39","297866","0.0-6.0-2.10","LF","0ypu8hv44k","1280","720","de","en06oi05","null","","","","learningBlock1","","","","<div style=""font-size:60px;""> </div>","null","LF","learning/Slide11.JPG","This is a tob:","",""
"","html-keyboard-response","40","298874","0.0-6.0-0.11","LF","0ypu8hv44k","1280","720","de","en06oi05","null","","","","learningBlock1","","","","This is a dep:","null","","","","",""
"","image-keyboard-response","41","299202","0.0-6.0-1.11","LF","0ypu8hv44k","1280","720","de","en06oi05","null","","","","","","","","learning/Slide12.JPG","null","","","","",""
"","html-keyboard-response","42","300210","0.0-6.0-2.11","LF","0ypu8hv44k","1280","720","de","en06oi05","null","","","","learningBlock1","","","","<div style=""font-size:60px;""> </div>","null","LF","learning/Slide12.JPG","This is a dep:","",""
"","html-keyboard-response","43","301212","0.0-6.0-0.12","LF","0ypu8hv44k","1280","720","de","en06oi05","null","","","","learningBlock1","","","","This is a bim:","null","","","","",""
"","image-keyboard-response","44","301539","0.0-6.0-1.12","LF","0ypu8hv44k","1280","720","de","en06oi05","null","","","","","","","","learning/Slide13.JPG","null","","","","",""
"","html-keyboard-response","45","302548","0.0-6.0-2.12","LF","0ypu8hv44k","1280","720","de","en06oi05","null","","","","learningBlock1","","","","<div style=""font-size:60px;""> </div>","null","LF","learning/Slide13.JPG","This is a bim:","",""
"","html-keyboard-response","46","303556","0.0-6.0-0.13","LF","0ypu8hv44k","1280","720","de","en06oi05","null","","","","learningBlock1","","","","This is a wug:","null","","","","",""
"","image-keyboard-response","47","303884","0.0-6.0-1.13","LF","0ypu8hv44k","1280","720","de","en06oi05","null","","","","","","","","learning/Slide14.JPG","null","","","","",""
"","html-keyboard-response","48","304899","0.0-6.0-2.13","LF","0ypu8hv44k","1280","720","de","en06oi05","null","","","","learningBlock1","","","","<div style=""font-size:60px;""> </div>","null","LF","learning/Slide14.JPG","This is a wug:","",""
"","html-keyboard-response","49","305908","0.0-6.0-0.14","LF","0ypu8hv44k","1280","720","de","en06oi05","null","","","","learningBlock1","","","","This is a tob:","null","","","","",""
"","image-keyboard-response","50","306244","0.0-6.0-1.14","LF","0ypu8hv44k","1280","720","de","en06oi05","null","","","","","","","","learning/Slide15.JPG","null","","","","",""
"","html-keyboard-response","51","307252","0.0-6.0-2.14","LF","0ypu8hv44k","1280","720","de","en06oi05","null","","","","learningBlock1","","","","<div style=""font-size:60px;""> </div>","null","LF","learning/Slide15.JPG","This is a tob:","",""
"","html-keyboard-response","52","308261","0.0-6.0-0.15","LF","0ypu8hv44k","1280","720","de","en06oi05","null","","","","learningBlock1","","","","This is a dep:","null","","","","",""
"","image-keyboard-response","53","308589","0.0-6.0-1.15","LF","0ypu8hv44k","1280","720","de","en06oi05","null","","","","","","","","learning/Slide16.JPG","null","","","","",""
"","html-keyboard-response","54","309597","0.0-6.0-2.15","LF","0ypu8hv44k","1280","720","de","en06oi05","null","","","","learningBlock1","","","","<div style=""font-size:60px;""> </div>","null","LF","learning/Slide16.JPG","This is a dep:","",""
"","html-keyboard-response","55","310605","0.0-6.0-0.16","LF","0ypu8hv44k","1280","720","de","en06oi05","null","","","","learningBlock1","","","","This is a bim:","null","","","","",""
"","image-keyboard-response","56","310933","0.0-6.0-1.16","LF","0ypu8hv44k","1280","720","de","en06oi05","null","","","","","","","","learning/Slide17.JPG","null","","","","",""
"","html-keyboard-response","57","311941","0.0-6.0-2.16","LF","0ypu8hv44k","1280","720","de","en06oi05","null","","","","learningBlock1","","","","<div style=""font-size:60px;""> </div>","null","LF","learning/Slide17.JPG","This is a bim:","",""
"","html-keyboard-response","58","312949","0.0-6.0-0.17","LF","0ypu8hv44k","1280","720","de","en06oi05","null","","","","learningBlock1","","","","This is a tob:","null","","","","",""
"","image-keyboard-response","59","313277","0.0-6.0-1.17","LF","0ypu8hv44k","1280","720","de","en06oi05","null","","","","","","","","learning/Slide18.JPG","null","","","","",""
"","html-keyboard-response","60","314285","0.0-6.0-2.17","LF","0ypu8hv44k","1280","720","de","en06oi05","null","","","","learningBlock1","","","","<div style=""font-size:60px;""> </div>","null","LF","learning/Slide18.JPG","This is a tob:","",""
"","html-keyboard-response","61","315294","0.0-6.0-0.18","LF","0ypu8hv44k","1280","720","de","en06oi05","null","","","","learningBlock1","","","","This is a wug:","null","","","","",""
"","image-keyboard-response","62","315622","0.0-6.0-1.18","LF","0ypu8hv44k","1280","720","de","en06oi05","null","","","","","","","","learning/Slide19.JPG","null","","","","",""
"","html-keyboard-response","63","316630","0.0-6.0-2.18","LF","0ypu8hv44k","1280","720","de","en06oi05","null","","","","learningBlock1","","","","<div style=""font-size:60px;""> </div>","null","LF","learning/Slide19.JPG","This is a wug:","",""
"","html-keyboard-response","64","317638","0.0-6.0-0.19","LF","0ypu8hv44k","1280","720","de","en06oi05","null","","","","learningBlock1","","","","This is a bim:","null","","","","",""
"","image-keyboard-response","65","317966","0.0-6.0-1.19","LF","0ypu8hv44k","1280","720","de","en06oi05","null","","","","","","","","learning/Slide20.JPG","null","","","","",""
"","html-keyboard-response","66","318974","0.0-6.0-2.19","LF","0ypu8hv44k","1280","720","de","en06oi05","null","","","","learningBlock1","","","","<div style=""font-size:60px;""> </div>","null","LF","learning/Slide20.JPG","This is a bim:","",""
"","html-keyboard-response","67","319978","0.0-6.0-0.20","LF","0ypu8hv44k","1280","720","de","en06oi05","null","","","","learningBlock1","","","","This is a dep:","null","","","","",""
"","image-keyboard-response","68","320310","0.0-6.0-1.20","LF","0ypu8hv44k","1280","720","de","en06oi05","null","","","","","","","","learning/Slide21.JPG","null","","","","",""
"","html-keyboard-response","69","321319","0.0-6.0-2.20","LF","0ypu8hv44k","1280","720","de","en06oi05","null","","","","learningBlock1","","","","<div style=""font-size:60px;""> </div>","null","LF","learning/Slide21.JPG","This is a dep:","",""
"","html-keyboard-response","70","322327","0.0-6.0-0.21","LF","0ypu8hv44k","1280","720","de","en06oi05","null","","","","learningBlock1","","","","This is a bim:","null","","","","",""
"","image-keyboard-response","71","322656","0.0-6.0-1.21","LF","0ypu8hv44k","1280","720","de","en06oi05","null","","","","","","","","learning/Slide22.JPG","null","","","","",""
"","html-keyboard-response","72","323663","0.0-6.0-2.21","LF","0ypu8hv44k","1280","720","de","en06oi05","null","","","","learningBlock1","","","","<div style=""font-size:60px;""> </div>","null","LF","learning/Slide22.JPG","This is a bim:","",""
"","html-keyboard-response","73","324671","0.0-6.0-0.22","LF","0ypu8hv44k","1280","720","de","en06oi05","null","","","","learningBlock1","","","","This is a tob:","null","","","","",""
"","image-keyboard-response","74","324999","0.0-6.0-1.22","LF","0ypu8hv44k","1280","720","de","en06oi05","null","","","","","","","","learning/Slide23.JPG","null","","","","",""
"","html-keyboard-response","75","326007","0.0-6.0-2.22","LF","0ypu8hv44k","1280","720","de","en06oi05","null","","","","learningBlock1","","","","<div style=""font-size:60px;""> </div>","null","LF","learning/Slide23.JPG","This is a tob:","",""
"","html-keyboard-response","76","327015","0.0-6.0-0.23","LF","0ypu8hv44k","1280","720","de","en06oi05","null","","","","learningBlock1","","","","This is a wug:","null","","","","",""
"","image-keyboard-response","77","327343","0.0-6.0-1.23","LF","0ypu8hv44k","1280","720","de","en06oi05","null","","","","","","","","learning/Slide24.JPG","null","","","","",""
"","html-keyboard-response","78","328351","0.0-6.0-2.23","LF","0ypu8hv44k","1280","720","de","en06oi05","null","","","","learningBlock1","","","","<div style=""font-size:60px;""> </div>","null","LF","learning/Slide24.JPG","This is a wug:","",""
"","html-keyboard-response","79","329360","0.0-6.0-0.24","LF","0ypu8hv44k","1280","720","de","en06oi05","null","","","","learningBlock1","","","","This is a dep:","null","","","","",""
"","image-keyboard-response","80","329687","0.0-6.0-1.24","LF","0ypu8hv44k","1280","720","de","en06oi05","null","","","","","","","","learning/Slide25.JPG","null","","","","",""
"","html-keyboard-response","81","330697","0.0-6.0-2.24","LF","0ypu8hv44k","1280","720","de","en06oi05","null","","","","learningBlock1","","","","<div style=""font-size:60px;""> </div>","null","LF","learning/Slide25.JPG","This is a dep:","",""
"","html-keyboard-response","82","331705","0.0-6.0-0.25","LF","0ypu8hv44k","1280","720","de","en06oi05","null","","","","learningBlock1","","","","This is a wug:","null","","","","",""
"","image-keyboard-response","83","332033","0.0-6.0-1.25","LF","0ypu8hv44k","1280","720","de","en06oi05","null","","","","","","","","learning/Slide26.JPG","null","","","","",""
"","html-keyboard-response","84","333041","0.0-6.0-2.25","LF","0ypu8hv44k","1280","720","de","en06oi05","null","","","","learningBlock1","","","","<div style=""font-size:60px;""> </div>","null","LF","learning/Slide26.JPG","This is a wug:","",""
"","html-keyboard-response","85","334049","0.0-6.0-0.26","LF","0ypu8hv44k","1280","720","de","en06oi05","null","","","","learningBlock1","","","","This is a bim:","null","","","","",""
"","image-keyboard-response","86","334377","0.0-6.0-1.26","LF","0ypu8hv44k","1280","720","de","en06oi05","null","","","","","","","","learning/Slide27.JPG","null","","","","",""
"","html-keyboard-response","87","335386","0.0-6.0-2.26","LF","0ypu8hv44k","1280","720","de","en06oi05","null","","","","learningBlock1","","","","<div style=""font-size:60px;""> </div>","null","LF","learning/Slide27.JPG","This is a bim:","",""
"","html-keyboard-response","88","336394","0.0-6.0-0.27","LF","0ypu8hv44k","1280","720","de","en06oi05","null","","","","learningBlock1","","","","This is a dep:","null","","","","",""
"","image-keyboard-response","89","336722","0.0-6.0-1.27","LF","0ypu8hv44k","1280","720","de","en06oi05","null","","","","","","","","learning/Slide28.JPG","null","","","","",""
"","html-keyboard-response","90","337730","0.0-6.0-2.27","LF","0ypu8hv44k","1280","720","de","en06oi05","null","","","","learningBlock1","","","","<div style=""font-size:60px;""> </div>","null","LF","learning/Slide28.JPG","This is a dep:","",""
"","html-keyboard-response","91","338738","0.0-6.0-0.28","LF","0ypu8hv44k","1280","720","de","en06oi05","null","","","","learningBlock1","","","","This is a tob:","null","","","","",""
"","image-keyboard-response","92","339066","0.0-6.0-1.28","LF","0ypu8hv44k","1280","720","de","en06oi05","null","","","","","","","","learning/Slide29.JPG","null","","","","",""
"","html-keyboard-response","93","340074","0.0-6.0-2.28","LF","0ypu8hv44k","1280","720","de","en06oi05","null","","","","learningBlock1","","","","<div style=""font-size:60px;""> </div>","null","LF","learning/Slide29.JPG","This is a tob:","",""
"","html-keyboard-response","94","341082","0.0-6.0-0.29","LF","0ypu8hv44k","1280","720","de","en06oi05","null","","","","learningBlock1","","","","This is a dep:","null","","","","",""
"","image-keyboard-response","95","341411","0.0-6.0-1.29","LF","0ypu8hv44k","1280","720","de","en06oi05","null","","","","","","","","learning/Slide30.JPG","null","","","","",""
"","html-keyboard-response","96","342419","0.0-6.0-2.29","LF","0ypu8hv44k","1280","720","de","en06oi05","null","","","","learningBlock1","","","","<div style=""font-size:60px;""> </div>","null","LF","learning/Slide30.JPG","This is a dep:","",""
"","html-keyboard-response","97","343427","0.0-6.0-0.30","LF","0ypu8hv44k","1280","720","de","en06oi05","null","","","","learningBlock1","","","","This is a wug:","null","","","","",""
"","image-keyboard-response","98","343755","0.0-6.0-1.30","LF","0ypu8hv44k","1280","720","de","en06oi05","null","","","","","","","","learning/Slide31.JPG","null","","","","",""
"","html-keyboard-response","99","344763","0.0-6.0-2.30","LF","0ypu8hv44k","1280","720","de","en06oi05","null","","","","learningBlock1","","","","<div style=""font-size:60px;""> </div>","null","LF","learning/Slide31.JPG","This is a wug:","",""
"","html-keyboard-response","100","345771","0.0-6.0-0.31","LF","0ypu8hv44k","1280","720","de","en06oi05","null","","","","learningBlock1","","","","This is a tob:","null","","","","",""
"","image-keyboard-response","101","346099","0.0-6.0-1.31","LF","0ypu8hv44k","1280","720","de","en06oi05","null","","","","","","","","learning/Slide32.JPG","null","","","","",""
"","html-keyboard-response","102","347107","0.0-6.0-2.31","LF","0ypu8hv44k","1280","720","de","en06oi05","null","","","","learningBlock1","","","","<div style=""font-size:60px;""> </div>","null","LF","learning/Slide32.JPG","This is a tob:","",""
"","html-keyboard-response","103","348115","0.0-6.0-0.32","LF","0ypu8hv44k","1280","720","de","en06oi05","null","","","","learningBlock1","","","","This is a bim:","null","","","","",""
"","image-keyboard-response","104","348443","0.0-6.0-1.32","LF","0ypu8hv44k","1280","720","de","en06oi05","null","","","","","","","","learning/Slide33.JPG","null","","","","",""
"","html-keyboard-response","105","349451","0.0-6.0-2.32","LF","0ypu8hv44k","1280","720","de","en06oi05","null","","","","learningBlock1","","","","<div style=""font-size:60px;""> </div>","null","LF","learning/Slide33.JPG","This is a bim:","",""
"","html-keyboard-response","106","350460","0.0-6.0-0.33","LF","0ypu8hv44k","1280","720","de","en06oi05","null","","","","learningBlock1","","","","This is a tob:","null","","","","",""
"","image-keyboard-response","107","350788","0.0-6.0-1.33","LF","0ypu8hv44k","1280","720","de","en06oi05","null","","","","","","","","learning/Slide34.JPG","null","","","","",""
"","html-keyboard-response","108","351794","0.0-6.0-2.33","LF","0ypu8hv44k","1280","720","de","en06oi05","null","","","","learningBlock1","","","","<div style=""font-size:60px;""> </div>","null","LF","learning/Slide34.JPG","This is a tob:","",""
"","html-keyboard-response","109","352798","0.0-6.0-0.34","LF","0ypu8hv44k","1280","720","de","en06oi05","null","","","","learningBlock1","","","","This is a bim:","null","","","","",""
"","image-keyboard-response","110","353126","0.0-6.0-1.34","LF","0ypu8hv44k","1280","720","de","en06oi05","null","","","","","","","","learning/Slide35.JPG","null","","","","",""
"","html-keyboard-response","111","354134","0.0-6.0-2.34","LF","0ypu8hv44k","1280","720","de","en06oi05","null","","","","learningBlock1","","","","<div style=""font-size:60px;""> </div>","null","LF","learning/Slide35.JPG","This is a bim:","",""
"","html-keyboard-response","112","355143","0.0-6.0-0.35","LF","0ypu8hv44k","1280","720","de","en06oi05","null","","","","learningBlock1","","","","This is a dep:","null","","","","",""
"","image-keyboard-response","113","355485","0.0-6.0-1.35","LF","0ypu8hv44k","1280","720","de","en06oi05","null","","","","","","","","learning/Slide36.JPG","null","","","","",""
"","html-keyboard-response","114","356495","0.0-6.0-2.35","LF","0ypu8hv44k","1280","720","de","en06oi05","null","","","","learningBlock1","","","","<div style=""font-size:60px;""> </div>","null","LF","learning/Slide36.JPG","This is a dep:","",""
"","html-keyboard-response","115","357503","0.0-6.0-0.36","LF","0ypu8hv44k","1280","720","de","en06oi05","null","","","","learningBlock1","","","","This is a tob:","null","","","","",""
"","image-keyboard-response","116","357831","0.0-6.0-1.36","LF","0ypu8hv44k","1280","720","de","en06oi05","null","","","","","","","","learning/Slide37.JPG","null","","","","",""
"","html-keyboard-response","117","358839","0.0-6.0-2.36","LF","0ypu8hv44k","1280","720","de","en06oi05","null","","","","learningBlock1","","","","<div style=""font-size:60px;""> </div>","null","LF","learning/Slide37.JPG","This is a tob:","",""
"","html-keyboard-response","118","359847","0.0-6.0-0.37","LF","0ypu8hv44k","1280","720","de","en06oi05","null","","","","learningBlock1","","","","This is a wug:","null","","","","",""
"","image-keyboard-response","119","360175","0.0-6.0-1.37","LF","0ypu8hv44k","1280","720","de","en06oi05","null","","","","","","","","learning/Slide38.JPG","null","","","","",""
"","html-keyboard-response","120","361183","0.0-6.0-2.37","LF","0ypu8hv44k","1280","720","de","en06oi05","null","","","","learningBlock1","","","","<div style=""font-size:60px;""> </div>","null","LF","learning/Slide38.JPG","This is a wug:","",""
"","html-keyboard-response","121","362191","0.0-6.0-0.38","LF","0ypu8hv44k","1280","720","de","en06oi05","null","","","","learningBlock1","","","","This is a bim:","null","","","","",""
"","image-keyboard-response","122","362519","0.0-6.0-1.38","LF","0ypu8hv44k","1280","720","de","en06oi05","null","","","","","","","","learning/Slide39.JPG","null","","","","",""
"","html-keyboard-response","123","363527","0.0-6.0-2.38","LF","0ypu8hv44k","1280","720","de","en06oi05","null","","","","learningBlock1","","","","<div style=""font-size:60px;""> </div>","null","LF","learning/Slide39.JPG","This is a bim:","",""
"","html-keyboard-response","124","364536","0.0-6.0-0.39","LF","0ypu8hv44k","1280","720","de","en06oi05","null","","","","learningBlock1","","","","This is a tob:","null","","","","",""
"","image-keyboard-response","125","364864","0.0-6.0-1.39","LF","0ypu8hv44k","1280","720","de","en06oi05","null","","","","","","","","learning/Slide40.JPG","null","","","","",""
"","html-keyboard-response","126","365872","0.0-6.0-2.39","LF","0ypu8hv44k","1280","720","de","en06oi05","null","","","","learningBlock1","","","","<div style=""font-size:60px;""> </div>","null","LF","learning/Slide40.JPG","This is a tob:","",""
"","html-keyboard-response","127","366887","0.0-6.0-0.40","LF","0ypu8hv44k","1280","720","de","en06oi05","null","","","","learningBlock1","","","","This is a bim:","null","","","","",""
"","image-keyboard-response","128","367234","0.0-6.0-1.40","LF","0ypu8hv44k","1280","720","de","en06oi05","null","","","","","","","","learning/Slide41.JPG","null","","","","",""
"","html-keyboard-response","129","368239","0.0-6.0-2.40","LF","0ypu8hv44k","1280","720","de","en06oi05","null","","","","learningBlock1","","","","<div style=""font-size:60px;""> </div>","null","LF","learning/Slide41.JPG","This is a bim:","",""
"","html-keyboard-response","130","369244","0.0-6.0-0.41","LF","0ypu8hv44k","1280","720","de","en06oi05","null","","","","learningBlock1","","","","This is a dep:","null","","","","",""
"","image-keyboard-response","131","369572","0.0-6.0-1.41","LF","0ypu8hv44k","1280","720","de","en06oi05","null","","","","","","","","learning/Slide42.JPG","null","","","","",""
"","html-keyboard-response","132","370580","0.0-6.0-2.41","LF","0ypu8hv44k","1280","720","de","en06oi05","null","","","","learningBlock1","","","","<div style=""font-size:60px;""> </div>","null","LF","learning/Slide42.JPG","This is a dep:","",""
"","html-keyboard-response","133","371589","0.0-6.0-0.42","LF","0ypu8hv44k","1280","720","de","en06oi05","null","","","","learningBlock1","","","","This is a wug:","null","","","","",""
"","image-keyboard-response","134","371917","0.0-6.0-1.42","LF","0ypu8hv44k","1280","720","de","en06oi05","null","","","","","","","","learning/Slide43.JPG","null","","","","",""
"","html-keyboard-response","135","372925","0.0-6.0-2.42","LF","0ypu8hv44k","1280","720","de","en06oi05","null","","","","learningBlock1","","","","<div style=""font-size:60px;""> </div>","null","LF","learning/Slide43.JPG","This is a wug:","",""
"","html-keyboard-response","136","373933","0.0-6.0-0.43","LF","0ypu8hv44k","1280","720","de","en06oi05","null","","","","learningBlock1","","","","This is a bim:","null","","","","",""
"","image-keyboard-response","137","374261","0.0-6.0-1.43","LF","0ypu8hv44k","1280","720","de","en06oi05","null","","","","","","","","learning/Slide44.JPG","null","","","","",""
"","html-keyboard-response","138","375269","0.0-6.0-2.43","LF","0ypu8hv44k","1280","720","de","en06oi05","null","","","","learningBlock1","","","","<div style=""font-size:60px;""> </div>","null","LF","learning/Slide44.JPG","This is a bim:","",""
"","html-keyboard-response","139","376272","0.0-6.0-0.44","LF","0ypu8hv44k","1280","720","de","en06oi05","null","","","","learningBlock1","","","","This is a wug:","null","","","","",""
"","image-keyboard-response","140","376600","0.0-6.0-1.44","LF","0ypu8hv44k","1280","720","de","en06oi05","null","","","","","","","","learning/Slide45.JPG","null","","","","",""
"","html-keyboard-response","141","377608","0.0-6.0-2.44","LF","0ypu8hv44k","1280","720","de","en06oi05","null","","","","learningBlock1","","","","<div style=""font-size:60px;""> </div>","null","LF","learning/Slide45.JPG","This is a wug:","",""
"","html-keyboard-response","142","378616","0.0-6.0-0.45","LF","0ypu8hv44k","1280","720","de","en06oi05","null","","","","learningBlock1","","","","This is a dep:","null","","","","",""
"","image-keyboard-response","143","378944","0.0-6.0-1.45","LF","0ypu8hv44k","1280","720","de","en06oi05","null","","","","","","","","learning/Slide46.JPG","null","","","","",""
"","html-keyboard-response","144","379952","0.0-6.0-2.45","LF","0ypu8hv44k","1280","720","de","en06oi05","null","","","","learningBlock1","","","","<div style=""font-size:60px;""> </div>","null","LF","learning/Slide46.JPG","This is a dep:","",""
"","html-keyboard-response","145","380961","0.0-6.0-0.46","LF","0ypu8hv44k","1280","720","de","en06oi05","null","","","","learningBlock1","","","","This is a tob:","null","","","","",""
"","image-keyboard-response","146","381288","0.0-6.0-1.46","LF","0ypu8hv44k","1280","720","de","en06oi05","null","","","","","","","","learning/Slide47.JPG","null","","","","",""
"","html-keyboard-response","147","382297","0.0-6.0-2.46","LF","0ypu8hv44k","1280","720","de","en06oi05","null","","","","learningBlock1","","","","<div style=""font-size:60px;""> </div>","null","LF","learning/Slide47.JPG","This is a tob:","",""
"","html-keyboard-response","148","383305","0.0-6.0-0.47","LF","0ypu8hv44k","1280","720","de","en06oi05","null","","","","learningBlock1","","","","This is a bim:","null","","","","",""
"","image-keyboard-response","149","383633","0.0-6.0-1.47","LF","0ypu8hv44k","1280","720","de","en06oi05","null","","","","","","","","learning/Slide48.JPG","null","","","","",""
"","html-keyboard-response","150","384641","0.0-6.0-2.47","LF","0ypu8hv44k","1280","720","de","en06oi05","null","","","","learningBlock1","","","","<div style=""font-size:60px;""> </div>","null","LF","learning/Slide48.JPG","This is a bim:","",""
"","html-keyboard-response","151","385649","0.0-6.0-0.48","LF","0ypu8hv44k","1280","720","de","en06oi05","null","","","","learningBlock1","","","","This is a dep:","null","","","","",""
"","image-keyboard-response","152","385977","0.0-6.0-1.48","LF","0ypu8hv44k","1280","720","de","en06oi05","null","","","","","","","","learning/Slide49.JPG","null","","","","",""
"","html-keyboard-response","153","386985","0.0-6.0-2.48","LF","0ypu8hv44k","1280","720","de","en06oi05","null","","","","learningBlock1","","","","<div style=""font-size:60px;""> </div>","null","LF","learning/Slide49.JPG","This is a dep:","",""
"","html-keyboard-response","154","387993","0.0-6.0-0.49","LF","0ypu8hv44k","1280","720","de","en06oi05","null","","","","learningBlock1","","","","This is a tob:","null","","","","",""
"","image-keyboard-response","155","388329","0.0-6.0-1.49","LF","0ypu8hv44k","1280","720","de","en06oi05","null","","","","","","","","learning/Slide50.JPG","null","","","","",""
"","html-keyboard-response","156","389337","0.0-6.0-2.49","LF","0ypu8hv44k","1280","720","de","en06oi05","null","","","","learningBlock1","","","","<div style=""font-size:60px;""> </div>","null","LF","learning/Slide50.JPG","This is a tob:","",""
"","html-keyboard-response","157","390346","0.0-6.0-0.50","LF","0ypu8hv44k","1280","720","de","en06oi05","null","","","","learningBlock1","","","","This is a bim:","null","","","","",""
"","image-keyboard-response","158","390674","0.0-6.0-1.50","LF","0ypu8hv44k","1280","720","de","en06oi05","null","","","","","","","","learning/Slide51.JPG","null","","","","",""
"","html-keyboard-response","159","391682","0.0-6.0-2.50","LF","0ypu8hv44k","1280","720","de","en06oi05","null","","","","learningBlock1","","","","<div style=""font-size:60px;""> </div>","null","LF","learning/Slide51.JPG","This is a bim:","",""
"","html-keyboard-response","160","392690","0.0-6.0-0.51","LF","0ypu8hv44k","1280","720","de","en06oi05","null","","","","learningBlock1","","","","This is a wug:","null","","","","",""
"","image-keyboard-response","161","393018","0.0-6.0-1.51","LF","0ypu8hv44k","1280","720","de","en06oi05","null","","","","","","","","learning/Slide52.JPG","null","","","","",""
"","html-keyboard-response","162","394027","0.0-6.0-2.51","LF","0ypu8hv44k","1280","720","de","en06oi05","null","","","","learningBlock1","","","","<div style=""font-size:60px;""> </div>","null","LF","learning/Slide52.JPG","This is a wug:","",""
"","html-keyboard-response","163","395035","0.0-6.0-0.52","LF","0ypu8hv44k","1280","720","de","en06oi05","null","","","","learningBlock1","","","","This is a tob:","null","","","","",""
"","image-keyboard-response","164","395363","0.0-6.0-1.52","LF","0ypu8hv44k","1280","720","de","en06oi05","null","","","","","","","","learning/Slide53.JPG","null","","","","",""
"","html-keyboard-response","165","396372","0.0-6.0-2.52","LF","0ypu8hv44k","1280","720","de","en06oi05","null","","","","learningBlock1","","","","<div style=""font-size:60px;""> </div>","null","LF","learning/Slide53.JPG","This is a tob:","",""
"","html-keyboard-response","166","397379","0.0-6.0-0.53","LF","0ypu8hv44k","1280","720","de","en06oi05","null","","","","learningBlock1","","","","This is a dep:","null","","","","",""
"","image-keyboard-response","167","397707","0.0-6.0-1.53","LF","0ypu8hv44k","1280","720","de","en06oi05","null","","","","","","","","learning/Slide54.JPG","null","","","","",""
"","html-keyboard-response","168","398715","0.0-6.0-2.53","LF","0ypu8hv44k","1280","720","de","en06oi05","null","","","","learningBlock1","","","","<div style=""font-size:60px;""> </div>","null","LF","learning/Slide54.JPG","This is a dep:","",""
"","html-keyboard-response","169","399723","0.0-6.0-0.54","LF","0ypu8hv44k","1280","720","de","en06oi05","null","","","","learningBlock1","","","","This is a bim:","null","","","","",""
"","image-keyboard-response","170","400051","0.0-6.0-1.54","LF","0ypu8hv44k","1280","720","de","en06oi05","null","","","","","","","","learning/Slide55.JPG","null","","","","",""
"","html-keyboard-response","171","401059","0.0-6.0-2.54","LF","0ypu8hv44k","1280","720","de","en06oi05","null","","","","learningBlock1","","","","<div style=""font-size:60px;""> </div>","null","LF","learning/Slide55.JPG","This is a bim:","",""
"","html-keyboard-response","172","402067","0.0-6.0-0.55","LF","0ypu8hv44k","1280","720","de","en06oi05","null","","","","learningBlock1","","","","This is a tob:","null","","","","",""
"","image-keyboard-response","173","402395","0.0-6.0-1.55","LF","0ypu8hv44k","1280","720","de","en06oi05","null","","","","","","","","learning/Slide56.JPG","null","","","","",""
"","html-keyboard-response","174","403404","0.0-6.0-2.55","LF","0ypu8hv44k","1280","720","de","en06oi05","null","","","","learningBlock1","","","","<div style=""font-size:60px;""> </div>","null","LF","learning/Slide56.JPG","This is a tob:","",""
"","html-keyboard-response","175","404412","0.0-6.0-0.56","LF","0ypu8hv44k","1280","720","de","en06oi05","null","","","","learningBlock1","","","","This is a dep:","null","","","","",""
"","image-keyboard-response","176","404740","0.0-6.0-1.56","LF","0ypu8hv44k","1280","720","de","en06oi05","null","","","","","","","","learning/Slide57.JPG","null","","","","",""
"","html-keyboard-response","177","405748","0.0-6.0-2.56","LF","0ypu8hv44k","1280","720","de","en06oi05","null","","","","learningBlock1","","","","<div style=""font-size:60px;""> </div>","null","LF","learning/Slide57.JPG","This is a dep:","",""
"","html-keyboard-response","178","406756","0.0-6.0-0.57","LF","0ypu8hv44k","1280","720","de","en06oi05","null","","","","learningBlock1","","","","This is a wug:","null","","","","",""
"","image-keyboard-response","179","407084","0.0-6.0-1.57","LF","0ypu8hv44k","1280","720","de","en06oi05","null","","","","","","","","learning/Slide58.JPG","null","","","","",""
"","html-keyboard-response","180","408092","0.0-6.0-2.57","LF","0ypu8hv44k","1280","720","de","en06oi05","null","","","","learningBlock1","","","","<div style=""font-size:60px;""> </div>","null","LF","learning/Slide58.JPG","This is a wug:","",""
"","html-keyboard-response","181","409100","0.0-6.0-0.58","LF","0ypu8hv44k","1280","720","de","en06oi05","null","","","","learningBlock1","","","","This is a dep:","null","","","","",""
"","image-keyboard-response","182","409428","0.0-6.0-1.58","LF","0ypu8hv44k","1280","720","de","en06oi05","null","","","","","","","","learning/Slide59.JPG","null","","","","",""
"","html-keyboard-response","183","410436","0.0-6.0-2.58","LF","0ypu8hv44k","1280","720","de","en06oi05","null","","","","learningBlock1","","","","<div style=""font-size:60px;""> </div>","null","LF","learning/Slide59.JPG","This is a dep:","",""
"","html-keyboard-response","184","411445","0.0-6.0-0.59","LF","0ypu8hv44k","1280","720","de","en06oi05","null","","","","learningBlock1","","","","This is a wug:","null","","","","",""
"","image-keyboard-response","185","411773","0.0-6.0-1.59","LF","0ypu8hv44k","1280","720","de","en06oi05","null","","","","","","","","learning/Slide60.JPG","null","","","","",""
"","html-keyboard-response","186","412781","0.0-6.0-2.59","LF","0ypu8hv44k","1280","720","de","en06oi05","null","","","","learningBlock1","","","","<div style=""font-size:60px;""> </div>","null","LF","learning/Slide60.JPG","This is a wug:","",""
"","html-keyboard-response","187","413791","0.0-6.0-0.60","LF","0ypu8hv44k","1280","720","de","en06oi05","null","","","","learningBlock1","","","","This is a bim:","null","","","","",""
"","image-keyboard-response","188","414139","0.0-6.0-1.60","LF","0ypu8hv44k","1280","720","de","en06oi05","null","","","","","","","","learning/Slide61.JPG","null","","","","",""
"","html-keyboard-response","189","415147","0.0-6.0-2.60","LF","0ypu8hv44k","1280","720","de","en06oi05","null","","","","learningBlock1","","","","<div style=""font-size:60px;""> </div>","null","LF","learning/Slide61.JPG","This is a bim:","",""
"","html-keyboard-response","190","416155","0.0-6.0-0.61","LF","0ypu8hv44k","1280","720","de","en06oi05","null","","","","learningBlock1","","","","This is a dep:","null","","","","",""
"","image-keyboard-response","191","416483","0.0-6.0-1.61","LF","0ypu8hv44k","1280","720","de","en06oi05","null","","","","","","","","learning/Slide62.JPG","null","","","","",""
"","html-keyboard-response","192","417491","0.0-6.0-2.61","LF","0ypu8hv44k","1280","720","de","en06oi05","null","","","","learningBlock1","","","","<div style=""font-size:60px;""> </div>","null","LF","learning/Slide62.JPG","This is a dep:","",""
"","html-keyboard-response","193","418499","0.0-6.0-0.62","LF","0ypu8hv44k","1280","720","de","en06oi05","null","","","","learningBlock1","","","","This is a bim:","null","","","","",""
"","image-keyboard-response","194","418827","0.0-6.0-1.62","LF","0ypu8hv44k","1280","720","de","en06oi05","null","","","","","","","","learning/Slide63.JPG","null","","","","",""
"","html-keyboard-response","195","419836","0.0-6.0-2.62","LF","0ypu8hv44k","1280","720","de","en06oi05","null","","","","learningBlock1","","","","<div style=""font-size:60px;""> </div>","null","LF","learning/Slide63.JPG","This is a bim:","",""
"","html-keyboard-response","196","420844","0.0-6.0-0.63","LF","0ypu8hv44k","1280","720","de","en06oi05","null","","","","learningBlock1","","","","This is a tob:","null","","","","",""
"","image-keyboard-response","197","421175","0.0-6.0-1.63","LF","0ypu8hv44k","1280","720","de","en06oi05","null","","","","","","","","learning/Slide64.JPG","null","","","","",""
"","html-keyboard-response","198","422183","0.0-6.0-2.63","LF","0ypu8hv44k","1280","720","de","en06oi05","null","","","","learningBlock1","","","","<div style=""font-size:60px;""> </div>","null","LF","learning/Slide64.JPG","This is a tob:","",""
"","html-keyboard-response","199","423191","0.0-6.0-0.64","LF","0ypu8hv44k","1280","720","de","en06oi05","null","","","","learningBlock1","","","","This is a wug:","null","","","","",""
"","image-keyboard-response","200","423519","0.0-6.0-1.64","LF","0ypu8hv44k","1280","720","de","en06oi05","null","","","","","","","","learning/Slide65.JPG","null","","","","",""
"","html-keyboard-response","201","424532","0.0-6.0-2.64","LF","0ypu8hv44k","1280","720","de","en06oi05","null","","","","learningBlock1","","","","<div style=""font-size:60px;""> </div>","null","LF","learning/Slide65.JPG","This is a wug:","",""
"","html-keyboard-response","202","425541","0.0-6.0-0.65","LF","0ypu8hv44k","1280","720","de","en06oi05","null","","","","learningBlock1","","","","This is a dep:","null","","","","",""
"","image-keyboard-response","203","425869","0.0-6.0-1.65","LF","0ypu8hv44k","1280","720","de","en06oi05","null","","","","","","","","learning/Slide66.JPG","null","","","","",""
"","html-keyboard-response","204","426877","0.0-6.0-2.65","LF","0ypu8hv44k","1280","720","de","en06oi05","null","","","","learningBlock1","","","","<div style=""font-size:60px;""> </div>","null","LF","learning/Slide66.JPG","This is a dep:","",""
"","html-keyboard-response","205","427886","0.0-6.0-0.66","LF","0ypu8hv44k","1280","720","de","en06oi05","null","","","","learningBlock1","","","","This is a tob:","null","","","","",""
"","image-keyboard-response","206","428213","0.0-6.0-1.66","LF","0ypu8hv44k","1280","720","de","en06oi05","null","","","","","","","","learning/Slide67.JPG","null","","","","",""
"","html-keyboard-response","207","429221","0.0-6.0-2.66","LF","0ypu8hv44k","1280","720","de","en06oi05","null","","","","learningBlock1","","","","<div style=""font-size:60px;""> </div>","null","LF","learning/Slide67.JPG","This is a tob:","",""
"","html-keyboard-response","208","430230","0.0-6.0-0.67","LF","0ypu8hv44k","1280","720","de","en06oi05","null","","","","learningBlock1","","","","This is a wug:","null","","","","",""
"","image-keyboard-response","209","430566","0.0-6.0-1.67","LF","0ypu8hv44k","1280","720","de","en06oi05","null","","","","","","","","learning/Slide68.JPG","null","","","","",""
"","html-keyboard-response","210","431574","0.0-6.0-2.67","LF","0ypu8hv44k","1280","720","de","en06oi05","null","","","","learningBlock1","","","","<div style=""font-size:60px;""> </div>","null","LF","learning/Slide68.JPG","This is a wug:","",""
"","html-keyboard-response","211","432582","0.0-6.0-0.68","LF","0ypu8hv44k","1280","720","de","en06oi05","null","","","","learningBlock1","","","","This is a tob:","null","","","","",""
"","image-keyboard-response","212","432918","0.0-6.0-1.68","LF","0ypu8hv44k","1280","720","de","en06oi05","null","","","","","","","","learning/Slide69.JPG","null","","","","",""
"","html-keyboard-response","213","433926","0.0-6.0-2.68","LF","0ypu8hv44k","1280","720","de","en06oi05","null","","","","learningBlock1","","","","<div style=""font-size:60px;""> </div>","null","LF","learning/Slide69.JPG","This is a tob:","",""
"","html-keyboard-response","214","434934","0.0-6.0-0.69","LF","0ypu8hv44k","1280","720","de","en06oi05","null","","","","learningBlock1","","","","This is a dep:","null","","","","",""
"","image-keyboard-response","215","435262","0.0-6.0-1.69","LF","0ypu8hv44k","1280","720","de","en06oi05","null","","","","","","","","learning/Slide70.JPG","null","","","","",""
"","html-keyboard-response","216","436270","0.0-6.0-2.69","LF","0ypu8hv44k","1280","720","de","en06oi05","null","","","","learningBlock1","","","","<div style=""font-size:60px;""> </div>","null","LF","learning/Slide70.JPG","This is a dep:","",""
"","html-keyboard-response","217","437279","0.0-6.0-0.70","LF","0ypu8hv44k","1280","720","de","en06oi05","null","","","","learningBlock1","","","","This is a wug:","null","","","","",""
"","image-keyboard-response","218","437606","0.0-6.0-1.70","LF","0ypu8hv44k","1280","720","de","en06oi05","null","","","","","","","","learning/Slide71.JPG","null","","","","",""
"","html-keyboard-response","219","438608","0.0-6.0-2.70","LF","0ypu8hv44k","1280","720","de","en06oi05","null","","","","learningBlock1","","","","<div style=""font-size:60px;""> </div>","null","LF","learning/Slide71.JPG","This is a wug:","",""
"","html-keyboard-response","220","439611","0.0-6.0-0.71","LF","0ypu8hv44k","1280","720","de","en06oi05","null","","","","learningBlock1","","","","This is a bim:","null","","","","",""
"","image-keyboard-response","221","439938","0.0-6.0-1.71","LF","0ypu8hv44k","1280","720","de","en06oi05","null","","","","","","","","learning/Slide72.JPG","null","","","","",""
"","html-keyboard-response","222","440947","0.0-6.0-2.71","LF","0ypu8hv44k","1280","720","de","en06oi05","null","","","","learningBlock1","","","","<div style=""font-size:60px;""> </div>","null","LF","learning/Slide72.JPG","This is a bim:","",""
"","html-keyboard-response","223","441954","0.0-6.0-0.72","LF","0ypu8hv44k","1280","720","de","en06oi05","null","","","","learningBlock1","","","","This is a wug:","null","","","","",""
"","image-keyboard-response","224","442281","0.0-6.0-1.72","LF","0ypu8hv44k","1280","720","de","en06oi05","null","","","","","","","","learning/Slide73.JPG","null","","","","",""
"","html-keyboard-response","225","443290","0.0-6.0-2.72","LF","0ypu8hv44k","1280","720","de","en06oi05","null","","","","learningBlock1","","","","<div style=""font-size:60px;""> </div>","null","LF","learning/Slide73.JPG","This is a wug:","",""
"","html-keyboard-response","226","444298","0.0-6.0-0.73","LF","0ypu8hv44k","1280","720","de","en06oi05","null","","","","learningBlock1","","","","This is a dep:","null","","","","",""
"","image-keyboard-response","227","444626","0.0-6.0-1.73","LF","0ypu8hv44k","1280","720","de","en06oi05","null","","","","","","","","learning/Slide74.JPG","null","","","","",""
"","html-keyboard-response","228","445634","0.0-6.0-2.73","LF","0ypu8hv44k","1280","720","de","en06oi05","null","","","","learningBlock1","","","","<div style=""font-size:60px;""> </div>","null","LF","learning/Slide74.JPG","This is a dep:","",""
"","html-keyboard-response","229","446643","0.0-6.0-0.74","LF","0ypu8hv44k","1280","720","de","en06oi05","null","","","","learningBlock1","","","","This is a tob:","null","","","","",""
"","image-keyboard-response","230","446970","0.0-6.0-1.74","LF","0ypu8hv44k","1280","720","de","en06oi05","null","","","","","","","","learning/Slide75.JPG","null","","","","",""
"","html-keyboard-response","231","447978","0.0-6.0-2.74","LF","0ypu8hv44k","1280","720","de","en06oi05","null","","","","learningBlock1","","","","<div style=""font-size:60px;""> </div>","null","LF","learning/Slide75.JPG","This is a tob:","",""
"","html-keyboard-response","232","448987","0.0-6.0-0.75","LF","0ypu8hv44k","1280","720","de","en06oi05","null","","","","learningBlock1","","","","This is a bim:","null","","","","",""
"","image-keyboard-response","233","449315","0.0-6.0-1.75","LF","0ypu8hv44k","1280","720","de","en06oi05","null","","","","","","","","learning/Slide76.JPG","null","","","","",""
"","html-keyboard-response","234","450323","0.0-6.0-2.75","LF","0ypu8hv44k","1280","720","de","en06oi05","null","","","","learningBlock1","","","","<div style=""font-size:60px;""> </div>","null","LF","learning/Slide76.JPG","This is a bim:","",""
"","html-keyboard-response","235","451331","0.0-6.0-0.76","LF","0ypu8hv44k","1280","720","de","en06oi05","null","","","","learningBlock1","","","","This is a tob:","null","","","","",""
"","image-keyboard-response","236","451659","0.0-6.0-1.76","LF","0ypu8hv44k","1280","720","de","en06oi05","null","","","","","","","","learning/Slide77.JPG","null","","","","",""
"","html-keyboard-response","237","452667","0.0-6.0-2.76","LF","0ypu8hv44k","1280","720","de","en06oi05","null","","","","learningBlock1","","","","<div style=""font-size:60px;""> </div>","null","LF","learning/Slide77.JPG","This is a tob:","",""
"","html-keyboard-response","238","453675","0.0-6.0-0.77","LF","0ypu8hv44k","1280","720","de","en06oi05","null","","","","learningBlock1","","","","This is a wug:","null","","","","",""
"","image-keyboard-response","239","454003","0.0-6.0-1.77","LF","0ypu8hv44k","1280","720","de","en06oi05","null","","","","","","","","learning/Slide78.JPG","null","","","","",""
"","html-keyboard-response","240","455011","0.0-6.0-2.77","LF","0ypu8hv44k","1280","720","de","en06oi05","null","","","","learningBlock1","","","","<div style=""font-size:60px;""> </div>","null","LF","learning/Slide78.JPG","This is a wug:","",""
"","html-keyboard-response","241","456017","0.0-6.0-0.78","LF","0ypu8hv44k","1280","720","de","en06oi05","null","","","","learningBlock1","","","","This is a bim:","null","","","","",""
"","image-keyboard-response","242","456345","0.0-6.0-1.78","LF","0ypu8hv44k","1280","720","de","en06oi05","null","","","","","","","","learning/Slide79.JPG","null","","","","",""
"","html-keyboard-response","243","457353","0.0-6.0-2.78","LF","0ypu8hv44k","1280","720","de","en06oi05","null","","","","learningBlock1","","","","<div style=""font-size:60px;""> </div>","null","LF","learning/Slide79.JPG","This is a bim:","",""
"","html-keyboard-response","244","458361","0.0-6.0-0.79","LF","0ypu8hv44k","1280","720","de","en06oi05","null","","","","learningBlock1","","","","This is a tob:","null","","","","",""
"","image-keyboard-response","245","458689","0.0-6.0-1.79","LF","0ypu8hv44k","1280","720","de","en06oi05","null","","","","","","","","learning/Slide80.JPG","null","","","","",""
"","html-keyboard-response","246","459697","0.0-6.0-2.79","LF","0ypu8hv44k","1280","720","de","en06oi05","null","","","","learningBlock1","","","","<div style=""font-size:60px;""> </div>","null","LF","learning/Slide80.JPG","This is a tob:","",""
"","instructions","247","462436","0.0-7.0","LF","0ypu8hv44k","1280","720","de","en06oi05","NA","","","[{""page_index"":0,""viewing_time"":2738.424999988638}]","instructions","","","","","","","","","",""
"","html-keyboard-response","248","463442","0.0-8.0-0.0","LF","0ypu8hv44k","1280","720","de","en06oi05","null","","","","learningBlock2","","","","This is a wug:","null","","","","",""
"","image-keyboard-response","249","463770","0.0-8.0-1.0","LF","0ypu8hv44k","1280","720","de","en06oi05","null","","","","","","","","learning/Slide81.JPG","null","","","","",""
"","html-keyboard-response","250","464777","0.0-8.0-2.0","LF","0ypu8hv44k","1280","720","de","en06oi05","null","","","","learningBlock2","","","","<div style=""font-size:60px;""> </div>","null","LF","learning/Slide81.JPG","This is a wug:","",""
"","html-keyboard-response","251","465786","0.0-8.0-0.1","LF","0ypu8hv44k","1280","720","de","en06oi05","null","","","","learningBlock2","","","","This is a bim:","null","","","","",""
"","image-keyboard-response","252","466114","0.0-8.0-1.1","LF","0ypu8hv44k","1280","720","de","en06oi05","null","","","","","","","","learning/Slide82.JPG","null","","","","",""
"","html-keyboard-response","253","467119","0.0-8.0-2.1","LF","0ypu8hv44k","1280","720","de","en06oi05","null","","","","learningBlock2","","","","<div style=""font-size:60px;""> </div>","null","LF","learning/Slide82.JPG","This is a bim:","",""
"","html-keyboard-response","254","468127","0.0-8.0-0.2","LF","0ypu8hv44k","1280","720","de","en06oi05","null","","","","learningBlock2","","","","This is a wug:","null","","","","",""
"","image-keyboard-response","255","468455","0.0-8.0-1.2","LF","0ypu8hv44k","1280","720","de","en06oi05","null","","","","","","","","learning/Slide83.JPG","null","","","","",""
"","html-keyboard-response","256","469463","0.0-8.0-2.2","LF","0ypu8hv44k","1280","720","de","en06oi05","null","","","","learningBlock2","","","","<div style=""font-size:60px;""> </div>","null","LF","learning/Slide83.JPG","This is a wug:","",""
"","html-keyboard-response","257","470471","0.0-8.0-0.3","LF","0ypu8hv44k","1280","720","de","en06oi05","null","","","","learningBlock2","","","","This is a dep:","null","","","","",""
"","image-keyboard-response","258","470807","0.0-8.0-1.3","LF","0ypu8hv44k","1280","720","de","en06oi05","null","","","","","","","","learning/Slide84.JPG","null","","","","",""
"","html-keyboard-response","259","471815","0.0-8.0-2.3","LF","0ypu8hv44k","1280","720","de","en06oi05","null","","","","learningBlock2","","","","<div style=""font-size:60px;""> </div>","null","LF","learning/Slide84.JPG","This is a dep:","",""
"","html-keyboard-response","260","472823","0.0-8.0-0.4","LF","0ypu8hv44k","1280","720","de","en06oi05","null","","","","learningBlock2","","","","This is a bim:","null","","","","",""
"","image-keyboard-response","261","473151","0.0-8.0-1.4","LF","0ypu8hv44k","1280","720","de","en06oi05","null","","","","","","","","learning/Slide85.JPG","null","","","","",""
"","html-keyboard-response","262","474159","0.0-8.0-2.4","LF","0ypu8hv44k","1280","720","de","en06oi05","null","","","","learningBlock2","","","","<div style=""font-size:60px;""> </div>","null","LF","learning/Slide85.JPG","This is a bim:","",""
"","html-keyboard-response","263","475167","0.0-8.0-0.5","LF","0ypu8hv44k","1280","720","de","en06oi05","null","","","","learningBlock2","","","","This is a tob:","null","","","","",""
"","image-keyboard-response","264","475496","0.0-8.0-1.5","LF","0ypu8hv44k","1280","720","de","en06oi05","null","","","","","","","","learning/Slide86.JPG","null","","","","",""
"","html-keyboard-response","265","476503","0.0-8.0-2.5","LF","0ypu8hv44k","1280","720","de","en06oi05","null","","","","learningBlock2","","","","<div style=""font-size:60px;""> </div>","null","LF","learning/Slide86.JPG","This is a tob:","",""
"","html-keyboard-response","266","477512","0.0-8.0-0.6","LF","0ypu8hv44k","1280","720","de","en06oi05","null","","","","learningBlock2","","","","This is a wug:","null","","","","",""
"","image-keyboard-response","267","477840","0.0-8.0-1.6","LF","0ypu8hv44k","1280","720","de","en06oi05","null","","","","","","","","learning/Slide87.JPG","null","","","","",""
"","html-keyboard-response","268","478848","0.0-8.0-2.6","LF","0ypu8hv44k","1280","720","de","en06oi05","null","","","","learningBlock2","","","","<div style=""font-size:60px;""> </div>","null","LF","learning/Slide87.JPG","This is a wug:","",""
"","html-keyboard-response","269","479856","0.0-8.0-0.7","LF","0ypu8hv44k","1280","720","de","en06oi05","null","","","","learningBlock2","","","","This is a tob:","null","","","","",""
"","image-keyboard-response","270","480184","0.0-8.0-1.7","LF","0ypu8hv44k","1280","720","de","en06oi05","null","","","","","","","","learning/Slide88.JPG","null","","","","",""
"","html-keyboard-response","271","481192","0.0-8.0-2.7","LF","0ypu8hv44k","1280","720","de","en06oi05","null","","","","learningBlock2","","","","<div style=""font-size:60px;""> </div>","null","LF","learning/Slide88.JPG","This is a tob:","",""
"","html-keyboard-response","272","482200","0.0-8.0-0.8","LF","0ypu8hv44k","1280","720","de","en06oi05","null","","","","learningBlock2","","","","This is a bim:","null","","","","",""
"","image-keyboard-response","273","482528","0.0-8.0-1.8","LF","0ypu8hv44k","1280","720","de","en06oi05","null","","","","","","","","learning/Slide89.JPG","null","","","","",""
"","html-keyboard-response","274","483536","0.0-8.0-2.8","LF","0ypu8hv44k","1280","720","de","en06oi05","null","","","","learningBlock2","","","","<div style=""font-size:60px;""> </div>","null","LF","learning/Slide89.JPG","This is a bim:","",""
"","html-keyboard-response","275","484545","0.0-8.0-0.9","LF","0ypu8hv44k","1280","720","de","en06oi05","null","","","","learningBlock2","","","","This is a dep:","null","","","","",""
"","image-keyboard-response","276","484873","0.0-8.0-1.9","LF","0ypu8hv44k","1280","720","de","en06oi05","null","","","","","","","","learning/Slide90.JPG","null","","","","",""
"","html-keyboard-response","277","485881","0.0-8.0-2.9","LF","0ypu8hv44k","1280","720","de","en06oi05","null","","","","learningBlock2","","","","<div style=""font-size:60px;""> </div>","null","LF","learning/Slide90.JPG","This is a dep:","",""
"","html-keyboard-response","278","486889","0.0-8.0-0.10","LF","0ypu8hv44k","1280","720","de","en06oi05","null","","","","learningBlock2","","","","This is a wug:","null","","","","",""
"","image-keyboard-response","279","487217","0.0-8.0-1.10","LF","0ypu8hv44k","1280","720","de","en06oi05","null","","","","","","","","learning/Slide91.JPG","null","","","","",""
"","html-keyboard-response","280","488225","0.0-8.0-2.10","LF","0ypu8hv44k","1280","720","de","en06oi05","null","","","","learningBlock2","","","","<div style=""font-size:60px;""> </div>","null","LF","learning/Slide91.JPG","This is a wug:","",""
"","html-keyboard-response","281","489233","0.0-8.0-0.11","LF","0ypu8hv44k","1280","720","de","en06oi05","null","","","","learningBlock2","","","","This is a tob:","null","","","","",""
"","image-keyboard-response","282","489561","0.0-8.0-1.11","LF","0ypu8hv44k","1280","720","de","en06oi05","null","","","","","","","","learning/Slide92.JPG","null","","","","",""
"","html-keyboard-response","283","490569","0.0-8.0-2.11","LF","0ypu8hv44k","1280","720","de","en06oi05","null","","","","learningBlock2","","","","<div style=""font-size:60px;""> </div>","null","LF","learning/Slide92.JPG","This is a tob:","",""
"","html-keyboard-response","284","491577","0.0-8.0-0.12","LF","0ypu8hv44k","1280","720","de","en06oi05","null","","","","learningBlock2","","","","This is a bim:","null","","","","",""
"","image-keyboard-response","285","491905","0.0-8.0-1.12","LF","0ypu8hv44k","1280","720","de","en06oi05","null","","","","","","","","learning/Slide93.JPG","null","","","","",""
"","html-keyboard-response","286","492914","0.0-8.0-2.12","LF","0ypu8hv44k","1280","720","de","en06oi05","null","","","","learningBlock2","","","","<div style=""font-size:60px;""> </div>","null","LF","learning/Slide93.JPG","This is a bim:","",""
"","html-keyboard-response","287","493922","0.0-8.0-0.13","LF","0ypu8hv44k","1280","720","de","en06oi05","null","","","","learningBlock2","","","","This is a tob:","null","","","","",""
"","image-keyboard-response","288","494250","0.0-8.0-1.13","LF","0ypu8hv44k","1280","720","de","en06oi05","null","","","","","","","","learning/Slide94.JPG","null","","","","",""
"","html-keyboard-response","289","495258","0.0-8.0-2.13","LF","0ypu8hv44k","1280","720","de","en06oi05","null","","","","learningBlock2","","","","<div style=""font-size:60px;""> </div>","null","LF","learning/Slide94.JPG","This is a tob:","",""
"","html-keyboard-response","290","496266","0.0-8.0-0.14","LF","0ypu8hv44k","1280","720","de","en06oi05","null","","","","learningBlock2","","","","This is a wug:","null","","","","",""
"","image-keyboard-response","291","496594","0.0-8.0-1.14","LF","0ypu8hv44k","1280","720","de","en06oi05","null","","","","","","","","learning/Slide95.JPG","null","","","","",""
"","html-keyboard-response","292","497602","0.0-8.0-2.14","LF","0ypu8hv44k","1280","720","de","en06oi05","null","","","","learningBlock2","","","","<div style=""font-size:60px;""> </div>","null","LF","learning/Slide95.JPG","This is a wug:","",""
"","html-keyboard-response","293","498611","0.0-8.0-0.15","LF","0ypu8hv44k","1280","720","de","en06oi05","null","","","","learningBlock2","","","","This is a tob:","null","","","","",""
"","image-keyboard-response","294","498938","0.0-8.0-1.15","LF","0ypu8hv44k","1280","720","de","en06oi05","null","","","","","","","","learning/Slide96.JPG","null","","","","",""
"","html-keyboard-response","295","499947","0.0-8.0-2.15","LF","0ypu8hv44k","1280","720","de","en06oi05","null","","","","learningBlock2","","","","<div style=""font-size:60px;""> </div>","null","LF","learning/Slide96.JPG","This is a tob:","",""
"","html-keyboard-response","296","500955","0.0-8.0-0.16","LF","0ypu8hv44k","1280","720","de","en06oi05","null","","","","learningBlock2","","","","This is a dep:","null","","","","",""
"","image-keyboard-response","297","501283","0.0-8.0-1.16","LF","0ypu8hv44k","1280","720","de","en06oi05","null","","","","","","","","learning/Slide97.JPG","null","","","","",""
"","html-keyboard-response","298","502291","0.0-8.0-2.16","LF","0ypu8hv44k","1280","720","de","en06oi05","null","","","","learningBlock2","","","","<div style=""font-size:60px;""> </div>","null","LF","learning/Slide97.JPG","This is a dep:","",""
"","html-keyboard-response","299","503302","0.0-8.0-0.17","LF","0ypu8hv44k","1280","720","de","en06oi05","null","","","","learningBlock2","","","","This is a bim:","null","","","","",""
"","image-keyboard-response","300","503638","0.0-8.0-1.17","LF","0ypu8hv44k","1280","720","de","en06oi05","null","","","","","","","","learning/Slide98.JPG","null","","","","",""
"","html-keyboard-response","301","504642","0.0-8.0-2.17","LF","0ypu8hv44k","1280","720","de","en06oi05","null","","","","learningBlock2","","","","<div style=""font-size:60px;""> </div>","null","LF","learning/Slide98.JPG","This is a bim:","",""
"","html-keyboard-response","302","505650","0.0-8.0-0.18","LF","0ypu8hv44k","1280","720","de","en06oi05","null","","","","learningBlock2","","","","This is a dep:","null","","","","",""
"","image-keyboard-response","303","505978","0.0-8.0-1.18","LF","0ypu8hv44k","1280","720","de","en06oi05","null","","","","","","","","learning/Slide99.JPG","null","","","","",""
"","html-keyboard-response","304","506986","0.0-8.0-2.18","LF","0ypu8hv44k","1280","720","de","en06oi05","null","","","","learningBlock2","","","","<div style=""font-size:60px;""> </div>","null","LF","learning/Slide99.JPG","This is a dep:","",""
"","html-keyboard-response","305","507995","0.0-8.0-0.19","LF","0ypu8hv44k","1280","720","de","en06oi05","null","","","","learningBlock2","","","","This is a bim:","null","","","","",""
"","image-keyboard-response","306","508322","0.0-8.0-1.19","LF","0ypu8hv44k","1280","720","de","en06oi05","null","","","","","","","","learning/Slide100.JPG","null","","","","",""
"","html-keyboard-response","307","509330","0.0-8.0-2.19","LF","0ypu8hv44k","1280","720","de","en06oi05","null","","","","learningBlock2","","","","<div style=""font-size:60px;""> </div>","null","LF","learning/Slide100.JPG","This is a bim:","",""
"","html-keyboard-response","308","510339","0.0-8.0-0.20","LF","0ypu8hv44k","1280","720","de","en06oi05","null","","","","learningBlock2","","","","This is a tob:","null","","","","",""
"","image-keyboard-response","309","510675","0.0-8.0-1.20","LF","0ypu8hv44k","1280","720","de","en06oi05","null","","","","","","","","learning/Slide101.JPG","null","","","","",""
"","html-keyboard-response","310","511683","0.0-8.0-2.20","LF","0ypu8hv44k","1280","720","de","en06oi05","null","","","","learningBlock2","","","","<div style=""font-size:60px;""> </div>","null","LF","learning/Slide101.JPG","This is a tob:","",""
"","html-keyboard-response","311","512691","0.0-8.0-0.21","LF","0ypu8hv44k","1280","720","de","en06oi05","null","","","","learningBlock2","","","","This is a bim:","null","","","","",""
"","image-keyboard-response","312","513019","0.0-8.0-1.21","LF","0ypu8hv44k","1280","720","de","en06oi05","null","","","","","","","","learning/Slide102.JPG","null","","","","",""
"","html-keyboard-response","313","514027","0.0-8.0-2.21","LF","0ypu8hv44k","1280","720","de","en06oi05","null","","","","learningBlock2","","","","<div style=""font-size:60px;""> </div>","null","LF","learning/Slide102.JPG","This is a bim:","",""
"","html-keyboard-response","314","515035","0.0-8.0-0.22","LF","0ypu8hv44k","1280","720","de","en06oi05","null","","","","learningBlock2","","","","This is a dep:","null","","","","",""
"","image-keyboard-response","315","515363","0.0-8.0-1.22","LF","0ypu8hv44k","1280","720","de","en06oi05","null","","","","","","","","learning/Slide103.JPG","null","","","","",""
"","html-keyboard-response","316","516371","0.0-8.0-2.22","LF","0ypu8hv44k","1280","720","de","en06oi05","null","","","","learningBlock2","","","","<div style=""font-size:60px;""> </div>","null","LF","learning/Slide103.JPG","This is a dep:","",""
"","html-keyboard-response","317","517380","0.0-8.0-0.23","LF","0ypu8hv44k","1280","720","de","en06oi05","null","","","","learningBlock2","","","","This is a tob:","null","","","","",""
"","image-keyboard-response","318","517708","0.0-8.0-1.23","LF","0ypu8hv44k","1280","720","de","en06oi05","null","","","","","","","","learning/Slide104.JPG","null","","","","",""
"","html-keyboard-response","319","518716","0.0-8.0-2.23","LF","0ypu8hv44k","1280","720","de","en06oi05","null","","","","learningBlock2","","","","<div style=""font-size:60px;""> </div>","null","LF","learning/Slide104.JPG","This is a tob:","",""
"","html-keyboard-response","320","519724","0.0-8.0-0.24","LF","0ypu8hv44k","1280","720","de","en06oi05","null","","","","learningBlock2","","","","This is a dep:","null","","","","",""
"","image-keyboard-response","321","520052","0.0-8.0-1.24","LF","0ypu8hv44k","1280","720","de","en06oi05","null","","","","","","","","learning/Slide105.JPG","null","","","","",""
"","html-keyboard-response","322","521054","0.0-8.0-2.24","LF","0ypu8hv44k","1280","720","de","en06oi05","null","","","","learningBlock2","","","","<div style=""font-size:60px;""> </div>","null","LF","learning/Slide105.JPG","This is a dep:","",""
"","html-keyboard-response","323","522062","0.0-8.0-0.25","LF","0ypu8hv44k","1280","720","de","en06oi05","null","","","","learningBlock2","","","","This is a wug:","null","","","","",""
"","image-keyboard-response","324","522391","0.0-8.0-1.25","LF","0ypu8hv44k","1280","720","de","en06oi05","null","","","","","","","","learning/Slide106.JPG","null","","","","",""
"","html-keyboard-response","325","523395","0.0-8.0-2.25","LF","0ypu8hv44k","1280","720","de","en06oi05","null","","","","learningBlock2","","","","<div style=""font-size:60px;""> </div>","null","LF","learning/Slide106.JPG","This is a wug:","",""
"","html-keyboard-response","326","524403","0.0-8.0-0.26","LF","0ypu8hv44k","1280","720","de","en06oi05","null","","","","learningBlock2","","","","This is a bim:","null","","","","",""
"","image-keyboard-response","327","524739","0.0-8.0-1.26","LF","0ypu8hv44k","1280","720","de","en06oi05","null","","","","","","","","learning/Slide107.JPG","null","","","","",""
"","html-keyboard-response","328","525747","0.0-8.0-2.26","LF","0ypu8hv44k","1280","720","de","en06oi05","null","","","","learningBlock2","","","","<div style=""font-size:60px;""> </div>","null","LF","learning/Slide107.JPG","This is a bim:","",""
"","html-keyboard-response","329","526755","0.0-8.0-0.27","LF","0ypu8hv44k","1280","720","de","en06oi05","null","","","","learningBlock2","","","","This is a dep:","null","","","","",""
"","image-keyboard-response","330","527083","0.0-8.0-1.27","LF","0ypu8hv44k","1280","720","de","en06oi05","null","","","","","","","","learning/Slide108.JPG","null","","","","",""
"","html-keyboard-response","331","528091","0.0-8.0-2.27","LF","0ypu8hv44k","1280","720","de","en06oi05","null","","","","learningBlock2","","","","<div style=""font-size:60px;""> </div>","null","LF","learning/Slide108.JPG","This is a dep:","",""
"","html-keyboard-response","332","529099","0.0-8.0-0.28","LF","0ypu8hv44k","1280","720","de","en06oi05","null","","","","learningBlock2","","","","This is a wug:","null","","","","",""
"","image-keyboard-response","333","529427","0.0-8.0-1.28","LF","0ypu8hv44k","1280","720","de","en06oi05","null","","","","","","","","learning/Slide109.JPG","null","","","","",""
"","html-keyboard-response","334","530435","0.0-8.0-2.28","LF","0ypu8hv44k","1280","720","de","en06oi05","null","","","","learningBlock2","","","","<div style=""font-size:60px;""> </div>","null","LF","learning/Slide109.JPG","This is a wug:","",""
"","html-keyboard-response","335","531444","0.0-8.0-0.29","LF","0ypu8hv44k","1280","720","de","en06oi05","null","","","","learningBlock2","","","","This is a bim:","null","","","","",""
"","image-keyboard-response","336","531772","0.0-8.0-1.29","LF","0ypu8hv44k","1280","720","de","en06oi05","null","","","","","","","","learning/Slide110.JPG","null","","","","",""
"","html-keyboard-response","337","532780","0.0-8.0-2.29","LF","0ypu8hv44k","1280","720","de","en06oi05","null","","","","learningBlock2","","","","<div style=""font-size:60px;""> </div>","null","LF","learning/Slide110.JPG","This is a bim:","",""
"","html-keyboard-response","338","533788","0.0-8.0-0.30","LF","0ypu8hv44k","1280","720","de","en06oi05","null","","","","learningBlock2","","","","This is a tob:","null","","","","",""
"","image-keyboard-response","339","534116","0.0-8.0-1.30","LF","0ypu8hv44k","1280","720","de","en06oi05","null","","","","","","","","learning/Slide111.JPG","null","","","","",""
"","html-keyboard-response","340","535124","0.0-8.0-2.30","LF","0ypu8hv44k","1280","720","de","en06oi05","null","","","","learningBlock2","","","","<div style=""font-size:60px;""> </div>","null","LF","learning/Slide111.JPG","This is a tob:","",""
"","html-keyboard-response","341","536132","0.0-8.0-0.31","LF","0ypu8hv44k","1280","720","de","en06oi05","null","","","","learningBlock2","","","","This is a wug:","null","","","","",""
"","image-keyboard-response","342","536468","0.0-8.0-1.31","LF","0ypu8hv44k","1280","720","de","en06oi05","null","","","","","","","","learning/Slide112.JPG","null","","","","",""
"","html-keyboard-response","343","537476","0.0-8.0-2.31","LF","0ypu8hv44k","1280","720","de","en06oi05","null","","","","learningBlock2","","","","<div style=""font-size:60px;""> </div>","null","LF","learning/Slide112.JPG","This is a wug:","",""
"","html-keyboard-response","344","538480","0.0-8.0-0.32","LF","0ypu8hv44k","1280","720","de","en06oi05","null","","","","learningBlock2","","","","This is a tob:","null","","","","",""
"","image-keyboard-response","345","538808","0.0-8.0-1.32","LF","0ypu8hv44k","1280","720","de","en06oi05","null","","","","","","","","learning/Slide113.JPG","null","","","","",""
"","html-keyboard-response","346","539816","0.0-8.0-2.32","LF","0ypu8hv44k","1280","720","de","en06oi05","null","","","","learningBlock2","","","","<div style=""font-size:60px;""> </div>","null","LF","learning/Slide113.JPG","This is a tob:","",""
"","html-keyboard-response","347","540824","0.0-8.0-0.33","LF","0ypu8hv44k","1280","720","de","en06oi05","null","","","","learningBlock2","","","","This is a wug:","null","","","","",""
"","image-keyboard-response","348","541152","0.0-8.0-1.33","LF","0ypu8hv44k","1280","720","de","en06oi05","null","","","","","","","","learning/Slide114.JPG","null","","","","",""
"","html-keyboard-response","349","542160","0.0-8.0-2.33","LF","0ypu8hv44k","1280","720","de","en06oi05","null","","","","learningBlock2","","","","<div style=""font-size:60px;""> </div>","null","LF","learning/Slide114.JPG","This is a wug:","",""
"","html-keyboard-response","350","543168","0.0-8.0-0.34","LF","0ypu8hv44k","1280","720","de","en06oi05","null","","","","learningBlock2","","","","This is a bim:","null","","","","",""
"","image-keyboard-response","351","543497","0.0-8.0-1.34","LF","0ypu8hv44k","1280","720","de","en06oi05","null","","","","","","","","learning/Slide115.JPG","null","","","","",""
"","html-keyboard-response","352","544505","0.0-8.0-2.34","LF","0ypu8hv44k","1280","720","de","en06oi05","null","","","","learningBlock2","","","","<div style=""font-size:60px;""> </div>","null","LF","learning/Slide115.JPG","This is a bim:","",""
"","html-keyboard-response","353","545513","0.0-8.0-0.35","LF","0ypu8hv44k","1280","720","de","en06oi05","null","","","","learningBlock2","","","","This is a dep:","null","","","","",""
"","image-keyboard-response","354","545841","0.0-8.0-1.35","LF","0ypu8hv44k","1280","720","de","en06oi05","null","","","","","","","","learning/Slide116.JPG","null","","","","",""
"","html-keyboard-response","355","546849","0.0-8.0-2.35","LF","0ypu8hv44k","1280","720","de","en06oi05","null","","","","learningBlock2","","","","<div style=""font-size:60px;""> </div>","null","LF","learning/Slide116.JPG","This is a dep:","",""
"","html-keyboard-response","356","547859","0.0-8.0-0.36","LF","0ypu8hv44k","1280","720","de","en06oi05","null","","","","learningBlock2","","","","This is a tob:","null","","","","",""
"","image-keyboard-response","357","548205","0.0-8.0-1.36","LF","0ypu8hv44k","1280","720","de","en06oi05","null","","","","","","","","learning/Slide117.JPG","null","","","","",""
"","html-keyboard-response","358","549214","0.0-8.0-2.36","LF","0ypu8hv44k","1280","720","de","en06oi05","null","","","","learningBlock2","","","","<div style=""font-size:60px;""> </div>","null","LF","learning/Slide117.JPG","This is a tob:","",""
"","html-keyboard-response","359","550223","0.0-8.0-0.37","LF","0ypu8hv44k","1280","720","de","en06oi05","null","","","","learningBlock2","","","","This is a dep:","null","","","","",""
"","image-keyboard-response","360","550551","0.0-8.0-1.37","LF","0ypu8hv44k","1280","720","de","en06oi05","null","","","","","","","","learning/Slide118.JPG","null","","","","",""
"","html-keyboard-response","361","551559","0.0-8.0-2.37","LF","0ypu8hv44k","1280","720","de","en06oi05","null","","","","learningBlock2","","","","<div style=""font-size:60px;""> </div>","null","LF","learning/Slide118.JPG","This is a dep:","",""
"","html-keyboard-response","362","552567","0.0-8.0-0.38","LF","0ypu8hv44k","1280","720","de","en06oi05","null","","","","learningBlock2","","","","This is a wug:","null","","","","",""
"","image-keyboard-response","363","552895","0.0-8.0-1.38","LF","0ypu8hv44k","1280","720","de","en06oi05","null","","","","","","","","learning/Slide119.JPG","null","","","","",""
"","html-keyboard-response","364","553899","0.0-8.0-2.38","LF","0ypu8hv44k","1280","720","de","en06oi05","null","","","","learningBlock2","","","","<div style=""font-size:60px;""> </div>","null","LF","learning/Slide119.JPG","This is a wug:","",""
"","html-keyboard-response","365","554908","0.0-8.0-0.39","LF","0ypu8hv44k","1280","720","de","en06oi05","null","","","","learningBlock2","","","","This is a dep:","null","","","","",""
"","image-keyboard-response","366","555235","0.0-8.0-1.39","LF","0ypu8hv44k","1280","720","de","en06oi05","null","","","","","","","","learning/Slide120.JPG","null","","","","",""
"","html-keyboard-response","367","556244","0.0-8.0-2.39","LF","0ypu8hv44k","1280","720","de","en06oi05","null","","","","learningBlock2","","","","<div style=""font-size:60px;""> </div>","null","LF","learning/Slide120.JPG","This is a dep:","",""
"","html-keyboard-response","368","557253","0.0-8.0-0.40","LF","0ypu8hv44k","1280","720","de","en06oi05","null","","","","learningBlock2","","","","This is a bim:","null","","","","",""
"","image-keyboard-response","369","557580","0.0-8.0-1.40","LF","0ypu8hv44k","1280","720","de","en06oi05","null","","","","","","","","learning/Slide121.JPG","null","","","","",""
"","html-keyboard-response","370","558589","0.0-8.0-2.40","LF","0ypu8hv44k","1280","720","de","en06oi05","null","","","","learningBlock2","","","","<div style=""font-size:60px;""> </div>","null","LF","learning/Slide121.JPG","This is a bim:","",""
"","html-keyboard-response","371","559597","0.0-8.0-0.41","LF","0ypu8hv44k","1280","720","de","en06oi05","null","","","","learningBlock2","","","","This is a wug:","null","","","","",""
"","image-keyboard-response","372","559925","0.0-8.0-1.41","LF","0ypu8hv44k","1280","720","de","en06oi05","null","","","","","","","","learning/Slide122.JPG","null","","","","",""
"","html-keyboard-response","373","560933","0.0-8.0-2.41","LF","0ypu8hv44k","1280","720","de","en06oi05","null","","","","learningBlock2","","","","<div style=""font-size:60px;""> </div>","null","LF","learning/Slide122.JPG","This is a wug:","",""
"","html-keyboard-response","374","561941","0.0-8.0-0.42","LF","0ypu8hv44k","1280","720","de","en06oi05","null","","","","learningBlock2","","","","This is a bim:","null","","","","",""
"","image-keyboard-response","375","562269","0.0-8.0-1.42","LF","0ypu8hv44k","1280","720","de","en06oi05","null","","","","","","","","learning/Slide123.JPG","null","","","","",""
"","html-keyboard-response","376","563277","0.0-8.0-2.42","LF","0ypu8hv44k","1280","720","de","en06oi05","null","","","","learningBlock2","","","","<div style=""font-size:60px;""> </div>","null","LF","learning/Slide123.JPG","This is a bim:","",""
"","html-keyboard-response","377","564285","0.0-8.0-0.43","LF","0ypu8hv44k","1280","720","de","en06oi05","null","","","","learningBlock2","","","","This is a tob:","null","","","","",""
"","image-keyboard-response","378","564613","0.0-8.0-1.43","LF","0ypu8hv44k","1280","720","de","en06oi05","null","","","","","","","","learning/Slide124.JPG","null","","","","",""
"","html-keyboard-response","379","565622","0.0-8.0-2.43","LF","0ypu8hv44k","1280","720","de","en06oi05","null","","","","learningBlock2","","","","<div style=""font-size:60px;""> </div>","null","LF","learning/Slide124.JPG","This is a tob:","",""
"","html-keyboard-response","380","566630","0.0-8.0-0.44","LF","0ypu8hv44k","1280","720","de","en06oi05","null","","","","learningBlock2","","","","This is a bim:","null","","","","",""
"","image-keyboard-response","381","566957","0.0-8.0-1.44","LF","0ypu8hv44k","1280","720","de","en06oi05","null","","","","","","","","learning/Slide125.JPG","null","","","","",""
"","html-keyboard-response","382","567966","0.0-8.0-2.44","LF","0ypu8hv44k","1280","720","de","en06oi05","null","","","","learningBlock2","","","","<div style=""font-size:60px;""> </div>","null","LF","learning/Slide125.JPG","This is a bim:","",""
"","html-keyboard-response","383","568974","0.0-8.0-0.45","LF","0ypu8hv44k","1280","720","de","en06oi05","null","","","","learningBlock2","","","","This is a tob:","null","","","","",""
"","image-keyboard-response","384","569302","0.0-8.0-1.45","LF","0ypu8hv44k","1280","720","de","en06oi05","null","","","","","","","","learning/Slide126.JPG","null","","","","",""
"","html-keyboard-response","385","570310","0.0-8.0-2.45","LF","0ypu8hv44k","1280","720","de","en06oi05","null","","","","learningBlock2","","","","<div style=""font-size:60px;""> </div>","null","LF","learning/Slide126.JPG","This is a tob:","",""
"","html-keyboard-response","386","571319","0.0-8.0-0.46","LF","0ypu8hv44k","1280","720","de","en06oi05","null","","","","learningBlock2","","","","This is a dep:","null","","","","",""
"","image-keyboard-response","387","571646","0.0-8.0-1.46","LF","0ypu8hv44k","1280","720","de","en06oi05","null","","","","","","","","learning/Slide127.JPG","null","","","","",""
"","html-keyboard-response","388","572654","0.0-8.0-2.46","LF","0ypu8hv44k","1280","720","de","en06oi05","null","","","","learningBlock2","","","","<div style=""font-size:60px;""> </div>","null","LF","learning/Slide127.JPG","This is a dep:","",""
"","html-keyboard-response","389","573663","0.0-8.0-0.47","LF","0ypu8hv44k","1280","720","de","en06oi05","null","","","","learningBlock2","","","","This is a wug:","null","","","","",""
"","image-keyboard-response","390","573990","0.0-8.0-1.47","LF","0ypu8hv44k","1280","720","de","en06oi05","null","","","","","","","","learning/Slide128.JPG","null","","","","",""
"","html-keyboard-response","391","574998","0.0-8.0-2.47","LF","0ypu8hv44k","1280","720","de","en06oi05","null","","","","learningBlock2","","","","<div style=""font-size:60px;""> </div>","null","LF","learning/Slide128.JPG","This is a wug:","",""
"","html-keyboard-response","392","576007","0.0-8.0-0.48","LF","0ypu8hv44k","1280","720","de","en06oi05","null","","","","learningBlock2","","","","This is a tob:","null","","","","",""
"","image-keyboard-response","393","576335","0.0-8.0-1.48","LF","0ypu8hv44k","1280","720","de","en06oi05","null","","","","","","","","learning/Slide129.JPG","null","","","","",""
"","html-keyboard-response","394","577343","0.0-8.0-2.48","LF","0ypu8hv44k","1280","720","de","en06oi05","null","","","","learningBlock2","","","","<div style=""font-size:60px;""> </div>","null","LF","learning/Slide129.JPG","This is a tob:","",""
"","html-keyboard-response","395","578351","0.0-8.0-0.49","LF","0ypu8hv44k","1280","720","de","en06oi05","null","","","","learningBlock2","","","","This is a wug:","null","","","","",""
"","image-keyboard-response","396","578679","0.0-8.0-1.49","LF","0ypu8hv44k","1280","720","de","en06oi05","null","","","","","","","","learning/Slide130.JPG","null","","","","",""
"","html-keyboard-response","397","579687","0.0-8.0-2.49","LF","0ypu8hv44k","1280","720","de","en06oi05","null","","","","learningBlock2","","","","<div style=""font-size:60px;""> </div>","null","LF","learning/Slide130.JPG","This is a wug:","",""
"","html-keyboard-response","398","580695","0.0-8.0-0.50","LF","0ypu8hv44k","1280","720","de","en06oi05","null","","","","learningBlock2","","","","This is a bim:","null","","","","",""
"","image-keyboard-response","399","581023","0.0-8.0-1.50","LF","0ypu8hv44k","1280","720","de","en06oi05","null","","","","","","","","learning/Slide131.JPG","null","","","","",""
"","html-keyboard-response","400","582031","0.0-8.0-2.50","LF","0ypu8hv44k","1280","720","de","en06oi05","null","","","","learningBlock2","","","","<div style=""font-size:60px;""> </div>","null","LF","learning/Slide131.JPG","This is a bim:","",""
"","html-keyboard-response","401","583039","0.0-8.0-0.51","LF","0ypu8hv44k","1280","720","de","en06oi05","null","","","","learningBlock2","","","","This is a dep:","null","","","","",""
"","image-keyboard-response","402","583367","0.0-8.0-1.51","LF","0ypu8hv44k","1280","720","de","en06oi05","null","","","","","","","","learning/Slide132.JPG","null","","","","",""
"","html-keyboard-response","403","584376","0.0-8.0-2.51","LF","0ypu8hv44k","1280","720","de","en06oi05","null","","","","learningBlock2","","","","<div style=""font-size:60px;""> </div>","null","LF","learning/Slide132.JPG","This is a dep:","",""
"","html-keyboard-response","404","585384","0.0-8.0-0.52","LF","0ypu8hv44k","1280","720","de","en06oi05","null","","","","learningBlock2","","","","This is a tob:","null","","","","",""
"","image-keyboard-response","405","585712","0.0-8.0-1.52","LF","0ypu8hv44k","1280","720","de","en06oi05","null","","","","","","","","learning/Slide133.JPG","null","","","","",""
"","html-keyboard-response","406","586720","0.0-8.0-2.52","LF","0ypu8hv44k","1280","720","de","en06oi05","null","","","","learningBlock2","","","","<div style=""font-size:60px;""> </div>","null","LF","learning/Slide133.JPG","This is a tob:","",""
"","html-keyboard-response","407","587728","0.0-8.0-0.53","LF","0ypu8hv44k","1280","720","de","en06oi05","null","","","","learningBlock2","","","","This is a dep:","null","","","","",""
"","image-keyboard-response","408","588056","0.0-8.0-1.53","LF","0ypu8hv44k","1280","720","de","en06oi05","null","","","","","","","","learning/Slide134.JPG","null","","","","",""
"","html-keyboard-response","409","589064","0.0-8.0-2.53","LF","0ypu8hv44k","1280","720","de","en06oi05","null","","","","learningBlock2","","","","<div style=""font-size:60px;""> </div>","null","LF","learning/Slide134.JPG","This is a dep:","",""
"","html-keyboard-response","410","590072","0.0-8.0-0.54","LF","0ypu8hv44k","1280","720","de","en06oi05","null","","","","learningBlock2","","","","This is a tob:","null","","","","",""
"","image-keyboard-response","411","590400","0.0-8.0-1.54","LF","0ypu8hv44k","1280","720","de","en06oi05","null","","","","","","","","learning/Slide135.JPG","null","","","","",""
"","html-keyboard-response","412","591408","0.0-8.0-2.54","LF","0ypu8hv44k","1280","720","de","en06oi05","null","","","","learningBlock2","","","","<div style=""font-size:60px;""> </div>","null","LF","learning/Slide135.JPG","This is a tob:","",""
"","html-keyboard-response","413","592417","0.0-8.0-0.55","LF","0ypu8hv44k","1280","720","de","en06oi05","null","","","","learningBlock2","","","","This is a wug:","null","","","","",""
"","image-keyboard-response","414","592745","0.0-8.0-1.55","LF","0ypu8hv44k","1280","720","de","en06oi05","null","","","","","","","","learning/Slide136.JPG","null","","","","",""
"","html-keyboard-response","415","593753","0.0-8.0-2.55","LF","0ypu8hv44k","1280","720","de","en06oi05","null","","","","learningBlock2","","","","<div style=""font-size:60px;""> </div>","null","LF","learning/Slide136.JPG","This is a wug:","",""
"","html-keyboard-response","416","594762","0.0-8.0-0.56","LF","0ypu8hv44k","1280","720","de","en06oi05","null","","","","learningBlock2","","","","This is a tob:","null","","","","",""
"","image-keyboard-response","417","595089","0.0-8.0-1.56","LF","0ypu8hv44k","1280","720","de","en06oi05","null","","","","","","","","learning/Slide137.JPG","null","","","","",""
"","html-keyboard-response","418","596097","0.0-8.0-2.56","LF","0ypu8hv44k","1280","720","de","en06oi05","null","","","","learningBlock2","","","","<div style=""font-size:60px;""> </div>","null","LF","learning/Slide137.JPG","This is a tob:","",""
"","html-keyboard-response","419","597106","0.0-8.0-0.57","LF","0ypu8hv44k","1280","720","de","en06oi05","null","","","","learningBlock2","","","","This is a bim:","null","","","","",""
"","image-keyboard-response","420","597433","0.0-8.0-1.57","LF","0ypu8hv44k","1280","720","de","en06oi05","null","","","","","","","","learning/Slide138.JPG","null","","","","",""
"","html-keyboard-response","421","598442","0.0-8.0-2.57","LF","0ypu8hv44k","1280","720","de","en06oi05","null","","","","learningBlock2","","","","<div style=""font-size:60px;""> </div>","null","LF","learning/Slide138.JPG","This is a bim:","",""
"","html-keyboard-response","422","599450","0.0-8.0-0.58","LF","0ypu8hv44k","1280","720","de","en06oi05","null","","","","learningBlock2","","","","This is a wug:","null","","","","",""
"","image-keyboard-response","423","599778","0.0-8.0-1.58","LF","0ypu8hv44k","1280","720","de","en06oi05","null","","","","","","","","learning/Slide139.JPG","null","","","","",""
"","html-keyboard-response","424","600786","0.0-8.0-2.58","LF","0ypu8hv44k","1280","720","de","en06oi05","null","","","","learningBlock2","","","","<div style=""font-size:60px;""> </div>","null","LF","learning/Slide139.JPG","This is a wug:","",""
"","html-keyboard-response","425","601794","0.0-8.0-0.59","LF","0ypu8hv44k","1280","720","de","en06oi05","null","","","","learningBlock2","","","","This is a dep:","null","","","","",""
"","image-keyboard-response","426","602122","0.0-8.0-1.59","LF","0ypu8hv44k","1280","720","de","en06oi05","null","","","","","","","","learning/Slide140.JPG","null","","","","",""
"","html-keyboard-response","427","603130","0.0-8.0-2.59","LF","0ypu8hv44k","1280","720","de","en06oi05","null","","","","learningBlock2","","","","<div style=""font-size:60px;""> </div>","null","LF","learning/Slide140.JPG","This is a dep:","",""
"","html-keyboard-response","428","604138","0.0-8.0-0.60","LF","0ypu8hv44k","1280","720","de","en06oi05","null","","","","learningBlock2","","","","This is a tob:","null","","","","",""
"","image-keyboard-response","429","604466","0.0-8.0-1.60","LF","0ypu8hv44k","1280","720","de","en06oi05","null","","","","","","","","learning/Slide141.JPG","null","","","","",""
"","html-keyboard-response","430","605474","0.0-8.0-2.60","LF","0ypu8hv44k","1280","720","de","en06oi05","null","","","","learningBlock2","","","","<div style=""font-size:60px;""> </div>","null","LF","learning/Slide141.JPG","This is a tob:","",""
"","html-keyboard-response","431","606477","0.0-8.0-0.61","LF","0ypu8hv44k","1280","720","de","en06oi05","null","","","","learningBlock2","","","","This is a wug:","null","","","","",""
"","image-keyboard-response","432","606805","0.0-8.0-1.61","LF","0ypu8hv44k","1280","720","de","en06oi05","null","","","","","","","","learning/Slide142.JPG","null","","","","",""
"","html-keyboard-response","433","607813","0.0-8.0-2.61","LF","0ypu8hv44k","1280","720","de","en06oi05","null","","","","learningBlock2","","","","<div style=""font-size:60px;""> </div>","null","LF","learning/Slide142.JPG","This is a wug:","",""
"","html-keyboard-response","434","608821","0.0-8.0-0.62","LF","0ypu8hv44k","1280","720","de","en06oi05","null","","","","learningBlock2","","","","This is a bim:","null","","","","",""
"","image-keyboard-response","435","609149","0.0-8.0-1.62","LF","0ypu8hv44k","1280","720","de","en06oi05","null","","","","","","","","learning/Slide143.JPG","null","","","","",""
"","html-keyboard-response","436","610151","0.0-8.0-2.62","LF","0ypu8hv44k","1280","720","de","en06oi05","null","","","","learningBlock2","","","","<div style=""font-size:60px;""> </div>","null","LF","learning/Slide143.JPG","This is a bim:","",""
"","html-keyboard-response","437","611157","0.0-8.0-0.63","LF","0ypu8hv44k","1280","720","de","en06oi05","null","","","","learningBlock2","","","","This is a dep:","null","","","","",""
"","image-keyboard-response","438","611484","0.0-8.0-1.63","LF","0ypu8hv44k","1280","720","de","en06oi05","null","","","","","","","","learning/Slide144.JPG","null","","","","",""
"","html-keyboard-response","439","612492","0.0-8.0-2.63","LF","0ypu8hv44k","1280","720","de","en06oi05","null","","","","learningBlock2","","","","<div style=""font-size:60px;""> </div>","null","LF","learning/Slide144.JPG","This is a dep:","",""
"","html-keyboard-response","440","613501","0.0-8.0-0.64","LF","0ypu8hv44k","1280","720","de","en06oi05","null","","","","learningBlock2","","","","This is a bim:","null","","","","",""
"","image-keyboard-response","441","613829","0.0-8.0-1.64","LF","0ypu8hv44k","1280","720","de","en06oi05","null","","","","","","","","learning/Slide145.JPG","null","","","","",""
"","html-keyboard-response","442","614837","0.0-8.0-2.64","LF","0ypu8hv44k","1280","720","de","en06oi05","null","","","","learningBlock2","","","","<div style=""font-size:60px;""> </div>","null","LF","learning/Slide145.JPG","This is a bim:","",""
"","html-keyboard-response","443","615845","0.0-8.0-0.65","LF","0ypu8hv44k","1280","720","de","en06oi05","null","","","","learningBlock2","","","","This is a tob:","null","","","","",""
"","image-keyboard-response","444","616173","0.0-8.0-1.65","LF","0ypu8hv44k","1280","720","de","en06oi05","null","","","","","","","","learning/Slide146.JPG","null","","","","",""
"","html-keyboard-response","445","617181","0.0-8.0-2.65","LF","0ypu8hv44k","1280","720","de","en06oi05","null","","","","learningBlock2","","","","<div style=""font-size:60px;""> </div>","null","LF","learning/Slide146.JPG","This is a tob:","",""
"","html-keyboard-response","446","618189","0.0-8.0-0.66","LF","0ypu8hv44k","1280","720","de","en06oi05","null","","","","learningBlock2","","","","This is a wug:","null","","","","",""
"","image-keyboard-response","447","618517","0.0-8.0-1.66","LF","0ypu8hv44k","1280","720","de","en06oi05","null","","","","","","","","learning/Slide147.JPG","null","","","","",""
"","html-keyboard-response","448","619525","0.0-8.0-2.66","LF","0ypu8hv44k","1280","720","de","en06oi05","null","","","","learningBlock2","","","","<div style=""font-size:60px;""> </div>","null","LF","learning/Slide147.JPG","This is a wug:","",""
"","html-keyboard-response","449","620534","0.0-8.0-0.67","LF","0ypu8hv44k","1280","720","de","en06oi05","null","","","","learningBlock2","","","","This is a bim:","null","","","","",""
"","image-keyboard-response","450","620861","0.0-8.0-1.67","LF","0ypu8hv44k","1280","720","de","en06oi05","null","","","","","","","","learning/Slide148.JPG","null","","","","",""
"","html-keyboard-response","451","621869","0.0-8.0-2.67","LF","0ypu8hv44k","1280","720","de","en06oi05","null","","","","learningBlock2","","","","<div style=""font-size:60px;""> </div>","null","LF","learning/Slide148.JPG","This is a bim:","",""
"","html-keyboard-response","452","622878","0.0-8.0-0.68","LF","0ypu8hv44k","1280","720","de","en06oi05","null","","","","learningBlock2","","","","This is a dep:","null","","","","",""
"","image-keyboard-response","453","623206","0.0-8.0-1.68","LF","0ypu8hv44k","1280","720","de","en06oi05","null","","","","","","","","learning/Slide149.JPG","null","","","","",""
"","html-keyboard-response","454","624213","0.0-8.0-2.68","LF","0ypu8hv44k","1280","720","de","en06oi05","null","","","","learningBlock2","","","","<div style=""font-size:60px;""> </div>","null","LF","learning/Slide149.JPG","This is a dep:","",""
"","html-keyboard-response","455","625222","0.0-8.0-0.69","LF","0ypu8hv44k","1280","720","de","en06oi05","null","","","","learningBlock2","","","","This is a wug:","null","","","","",""
"","image-keyboard-response","456","625550","0.0-8.0-1.69","LF","0ypu8hv44k","1280","720","de","en06oi05","null","","","","","","","","learning/Slide150.JPG","null","","","","",""
"","html-keyboard-response","457","626558","0.0-8.0-2.69","LF","0ypu8hv44k","1280","720","de","en06oi05","null","","","","learningBlock2","","","","<div style=""font-size:60px;""> </div>","null","LF","learning/Slide150.JPG","This is a wug:","",""
"","html-keyboard-response","458","627566","0.0-8.0-0.70","LF","0ypu8hv44k","1280","720","de","en06oi05","null","","","","learningBlock2","","","","This is a dep:","null","","","","",""
"","image-keyboard-response","459","627894","0.0-8.0-1.70","LF","0ypu8hv44k","1280","720","de","en06oi05","null","","","","","","","","learning/Slide151.JPG","null","","","","",""
"","html-keyboard-response","460","628903","0.0-8.0-2.70","LF","0ypu8hv44k","1280","720","de","en06oi05","null","","","","learningBlock2","","","","<div style=""font-size:60px;""> </div>","null","LF","learning/Slide151.JPG","This is a dep:","",""
"","html-keyboard-response","461","629910","0.0-8.0-0.71","LF","0ypu8hv44k","1280","720","de","en06oi05","null","","","","learningBlock2","","","","This is a wug:","null","","","","",""
"","image-keyboard-response","462","630238","0.0-8.0-1.71","LF","0ypu8hv44k","1280","720","de","en06oi05","null","","","","","","","","learning/Slide152.JPG","null","","","","",""
"","html-keyboard-response","463","631244","0.0-8.0-2.71","LF","0ypu8hv44k","1280","720","de","en06oi05","null","","","","learningBlock2","","","","<div style=""font-size:60px;""> </div>","null","LF","learning/Slide152.JPG","This is a wug:","",""
"","html-keyboard-response","464","632252","0.0-8.0-0.72","LF","0ypu8hv44k","1280","720","de","en06oi05","null","","","","learningBlock2","","","","This is a bim:","null","","","","",""
"","image-keyboard-response","465","632580","0.0-8.0-1.72","LF","0ypu8hv44k","1280","720","de","en06oi05","null","","","","","","","","learning/Slide153.JPG","null","","","","",""
"","html-keyboard-response","466","633588","0.0-8.0-2.72","LF","0ypu8hv44k","1280","720","de","en06oi05","null","","","","learningBlock2","","","","<div style=""font-size:60px;""> </div>","null","LF","learning/Slide153.JPG","This is a bim:","",""
"","html-keyboard-response","467","634597","0.0-8.0-0.73","LF","0ypu8hv44k","1280","720","de","en06oi05","null","","","","learningBlock2","","","","This is a tob:","null","","","","",""
"","image-keyboard-response","468","634932","0.0-8.0-1.73","LF","0ypu8hv44k","1280","720","de","en06oi05","null","","","","","","","","learning/Slide154.JPG","null","","","","",""
"","html-keyboard-response","469","635940","0.0-8.0-2.73","LF","0ypu8hv44k","1280","720","de","en06oi05","null","","","","learningBlock2","","","","<div style=""font-size:60px;""> </div>","null","LF","learning/Slide154.JPG","This is a tob:","",""
"","html-keyboard-response","470","636949","0.0-8.0-0.74","LF","0ypu8hv44k","1280","720","de","en06oi05","null","","","","learningBlock2","","","","This is a dep:","null","","","","",""
"","image-keyboard-response","471","637277","0.0-8.0-1.74","LF","0ypu8hv44k","1280","720","de","en06oi05","null","","","","","","","","learning/Slide155.JPG","null","","","","",""
"","html-keyboard-response","472","638285","0.0-8.0-2.74","LF","0ypu8hv44k","1280","720","de","en06oi05","null","","","","learningBlock2","","","","<div style=""font-size:60px;""> </div>","null","LF","learning/Slide155.JPG","This is a dep:","",""
"","html-keyboard-response","473","639293","0.0-8.0-0.75","LF","0ypu8hv44k","1280","720","de","en06oi05","null","","","","learningBlock2","","","","This is a bim:","null","","","","",""
"","image-keyboard-response","474","639622","0.0-8.0-1.75","LF","0ypu8hv44k","1280","720","de","en06oi05","null","","","","","","","","learning/Slide156.JPG","null","","","","",""
"","html-keyboard-response","475","640638","0.0-8.0-2.75","LF","0ypu8hv44k","1280","720","de","en06oi05","null","","","","learningBlock2","","","","<div style=""font-size:60px;""> </div>","null","LF","learning/Slide156.JPG","This is a bim:","",""
"","html-keyboard-response","476","641642","0.0-8.0-0.76","LF","0ypu8hv44k","1280","720","de","en06oi05","null","","","","learningBlock2","","","","This is a dep:","null","","","","",""
"","image-keyboard-response","477","641977","0.0-8.0-1.76","LF","0ypu8hv44k","1280","720","de","en06oi05","null","","","","","","","","learning/Slide157.JPG","null","","","","",""
"","html-keyboard-response","478","642986","0.0-8.0-2.76","LF","0ypu8hv44k","1280","720","de","en06oi05","null","","","","learningBlock2","","","","<div style=""font-size:60px;""> </div>","null","LF","learning/Slide157.JPG","This is a dep:","",""
"","html-keyboard-response","479","643994","0.0-8.0-0.77","LF","0ypu8hv44k","1280","720","de","en06oi05","null","","","","learningBlock2","","","","This is a tob:","null","","","","",""
"","image-keyboard-response","480","644322","0.0-8.0-1.77","LF","0ypu8hv44k","1280","720","de","en06oi05","null","","","","","","","","learning/Slide158.JPG","null","","","","",""
"","html-keyboard-response","481","645330","0.0-8.0-2.77","LF","0ypu8hv44k","1280","720","de","en06oi05","null","","","","learningBlock2","","","","<div style=""font-size:60px;""> </div>","null","LF","learning/Slide158.JPG","This is a tob:","",""
"","html-keyboard-response","482","646338","0.0-8.0-0.78","LF","0ypu8hv44k","1280","720","de","en06oi05","null","","","","learningBlock2","","","","This is a dep:","null","","","","",""
"","image-keyboard-response","483","646666","0.0-8.0-1.78","LF","0ypu8hv44k","1280","720","de","en06oi05","null","","","","","","","","learning/Slide159.JPG","null","","","","",""
"","html-keyboard-response","484","647674","0.0-8.0-2.78","LF","0ypu8hv44k","1280","720","de","en06oi05","null","","","","learningBlock2","","","","<div style=""font-size:60px;""> </div>","null","LF","learning/Slide159.JPG","This is a dep:","",""
"","html-keyboard-response","485","648683","0.0-8.0-0.79","LF","0ypu8hv44k","1280","720","de","en06oi05","null","","","","learningBlock2","","","","This is a wug:","null","","","","",""
"","image-keyboard-response","486","649019","0.0-8.0-1.79","LF","0ypu8hv44k","1280","720","de","en06oi05","null","","","","","","","","learning/Slide160.JPG","null","","","","",""
"","html-keyboard-response","487","650026","0.0-8.0-2.79","LF","0ypu8hv44k","1280","720","de","en06oi05","null","","","","learningBlock2","","","","<div style=""font-size:60px;""> </div>","null","LF","learning/Slide160.JPG","This is a wug:","",""
"","resize2","488","653934","0.0-9.0","LF","0ypu8hv44k","1280","720","de","en06oi05","","","","","","","104","1.04","","","","","","",""
"","instructions","489","661673","0.0-10.0","LF","0ypu8hv44k","1280","720","de","en06oi05","NA","","","[{""page_index"":0,""viewing_time"":7738.25500003295}]","instructions","","","","","","","","","",""
