"success","trial_type","trial_index","time_elapsed","internal_node_id","condition","subject","screen_width","screen_height","language","codeword","rt","responses","url","view_history","test_part","final_height_px","final_width_px","scale_factor","stimulus","key_press","learningType","presentedImage","presentedLabel","button_pressed","response"
"true","fullscreen","0","8794","0.0-0.0","LF","l2tdyj71gq","1920","1080","de","er04as06","","","","","","","","","","","","","","",""
"","survey-html-form","1","17037","0.0-1.0","LF","l2tdyj71gq","1920","1080","de","er04as06","8235","{""language"":""de""}","","","","","","","","","","","","",""
"","external-html","2","94576","0.0-2.0-0.0","LF","l2tdyj71gq","1920","1080","de","er04as06","77299","","text/information.html","","","","","","","","","","","",""
"","external-html","3","116813","0.0-2.0-1.0","LF","l2tdyj71gq","1920","1080","de","er04as06","22040","","text/consent.html","","","","","","","","","","","",""
"","survey-html-form","4","181594","0.0-2.0-2.0","LF","l2tdyj71gq","1920","1080","de","er04as06","64772","{""codeword_enter"":""er04as06""}","","","","","","","","","","","","",""
"","instructions","5","198708","0.0-4.0","LF","l2tdyj71gq","1920","1080","de","er04as06","NA","","","[{""page_index"":0,""viewing_time"":2480},{""page_index"":1,""viewing_time"":13126}]","instructions","","","","","","","","","",""
"","resize","6","232092","0.0-5.0","LF","l2tdyj71gq","1920","1080","de","er04as06","","","","","","","470","2.9841269841269837","","","","","","",""
"","html-keyboard-response","7","233097","0.0-6.0-0.0","LF","l2tdyj71gq","1920","1080","de","er04as06","null","","","","learningBlock1","","","","This is a tob:","null","","","","",""
"","image-keyboard-response","8","233426","0.0-6.0-1.0","LF","l2tdyj71gq","1920","1080","de","er04as06","null","","","","","","","","learning/Slide1.JPG","null","","","","",""
"","html-keyboard-response","9","234429","0.0-6.0-2.0","LF","l2tdyj71gq","1920","1080","de","er04as06","null","","","","learningBlock1","","","","<div style=""font-size:60px;""> </div>","null","LF","learning/Slide1.JPG","This is a tob:","",""
"","html-keyboard-response","10","235432","0.0-6.0-0.1","LF","l2tdyj71gq","1920","1080","de","er04as06","null","","","","learningBlock1","","","","This is a wug:","null","","","","",""
"","image-keyboard-response","11","235761","0.0-6.0-1.1","LF","l2tdyj71gq","1920","1080","de","er04as06","null","","","","","","","","learning/Slide2.JPG","null","","","","",""
"","html-keyboard-response","12","236763","0.0-6.0-2.1","LF","l2tdyj71gq","1920","1080","de","er04as06","null","","","","learningBlock1","","","","<div style=""font-size:60px;""> </div>","null","LF","learning/Slide2.JPG","This is a wug:","",""
"","html-keyboard-response","13","237765","0.0-6.0-0.2","LF","l2tdyj71gq","1920","1080","de","er04as06","null","","","","learningBlock1","","","","This is a bim:","null","","","","",""
"","image-keyboard-response","14","238094","0.0-6.0-1.2","LF","l2tdyj71gq","1920","1080","de","er04as06","null","","","","","","","","learning/Slide3.JPG","null","","","","",""
"","html-keyboard-response","15","239096","0.0-6.0-2.2","LF","l2tdyj71gq","1920","1080","de","er04as06","null","","","","learningBlock1","","","","<div style=""font-size:60px;""> </div>","null","LF","learning/Slide3.JPG","This is a bim:","",""
"","html-keyboard-response","16","240098","0.0-6.0-0.3","LF","l2tdyj71gq","1920","1080","de","er04as06","null","","","","learningBlock1","","","","This is a dep:","null","","","","",""
"","image-keyboard-response","17","240426","0.0-6.0-1.3","LF","l2tdyj71gq","1920","1080","de","er04as06","null","","","","","","","","learning/Slide4.JPG","null","","","","",""
"","html-keyboard-response","18","241428","0.0-6.0-2.3","LF","l2tdyj71gq","1920","1080","de","er04as06","null","","","","learningBlock1","","","","<div style=""font-size:60px;""> </div>","null","LF","learning/Slide4.JPG","This is a dep:","",""
"","html-keyboard-response","19","242430","0.0-6.0-0.4","LF","l2tdyj71gq","1920","1080","de","er04as06","null","","","","learningBlock1","","","","This is a wug:","null","","","","",""
"","image-keyboard-response","20","242757","0.0-6.0-1.4","LF","l2tdyj71gq","1920","1080","de","er04as06","null","","","","","","","","learning/Slide5.JPG","null","","","","",""
"","html-keyboard-response","21","243759","0.0-6.0-2.4","LF","l2tdyj71gq","1920","1080","de","er04as06","null","","","","learningBlock1","","","","<div style=""font-size:60px;""> </div>","null","LF","learning/Slide5.JPG","This is a wug:","",""
"","html-keyboard-response","22","244762","0.0-6.0-0.5","LF","l2tdyj71gq","1920","1080","de","er04as06","null","","","","learningBlock1","","","","This is a dep:","null","","","","",""
"","image-keyboard-response","23","245089","0.0-6.0-1.5","LF","l2tdyj71gq","1920","1080","de","er04as06","null","","","","","","","","learning/Slide6.JPG","null","","","","",""
"","html-keyboard-response","24","246091","0.0-6.0-2.5","LF","l2tdyj71gq","1920","1080","de","er04as06","null","","","","learningBlock1","","","","<div style=""font-size:60px;""> </div>","null","LF","learning/Slide6.JPG","This is a dep:","",""
"","html-keyboard-response","25","247093","0.0-6.0-0.6","LF","l2tdyj71gq","1920","1080","de","er04as06","null","","","","learningBlock1","","","","This is a wug:","null","","","","",""
"","image-keyboard-response","26","247420","0.0-6.0-1.6","LF","l2tdyj71gq","1920","1080","de","er04as06","null","","","","","","","","learning/Slide7.JPG","null","","","","",""
"","html-keyboard-response","27","248422","0.0-6.0-2.6","LF","l2tdyj71gq","1920","1080","de","er04as06","null","","","","learningBlock1","","","","<div style=""font-size:60px;""> </div>","null","LF","learning/Slide7.JPG","This is a wug:","",""
"","html-keyboard-response","28","249423","0.0-6.0-0.7","LF","l2tdyj71gq","1920","1080","de","er04as06","null","","","","learningBlock1","","","","This is a bim:","null","","","","",""
"","image-keyboard-response","29","249751","0.0-6.0-1.7","LF","l2tdyj71gq","1920","1080","de","er04as06","null","","","","","","","","learning/Slide8.JPG","null","","","","",""
"","html-keyboard-response","30","250753","0.0-6.0-2.7","LF","l2tdyj71gq","1920","1080","de","er04as06","null","","","","learningBlock1","","","","<div style=""font-size:60px;""> </div>","null","LF","learning/Slide8.JPG","This is a bim:","",""
"","html-keyboard-response","31","251755","0.0-6.0-0.8","LF","l2tdyj71gq","1920","1080","de","er04as06","null","","","","learningBlock1","","","","This is a wug:","null","","","","",""
"","image-keyboard-response","32","252083","0.0-6.0-1.8","LF","l2tdyj71gq","1920","1080","de","er04as06","null","","","","","","","","learning/Slide9.JPG","null","","","","",""
"","html-keyboard-response","33","253086","0.0-6.0-2.8","LF","l2tdyj71gq","1920","1080","de","er04as06","null","","","","learningBlock1","","","","<div style=""font-size:60px;""> </div>","null","LF","learning/Slide9.JPG","This is a wug:","",""
"","html-keyboard-response","34","254087","0.0-6.0-0.9","LF","l2tdyj71gq","1920","1080","de","er04as06","null","","","","learningBlock1","","","","This is a dep:","null","","","","",""
"","image-keyboard-response","35","254416","0.0-6.0-1.9","LF","l2tdyj71gq","1920","1080","de","er04as06","null","","","","","","","","learning/Slide10.JPG","null","","","","",""
"","html-keyboard-response","36","255418","0.0-6.0-2.9","LF","l2tdyj71gq","1920","1080","de","er04as06","null","","","","learningBlock1","","","","<div style=""font-size:60px;""> </div>","null","LF","learning/Slide10.JPG","This is a dep:","",""
"","html-keyboard-response","37","256419","0.0-6.0-0.10","LF","l2tdyj71gq","1920","1080","de","er04as06","null","","","","learningBlock1","","","","This is a tob:","null","","","","",""
"","image-keyboard-response","38","256747","0.0-6.0-1.10","LF","l2tdyj71gq","1920","1080","de","er04as06","null","","","","","","","","learning/Slide11.JPG","null","","","","",""
"","html-keyboard-response","39","257749","0.0-6.0-2.10","LF","l2tdyj71gq","1920","1080","de","er04as06","null","","","","learningBlock1","","","","<div style=""font-size:60px;""> </div>","null","LF","learning/Slide11.JPG","This is a tob:","",""
"","html-keyboard-response","40","258751","0.0-6.0-0.11","LF","l2tdyj71gq","1920","1080","de","er04as06","null","","","","learningBlock1","","","","This is a dep:","null","","","","",""
"","image-keyboard-response","41","259079","0.0-6.0-1.11","LF","l2tdyj71gq","1920","1080","de","er04as06","null","","","","","","","","learning/Slide12.JPG","null","","","","",""
"","html-keyboard-response","42","260080","0.0-6.0-2.11","LF","l2tdyj71gq","1920","1080","de","er04as06","null","","","","learningBlock1","","","","<div style=""font-size:60px;""> </div>","null","LF","learning/Slide12.JPG","This is a dep:","",""
"","html-keyboard-response","43","261082","0.0-6.0-0.12","LF","l2tdyj71gq","1920","1080","de","er04as06","null","","","","learningBlock1","","","","This is a bim:","null","","","","",""
"","image-keyboard-response","44","261410","0.0-6.0-1.12","LF","l2tdyj71gq","1920","1080","de","er04as06","null","","","","","","","","learning/Slide13.JPG","null","","","","",""
"","html-keyboard-response","45","262411","0.0-6.0-2.12","LF","l2tdyj71gq","1920","1080","de","er04as06","null","","","","learningBlock1","","","","<div style=""font-size:60px;""> </div>","null","LF","learning/Slide13.JPG","This is a bim:","",""
"","html-keyboard-response","46","263414","0.0-6.0-0.13","LF","l2tdyj71gq","1920","1080","de","er04as06","null","","","","learningBlock1","","","","This is a wug:","null","","","","",""
"","image-keyboard-response","47","263740","0.0-6.0-1.13","LF","l2tdyj71gq","1920","1080","de","er04as06","null","","","","","","","","learning/Slide14.JPG","null","","","","",""
"","html-keyboard-response","48","264742","0.0-6.0-2.13","LF","l2tdyj71gq","1920","1080","de","er04as06","null","","","","learningBlock1","","","","<div style=""font-size:60px;""> </div>","null","LF","learning/Slide14.JPG","This is a wug:","",""
"","html-keyboard-response","49","265744","0.0-6.0-0.14","LF","l2tdyj71gq","1920","1080","de","er04as06","null","","","","learningBlock1","","","","This is a tob:","null","","","","",""
"","image-keyboard-response","50","266071","0.0-6.0-1.14","LF","l2tdyj71gq","1920","1080","de","er04as06","null","","","","","","","","learning/Slide15.JPG","null","","","","",""
"","html-keyboard-response","51","267072","0.0-6.0-2.14","LF","l2tdyj71gq","1920","1080","de","er04as06","null","","","","learningBlock1","","","","<div style=""font-size:60px;""> </div>","null","LF","learning/Slide15.JPG","This is a tob:","",""
"","html-keyboard-response","52","268074","0.0-6.0-0.15","LF","l2tdyj71gq","1920","1080","de","er04as06","null","","","","learningBlock1","","","","This is a dep:","null","","","","",""
"","image-keyboard-response","53","268402","0.0-6.0-1.15","LF","l2tdyj71gq","1920","1080","de","er04as06","null","","","","","","","","learning/Slide16.JPG","null","","","","",""
"","html-keyboard-response","54","269403","0.0-6.0-2.15","LF","l2tdyj71gq","1920","1080","de","er04as06","null","","","","learningBlock1","","","","<div style=""font-size:60px;""> </div>","null","LF","learning/Slide16.JPG","This is a dep:","",""
"","html-keyboard-response","55","270405","0.0-6.0-0.16","LF","l2tdyj71gq","1920","1080","de","er04as06","null","","","","learningBlock1","","","","This is a bim:","null","","","","",""
"","image-keyboard-response","56","270732","0.0-6.0-1.16","LF","l2tdyj71gq","1920","1080","de","er04as06","null","","","","","","","","learning/Slide17.JPG","null","","","","",""
"","html-keyboard-response","57","271734","0.0-6.0-2.16","LF","l2tdyj71gq","1920","1080","de","er04as06","null","","","","learningBlock1","","","","<div style=""font-size:60px;""> </div>","null","LF","learning/Slide17.JPG","This is a bim:","",""
"","html-keyboard-response","58","272736","0.0-6.0-0.17","LF","l2tdyj71gq","1920","1080","de","er04as06","null","","","","learningBlock1","","","","This is a tob:","null","","","","",""
"","image-keyboard-response","59","273064","0.0-6.0-1.17","LF","l2tdyj71gq","1920","1080","de","er04as06","null","","","","","","","","learning/Slide18.JPG","null","","","","",""
"","html-keyboard-response","60","274065","0.0-6.0-2.17","LF","l2tdyj71gq","1920","1080","de","er04as06","null","","","","learningBlock1","","","","<div style=""font-size:60px;""> </div>","null","LF","learning/Slide18.JPG","This is a tob:","",""
"","html-keyboard-response","61","275067","0.0-6.0-0.18","LF","l2tdyj71gq","1920","1080","de","er04as06","null","","","","learningBlock1","","","","This is a wug:","null","","","","",""
"","image-keyboard-response","62","275394","0.0-6.0-1.18","LF","l2tdyj71gq","1920","1080","de","er04as06","null","","","","","","","","learning/Slide19.JPG","null","","","","",""
"","html-keyboard-response","63","276396","0.0-6.0-2.18","LF","l2tdyj71gq","1920","1080","de","er04as06","null","","","","learningBlock1","","","","<div style=""font-size:60px;""> </div>","null","LF","learning/Slide19.JPG","This is a wug:","",""
"","html-keyboard-response","64","277398","0.0-6.0-0.19","LF","l2tdyj71gq","1920","1080","de","er04as06","null","","","","learningBlock1","","","","This is a bim:","null","","","","",""
"","image-keyboard-response","65","277726","0.0-6.0-1.19","LF","l2tdyj71gq","1920","1080","de","er04as06","null","","","","","","","","learning/Slide20.JPG","null","","","","",""
"","html-keyboard-response","66","278727","0.0-6.0-2.19","LF","l2tdyj71gq","1920","1080","de","er04as06","null","","","","learningBlock1","","","","<div style=""font-size:60px;""> </div>","null","LF","learning/Slide20.JPG","This is a bim:","",""
"","html-keyboard-response","67","279729","0.0-6.0-0.20","LF","l2tdyj71gq","1920","1080","de","er04as06","null","","","","learningBlock1","","","","This is a dep:","null","","","","",""
"","image-keyboard-response","68","280058","0.0-6.0-1.20","LF","l2tdyj71gq","1920","1080","de","er04as06","null","","","","","","","","learning/Slide21.JPG","null","","","","",""
"","html-keyboard-response","69","281059","0.0-6.0-2.20","LF","l2tdyj71gq","1920","1080","de","er04as06","null","","","","learningBlock1","","","","<div style=""font-size:60px;""> </div>","null","LF","learning/Slide21.JPG","This is a dep:","",""
"","html-keyboard-response","70","282060","0.0-6.0-0.21","LF","l2tdyj71gq","1920","1080","de","er04as06","null","","","","learningBlock1","","","","This is a bim:","null","","","","",""
"","image-keyboard-response","71","282388","0.0-6.0-1.21","LF","l2tdyj71gq","1920","1080","de","er04as06","null","","","","","","","","learning/Slide22.JPG","null","","","","",""
"","html-keyboard-response","72","283390","0.0-6.0-2.21","LF","l2tdyj71gq","1920","1080","de","er04as06","null","","","","learningBlock1","","","","<div style=""font-size:60px;""> </div>","null","LF","learning/Slide22.JPG","This is a bim:","",""
"","html-keyboard-response","73","284392","0.0-6.0-0.22","LF","l2tdyj71gq","1920","1080","de","er04as06","null","","","","learningBlock1","","","","This is a tob:","null","","","","",""
"","image-keyboard-response","74","284719","0.0-6.0-1.22","LF","l2tdyj71gq","1920","1080","de","er04as06","null","","","","","","","","learning/Slide23.JPG","null","","","","",""
"","html-keyboard-response","75","285721","0.0-6.0-2.22","LF","l2tdyj71gq","1920","1080","de","er04as06","null","","","","learningBlock1","","","","<div style=""font-size:60px;""> </div>","null","LF","learning/Slide23.JPG","This is a tob:","",""
"","html-keyboard-response","76","286722","0.0-6.0-0.23","LF","l2tdyj71gq","1920","1080","de","er04as06","null","","","","learningBlock1","","","","This is a wug:","null","","","","",""
"","image-keyboard-response","77","287050","0.0-6.0-1.23","LF","l2tdyj71gq","1920","1080","de","er04as06","null","","","","","","","","learning/Slide24.JPG","null","","","","",""
"","html-keyboard-response","78","288052","0.0-6.0-2.23","LF","l2tdyj71gq","1920","1080","de","er04as06","null","","","","learningBlock1","","","","<div style=""font-size:60px;""> </div>","null","LF","learning/Slide24.JPG","This is a wug:","",""
"","html-keyboard-response","79","289053","0.0-6.0-0.24","LF","l2tdyj71gq","1920","1080","de","er04as06","null","","","","learningBlock1","","","","This is a dep:","null","","","","",""
"","image-keyboard-response","80","289381","0.0-6.0-1.24","LF","l2tdyj71gq","1920","1080","de","er04as06","null","","","","","","","","learning/Slide25.JPG","null","","","","",""
"","html-keyboard-response","81","290382","0.0-6.0-2.24","LF","l2tdyj71gq","1920","1080","de","er04as06","null","","","","learningBlock1","","","","<div style=""font-size:60px;""> </div>","null","LF","learning/Slide25.JPG","This is a dep:","",""
"","html-keyboard-response","82","291384","0.0-6.0-0.25","LF","l2tdyj71gq","1920","1080","de","er04as06","null","","","","learningBlock1","","","","This is a wug:","null","","","","",""
"","image-keyboard-response","83","291712","0.0-6.0-1.25","LF","l2tdyj71gq","1920","1080","de","er04as06","null","","","","","","","","learning/Slide26.JPG","null","","","","",""
"","html-keyboard-response","84","292713","0.0-6.0-2.25","LF","l2tdyj71gq","1920","1080","de","er04as06","null","","","","learningBlock1","","","","<div style=""font-size:60px;""> </div>","null","LF","learning/Slide26.JPG","This is a wug:","",""
"","html-keyboard-response","85","293715","0.0-6.0-0.26","LF","l2tdyj71gq","1920","1080","de","er04as06","null","","","","learningBlock1","","","","This is a bim:","null","","","","",""
"","image-keyboard-response","86","294043","0.0-6.0-1.26","LF","l2tdyj71gq","1920","1080","de","er04as06","null","","","","","","","","learning/Slide27.JPG","null","","","","",""
"","html-keyboard-response","87","295044","0.0-6.0-2.26","LF","l2tdyj71gq","1920","1080","de","er04as06","null","","","","learningBlock1","","","","<div style=""font-size:60px;""> </div>","null","LF","learning/Slide27.JPG","This is a bim:","",""
"","html-keyboard-response","88","296046","0.0-6.0-0.27","LF","l2tdyj71gq","1920","1080","de","er04as06","null","","","","learningBlock1","","","","This is a dep:","null","","","","",""
"","image-keyboard-response","89","296373","0.0-6.0-1.27","LF","l2tdyj71gq","1920","1080","de","er04as06","null","","","","","","","","learning/Slide28.JPG","null","","","","",""
"","html-keyboard-response","90","297375","0.0-6.0-2.27","LF","l2tdyj71gq","1920","1080","de","er04as06","null","","","","learningBlock1","","","","<div style=""font-size:60px;""> </div>","null","LF","learning/Slide28.JPG","This is a dep:","",""
"","html-keyboard-response","91","298377","0.0-6.0-0.28","LF","l2tdyj71gq","1920","1080","de","er04as06","null","","","","learningBlock1","","","","This is a tob:","null","","","","",""
"","image-keyboard-response","92","298704","0.0-6.0-1.28","LF","l2tdyj71gq","1920","1080","de","er04as06","null","","","","","","","","learning/Slide29.JPG","null","","","","",""
"","html-keyboard-response","93","299706","0.0-6.0-2.28","LF","l2tdyj71gq","1920","1080","de","er04as06","null","","","","learningBlock1","","","","<div style=""font-size:60px;""> </div>","null","LF","learning/Slide29.JPG","This is a tob:","",""
"","html-keyboard-response","94","300708","0.0-6.0-0.29","LF","l2tdyj71gq","1920","1080","de","er04as06","null","","","","learningBlock1","","","","This is a dep:","null","","","","",""
"","image-keyboard-response","95","301035","0.0-6.0-1.29","LF","l2tdyj71gq","1920","1080","de","er04as06","null","","","","","","","","learning/Slide30.JPG","null","","","","",""
"","html-keyboard-response","96","302037","0.0-6.0-2.29","LF","l2tdyj71gq","1920","1080","de","er04as06","null","","","","learningBlock1","","","","<div style=""font-size:60px;""> </div>","null","LF","learning/Slide30.JPG","This is a dep:","",""
"","html-keyboard-response","97","303039","0.0-6.0-0.30","LF","l2tdyj71gq","1920","1080","de","er04as06","null","","","","learningBlock1","","","","This is a wug:","null","","","","",""
"","image-keyboard-response","98","303366","0.0-6.0-1.30","LF","l2tdyj71gq","1920","1080","de","er04as06","null","","","","","","","","learning/Slide31.JPG","null","","","","",""
"","html-keyboard-response","99","304368","0.0-6.0-2.30","LF","l2tdyj71gq","1920","1080","de","er04as06","null","","","","learningBlock1","","","","<div style=""font-size:60px;""> </div>","null","LF","learning/Slide31.JPG","This is a wug:","",""
"","html-keyboard-response","100","305370","0.0-6.0-0.31","LF","l2tdyj71gq","1920","1080","de","er04as06","null","","","","learningBlock1","","","","This is a tob:","null","","","","",""
"","image-keyboard-response","101","305698","0.0-6.0-1.31","LF","l2tdyj71gq","1920","1080","de","er04as06","null","","","","","","","","learning/Slide32.JPG","null","","","","",""
"","html-keyboard-response","102","306699","0.0-6.0-2.31","LF","l2tdyj71gq","1920","1080","de","er04as06","null","","","","learningBlock1","","","","<div style=""font-size:60px;""> </div>","null","LF","learning/Slide32.JPG","This is a tob:","",""
"","html-keyboard-response","103","307701","0.0-6.0-0.32","LF","l2tdyj71gq","1920","1080","de","er04as06","null","","","","learningBlock1","","","","This is a bim:","null","","","","",""
"","image-keyboard-response","104","308029","0.0-6.0-1.32","LF","l2tdyj71gq","1920","1080","de","er04as06","null","","","","","","","","learning/Slide33.JPG","null","","","","",""
"","html-keyboard-response","105","309031","0.0-6.0-2.32","LF","l2tdyj71gq","1920","1080","de","er04as06","null","","","","learningBlock1","","","","<div style=""font-size:60px;""> </div>","null","LF","learning/Slide33.JPG","This is a bim:","",""
"","html-keyboard-response","106","310032","0.0-6.0-0.33","LF","l2tdyj71gq","1920","1080","de","er04as06","null","","","","learningBlock1","","","","This is a tob:","null","","","","",""
"","image-keyboard-response","107","310360","0.0-6.0-1.33","LF","l2tdyj71gq","1920","1080","de","er04as06","null","","","","","","","","learning/Slide34.JPG","null","","","","",""
"","html-keyboard-response","108","311362","0.0-6.0-2.33","LF","l2tdyj71gq","1920","1080","de","er04as06","null","","","","learningBlock1","","","","<div style=""font-size:60px;""> </div>","null","LF","learning/Slide34.JPG","This is a tob:","",""
"","html-keyboard-response","109","312364","0.0-6.0-0.34","LF","l2tdyj71gq","1920","1080","de","er04as06","null","","","","learningBlock1","","","","This is a bim:","null","","","","",""
"","image-keyboard-response","110","312692","0.0-6.0-1.34","LF","l2tdyj71gq","1920","1080","de","er04as06","null","","","","","","","","learning/Slide35.JPG","null","","","","",""
"","html-keyboard-response","111","313693","0.0-6.0-2.34","LF","l2tdyj71gq","1920","1080","de","er04as06","null","","","","learningBlock1","","","","<div style=""font-size:60px;""> </div>","null","LF","learning/Slide35.JPG","This is a bim:","",""
"","html-keyboard-response","112","314695","0.0-6.0-0.35","LF","l2tdyj71gq","1920","1080","de","er04as06","null","","","","learningBlock1","","","","This is a dep:","null","","","","",""
"","image-keyboard-response","113","315022","0.0-6.0-1.35","LF","l2tdyj71gq","1920","1080","de","er04as06","null","","","","","","","","learning/Slide36.JPG","null","","","","",""
"","html-keyboard-response","114","316023","0.0-6.0-2.35","LF","l2tdyj71gq","1920","1080","de","er04as06","null","","","","learningBlock1","","","","<div style=""font-size:60px;""> </div>","null","LF","learning/Slide36.JPG","This is a dep:","",""
"","html-keyboard-response","115","317026","0.0-6.0-0.36","LF","l2tdyj71gq","1920","1080","de","er04as06","null","","","","learningBlock1","","","","This is a tob:","null","","","","",""
"","image-keyboard-response","116","317354","0.0-6.0-1.36","LF","l2tdyj71gq","1920","1080","de","er04as06","null","","","","","","","","learning/Slide37.JPG","null","","","","",""
"","html-keyboard-response","117","318354","0.0-6.0-2.36","LF","l2tdyj71gq","1920","1080","de","er04as06","null","","","","learningBlock1","","","","<div style=""font-size:60px;""> </div>","null","LF","learning/Slide37.JPG","This is a tob:","",""
"","html-keyboard-response","118","319357","0.0-6.0-0.37","LF","l2tdyj71gq","1920","1080","de","er04as06","null","","","","learningBlock1","","","","This is a wug:","null","","","","",""
"","image-keyboard-response","119","319684","0.0-6.0-1.37","LF","l2tdyj71gq","1920","1080","de","er04as06","null","","","","","","","","learning/Slide38.JPG","null","","","","",""
"","html-keyboard-response","120","320685","0.0-6.0-2.37","LF","l2tdyj71gq","1920","1080","de","er04as06","null","","","","learningBlock1","","","","<div style=""font-size:60px;""> </div>","null","LF","learning/Slide38.JPG","This is a wug:","",""
"","html-keyboard-response","121","321687","0.0-6.0-0.38","LF","l2tdyj71gq","1920","1080","de","er04as06","null","","","","learningBlock1","","","","This is a bim:","null","","","","",""
"","image-keyboard-response","122","322015","0.0-6.0-1.38","LF","l2tdyj71gq","1920","1080","de","er04as06","null","","","","","","","","learning/Slide39.JPG","null","","","","",""
"","html-keyboard-response","123","323016","0.0-6.0-2.38","LF","l2tdyj71gq","1920","1080","de","er04as06","null","","","","learningBlock1","","","","<div style=""font-size:60px;""> </div>","null","LF","learning/Slide39.JPG","This is a bim:","",""
"","html-keyboard-response","124","324018","0.0-6.0-0.39","LF","l2tdyj71gq","1920","1080","de","er04as06","null","","","","learningBlock1","","","","This is a tob:","null","","","","",""
"","image-keyboard-response","125","324345","0.0-6.0-1.39","LF","l2tdyj71gq","1920","1080","de","er04as06","null","","","","","","","","learning/Slide40.JPG","null","","","","",""
"","html-keyboard-response","126","325347","0.0-6.0-2.39","LF","l2tdyj71gq","1920","1080","de","er04as06","null","","","","learningBlock1","","","","<div style=""font-size:60px;""> </div>","null","LF","learning/Slide40.JPG","This is a tob:","",""
"","html-keyboard-response","127","326349","0.0-6.0-0.40","LF","l2tdyj71gq","1920","1080","de","er04as06","null","","","","learningBlock1","","","","This is a bim:","null","","","","",""
"","image-keyboard-response","128","326676","0.0-6.0-1.40","LF","l2tdyj71gq","1920","1080","de","er04as06","null","","","","","","","","learning/Slide41.JPG","null","","","","",""
"","html-keyboard-response","129","327678","0.0-6.0-2.40","LF","l2tdyj71gq","1920","1080","de","er04as06","null","","","","learningBlock1","","","","<div style=""font-size:60px;""> </div>","null","LF","learning/Slide41.JPG","This is a bim:","",""
"","html-keyboard-response","130","328680","0.0-6.0-0.41","LF","l2tdyj71gq","1920","1080","de","er04as06","null","","","","learningBlock1","","","","This is a dep:","null","","","","",""
"","image-keyboard-response","131","329006","0.0-6.0-1.41","LF","l2tdyj71gq","1920","1080","de","er04as06","null","","","","","","","","learning/Slide42.JPG","null","","","","",""
"","html-keyboard-response","132","330008","0.0-6.0-2.41","LF","l2tdyj71gq","1920","1080","de","er04as06","null","","","","learningBlock1","","","","<div style=""font-size:60px;""> </div>","null","LF","learning/Slide42.JPG","This is a dep:","",""
"","html-keyboard-response","133","331010","0.0-6.0-0.42","LF","l2tdyj71gq","1920","1080","de","er04as06","null","","","","learningBlock1","","","","This is a wug:","null","","","","",""
"","image-keyboard-response","134","331338","0.0-6.0-1.42","LF","l2tdyj71gq","1920","1080","de","er04as06","null","","","","","","","","learning/Slide43.JPG","null","","","","",""
"","html-keyboard-response","135","332339","0.0-6.0-2.42","LF","l2tdyj71gq","1920","1080","de","er04as06","null","","","","learningBlock1","","","","<div style=""font-size:60px;""> </div>","null","LF","learning/Slide43.JPG","This is a wug:","",""
"","html-keyboard-response","136","333341","0.0-6.0-0.43","LF","l2tdyj71gq","1920","1080","de","er04as06","null","","","","learningBlock1","","","","This is a bim:","null","","","","",""
"","image-keyboard-response","137","333668","0.0-6.0-1.43","LF","l2tdyj71gq","1920","1080","de","er04as06","null","","","","","","","","learning/Slide44.JPG","null","","","","",""
"","html-keyboard-response","138","334669","0.0-6.0-2.43","LF","l2tdyj71gq","1920","1080","de","er04as06","null","","","","learningBlock1","","","","<div style=""font-size:60px;""> </div>","null","LF","learning/Slide44.JPG","This is a bim:","",""
"","html-keyboard-response","139","335671","0.0-6.0-0.44","LF","l2tdyj71gq","1920","1080","de","er04as06","null","","","","learningBlock1","","","","This is a wug:","null","","","","",""
"","image-keyboard-response","140","335999","0.0-6.0-1.44","LF","l2tdyj71gq","1920","1080","de","er04as06","null","","","","","","","","learning/Slide45.JPG","null","","","","",""
"","html-keyboard-response","141","337001","0.0-6.0-2.44","LF","l2tdyj71gq","1920","1080","de","er04as06","null","","","","learningBlock1","","","","<div style=""font-size:60px;""> </div>","null","LF","learning/Slide45.JPG","This is a wug:","",""
"","html-keyboard-response","142","338002","0.0-6.0-0.45","LF","l2tdyj71gq","1920","1080","de","er04as06","null","","","","learningBlock1","","","","This is a dep:","null","","","","",""
"","image-keyboard-response","143","338330","0.0-6.0-1.45","LF","l2tdyj71gq","1920","1080","de","er04as06","null","","","","","","","","learning/Slide46.JPG","null","","","","",""
"","html-keyboard-response","144","339332","0.0-6.0-2.45","LF","l2tdyj71gq","1920","1080","de","er04as06","null","","","","learningBlock1","","","","<div style=""font-size:60px;""> </div>","null","LF","learning/Slide46.JPG","This is a dep:","",""
"","html-keyboard-response","145","340334","0.0-6.0-0.46","LF","l2tdyj71gq","1920","1080","de","er04as06","null","","","","learningBlock1","","","","This is a tob:","null","","","","",""
"","image-keyboard-response","146","340661","0.0-6.0-1.46","LF","l2tdyj71gq","1920","1080","de","er04as06","null","","","","","","","","learning/Slide47.JPG","null","","","","",""
"","html-keyboard-response","147","341663","0.0-6.0-2.46","LF","l2tdyj71gq","1920","1080","de","er04as06","null","","","","learningBlock1","","","","<div style=""font-size:60px;""> </div>","null","LF","learning/Slide47.JPG","This is a tob:","",""
"","html-keyboard-response","148","342665","0.0-6.0-0.47","LF","l2tdyj71gq","1920","1080","de","er04as06","null","","","","learningBlock1","","","","This is a bim:","null","","","","",""
"","image-keyboard-response","149","342992","0.0-6.0-1.47","LF","l2tdyj71gq","1920","1080","de","er04as06","null","","","","","","","","learning/Slide48.JPG","null","","","","",""
"","html-keyboard-response","150","343994","0.0-6.0-2.47","LF","l2tdyj71gq","1920","1080","de","er04as06","null","","","","learningBlock1","","","","<div style=""font-size:60px;""> </div>","null","LF","learning/Slide48.JPG","This is a bim:","",""
"","html-keyboard-response","151","344996","0.0-6.0-0.48","LF","l2tdyj71gq","1920","1080","de","er04as06","null","","","","learningBlock1","","","","This is a dep:","null","","","","",""
"","image-keyboard-response","152","345323","0.0-6.0-1.48","LF","l2tdyj71gq","1920","1080","de","er04as06","null","","","","","","","","learning/Slide49.JPG","null","","","","",""
"","html-keyboard-response","153","346325","0.0-6.0-2.48","LF","l2tdyj71gq","1920","1080","de","er04as06","null","","","","learningBlock1","","","","<div style=""font-size:60px;""> </div>","null","LF","learning/Slide49.JPG","This is a dep:","",""
"","html-keyboard-response","154","347328","0.0-6.0-0.49","LF","l2tdyj71gq","1920","1080","de","er04as06","null","","","","learningBlock1","","","","This is a tob:","null","","","","",""
"","image-keyboard-response","155","347657","0.0-6.0-1.49","LF","l2tdyj71gq","1920","1080","de","er04as06","null","","","","","","","","learning/Slide50.JPG","null","","","","",""
"","html-keyboard-response","156","348659","0.0-6.0-2.49","LF","l2tdyj71gq","1920","1080","de","er04as06","null","","","","learningBlock1","","","","<div style=""font-size:60px;""> </div>","null","LF","learning/Slide50.JPG","This is a tob:","",""
"","html-keyboard-response","157","349659","0.0-6.0-0.50","LF","l2tdyj71gq","1920","1080","de","er04as06","null","","","","learningBlock1","","","","This is a bim:","null","","","","",""
"","image-keyboard-response","158","349987","0.0-6.0-1.50","LF","l2tdyj71gq","1920","1080","de","er04as06","null","","","","","","","","learning/Slide51.JPG","null","","","","",""
"","html-keyboard-response","159","350989","0.0-6.0-2.50","LF","l2tdyj71gq","1920","1080","de","er04as06","null","","","","learningBlock1","","","","<div style=""font-size:60px;""> </div>","null","LF","learning/Slide51.JPG","This is a bim:","",""
"","html-keyboard-response","160","351990","0.0-6.0-0.51","LF","l2tdyj71gq","1920","1080","de","er04as06","null","","","","learningBlock1","","","","This is a wug:","null","","","","",""
"","image-keyboard-response","161","352318","0.0-6.0-1.51","LF","l2tdyj71gq","1920","1080","de","er04as06","null","","","","","","","","learning/Slide52.JPG","null","","","","",""
"","html-keyboard-response","162","353319","0.0-6.0-2.51","LF","l2tdyj71gq","1920","1080","de","er04as06","null","","","","learningBlock1","","","","<div style=""font-size:60px;""> </div>","null","LF","learning/Slide52.JPG","This is a wug:","",""
"","html-keyboard-response","163","354321","0.0-6.0-0.52","LF","l2tdyj71gq","1920","1080","de","er04as06","null","","","","learningBlock1","","","","This is a tob:","null","","","","",""
"","image-keyboard-response","164","354649","0.0-6.0-1.52","LF","l2tdyj71gq","1920","1080","de","er04as06","null","","","","","","","","learning/Slide53.JPG","null","","","","",""
"","html-keyboard-response","165","355651","0.0-6.0-2.52","LF","l2tdyj71gq","1920","1080","de","er04as06","null","","","","learningBlock1","","","","<div style=""font-size:60px;""> </div>","null","LF","learning/Slide53.JPG","This is a tob:","",""
"","html-keyboard-response","166","356651","0.0-6.0-0.53","LF","l2tdyj71gq","1920","1080","de","er04as06","null","","","","learningBlock1","","","","This is a dep:","null","","","","",""
"","image-keyboard-response","167","356980","0.0-6.0-1.53","LF","l2tdyj71gq","1920","1080","de","er04as06","null","","","","","","","","learning/Slide54.JPG","null","","","","",""
"","html-keyboard-response","168","357981","0.0-6.0-2.53","LF","l2tdyj71gq","1920","1080","de","er04as06","null","","","","learningBlock1","","","","<div style=""font-size:60px;""> </div>","null","LF","learning/Slide54.JPG","This is a dep:","",""
"","html-keyboard-response","169","358983","0.0-6.0-0.54","LF","l2tdyj71gq","1920","1080","de","er04as06","null","","","","learningBlock1","","","","This is a bim:","null","","","","",""
"","image-keyboard-response","170","359311","0.0-6.0-1.54","LF","l2tdyj71gq","1920","1080","de","er04as06","null","","","","","","","","learning/Slide55.JPG","null","","","","",""
"","html-keyboard-response","171","360313","0.0-6.0-2.54","LF","l2tdyj71gq","1920","1080","de","er04as06","null","","","","learningBlock1","","","","<div style=""font-size:60px;""> </div>","null","LF","learning/Slide55.JPG","This is a bim:","",""
"","html-keyboard-response","172","361315","0.0-6.0-0.55","LF","l2tdyj71gq","1920","1080","de","er04as06","null","","","","learningBlock1","","","","This is a tob:","null","","","","",""
"","image-keyboard-response","173","361643","0.0-6.0-1.55","LF","l2tdyj71gq","1920","1080","de","er04as06","null","","","","","","","","learning/Slide56.JPG","null","","","","",""
"","html-keyboard-response","174","362645","0.0-6.0-2.55","LF","l2tdyj71gq","1920","1080","de","er04as06","null","","","","learningBlock1","","","","<div style=""font-size:60px;""> </div>","null","LF","learning/Slide56.JPG","This is a tob:","",""
"","html-keyboard-response","175","363647","0.0-6.0-0.56","LF","l2tdyj71gq","1920","1080","de","er04as06","null","","","","learningBlock1","","","","This is a dep:","null","","","","",""
"","image-keyboard-response","176","363974","0.0-6.0-1.56","LF","l2tdyj71gq","1920","1080","de","er04as06","null","","","","","","","","learning/Slide57.JPG","null","","","","",""
"","html-keyboard-response","177","364977","0.0-6.0-2.56","LF","l2tdyj71gq","1920","1080","de","er04as06","null","","","","learningBlock1","","","","<div style=""font-size:60px;""> </div>","null","LF","learning/Slide57.JPG","This is a dep:","",""
"","html-keyboard-response","178","365979","0.0-6.0-0.57","LF","l2tdyj71gq","1920","1080","de","er04as06","null","","","","learningBlock1","","","","This is a wug:","null","","","","",""
"","image-keyboard-response","179","366307","0.0-6.0-1.57","LF","l2tdyj71gq","1920","1080","de","er04as06","null","","","","","","","","learning/Slide58.JPG","null","","","","",""
"","html-keyboard-response","180","367309","0.0-6.0-2.57","LF","l2tdyj71gq","1920","1080","de","er04as06","null","","","","learningBlock1","","","","<div style=""font-size:60px;""> </div>","null","LF","learning/Slide58.JPG","This is a wug:","",""
"","html-keyboard-response","181","368310","0.0-6.0-0.58","LF","l2tdyj71gq","1920","1080","de","er04as06","null","","","","learningBlock1","","","","This is a dep:","null","","","","",""
"","image-keyboard-response","182","368638","0.0-6.0-1.58","LF","l2tdyj71gq","1920","1080","de","er04as06","null","","","","","","","","learning/Slide59.JPG","null","","","","",""
"","html-keyboard-response","183","369640","0.0-6.0-2.58","LF","l2tdyj71gq","1920","1080","de","er04as06","null","","","","learningBlock1","","","","<div style=""font-size:60px;""> </div>","null","LF","learning/Slide59.JPG","This is a dep:","",""
"","html-keyboard-response","184","370641","0.0-6.0-0.59","LF","l2tdyj71gq","1920","1080","de","er04as06","null","","","","learningBlock1","","","","This is a wug:","null","","","","",""
"","image-keyboard-response","185","370969","0.0-6.0-1.59","LF","l2tdyj71gq","1920","1080","de","er04as06","null","","","","","","","","learning/Slide60.JPG","null","","","","",""
"","html-keyboard-response","186","371971","0.0-6.0-2.59","LF","l2tdyj71gq","1920","1080","de","er04as06","null","","","","learningBlock1","","","","<div style=""font-size:60px;""> </div>","null","LF","learning/Slide60.JPG","This is a wug:","",""
"","html-keyboard-response","187","372973","0.0-6.0-0.60","LF","l2tdyj71gq","1920","1080","de","er04as06","null","","","","learningBlock1","","","","This is a bim:","null","","","","",""
"","image-keyboard-response","188","373300","0.0-6.0-1.60","LF","l2tdyj71gq","1920","1080","de","er04as06","null","","","","","","","","learning/Slide61.JPG","null","","","","",""
"","html-keyboard-response","189","374302","0.0-6.0-2.60","LF","l2tdyj71gq","1920","1080","de","er04as06","null","","","","learningBlock1","","","","<div style=""font-size:60px;""> </div>","null","LF","learning/Slide61.JPG","This is a bim:","",""
"","html-keyboard-response","190","375303","0.0-6.0-0.61","LF","l2tdyj71gq","1920","1080","de","er04as06","null","","","","learningBlock1","","","","This is a dep:","null","","","","",""
"","image-keyboard-response","191","375631","0.0-6.0-1.61","LF","l2tdyj71gq","1920","1080","de","er04as06","null","","","","","","","","learning/Slide62.JPG","null","","","","",""
"","html-keyboard-response","192","376633","0.0-6.0-2.61","LF","l2tdyj71gq","1920","1080","de","er04as06","null","","","","learningBlock1","","","","<div style=""font-size:60px;""> </div>","null","LF","learning/Slide62.JPG","This is a dep:","",""
"","html-keyboard-response","193","377635","0.0-6.0-0.62","LF","l2tdyj71gq","1920","1080","de","er04as06","null","","","","learningBlock1","","","","This is a bim:","null","","","","",""
"","image-keyboard-response","194","377963","0.0-6.0-1.62","LF","l2tdyj71gq","1920","1080","de","er04as06","null","","","","","","","","learning/Slide63.JPG","null","","","","",""
"","html-keyboard-response","195","378965","0.0-6.0-2.62","LF","l2tdyj71gq","1920","1080","de","er04as06","null","","","","learningBlock1","","","","<div style=""font-size:60px;""> </div>","null","LF","learning/Slide63.JPG","This is a bim:","",""
"","html-keyboard-response","196","379967","0.0-6.0-0.63","LF","l2tdyj71gq","1920","1080","de","er04as06","null","","","","learningBlock1","","","","This is a tob:","null","","","","",""
"","image-keyboard-response","197","380295","0.0-6.0-1.63","LF","l2tdyj71gq","1920","1080","de","er04as06","null","","","","","","","","learning/Slide64.JPG","null","","","","",""
"","html-keyboard-response","198","381297","0.0-6.0-2.63","LF","l2tdyj71gq","1920","1080","de","er04as06","null","","","","learningBlock1","","","","<div style=""font-size:60px;""> </div>","null","LF","learning/Slide64.JPG","This is a tob:","",""
"","html-keyboard-response","199","382298","0.0-6.0-0.64","LF","l2tdyj71gq","1920","1080","de","er04as06","null","","","","learningBlock1","","","","This is a wug:","null","","","","",""
"","image-keyboard-response","200","382627","0.0-6.0-1.64","LF","l2tdyj71gq","1920","1080","de","er04as06","null","","","","","","","","learning/Slide65.JPG","null","","","","",""
"","html-keyboard-response","201","383628","0.0-6.0-2.64","LF","l2tdyj71gq","1920","1080","de","er04as06","null","","","","learningBlock1","","","","<div style=""font-size:60px;""> </div>","null","LF","learning/Slide65.JPG","This is a wug:","",""
"","html-keyboard-response","202","384630","0.0-6.0-0.65","LF","l2tdyj71gq","1920","1080","de","er04as06","null","","","","learningBlock1","","","","This is a dep:","null","","","","",""
"","image-keyboard-response","203","384958","0.0-6.0-1.65","LF","l2tdyj71gq","1920","1080","de","er04as06","null","","","","","","","","learning/Slide66.JPG","null","","","","",""
"","html-keyboard-response","204","385960","0.0-6.0-2.65","LF","l2tdyj71gq","1920","1080","de","er04as06","null","","","","learningBlock1","","","","<div style=""font-size:60px;""> </div>","null","LF","learning/Slide66.JPG","This is a dep:","",""
"","html-keyboard-response","205","386962","0.0-6.0-0.66","LF","l2tdyj71gq","1920","1080","de","er04as06","null","","","","learningBlock1","","","","This is a tob:","null","","","","",""
"","image-keyboard-response","206","387290","0.0-6.0-1.66","LF","l2tdyj71gq","1920","1080","de","er04as06","null","","","","","","","","learning/Slide67.JPG","null","","","","",""
"","html-keyboard-response","207","388292","0.0-6.0-2.66","LF","l2tdyj71gq","1920","1080","de","er04as06","null","","","","learningBlock1","","","","<div style=""font-size:60px;""> </div>","null","LF","learning/Slide67.JPG","This is a tob:","",""
"","html-keyboard-response","208","389294","0.0-6.0-0.67","LF","l2tdyj71gq","1920","1080","de","er04as06","null","","","","learningBlock1","","","","This is a wug:","null","","","","",""
"","image-keyboard-response","209","389621","0.0-6.0-1.67","LF","l2tdyj71gq","1920","1080","de","er04as06","null","","","","","","","","learning/Slide68.JPG","null","","","","",""
"","html-keyboard-response","210","390622","0.0-6.0-2.67","LF","l2tdyj71gq","1920","1080","de","er04as06","null","","","","learningBlock1","","","","<div style=""font-size:60px;""> </div>","null","LF","learning/Slide68.JPG","This is a wug:","",""
"","html-keyboard-response","211","391624","0.0-6.0-0.68","LF","l2tdyj71gq","1920","1080","de","er04as06","null","","","","learningBlock1","","","","This is a tob:","null","","","","",""
"","image-keyboard-response","212","391952","0.0-6.0-1.68","LF","l2tdyj71gq","1920","1080","de","er04as06","null","","","","","","","","learning/Slide69.JPG","null","","","","",""
"","html-keyboard-response","213","392954","0.0-6.0-2.68","LF","l2tdyj71gq","1920","1080","de","er04as06","null","","","","learningBlock1","","","","<div style=""font-size:60px;""> </div>","null","LF","learning/Slide69.JPG","This is a tob:","",""
"","html-keyboard-response","214","393955","0.0-6.0-0.69","LF","l2tdyj71gq","1920","1080","de","er04as06","null","","","","learningBlock1","","","","This is a dep:","null","","","","",""
"","image-keyboard-response","215","394284","0.0-6.0-1.69","LF","l2tdyj71gq","1920","1080","de","er04as06","null","","","","","","","","learning/Slide70.JPG","null","","","","",""
"","html-keyboard-response","216","395285","0.0-6.0-2.69","LF","l2tdyj71gq","1920","1080","de","er04as06","null","","","","learningBlock1","","","","<div style=""font-size:60px;""> </div>","null","LF","learning/Slide70.JPG","This is a dep:","",""
"","html-keyboard-response","217","396287","0.0-6.0-0.70","LF","l2tdyj71gq","1920","1080","de","er04as06","null","","","","learningBlock1","","","","This is a wug:","null","","","","",""
"","image-keyboard-response","218","396615","0.0-6.0-1.70","LF","l2tdyj71gq","1920","1080","de","er04as06","null","","","","","","","","learning/Slide71.JPG","null","","","","",""
"","html-keyboard-response","219","397616","0.0-6.0-2.70","LF","l2tdyj71gq","1920","1080","de","er04as06","null","","","","learningBlock1","","","","<div style=""font-size:60px;""> </div>","null","LF","learning/Slide71.JPG","This is a wug:","",""
"","html-keyboard-response","220","398618","0.0-6.0-0.71","LF","l2tdyj71gq","1920","1080","de","er04as06","null","","","","learningBlock1","","","","This is a bim:","null","","","","",""
"","image-keyboard-response","221","398946","0.0-6.0-1.71","LF","l2tdyj71gq","1920","1080","de","er04as06","null","","","","","","","","learning/Slide72.JPG","null","","","","",""
"","html-keyboard-response","222","399947","0.0-6.0-2.71","LF","l2tdyj71gq","1920","1080","de","er04as06","null","","","","learningBlock1","","","","<div style=""font-size:60px;""> </div>","null","LF","learning/Slide72.JPG","This is a bim:","",""
"","html-keyboard-response","223","400949","0.0-6.0-0.72","LF","l2tdyj71gq","1920","1080","de","er04as06","null","","","","learningBlock1","","","","This is a wug:","null","","","","",""
"","image-keyboard-response","224","401276","0.0-6.0-1.72","LF","l2tdyj71gq","1920","1080","de","er04as06","null","","","","","","","","learning/Slide73.JPG","null","","","","",""
"","html-keyboard-response","225","402277","0.0-6.0-2.72","LF","l2tdyj71gq","1920","1080","de","er04as06","null","","","","learningBlock1","","","","<div style=""font-size:60px;""> </div>","null","LF","learning/Slide73.JPG","This is a wug:","",""
"","html-keyboard-response","226","403279","0.0-6.0-0.73","LF","l2tdyj71gq","1920","1080","de","er04as06","null","","","","learningBlock1","","","","This is a dep:","null","","","","",""
"","image-keyboard-response","227","403606","0.0-6.0-1.73","LF","l2tdyj71gq","1920","1080","de","er04as06","null","","","","","","","","learning/Slide74.JPG","null","","","","",""
"","html-keyboard-response","228","404608","0.0-6.0-2.73","LF","l2tdyj71gq","1920","1080","de","er04as06","null","","","","learningBlock1","","","","<div style=""font-size:60px;""> </div>","null","LF","learning/Slide74.JPG","This is a dep:","",""
"","html-keyboard-response","229","405611","0.0-6.0-0.74","LF","l2tdyj71gq","1920","1080","de","er04as06","null","","","","learningBlock1","","","","This is a tob:","null","","","","",""
"","image-keyboard-response","230","405938","0.0-6.0-1.74","LF","l2tdyj71gq","1920","1080","de","er04as06","null","","","","","","","","learning/Slide75.JPG","null","","","","",""
"","html-keyboard-response","231","406940","0.0-6.0-2.74","LF","l2tdyj71gq","1920","1080","de","er04as06","null","","","","learningBlock1","","","","<div style=""font-size:60px;""> </div>","null","LF","learning/Slide75.JPG","This is a tob:","",""
"","html-keyboard-response","232","407942","0.0-6.0-0.75","LF","l2tdyj71gq","1920","1080","de","er04as06","null","","","","learningBlock1","","","","This is a bim:","null","","","","",""
"","image-keyboard-response","233","408269","0.0-6.0-1.75","LF","l2tdyj71gq","1920","1080","de","er04as06","null","","","","","","","","learning/Slide76.JPG","null","","","","",""
"","html-keyboard-response","234","409271","0.0-6.0-2.75","LF","l2tdyj71gq","1920","1080","de","er04as06","null","","","","learningBlock1","","","","<div style=""font-size:60px;""> </div>","null","LF","learning/Slide76.JPG","This is a bim:","",""
"","html-keyboard-response","235","410272","0.0-6.0-0.76","LF","l2tdyj71gq","1920","1080","de","er04as06","null","","","","learningBlock1","","","","This is a tob:","null","","","","",""
"","image-keyboard-response","236","410600","0.0-6.0-1.76","LF","l2tdyj71gq","1920","1080","de","er04as06","null","","","","","","","","learning/Slide77.JPG","null","","","","",""
"","html-keyboard-response","237","411602","0.0-6.0-2.76","LF","l2tdyj71gq","1920","1080","de","er04as06","null","","","","learningBlock1","","","","<div style=""font-size:60px;""> </div>","null","LF","learning/Slide77.JPG","This is a tob:","",""
"","html-keyboard-response","238","412604","0.0-6.0-0.77","LF","l2tdyj71gq","1920","1080","de","er04as06","null","","","","learningBlock1","","","","This is a wug:","null","","","","",""
"","image-keyboard-response","239","412931","0.0-6.0-1.77","LF","l2tdyj71gq","1920","1080","de","er04as06","null","","","","","","","","learning/Slide78.JPG","null","","","","",""
"","html-keyboard-response","240","413933","0.0-6.0-2.77","LF","l2tdyj71gq","1920","1080","de","er04as06","null","","","","learningBlock1","","","","<div style=""font-size:60px;""> </div>","null","LF","learning/Slide78.JPG","This is a wug:","",""
"","html-keyboard-response","241","414935","0.0-6.0-0.78","LF","l2tdyj71gq","1920","1080","de","er04as06","null","","","","learningBlock1","","","","This is a bim:","null","","","","",""
"","image-keyboard-response","242","415263","0.0-6.0-1.78","LF","l2tdyj71gq","1920","1080","de","er04as06","null","","","","","","","","learning/Slide79.JPG","null","","","","",""
"","html-keyboard-response","243","416264","0.0-6.0-2.78","LF","l2tdyj71gq","1920","1080","de","er04as06","null","","","","learningBlock1","","","","<div style=""font-size:60px;""> </div>","null","LF","learning/Slide79.JPG","This is a bim:","",""
"","html-keyboard-response","244","417266","0.0-6.0-0.79","LF","l2tdyj71gq","1920","1080","de","er04as06","null","","","","learningBlock1","","","","This is a tob:","null","","","","",""
"","image-keyboard-response","245","417594","0.0-6.0-1.79","LF","l2tdyj71gq","1920","1080","de","er04as06","null","","","","","","","","learning/Slide80.JPG","null","","","","",""
"","html-keyboard-response","246","418597","0.0-6.0-2.79","LF","l2tdyj71gq","1920","1080","de","er04as06","null","","","","learningBlock1","","","","<div style=""font-size:60px;""> </div>","null","LF","learning/Slide80.JPG","This is a tob:","",""
"","instructions","247","437859","0.0-7.0","LF","l2tdyj71gq","1920","1080","de","er04as06","NA","","","[{""page_index"":0,""viewing_time"":19260}]","instructions","","","","","","","","","",""
"","html-keyboard-response","248","438862","0.0-8.0-0.0","LF","l2tdyj71gq","1920","1080","de","er04as06","null","","","","learningBlock2","","","","This is a wug:","null","","","","",""
"","image-keyboard-response","249","439190","0.0-8.0-1.0","LF","l2tdyj71gq","1920","1080","de","er04as06","null","","","","","","","","learning/Slide81.JPG","null","","","","",""
"","html-keyboard-response","250","440192","0.0-8.0-2.0","LF","l2tdyj71gq","1920","1080","de","er04as06","null","","","","learningBlock2","","","","<div style=""font-size:60px;""> </div>","null","LF","learning/Slide81.JPG","This is a wug:","",""
"","html-keyboard-response","251","441194","0.0-8.0-0.1","LF","l2tdyj71gq","1920","1080","de","er04as06","null","","","","learningBlock2","","","","This is a bim:","null","","","","",""
"","image-keyboard-response","252","441522","0.0-8.0-1.1","LF","l2tdyj71gq","1920","1080","de","er04as06","null","","","","","","","","learning/Slide82.JPG","null","","","","",""
"","html-keyboard-response","253","442524","0.0-8.0-2.1","LF","l2tdyj71gq","1920","1080","de","er04as06","null","","","","learningBlock2","","","","<div style=""font-size:60px;""> </div>","null","LF","learning/Slide82.JPG","This is a bim:","",""
"","html-keyboard-response","254","443526","0.0-8.0-0.2","LF","l2tdyj71gq","1920","1080","de","er04as06","null","","","","learningBlock2","","","","This is a wug:","null","","","","",""
"","image-keyboard-response","255","443853","0.0-8.0-1.2","LF","l2tdyj71gq","1920","1080","de","er04as06","null","","","","","","","","learning/Slide83.JPG","null","","","","",""
"","html-keyboard-response","256","444855","0.0-8.0-2.2","LF","l2tdyj71gq","1920","1080","de","er04as06","null","","","","learningBlock2","","","","<div style=""font-size:60px;""> </div>","null","LF","learning/Slide83.JPG","This is a wug:","",""
"","html-keyboard-response","257","445856","0.0-8.0-0.3","LF","l2tdyj71gq","1920","1080","de","er04as06","null","","","","learningBlock2","","","","This is a dep:","null","","","","",""
"","image-keyboard-response","258","446184","0.0-8.0-1.3","LF","l2tdyj71gq","1920","1080","de","er04as06","null","","","","","","","","learning/Slide84.JPG","null","","","","",""
"","html-keyboard-response","259","447186","0.0-8.0-2.3","LF","l2tdyj71gq","1920","1080","de","er04as06","null","","","","learningBlock2","","","","<div style=""font-size:60px;""> </div>","null","LF","learning/Slide84.JPG","This is a dep:","",""
"","html-keyboard-response","260","448188","0.0-8.0-0.4","LF","l2tdyj71gq","1920","1080","de","er04as06","null","","","","learningBlock2","","","","This is a bim:","null","","","","",""
"","image-keyboard-response","261","448514","0.0-8.0-1.4","LF","l2tdyj71gq","1920","1080","de","er04as06","null","","","","","","","","learning/Slide85.JPG","null","","","","",""
"","html-keyboard-response","262","449516","0.0-8.0-2.4","LF","l2tdyj71gq","1920","1080","de","er04as06","null","","","","learningBlock2","","","","<div style=""font-size:60px;""> </div>","null","LF","learning/Slide85.JPG","This is a bim:","",""
"","html-keyboard-response","263","450518","0.0-8.0-0.5","LF","l2tdyj71gq","1920","1080","de","er04as06","null","","","","learningBlock2","","","","This is a tob:","null","","","","",""
"","image-keyboard-response","264","450846","0.0-8.0-1.5","LF","l2tdyj71gq","1920","1080","de","er04as06","null","","","","","","","","learning/Slide86.JPG","null","","","","",""
"","html-keyboard-response","265","451847","0.0-8.0-2.5","LF","l2tdyj71gq","1920","1080","de","er04as06","null","","","","learningBlock2","","","","<div style=""font-size:60px;""> </div>","null","LF","learning/Slide86.JPG","This is a tob:","",""
"","html-keyboard-response","266","452850","0.0-8.0-0.6","LF","l2tdyj71gq","1920","1080","de","er04as06","null","","","","learningBlock2","","","","This is a wug:","null","","","","",""
"","image-keyboard-response","267","453176","0.0-8.0-1.6","LF","l2tdyj71gq","1920","1080","de","er04as06","null","","","","","","","","learning/Slide87.JPG","null","","","","",""
"","html-keyboard-response","268","454178","0.0-8.0-2.6","LF","l2tdyj71gq","1920","1080","de","er04as06","null","","","","learningBlock2","","","","<div style=""font-size:60px;""> </div>","null","LF","learning/Slide87.JPG","This is a wug:","",""
"","html-keyboard-response","269","455179","0.0-8.0-0.7","LF","l2tdyj71gq","1920","1080","de","er04as06","null","","","","learningBlock2","","","","This is a tob:","null","","","","",""
"","image-keyboard-response","270","455508","0.0-8.0-1.7","LF","l2tdyj71gq","1920","1080","de","er04as06","null","","","","","","","","learning/Slide88.JPG","null","","","","",""
"","html-keyboard-response","271","456509","0.0-8.0-2.7","LF","l2tdyj71gq","1920","1080","de","er04as06","null","","","","learningBlock2","","","","<div style=""font-size:60px;""> </div>","null","LF","learning/Slide88.JPG","This is a tob:","",""
"","html-keyboard-response","272","457510","0.0-8.0-0.8","LF","l2tdyj71gq","1920","1080","de","er04as06","null","","","","learningBlock2","","","","This is a bim:","null","","","","",""
"","image-keyboard-response","273","457838","0.0-8.0-1.8","LF","l2tdyj71gq","1920","1080","de","er04as06","null","","","","","","","","learning/Slide89.JPG","null","","","","",""
"","html-keyboard-response","274","458839","0.0-8.0-2.8","LF","l2tdyj71gq","1920","1080","de","er04as06","null","","","","learningBlock2","","","","<div style=""font-size:60px;""> </div>","null","LF","learning/Slide89.JPG","This is a bim:","",""
"","html-keyboard-response","275","459841","0.0-8.0-0.9","LF","l2tdyj71gq","1920","1080","de","er04as06","null","","","","learningBlock2","","","","This is a dep:","null","","","","",""
"","image-keyboard-response","276","460169","0.0-8.0-1.9","LF","l2tdyj71gq","1920","1080","de","er04as06","null","","","","","","","","learning/Slide90.JPG","null","","","","",""
"","html-keyboard-response","277","461171","0.0-8.0-2.9","LF","l2tdyj71gq","1920","1080","de","er04as06","null","","","","learningBlock2","","","","<div style=""font-size:60px;""> </div>","null","LF","learning/Slide90.JPG","This is a dep:","",""
"","html-keyboard-response","278","462172","0.0-8.0-0.10","LF","l2tdyj71gq","1920","1080","de","er04as06","null","","","","learningBlock2","","","","This is a wug:","null","","","","",""
"","image-keyboard-response","279","462500","0.0-8.0-1.10","LF","l2tdyj71gq","1920","1080","de","er04as06","null","","","","","","","","learning/Slide91.JPG","null","","","","",""
"","html-keyboard-response","280","463501","0.0-8.0-2.10","LF","l2tdyj71gq","1920","1080","de","er04as06","null","","","","learningBlock2","","","","<div style=""font-size:60px;""> </div>","null","LF","learning/Slide91.JPG","This is a wug:","",""
"","html-keyboard-response","281","464504","0.0-8.0-0.11","LF","l2tdyj71gq","1920","1080","de","er04as06","null","","","","learningBlock2","","","","This is a tob:","null","","","","",""
"","image-keyboard-response","282","464831","0.0-8.0-1.11","LF","l2tdyj71gq","1920","1080","de","er04as06","null","","","","","","","","learning/Slide92.JPG","null","","","","",""
"","html-keyboard-response","283","465833","0.0-8.0-2.11","LF","l2tdyj71gq","1920","1080","de","er04as06","null","","","","learningBlock2","","","","<div style=""font-size:60px;""> </div>","null","LF","learning/Slide92.JPG","This is a tob:","",""
"","html-keyboard-response","284","466834","0.0-8.0-0.12","LF","l2tdyj71gq","1920","1080","de","er04as06","null","","","","learningBlock2","","","","This is a bim:","null","","","","",""
"","image-keyboard-response","285","467163","0.0-8.0-1.12","LF","l2tdyj71gq","1920","1080","de","er04as06","null","","","","","","","","learning/Slide93.JPG","null","","","","",""
"","html-keyboard-response","286","468164","0.0-8.0-2.12","LF","l2tdyj71gq","1920","1080","de","er04as06","null","","","","learningBlock2","","","","<div style=""font-size:60px;""> </div>","null","LF","learning/Slide93.JPG","This is a bim:","",""
"","html-keyboard-response","287","469166","0.0-8.0-0.13","LF","l2tdyj71gq","1920","1080","de","er04as06","null","","","","learningBlock2","","","","This is a tob:","null","","","","",""
"","image-keyboard-response","288","469494","0.0-8.0-1.13","LF","l2tdyj71gq","1920","1080","de","er04as06","null","","","","","","","","learning/Slide94.JPG","null","","","","",""
"","html-keyboard-response","289","470496","0.0-8.0-2.13","LF","l2tdyj71gq","1920","1080","de","er04as06","null","","","","learningBlock2","","","","<div style=""font-size:60px;""> </div>","null","LF","learning/Slide94.JPG","This is a tob:","",""
"","html-keyboard-response","290","471497","0.0-8.0-0.14","LF","l2tdyj71gq","1920","1080","de","er04as06","null","","","","learningBlock2","","","","This is a wug:","null","","","","",""
"","image-keyboard-response","291","471824","0.0-8.0-1.14","LF","l2tdyj71gq","1920","1080","de","er04as06","null","","","","","","","","learning/Slide95.JPG","null","","","","",""
"","html-keyboard-response","292","472826","0.0-8.0-2.14","LF","l2tdyj71gq","1920","1080","de","er04as06","null","","","","learningBlock2","","","","<div style=""font-size:60px;""> </div>","null","LF","learning/Slide95.JPG","This is a wug:","",""
"","html-keyboard-response","293","473827","0.0-8.0-0.15","LF","l2tdyj71gq","1920","1080","de","er04as06","null","","","","learningBlock2","","","","This is a tob:","null","","","","",""
"","image-keyboard-response","294","474156","0.0-8.0-1.15","LF","l2tdyj71gq","1920","1080","de","er04as06","null","","","","","","","","learning/Slide96.JPG","null","","","","",""
"","html-keyboard-response","295","475157","0.0-8.0-2.15","LF","l2tdyj71gq","1920","1080","de","er04as06","null","","","","learningBlock2","","","","<div style=""font-size:60px;""> </div>","null","LF","learning/Slide96.JPG","This is a tob:","",""
"","html-keyboard-response","296","476160","0.0-8.0-0.16","LF","l2tdyj71gq","1920","1080","de","er04as06","null","","","","learningBlock2","","","","This is a dep:","null","","","","",""
"","image-keyboard-response","297","476487","0.0-8.0-1.16","LF","l2tdyj71gq","1920","1080","de","er04as06","null","","","","","","","","learning/Slide97.JPG","null","","","","",""
"","html-keyboard-response","298","477490","0.0-8.0-2.16","LF","l2tdyj71gq","1920","1080","de","er04as06","null","","","","learningBlock2","","","","<div style=""font-size:60px;""> </div>","null","LF","learning/Slide97.JPG","This is a dep:","",""
"","html-keyboard-response","299","478491","0.0-8.0-0.17","LF","l2tdyj71gq","1920","1080","de","er04as06","null","","","","learningBlock2","","","","This is a bim:","null","","","","",""
"","image-keyboard-response","300","478819","0.0-8.0-1.17","LF","l2tdyj71gq","1920","1080","de","er04as06","null","","","","","","","","learning/Slide98.JPG","null","","","","",""
"","html-keyboard-response","301","479821","0.0-8.0-2.17","LF","l2tdyj71gq","1920","1080","de","er04as06","null","","","","learningBlock2","","","","<div style=""font-size:60px;""> </div>","null","LF","learning/Slide98.JPG","This is a bim:","",""
"","html-keyboard-response","302","480822","0.0-8.0-0.18","LF","l2tdyj71gq","1920","1080","de","er04as06","null","","","","learningBlock2","","","","This is a dep:","null","","","","",""
"","image-keyboard-response","303","481150","0.0-8.0-1.18","LF","l2tdyj71gq","1920","1080","de","er04as06","null","","","","","","","","learning/Slide99.JPG","null","","","","",""
"","html-keyboard-response","304","482152","0.0-8.0-2.18","LF","l2tdyj71gq","1920","1080","de","er04as06","null","","","","learningBlock2","","","","<div style=""font-size:60px;""> </div>","null","LF","learning/Slide99.JPG","This is a dep:","",""
"","html-keyboard-response","305","483153","0.0-8.0-0.19","LF","l2tdyj71gq","1920","1080","de","er04as06","null","","","","learningBlock2","","","","This is a bim:","null","","","","",""
"","image-keyboard-response","306","483483","0.0-8.0-1.19","LF","l2tdyj71gq","1920","1080","de","er04as06","null","","","","","","","","learning/Slide100.JPG","null","","","","",""
"","html-keyboard-response","307","484485","0.0-8.0-2.19","LF","l2tdyj71gq","1920","1080","de","er04as06","null","","","","learningBlock2","","","","<div style=""font-size:60px;""> </div>","null","LF","learning/Slide100.JPG","This is a bim:","",""
"","html-keyboard-response","308","485486","0.0-8.0-0.20","LF","l2tdyj71gq","1920","1080","de","er04as06","null","","","","learningBlock2","","","","This is a tob:","null","","","","",""
"","image-keyboard-response","309","485814","0.0-8.0-1.20","LF","l2tdyj71gq","1920","1080","de","er04as06","null","","","","","","","","learning/Slide101.JPG","null","","","","",""
"","html-keyboard-response","310","486815","0.0-8.0-2.20","LF","l2tdyj71gq","1920","1080","de","er04as06","null","","","","learningBlock2","","","","<div style=""font-size:60px;""> </div>","null","LF","learning/Slide101.JPG","This is a tob:","",""
"","html-keyboard-response","311","487817","0.0-8.0-0.21","LF","l2tdyj71gq","1920","1080","de","er04as06","null","","","","learningBlock2","","","","This is a bim:","null","","","","",""
"","image-keyboard-response","312","488145","0.0-8.0-1.21","LF","l2tdyj71gq","1920","1080","de","er04as06","null","","","","","","","","learning/Slide102.JPG","null","","","","",""
"","html-keyboard-response","313","489146","0.0-8.0-2.21","LF","l2tdyj71gq","1920","1080","de","er04as06","null","","","","learningBlock2","","","","<div style=""font-size:60px;""> </div>","null","LF","learning/Slide102.JPG","This is a bim:","",""
"","html-keyboard-response","314","490148","0.0-8.0-0.22","LF","l2tdyj71gq","1920","1080","de","er04as06","null","","","","learningBlock2","","","","This is a dep:","null","","","","",""
"","image-keyboard-response","315","490475","0.0-8.0-1.22","LF","l2tdyj71gq","1920","1080","de","er04as06","null","","","","","","","","learning/Slide103.JPG","null","","","","",""
"","html-keyboard-response","316","491477","0.0-8.0-2.22","LF","l2tdyj71gq","1920","1080","de","er04as06","null","","","","learningBlock2","","","","<div style=""font-size:60px;""> </div>","null","LF","learning/Slide103.JPG","This is a dep:","",""
"","html-keyboard-response","317","492479","0.0-8.0-0.23","LF","l2tdyj71gq","1920","1080","de","er04as06","null","","","","learningBlock2","","","","This is a tob:","null","","","","",""
"","image-keyboard-response","318","492807","0.0-8.0-1.23","LF","l2tdyj71gq","1920","1080","de","er04as06","null","","","","","","","","learning/Slide104.JPG","null","","","","",""
"","html-keyboard-response","319","493809","0.0-8.0-2.23","LF","l2tdyj71gq","1920","1080","de","er04as06","null","","","","learningBlock2","","","","<div style=""font-size:60px;""> </div>","null","LF","learning/Slide104.JPG","This is a tob:","",""
"","html-keyboard-response","320","494810","0.0-8.0-0.24","LF","l2tdyj71gq","1920","1080","de","er04as06","null","","","","learningBlock2","","","","This is a dep:","null","","","","",""
"","image-keyboard-response","321","495138","0.0-8.0-1.24","LF","l2tdyj71gq","1920","1080","de","er04as06","null","","","","","","","","learning/Slide105.JPG","null","","","","",""
"","html-keyboard-response","322","496140","0.0-8.0-2.24","LF","l2tdyj71gq","1920","1080","de","er04as06","null","","","","learningBlock2","","","","<div style=""font-size:60px;""> </div>","null","LF","learning/Slide105.JPG","This is a dep:","",""
"","html-keyboard-response","323","497142","0.0-8.0-0.25","LF","l2tdyj71gq","1920","1080","de","er04as06","null","","","","learningBlock2","","","","This is a wug:","null","","","","",""
"","image-keyboard-response","324","497469","0.0-8.0-1.25","LF","l2tdyj71gq","1920","1080","de","er04as06","null","","","","","","","","learning/Slide106.JPG","null","","","","",""
"","html-keyboard-response","325","498470","0.0-8.0-2.25","LF","l2tdyj71gq","1920","1080","de","er04as06","null","","","","learningBlock2","","","","<div style=""font-size:60px;""> </div>","null","LF","learning/Slide106.JPG","This is a wug:","",""
"","html-keyboard-response","326","499472","0.0-8.0-0.26","LF","l2tdyj71gq","1920","1080","de","er04as06","null","","","","learningBlock2","","","","This is a bim:","null","","","","",""
"","image-keyboard-response","327","499800","0.0-8.0-1.26","LF","l2tdyj71gq","1920","1080","de","er04as06","null","","","","","","","","learning/Slide107.JPG","null","","","","",""
"","html-keyboard-response","328","500801","0.0-8.0-2.26","LF","l2tdyj71gq","1920","1080","de","er04as06","null","","","","learningBlock2","","","","<div style=""font-size:60px;""> </div>","null","LF","learning/Slide107.JPG","This is a bim:","",""
"","html-keyboard-response","329","501803","0.0-8.0-0.27","LF","l2tdyj71gq","1920","1080","de","er04as06","null","","","","learningBlock2","","","","This is a dep:","null","","","","",""
"","image-keyboard-response","330","502132","0.0-8.0-1.27","LF","l2tdyj71gq","1920","1080","de","er04as06","null","","","","","","","","learning/Slide108.JPG","null","","","","",""
"","html-keyboard-response","331","503134","0.0-8.0-2.27","LF","l2tdyj71gq","1920","1080","de","er04as06","null","","","","learningBlock2","","","","<div style=""font-size:60px;""> </div>","null","LF","learning/Slide108.JPG","This is a dep:","",""
"","html-keyboard-response","332","504136","0.0-8.0-0.28","LF","l2tdyj71gq","1920","1080","de","er04as06","null","","","","learningBlock2","","","","This is a wug:","null","","","","",""
"","image-keyboard-response","333","504463","0.0-8.0-1.28","LF","l2tdyj71gq","1920","1080","de","er04as06","null","","","","","","","","learning/Slide109.JPG","null","","","","",""
"","html-keyboard-response","334","505465","0.0-8.0-2.28","LF","l2tdyj71gq","1920","1080","de","er04as06","null","","","","learningBlock2","","","","<div style=""font-size:60px;""> </div>","null","LF","learning/Slide109.JPG","This is a wug:","",""
"","html-keyboard-response","335","506467","0.0-8.0-0.29","LF","l2tdyj71gq","1920","1080","de","er04as06","null","","","","learningBlock2","","","","This is a bim:","null","","","","",""
"","image-keyboard-response","336","506795","0.0-8.0-1.29","LF","l2tdyj71gq","1920","1080","de","er04as06","null","","","","","","","","learning/Slide110.JPG","null","","","","",""
"","html-keyboard-response","337","507796","0.0-8.0-2.29","LF","l2tdyj71gq","1920","1080","de","er04as06","null","","","","learningBlock2","","","","<div style=""font-size:60px;""> </div>","null","LF","learning/Slide110.JPG","This is a bim:","",""
"","html-keyboard-response","338","508799","0.0-8.0-0.30","LF","l2tdyj71gq","1920","1080","de","er04as06","null","","","","learningBlock2","","","","This is a tob:","null","","","","",""
"","image-keyboard-response","339","509126","0.0-8.0-1.30","LF","l2tdyj71gq","1920","1080","de","er04as06","null","","","","","","","","learning/Slide111.JPG","null","","","","",""
"","html-keyboard-response","340","510128","0.0-8.0-2.30","LF","l2tdyj71gq","1920","1080","de","er04as06","null","","","","learningBlock2","","","","<div style=""font-size:60px;""> </div>","null","LF","learning/Slide111.JPG","This is a tob:","",""
"","html-keyboard-response","341","511129","0.0-8.0-0.31","LF","l2tdyj71gq","1920","1080","de","er04as06","null","","","","learningBlock2","","","","This is a wug:","null","","","","",""
"","image-keyboard-response","342","511457","0.0-8.0-1.31","LF","l2tdyj71gq","1920","1080","de","er04as06","null","","","","","","","","learning/Slide112.JPG","null","","","","",""
"","html-keyboard-response","343","512459","0.0-8.0-2.31","LF","l2tdyj71gq","1920","1080","de","er04as06","null","","","","learningBlock2","","","","<div style=""font-size:60px;""> </div>","null","LF","learning/Slide112.JPG","This is a wug:","",""
"","html-keyboard-response","344","513462","0.0-8.0-0.32","LF","l2tdyj71gq","1920","1080","de","er04as06","null","","","","learningBlock2","","","","This is a tob:","null","","","","",""
"","image-keyboard-response","345","513790","0.0-8.0-1.32","LF","l2tdyj71gq","1920","1080","de","er04as06","null","","","","","","","","learning/Slide113.JPG","null","","","","",""
"","html-keyboard-response","346","514791","0.0-8.0-2.32","LF","l2tdyj71gq","1920","1080","de","er04as06","null","","","","learningBlock2","","","","<div style=""font-size:60px;""> </div>","null","LF","learning/Slide113.JPG","This is a tob:","",""
"","html-keyboard-response","347","515793","0.0-8.0-0.33","LF","l2tdyj71gq","1920","1080","de","er04as06","null","","","","learningBlock2","","","","This is a wug:","null","","","","",""
"","image-keyboard-response","348","516120","0.0-8.0-1.33","LF","l2tdyj71gq","1920","1080","de","er04as06","null","","","","","","","","learning/Slide114.JPG","null","","","","",""
"","html-keyboard-response","349","517122","0.0-8.0-2.33","LF","l2tdyj71gq","1920","1080","de","er04as06","null","","","","learningBlock2","","","","<div style=""font-size:60px;""> </div>","null","LF","learning/Slide114.JPG","This is a wug:","",""
"","html-keyboard-response","350","518124","0.0-8.0-0.34","LF","l2tdyj71gq","1920","1080","de","er04as06","null","","","","learningBlock2","","","","This is a bim:","null","","","","",""
"","image-keyboard-response","351","518451","0.0-8.0-1.34","LF","l2tdyj71gq","1920","1080","de","er04as06","null","","","","","","","","learning/Slide115.JPG","null","","","","",""
"","html-keyboard-response","352","519453","0.0-8.0-2.34","LF","l2tdyj71gq","1920","1080","de","er04as06","null","","","","learningBlock2","","","","<div style=""font-size:60px;""> </div>","null","LF","learning/Slide115.JPG","This is a bim:","",""
"","html-keyboard-response","353","520455","0.0-8.0-0.35","LF","l2tdyj71gq","1920","1080","de","er04as06","null","","","","learningBlock2","","","","This is a dep:","null","","","","",""
"","image-keyboard-response","354","520783","0.0-8.0-1.35","LF","l2tdyj71gq","1920","1080","de","er04as06","null","","","","","","","","learning/Slide116.JPG","null","","","","",""
"","html-keyboard-response","355","521784","0.0-8.0-2.35","LF","l2tdyj71gq","1920","1080","de","er04as06","null","","","","learningBlock2","","","","<div style=""font-size:60px;""> </div>","null","LF","learning/Slide116.JPG","This is a dep:","",""
"","html-keyboard-response","356","522786","0.0-8.0-0.36","LF","l2tdyj71gq","1920","1080","de","er04as06","null","","","","learningBlock2","","","","This is a tob:","null","","","","",""
"","image-keyboard-response","357","523113","0.0-8.0-1.36","LF","l2tdyj71gq","1920","1080","de","er04as06","null","","","","","","","","learning/Slide117.JPG","null","","","","",""
"","html-keyboard-response","358","524115","0.0-8.0-2.36","LF","l2tdyj71gq","1920","1080","de","er04as06","null","","","","learningBlock2","","","","<div style=""font-size:60px;""> </div>","null","LF","learning/Slide117.JPG","This is a tob:","",""
"","html-keyboard-response","359","525117","0.0-8.0-0.37","LF","l2tdyj71gq","1920","1080","de","er04as06","null","","","","learningBlock2","","","","This is a dep:","null","","","","",""
"","image-keyboard-response","360","525444","0.0-8.0-1.37","LF","l2tdyj71gq","1920","1080","de","er04as06","null","","","","","","","","learning/Slide118.JPG","null","","","","",""
"","html-keyboard-response","361","526446","0.0-8.0-2.37","LF","l2tdyj71gq","1920","1080","de","er04as06","null","","","","learningBlock2","","","","<div style=""font-size:60px;""> </div>","null","LF","learning/Slide118.JPG","This is a dep:","",""
"","html-keyboard-response","362","527448","0.0-8.0-0.38","LF","l2tdyj71gq","1920","1080","de","er04as06","null","","","","learningBlock2","","","","This is a wug:","null","","","","",""
"","image-keyboard-response","363","527776","0.0-8.0-1.38","LF","l2tdyj71gq","1920","1080","de","er04as06","null","","","","","","","","learning/Slide119.JPG","null","","","","",""
"","html-keyboard-response","364","528777","0.0-8.0-2.38","LF","l2tdyj71gq","1920","1080","de","er04as06","null","","","","learningBlock2","","","","<div style=""font-size:60px;""> </div>","null","LF","learning/Slide119.JPG","This is a wug:","",""
"","html-keyboard-response","365","529779","0.0-8.0-0.39","LF","l2tdyj71gq","1920","1080","de","er04as06","null","","","","learningBlock2","","","","This is a dep:","null","","","","",""
"","image-keyboard-response","366","530106","0.0-8.0-1.39","LF","l2tdyj71gq","1920","1080","de","er04as06","null","","","","","","","","learning/Slide120.JPG","null","","","","",""
"","html-keyboard-response","367","531109","0.0-8.0-2.39","LF","l2tdyj71gq","1920","1080","de","er04as06","null","","","","learningBlock2","","","","<div style=""font-size:60px;""> </div>","null","LF","learning/Slide120.JPG","This is a dep:","",""
"","html-keyboard-response","368","532110","0.0-8.0-0.40","LF","l2tdyj71gq","1920","1080","de","er04as06","null","","","","learningBlock2","","","","This is a bim:","null","","","","",""
"","image-keyboard-response","369","532438","0.0-8.0-1.40","LF","l2tdyj71gq","1920","1080","de","er04as06","null","","","","","","","","learning/Slide121.JPG","null","","","","",""
"","html-keyboard-response","370","533440","0.0-8.0-2.40","LF","l2tdyj71gq","1920","1080","de","er04as06","null","","","","learningBlock2","","","","<div style=""font-size:60px;""> </div>","null","LF","learning/Slide121.JPG","This is a bim:","",""
"","html-keyboard-response","371","534442","0.0-8.0-0.41","LF","l2tdyj71gq","1920","1080","de","er04as06","null","","","","learningBlock2","","","","This is a wug:","null","","","","",""
"","image-keyboard-response","372","534770","0.0-8.0-1.41","LF","l2tdyj71gq","1920","1080","de","er04as06","null","","","","","","","","learning/Slide122.JPG","null","","","","",""
"","html-keyboard-response","373","535772","0.0-8.0-2.41","LF","l2tdyj71gq","1920","1080","de","er04as06","null","","","","learningBlock2","","","","<div style=""font-size:60px;""> </div>","null","LF","learning/Slide122.JPG","This is a wug:","",""
"","html-keyboard-response","374","536773","0.0-8.0-0.42","LF","l2tdyj71gq","1920","1080","de","er04as06","null","","","","learningBlock2","","","","This is a bim:","null","","","","",""
"","image-keyboard-response","375","537101","0.0-8.0-1.42","LF","l2tdyj71gq","1920","1080","de","er04as06","null","","","","","","","","learning/Slide123.JPG","null","","","","",""
"","html-keyboard-response","376","538102","0.0-8.0-2.42","LF","l2tdyj71gq","1920","1080","de","er04as06","null","","","","learningBlock2","","","","<div style=""font-size:60px;""> </div>","null","LF","learning/Slide123.JPG","This is a bim:","",""
"","html-keyboard-response","377","539103","0.0-8.0-0.43","LF","l2tdyj71gq","1920","1080","de","er04as06","null","","","","learningBlock2","","","","This is a tob:","null","","","","",""
"","image-keyboard-response","378","539431","0.0-8.0-1.43","LF","l2tdyj71gq","1920","1080","de","er04as06","null","","","","","","","","learning/Slide124.JPG","null","","","","",""
"","html-keyboard-response","379","540433","0.0-8.0-2.43","LF","l2tdyj71gq","1920","1080","de","er04as06","null","","","","learningBlock2","","","","<div style=""font-size:60px;""> </div>","null","LF","learning/Slide124.JPG","This is a tob:","",""
"","html-keyboard-response","380","541435","0.0-8.0-0.44","LF","l2tdyj71gq","1920","1080","de","er04as06","null","","","","learningBlock2","","","","This is a bim:","null","","","","",""
"","image-keyboard-response","381","541763","0.0-8.0-1.44","LF","l2tdyj71gq","1920","1080","de","er04as06","null","","","","","","","","learning/Slide125.JPG","null","","","","",""
"","html-keyboard-response","382","542764","0.0-8.0-2.44","LF","l2tdyj71gq","1920","1080","de","er04as06","null","","","","learningBlock2","","","","<div style=""font-size:60px;""> </div>","null","LF","learning/Slide125.JPG","This is a bim:","",""
"","html-keyboard-response","383","543766","0.0-8.0-0.45","LF","l2tdyj71gq","1920","1080","de","er04as06","null","","","","learningBlock2","","","","This is a tob:","null","","","","",""
"","image-keyboard-response","384","544094","0.0-8.0-1.45","LF","l2tdyj71gq","1920","1080","de","er04as06","null","","","","","","","","learning/Slide126.JPG","null","","","","",""
"","html-keyboard-response","385","545096","0.0-8.0-2.45","LF","l2tdyj71gq","1920","1080","de","er04as06","null","","","","learningBlock2","","","","<div style=""font-size:60px;""> </div>","null","LF","learning/Slide126.JPG","This is a tob:","",""
"","html-keyboard-response","386","546098","0.0-8.0-0.46","LF","l2tdyj71gq","1920","1080","de","er04as06","null","","","","learningBlock2","","","","This is a dep:","null","","","","",""
"","image-keyboard-response","387","546426","0.0-8.0-1.46","LF","l2tdyj71gq","1920","1080","de","er04as06","null","","","","","","","","learning/Slide127.JPG","null","","","","",""
"","html-keyboard-response","388","547428","0.0-8.0-2.46","LF","l2tdyj71gq","1920","1080","de","er04as06","null","","","","learningBlock2","","","","<div style=""font-size:60px;""> </div>","null","LF","learning/Slide127.JPG","This is a dep:","",""
"","html-keyboard-response","389","548430","0.0-8.0-0.47","LF","l2tdyj71gq","1920","1080","de","er04as06","null","","","","learningBlock2","","","","This is a wug:","null","","","","",""
"","image-keyboard-response","390","548758","0.0-8.0-1.47","LF","l2tdyj71gq","1920","1080","de","er04as06","null","","","","","","","","learning/Slide128.JPG","null","","","","",""
"","html-keyboard-response","391","549760","0.0-8.0-2.47","LF","l2tdyj71gq","1920","1080","de","er04as06","null","","","","learningBlock2","","","","<div style=""font-size:60px;""> </div>","null","LF","learning/Slide128.JPG","This is a wug:","",""
"","html-keyboard-response","392","550761","0.0-8.0-0.48","LF","l2tdyj71gq","1920","1080","de","er04as06","null","","","","learningBlock2","","","","This is a tob:","null","","","","",""
"","image-keyboard-response","393","551089","0.0-8.0-1.48","LF","l2tdyj71gq","1920","1080","de","er04as06","null","","","","","","","","learning/Slide129.JPG","null","","","","",""
"","html-keyboard-response","394","552091","0.0-8.0-2.48","LF","l2tdyj71gq","1920","1080","de","er04as06","null","","","","learningBlock2","","","","<div style=""font-size:60px;""> </div>","null","LF","learning/Slide129.JPG","This is a tob:","",""
"","html-keyboard-response","395","553093","0.0-8.0-0.49","LF","l2tdyj71gq","1920","1080","de","er04as06","null","","","","learningBlock2","","","","This is a wug:","null","","","","",""
"","image-keyboard-response","396","553421","0.0-8.0-1.49","LF","l2tdyj71gq","1920","1080","de","er04as06","null","","","","","","","","learning/Slide130.JPG","null","","","","",""
"","html-keyboard-response","397","554422","0.0-8.0-2.49","LF","l2tdyj71gq","1920","1080","de","er04as06","null","","","","learningBlock2","","","","<div style=""font-size:60px;""> </div>","null","LF","learning/Slide130.JPG","This is a wug:","",""
"","html-keyboard-response","398","555424","0.0-8.0-0.50","LF","l2tdyj71gq","1920","1080","de","er04as06","null","","","","learningBlock2","","","","This is a bim:","null","","","","",""
"","image-keyboard-response","399","555751","0.0-8.0-1.50","LF","l2tdyj71gq","1920","1080","de","er04as06","null","","","","","","","","learning/Slide131.JPG","null","","","","",""
"","html-keyboard-response","400","556754","0.0-8.0-2.50","LF","l2tdyj71gq","1920","1080","de","er04as06","null","","","","learningBlock2","","","","<div style=""font-size:60px;""> </div>","null","LF","learning/Slide131.JPG","This is a bim:","",""
"","html-keyboard-response","401","557755","0.0-8.0-0.51","LF","l2tdyj71gq","1920","1080","de","er04as06","null","","","","learningBlock2","","","","This is a dep:","null","","","","",""
"","image-keyboard-response","402","558084","0.0-8.0-1.51","LF","l2tdyj71gq","1920","1080","de","er04as06","null","","","","","","","","learning/Slide132.JPG","null","","","","",""
"","html-keyboard-response","403","559086","0.0-8.0-2.51","LF","l2tdyj71gq","1920","1080","de","er04as06","null","","","","learningBlock2","","","","<div style=""font-size:60px;""> </div>","null","LF","learning/Slide132.JPG","This is a dep:","",""
"","html-keyboard-response","404","560087","0.0-8.0-0.52","LF","l2tdyj71gq","1920","1080","de","er04as06","null","","","","learningBlock2","","","","This is a tob:","null","","","","",""
"","image-keyboard-response","405","560416","0.0-8.0-1.52","LF","l2tdyj71gq","1920","1080","de","er04as06","null","","","","","","","","learning/Slide133.JPG","null","","","","",""
"","html-keyboard-response","406","561417","0.0-8.0-2.52","LF","l2tdyj71gq","1920","1080","de","er04as06","null","","","","learningBlock2","","","","<div style=""font-size:60px;""> </div>","null","LF","learning/Slide133.JPG","This is a tob:","",""
"","html-keyboard-response","407","562419","0.0-8.0-0.53","LF","l2tdyj71gq","1920","1080","de","er04as06","null","","","","learningBlock2","","","","This is a dep:","null","","","","",""
"","image-keyboard-response","408","562748","0.0-8.0-1.53","LF","l2tdyj71gq","1920","1080","de","er04as06","null","","","","","","","","learning/Slide134.JPG","null","","","","",""
"","html-keyboard-response","409","563749","0.0-8.0-2.53","LF","l2tdyj71gq","1920","1080","de","er04as06","null","","","","learningBlock2","","","","<div style=""font-size:60px;""> </div>","null","LF","learning/Slide134.JPG","This is a dep:","",""
"","html-keyboard-response","410","564751","0.0-8.0-0.54","LF","l2tdyj71gq","1920","1080","de","er04as06","null","","","","learningBlock2","","","","This is a tob:","null","","","","",""
"","image-keyboard-response","411","565078","0.0-8.0-1.54","LF","l2tdyj71gq","1920","1080","de","er04as06","null","","","","","","","","learning/Slide135.JPG","null","","","","",""
"","html-keyboard-response","412","566080","0.0-8.0-2.54","LF","l2tdyj71gq","1920","1080","de","er04as06","null","","","","learningBlock2","","","","<div style=""font-size:60px;""> </div>","null","LF","learning/Slide135.JPG","This is a tob:","",""
"","html-keyboard-response","413","567083","0.0-8.0-0.55","LF","l2tdyj71gq","1920","1080","de","er04as06","null","","","","learningBlock2","","","","This is a wug:","null","","","","",""
"","image-keyboard-response","414","567410","0.0-8.0-1.55","LF","l2tdyj71gq","1920","1080","de","er04as06","null","","","","","","","","learning/Slide136.JPG","null","","","","",""
"","html-keyboard-response","415","568412","0.0-8.0-2.55","LF","l2tdyj71gq","1920","1080","de","er04as06","null","","","","learningBlock2","","","","<div style=""font-size:60px;""> </div>","null","LF","learning/Slide136.JPG","This is a wug:","",""
"","html-keyboard-response","416","569414","0.0-8.0-0.56","LF","l2tdyj71gq","1920","1080","de","er04as06","null","","","","learningBlock2","","","","This is a tob:","null","","","","",""
"","image-keyboard-response","417","569741","0.0-8.0-1.56","LF","l2tdyj71gq","1920","1080","de","er04as06","null","","","","","","","","learning/Slide137.JPG","null","","","","",""
"","html-keyboard-response","418","570743","0.0-8.0-2.56","LF","l2tdyj71gq","1920","1080","de","er04as06","null","","","","learningBlock2","","","","<div style=""font-size:60px;""> </div>","null","LF","learning/Slide137.JPG","This is a tob:","",""
"","html-keyboard-response","419","571745","0.0-8.0-0.57","LF","l2tdyj71gq","1920","1080","de","er04as06","null","","","","learningBlock2","","","","This is a bim:","null","","","","",""
"","image-keyboard-response","420","572073","0.0-8.0-1.57","LF","l2tdyj71gq","1920","1080","de","er04as06","null","","","","","","","","learning/Slide138.JPG","null","","","","",""
"","html-keyboard-response","421","573074","0.0-8.0-2.57","LF","l2tdyj71gq","1920","1080","de","er04as06","null","","","","learningBlock2","","","","<div style=""font-size:60px;""> </div>","null","LF","learning/Slide138.JPG","This is a bim:","",""
"","html-keyboard-response","422","574076","0.0-8.0-0.58","LF","l2tdyj71gq","1920","1080","de","er04as06","null","","","","learningBlock2","","","","This is a wug:","null","","","","",""
"","image-keyboard-response","423","574404","0.0-8.0-1.58","LF","l2tdyj71gq","1920","1080","de","er04as06","null","","","","","","","","learning/Slide139.JPG","null","","","","",""
"","html-keyboard-response","424","575406","0.0-8.0-2.58","LF","l2tdyj71gq","1920","1080","de","er04as06","null","","","","learningBlock2","","","","<div style=""font-size:60px;""> </div>","null","LF","learning/Slide139.JPG","This is a wug:","",""
"","html-keyboard-response","425","576407","0.0-8.0-0.59","LF","l2tdyj71gq","1920","1080","de","er04as06","null","","","","learningBlock2","","","","This is a dep:","null","","","","",""
"","image-keyboard-response","426","576734","0.0-8.0-1.59","LF","l2tdyj71gq","1920","1080","de","er04as06","null","","","","","","","","learning/Slide140.JPG","null","","","","",""
"","html-keyboard-response","427","577736","0.0-8.0-2.59","LF","l2tdyj71gq","1920","1080","de","er04as06","null","","","","learningBlock2","","","","<div style=""font-size:60px;""> </div>","null","LF","learning/Slide140.JPG","This is a dep:","",""
"","html-keyboard-response","428","578739","0.0-8.0-0.60","LF","l2tdyj71gq","1920","1080","de","er04as06","null","","","","learningBlock2","","","","This is a tob:","null","","","","",""
"","image-keyboard-response","429","579066","0.0-8.0-1.60","LF","l2tdyj71gq","1920","1080","de","er04as06","null","","","","","","","","learning/Slide141.JPG","null","","","","",""
"","html-keyboard-response","430","580068","0.0-8.0-2.60","LF","l2tdyj71gq","1920","1080","de","er04as06","null","","","","learningBlock2","","","","<div style=""font-size:60px;""> </div>","null","LF","learning/Slide141.JPG","This is a tob:","",""
"","html-keyboard-response","431","581070","0.0-8.0-0.61","LF","l2tdyj71gq","1920","1080","de","er04as06","null","","","","learningBlock2","","","","This is a wug:","null","","","","",""
"","image-keyboard-response","432","581397","0.0-8.0-1.61","LF","l2tdyj71gq","1920","1080","de","er04as06","null","","","","","","","","learning/Slide142.JPG","null","","","","",""
"","html-keyboard-response","433","582399","0.0-8.0-2.61","LF","l2tdyj71gq","1920","1080","de","er04as06","null","","","","learningBlock2","","","","<div style=""font-size:60px;""> </div>","null","LF","learning/Slide142.JPG","This is a wug:","",""
"","html-keyboard-response","434","583401","0.0-8.0-0.62","LF","l2tdyj71gq","1920","1080","de","er04as06","null","","","","learningBlock2","","","","This is a bim:","null","","","","",""
"","image-keyboard-response","435","583730","0.0-8.0-1.62","LF","l2tdyj71gq","1920","1080","de","er04as06","null","","","","","","","","learning/Slide143.JPG","null","","","","",""
"","html-keyboard-response","436","584731","0.0-8.0-2.62","LF","l2tdyj71gq","1920","1080","de","er04as06","null","","","","learningBlock2","","","","<div style=""font-size:60px;""> </div>","null","LF","learning/Slide143.JPG","This is a bim:","",""
"","html-keyboard-response","437","585733","0.0-8.0-0.63","LF","l2tdyj71gq","1920","1080","de","er04as06","null","","","","learningBlock2","","","","This is a dep:","null","","","","",""
"","image-keyboard-response","438","586060","0.0-8.0-1.63","LF","l2tdyj71gq","1920","1080","de","er04as06","null","","","","","","","","learning/Slide144.JPG","null","","","","",""
"","html-keyboard-response","439","587062","0.0-8.0-2.63","LF","l2tdyj71gq","1920","1080","de","er04as06","null","","","","learningBlock2","","","","<div style=""font-size:60px;""> </div>","null","LF","learning/Slide144.JPG","This is a dep:","",""
"","html-keyboard-response","440","588064","0.0-8.0-0.64","LF","l2tdyj71gq","1920","1080","de","er04as06","null","","","","learningBlock2","","","","This is a bim:","null","","","","",""
"","image-keyboard-response","441","588392","0.0-8.0-1.64","LF","l2tdyj71gq","1920","1080","de","er04as06","null","","","","","","","","learning/Slide145.JPG","null","","","","",""
"","html-keyboard-response","442","589393","0.0-8.0-2.64","LF","l2tdyj71gq","1920","1080","de","er04as06","null","","","","learningBlock2","","","","<div style=""font-size:60px;""> </div>","null","LF","learning/Slide145.JPG","This is a bim:","",""
"","html-keyboard-response","443","590395","0.0-8.0-0.65","LF","l2tdyj71gq","1920","1080","de","er04as06","null","","","","learningBlock2","","","","This is a tob:","null","","","","",""
"","image-keyboard-response","444","590723","0.0-8.0-1.65","LF","l2tdyj71gq","1920","1080","de","er04as06","null","","","","","","","","learning/Slide146.JPG","null","","","","",""
"","html-keyboard-response","445","591725","0.0-8.0-2.65","LF","l2tdyj71gq","1920","1080","de","er04as06","null","","","","learningBlock2","","","","<div style=""font-size:60px;""> </div>","null","LF","learning/Slide146.JPG","This is a tob:","",""
"","html-keyboard-response","446","592727","0.0-8.0-0.66","LF","l2tdyj71gq","1920","1080","de","er04as06","null","","","","learningBlock2","","","","This is a wug:","null","","","","",""
"","image-keyboard-response","447","593054","0.0-8.0-1.66","LF","l2tdyj71gq","1920","1080","de","er04as06","null","","","","","","","","learning/Slide147.JPG","null","","","","",""
"","html-keyboard-response","448","594056","0.0-8.0-2.66","LF","l2tdyj71gq","1920","1080","de","er04as06","null","","","","learningBlock2","","","","<div style=""font-size:60px;""> </div>","null","LF","learning/Slide147.JPG","This is a wug:","",""
"","html-keyboard-response","449","595058","0.0-8.0-0.67","LF","l2tdyj71gq","1920","1080","de","er04as06","null","","","","learningBlock2","","","","This is a bim:","null","","","","",""
"","image-keyboard-response","450","595386","0.0-8.0-1.67","LF","l2tdyj71gq","1920","1080","de","er04as06","null","","","","","","","","learning/Slide148.JPG","null","","","","",""
"","html-keyboard-response","451","596387","0.0-8.0-2.67","LF","l2tdyj71gq","1920","1080","de","er04as06","null","","","","learningBlock2","","","","<div style=""font-size:60px;""> </div>","null","LF","learning/Slide148.JPG","This is a bim:","",""
"","html-keyboard-response","452","597389","0.0-8.0-0.68","LF","l2tdyj71gq","1920","1080","de","er04as06","null","","","","learningBlock2","","","","This is a dep:","null","","","","",""
"","image-keyboard-response","453","597717","0.0-8.0-1.68","LF","l2tdyj71gq","1920","1080","de","er04as06","null","","","","","","","","learning/Slide149.JPG","null","","","","",""
"","html-keyboard-response","454","598718","0.0-8.0-2.68","LF","l2tdyj71gq","1920","1080","de","er04as06","null","","","","learningBlock2","","","","<div style=""font-size:60px;""> </div>","null","LF","learning/Slide149.JPG","This is a dep:","",""
"","html-keyboard-response","455","599720","0.0-8.0-0.69","LF","l2tdyj71gq","1920","1080","de","er04as06","null","","","","learningBlock2","","","","This is a wug:","null","","","","",""
"","image-keyboard-response","456","600048","0.0-8.0-1.69","LF","l2tdyj71gq","1920","1080","de","er04as06","null","","","","","","","","learning/Slide150.JPG","null","","","","",""
"","html-keyboard-response","457","601050","0.0-8.0-2.69","LF","l2tdyj71gq","1920","1080","de","er04as06","null","","","","learningBlock2","","","","<div style=""font-size:60px;""> </div>","null","LF","learning/Slide150.JPG","This is a wug:","",""
"","html-keyboard-response","458","602051","0.0-8.0-0.70","LF","l2tdyj71gq","1920","1080","de","er04as06","null","","","","learningBlock2","","","","This is a dep:","null","","","","",""
"","image-keyboard-response","459","602378","0.0-8.0-1.70","LF","l2tdyj71gq","1920","1080","de","er04as06","null","","","","","","","","learning/Slide151.JPG","null","","","","",""
"","html-keyboard-response","460","603380","0.0-8.0-2.70","LF","l2tdyj71gq","1920","1080","de","er04as06","null","","","","learningBlock2","","","","<div style=""font-size:60px;""> </div>","null","LF","learning/Slide151.JPG","This is a dep:","",""
"","html-keyboard-response","461","604382","0.0-8.0-0.71","LF","l2tdyj71gq","1920","1080","de","er04as06","null","","","","learningBlock2","","","","This is a wug:","null","","","","",""
"","image-keyboard-response","462","604709","0.0-8.0-1.71","LF","l2tdyj71gq","1920","1080","de","er04as06","null","","","","","","","","learning/Slide152.JPG","null","","","","",""
"","html-keyboard-response","463","605712","0.0-8.0-2.71","LF","l2tdyj71gq","1920","1080","de","er04as06","null","","","","learningBlock2","","","","<div style=""font-size:60px;""> </div>","null","LF","learning/Slide152.JPG","This is a wug:","",""
"","html-keyboard-response","464","606713","0.0-8.0-0.72","LF","l2tdyj71gq","1920","1080","de","er04as06","null","","","","learningBlock2","","","","This is a bim:","null","","","","",""
"","image-keyboard-response","465","607040","0.0-8.0-1.72","LF","l2tdyj71gq","1920","1080","de","er04as06","null","","","","","","","","learning/Slide153.JPG","null","","","","",""
"","html-keyboard-response","466","608042","0.0-8.0-2.72","LF","l2tdyj71gq","1920","1080","de","er04as06","null","","","","learningBlock2","","","","<div style=""font-size:60px;""> </div>","null","LF","learning/Slide153.JPG","This is a bim:","",""
"","html-keyboard-response","467","609044","0.0-8.0-0.73","LF","l2tdyj71gq","1920","1080","de","er04as06","null","","","","learningBlock2","","","","This is a tob:","null","","","","",""
"","image-keyboard-response","468","609371","0.0-8.0-1.73","LF","l2tdyj71gq","1920","1080","de","er04as06","null","","","","","","","","learning/Slide154.JPG","null","","","","",""
"","html-keyboard-response","469","610373","0.0-8.0-2.73","LF","l2tdyj71gq","1920","1080","de","er04as06","null","","","","learningBlock2","","","","<div style=""font-size:60px;""> </div>","null","LF","learning/Slide154.JPG","This is a tob:","",""
"","html-keyboard-response","470","611375","0.0-8.0-0.74","LF","l2tdyj71gq","1920","1080","de","er04as06","null","","","","learningBlock2","","","","This is a dep:","null","","","","",""
"","image-keyboard-response","471","611703","0.0-8.0-1.74","LF","l2tdyj71gq","1920","1080","de","er04as06","null","","","","","","","","learning/Slide155.JPG","null","","","","",""
"","html-keyboard-response","472","612706","0.0-8.0-2.74","LF","l2tdyj71gq","1920","1080","de","er04as06","null","","","","learningBlock2","","","","<div style=""font-size:60px;""> </div>","null","LF","learning/Slide155.JPG","This is a dep:","",""
"","html-keyboard-response","473","613707","0.0-8.0-0.75","LF","l2tdyj71gq","1920","1080","de","er04as06","null","","","","learningBlock2","","","","This is a bim:","null","","","","",""
"","image-keyboard-response","474","614036","0.0-8.0-1.75","LF","l2tdyj71gq","1920","1080","de","er04as06","null","","","","","","","","learning/Slide156.JPG","null","","","","",""
"","html-keyboard-response","475","615038","0.0-8.0-2.75","LF","l2tdyj71gq","1920","1080","de","er04as06","null","","","","learningBlock2","","","","<div style=""font-size:60px;""> </div>","null","LF","learning/Slide156.JPG","This is a bim:","",""
"","html-keyboard-response","476","616039","0.0-8.0-0.76","LF","l2tdyj71gq","1920","1080","de","er04as06","null","","","","learningBlock2","","","","This is a dep:","null","","","","",""
"","image-keyboard-response","477","616367","0.0-8.0-1.76","LF","l2tdyj71gq","1920","1080","de","er04as06","null","","","","","","","","learning/Slide157.JPG","null","","","","",""
"","html-keyboard-response","478","617369","0.0-8.0-2.76","LF","l2tdyj71gq","1920","1080","de","er04as06","null","","","","learningBlock2","","","","<div style=""font-size:60px;""> </div>","null","LF","learning/Slide157.JPG","This is a dep:","",""
"","html-keyboard-response","479","618370","0.0-8.0-0.77","LF","l2tdyj71gq","1920","1080","de","er04as06","null","","","","learningBlock2","","","","This is a tob:","null","","","","",""
"","image-keyboard-response","480","618699","0.0-8.0-1.77","LF","l2tdyj71gq","1920","1080","de","er04as06","null","","","","","","","","learning/Slide158.JPG","null","","","","",""
"","html-keyboard-response","481","619701","0.0-8.0-2.77","LF","l2tdyj71gq","1920","1080","de","er04as06","null","","","","learningBlock2","","","","<div style=""font-size:60px;""> </div>","null","LF","learning/Slide158.JPG","This is a tob:","",""
"","html-keyboard-response","482","620703","0.0-8.0-0.78","LF","l2tdyj71gq","1920","1080","de","er04as06","null","","","","learningBlock2","","","","This is a dep:","null","","","","",""
"","image-keyboard-response","483","621031","0.0-8.0-1.78","LF","l2tdyj71gq","1920","1080","de","er04as06","null","","","","","","","","learning/Slide159.JPG","null","","","","",""
"","html-keyboard-response","484","622033","0.0-8.0-2.78","LF","l2tdyj71gq","1920","1080","de","er04as06","null","","","","learningBlock2","","","","<div style=""font-size:60px;""> </div>","null","LF","learning/Slide159.JPG","This is a dep:","",""
"","html-keyboard-response","485","623034","0.0-8.0-0.79","LF","l2tdyj71gq","1920","1080","de","er04as06","null","","","","learningBlock2","","","","This is a wug:","null","","","","",""
"","image-keyboard-response","486","623362","0.0-8.0-1.79","LF","l2tdyj71gq","1920","1080","de","er04as06","null","","","","","","","","learning/Slide160.JPG","null","","","","",""
"","html-keyboard-response","487","624364","0.0-8.0-2.79","LF","l2tdyj71gq","1920","1080","de","er04as06","null","","","","learningBlock2","","","","<div style=""font-size:60px;""> </div>","null","LF","learning/Slide160.JPG","This is a wug:","",""
