"success","trial_type","trial_index","time_elapsed","internal_node_id","condition","subject","screen_width","screen_height","language","codeword","rt","responses","url","view_history","test_part","final_height_px","final_width_px","scale_factor","stimulus","key_press","learningType","presentedImage","presentedLabel","button_pressed","response"
"true","fullscreen","0","13810","0.0-0.0","LF","dy38rvvnxc","1366","768","de","rf07er10","","","","","","","","","","","","","","",""
"","survey-html-form","1","26803","0.0-1.0","LF","dy38rvvnxc","1366","768","de","rf07er10","12986","{""language"":""de""}","","","","","","","","","","","","",""
"","external-html","2","71762","0.0-2.0-0.0","LF","dy38rvvnxc","1366","768","de","rf07er10","44816","","text/information.html","","","","","","","","","","","",""
"","external-html","3","95292","0.0-2.0-1.0","LF","dy38rvvnxc","1366","768","de","rf07er10","23449","","text/consent.html","","","","","","","","","","","",""
"","survey-html-form","4","187392","0.0-2.0-2.0","LF","dy38rvvnxc","1366","768","de","rf07er10","92093","{""codeword_enter"":""rf07er10""}","","","","","","","","","","","","",""
"","instructions","5","210809","0.0-4.0","LF","dy38rvvnxc","1366","768","de","rf07er10","NA","","","[{""page_index"":0,""viewing_time"":4638},{""page_index"":1,""viewing_time"":17275}]","instructions","","","","","","","","","",""
"","resize","6","336612","0.0-5.0","LF","dy38rvvnxc","1366","768","de","rf07er10","","","","","","","336","2.1333333333333333","","","","","","",""
"","html-keyboard-response","7","337616","0.0-6.0-0.0","LF","dy38rvvnxc","1366","768","de","rf07er10","null","","","","learningBlock1","","","","This is a tob:","null","","","","",""
"","image-keyboard-response","8","337945","0.0-6.0-1.0","LF","dy38rvvnxc","1366","768","de","rf07er10","null","","","","","","","","learning/Slide1.JPG","null","","","","",""
"","html-keyboard-response","9","338947","0.0-6.0-2.0","LF","dy38rvvnxc","1366","768","de","rf07er10","null","","","","learningBlock1","","","","<div style=""font-size:60px;""> </div>","null","LF","learning/Slide1.JPG","This is a tob:","",""
"","html-keyboard-response","10","339949","0.0-6.0-0.1","LF","dy38rvvnxc","1366","768","de","rf07er10","null","","","","learningBlock1","","","","This is a wug:","null","","","","",""
"","image-keyboard-response","11","340277","0.0-6.0-1.1","LF","dy38rvvnxc","1366","768","de","rf07er10","null","","","","","","","","learning/Slide2.JPG","null","","","","",""
"","html-keyboard-response","12","341280","0.0-6.0-2.1","LF","dy38rvvnxc","1366","768","de","rf07er10","null","","","","learningBlock1","","","","<div style=""font-size:60px;""> </div>","null","LF","learning/Slide2.JPG","This is a wug:","",""
"","html-keyboard-response","13","342282","0.0-6.0-0.2","LF","dy38rvvnxc","1366","768","de","rf07er10","null","","","","learningBlock1","","","","This is a bim:","null","","","","",""
"","image-keyboard-response","14","342610","0.0-6.0-1.2","LF","dy38rvvnxc","1366","768","de","rf07er10","null","","","","","","","","learning/Slide3.JPG","null","","","","",""
"","html-keyboard-response","15","343613","0.0-6.0-2.2","LF","dy38rvvnxc","1366","768","de","rf07er10","null","","","","learningBlock1","","","","<div style=""font-size:60px;""> </div>","null","LF","learning/Slide3.JPG","This is a bim:","",""
"","html-keyboard-response","16","344614","0.0-6.0-0.3","LF","dy38rvvnxc","1366","768","de","rf07er10","null","","","","learningBlock1","","","","This is a dep:","null","","","","",""
"","image-keyboard-response","17","344942","0.0-6.0-1.3","LF","dy38rvvnxc","1366","768","de","rf07er10","null","","","","","","","","learning/Slide4.JPG","null","","","","",""
"","html-keyboard-response","18","345945","0.0-6.0-2.3","LF","dy38rvvnxc","1366","768","de","rf07er10","null","","","","learningBlock1","","","","<div style=""font-size:60px;""> </div>","null","LF","learning/Slide4.JPG","This is a dep:","",""
"","html-keyboard-response","19","346947","0.0-6.0-0.4","LF","dy38rvvnxc","1366","768","de","rf07er10","null","","","","learningBlock1","","","","This is a wug:","null","","","","",""
"","image-keyboard-response","20","347274","0.0-6.0-1.4","LF","dy38rvvnxc","1366","768","de","rf07er10","null","","","","","","","","learning/Slide5.JPG","null","","","","",""
"","html-keyboard-response","21","348276","0.0-6.0-2.4","LF","dy38rvvnxc","1366","768","de","rf07er10","null","","","","learningBlock1","","","","<div style=""font-size:60px;""> </div>","null","LF","learning/Slide5.JPG","This is a wug:","",""
"","html-keyboard-response","22","349278","0.0-6.0-0.5","LF","dy38rvvnxc","1366","768","de","rf07er10","null","","","","learningBlock1","","","","This is a dep:","null","","","","",""
"","image-keyboard-response","23","349606","0.0-6.0-1.5","LF","dy38rvvnxc","1366","768","de","rf07er10","null","","","","","","","","learning/Slide6.JPG","null","","","","",""
"","html-keyboard-response","24","350608","0.0-6.0-2.5","LF","dy38rvvnxc","1366","768","de","rf07er10","null","","","","learningBlock1","","","","<div style=""font-size:60px;""> </div>","null","LF","learning/Slide6.JPG","This is a dep:","",""
"","html-keyboard-response","25","351609","0.0-6.0-0.6","LF","dy38rvvnxc","1366","768","de","rf07er10","null","","","","learningBlock1","","","","This is a wug:","null","","","","",""
"","image-keyboard-response","26","351937","0.0-6.0-1.6","LF","dy38rvvnxc","1366","768","de","rf07er10","null","","","","","","","","learning/Slide7.JPG","null","","","","",""
"","html-keyboard-response","27","352939","0.0-6.0-2.6","LF","dy38rvvnxc","1366","768","de","rf07er10","null","","","","learningBlock1","","","","<div style=""font-size:60px;""> </div>","null","LF","learning/Slide7.JPG","This is a wug:","",""
"","html-keyboard-response","28","353940","0.0-6.0-0.7","LF","dy38rvvnxc","1366","768","de","rf07er10","null","","","","learningBlock1","","","","This is a bim:","null","","","","",""
"","image-keyboard-response","29","354267","0.0-6.0-1.7","LF","dy38rvvnxc","1366","768","de","rf07er10","null","","","","","","","","learning/Slide8.JPG","null","","","","",""
"","html-keyboard-response","30","355269","0.0-6.0-2.7","LF","dy38rvvnxc","1366","768","de","rf07er10","null","","","","learningBlock1","","","","<div style=""font-size:60px;""> </div>","null","LF","learning/Slide8.JPG","This is a bim:","",""
"","html-keyboard-response","31","356271","0.0-6.0-0.8","LF","dy38rvvnxc","1366","768","de","rf07er10","null","","","","learningBlock1","","","","This is a wug:","null","","","","",""
"","image-keyboard-response","32","356599","0.0-6.0-1.8","LF","dy38rvvnxc","1366","768","de","rf07er10","null","","","","","","","","learning/Slide9.JPG","null","","","","",""
"","html-keyboard-response","33","357600","0.0-6.0-2.8","LF","dy38rvvnxc","1366","768","de","rf07er10","null","","","","learningBlock1","","","","<div style=""font-size:60px;""> </div>","null","LF","learning/Slide9.JPG","This is a wug:","",""
"","html-keyboard-response","34","358603","0.0-6.0-0.9","LF","dy38rvvnxc","1366","768","de","rf07er10","null","","","","learningBlock1","","","","This is a dep:","null","","","","",""
"","image-keyboard-response","35","358930","0.0-6.0-1.9","LF","dy38rvvnxc","1366","768","de","rf07er10","null","","","","","","","","learning/Slide10.JPG","null","","","","",""
"","html-keyboard-response","36","359932","0.0-6.0-2.9","LF","dy38rvvnxc","1366","768","de","rf07er10","null","","","","learningBlock1","","","","<div style=""font-size:60px;""> </div>","null","LF","learning/Slide10.JPG","This is a dep:","",""
"","html-keyboard-response","37","360933","0.0-6.0-0.10","LF","dy38rvvnxc","1366","768","de","rf07er10","null","","","","learningBlock1","","","","This is a tob:","null","","","","",""
"","image-keyboard-response","38","361262","0.0-6.0-1.10","LF","dy38rvvnxc","1366","768","de","rf07er10","null","","","","","","","","learning/Slide11.JPG","null","","","","",""
"","html-keyboard-response","39","362263","0.0-6.0-2.10","LF","dy38rvvnxc","1366","768","de","rf07er10","null","","","","learningBlock1","","","","<div style=""font-size:60px;""> </div>","null","LF","learning/Slide11.JPG","This is a tob:","",""
"","html-keyboard-response","40","363265","0.0-6.0-0.11","LF","dy38rvvnxc","1366","768","de","rf07er10","null","","","","learningBlock1","","","","This is a dep:","null","","","","",""
"","image-keyboard-response","41","363593","0.0-6.0-1.11","LF","dy38rvvnxc","1366","768","de","rf07er10","null","","","","","","","","learning/Slide12.JPG","null","","","","",""
"","html-keyboard-response","42","364593","0.0-6.0-2.11","LF","dy38rvvnxc","1366","768","de","rf07er10","null","","","","learningBlock1","","","","<div style=""font-size:60px;""> </div>","null","LF","learning/Slide12.JPG","This is a dep:","",""
"","html-keyboard-response","43","365594","0.0-6.0-0.12","LF","dy38rvvnxc","1366","768","de","rf07er10","null","","","","learningBlock1","","","","This is a bim:","null","","","","",""
"","image-keyboard-response","44","365922","0.0-6.0-1.12","LF","dy38rvvnxc","1366","768","de","rf07er10","null","","","","","","","","learning/Slide13.JPG","null","","","","",""
"","html-keyboard-response","45","366924","0.0-6.0-2.12","LF","dy38rvvnxc","1366","768","de","rf07er10","null","","","","learningBlock1","","","","<div style=""font-size:60px;""> </div>","null","LF","learning/Slide13.JPG","This is a bim:","",""
"","html-keyboard-response","46","367926","0.0-6.0-0.13","LF","dy38rvvnxc","1366","768","de","rf07er10","null","","","","learningBlock1","","","","This is a wug:","null","","","","",""
"","image-keyboard-response","47","368253","0.0-6.0-1.13","LF","dy38rvvnxc","1366","768","de","rf07er10","null","","","","","","","","learning/Slide14.JPG","null","","","","",""
"","html-keyboard-response","48","369255","0.0-6.0-2.13","LF","dy38rvvnxc","1366","768","de","rf07er10","null","","","","learningBlock1","","","","<div style=""font-size:60px;""> </div>","null","LF","learning/Slide14.JPG","This is a wug:","",""
"","html-keyboard-response","49","370256","0.0-6.0-0.14","LF","dy38rvvnxc","1366","768","de","rf07er10","null","","","","learningBlock1","","","","This is a tob:","null","","","","",""
"","image-keyboard-response","50","370584","0.0-6.0-1.14","LF","dy38rvvnxc","1366","768","de","rf07er10","null","","","","","","","","learning/Slide15.JPG","null","","","","",""
"","html-keyboard-response","51","371585","0.0-6.0-2.14","LF","dy38rvvnxc","1366","768","de","rf07er10","null","","","","learningBlock1","","","","<div style=""font-size:60px;""> </div>","null","LF","learning/Slide15.JPG","This is a tob:","",""
"","html-keyboard-response","52","372587","0.0-6.0-0.15","LF","dy38rvvnxc","1366","768","de","rf07er10","null","","","","learningBlock1","","","","This is a dep:","null","","","","",""
"","image-keyboard-response","53","372914","0.0-6.0-1.15","LF","dy38rvvnxc","1366","768","de","rf07er10","null","","","","","","","","learning/Slide16.JPG","null","","","","",""
"","html-keyboard-response","54","373915","0.0-6.0-2.15","LF","dy38rvvnxc","1366","768","de","rf07er10","null","","","","learningBlock1","","","","<div style=""font-size:60px;""> </div>","null","LF","learning/Slide16.JPG","This is a dep:","",""
"","html-keyboard-response","55","374916","0.0-6.0-0.16","LF","dy38rvvnxc","1366","768","de","rf07er10","null","","","","learningBlock1","","","","This is a bim:","null","","","","",""
"","image-keyboard-response","56","375244","0.0-6.0-1.16","LF","dy38rvvnxc","1366","768","de","rf07er10","null","","","","","","","","learning/Slide17.JPG","null","","","","",""
"","html-keyboard-response","57","376245","0.0-6.0-2.16","LF","dy38rvvnxc","1366","768","de","rf07er10","null","","","","learningBlock1","","","","<div style=""font-size:60px;""> </div>","null","LF","learning/Slide17.JPG","This is a bim:","",""
"","html-keyboard-response","58","377248","0.0-6.0-0.17","LF","dy38rvvnxc","1366","768","de","rf07er10","null","","","","learningBlock1","","","","This is a tob:","null","","","","",""
"","image-keyboard-response","59","377575","0.0-6.0-1.17","LF","dy38rvvnxc","1366","768","de","rf07er10","null","","","","","","","","learning/Slide18.JPG","null","","","","",""
"","html-keyboard-response","60","378576","0.0-6.0-2.17","LF","dy38rvvnxc","1366","768","de","rf07er10","null","","","","learningBlock1","","","","<div style=""font-size:60px;""> </div>","null","LF","learning/Slide18.JPG","This is a tob:","",""
"","html-keyboard-response","61","379577","0.0-6.0-0.18","LF","dy38rvvnxc","1366","768","de","rf07er10","null","","","","learningBlock1","","","","This is a wug:","null","","","","",""
"","image-keyboard-response","62","379905","0.0-6.0-1.18","LF","dy38rvvnxc","1366","768","de","rf07er10","null","","","","","","","","learning/Slide19.JPG","null","","","","",""
"","html-keyboard-response","63","380907","0.0-6.0-2.18","LF","dy38rvvnxc","1366","768","de","rf07er10","null","","","","learningBlock1","","","","<div style=""font-size:60px;""> </div>","null","LF","learning/Slide19.JPG","This is a wug:","",""
"","html-keyboard-response","64","381909","0.0-6.0-0.19","LF","dy38rvvnxc","1366","768","de","rf07er10","null","","","","learningBlock1","","","","This is a bim:","null","","","","",""
"","image-keyboard-response","65","382236","0.0-6.0-1.19","LF","dy38rvvnxc","1366","768","de","rf07er10","null","","","","","","","","learning/Slide20.JPG","null","","","","",""
"","html-keyboard-response","66","383238","0.0-6.0-2.19","LF","dy38rvvnxc","1366","768","de","rf07er10","null","","","","learningBlock1","","","","<div style=""font-size:60px;""> </div>","null","LF","learning/Slide20.JPG","This is a bim:","",""
"","html-keyboard-response","67","384238","0.0-6.0-0.20","LF","dy38rvvnxc","1366","768","de","rf07er10","null","","","","learningBlock1","","","","This is a dep:","null","","","","",""
"","image-keyboard-response","68","384567","0.0-6.0-1.20","LF","dy38rvvnxc","1366","768","de","rf07er10","null","","","","","","","","learning/Slide21.JPG","null","","","","",""
"","html-keyboard-response","69","385568","0.0-6.0-2.20","LF","dy38rvvnxc","1366","768","de","rf07er10","null","","","","learningBlock1","","","","<div style=""font-size:60px;""> </div>","null","LF","learning/Slide21.JPG","This is a dep:","",""
"","html-keyboard-response","70","386568","0.0-6.0-0.21","LF","dy38rvvnxc","1366","768","de","rf07er10","null","","","","learningBlock1","","","","This is a bim:","null","","","","",""
"","image-keyboard-response","71","386896","0.0-6.0-1.21","LF","dy38rvvnxc","1366","768","de","rf07er10","null","","","","","","","","learning/Slide22.JPG","null","","","","",""
"","html-keyboard-response","72","387897","0.0-6.0-2.21","LF","dy38rvvnxc","1366","768","de","rf07er10","null","","","","learningBlock1","","","","<div style=""font-size:60px;""> </div>","null","LF","learning/Slide22.JPG","This is a bim:","",""
"","html-keyboard-response","73","388898","0.0-6.0-0.22","LF","dy38rvvnxc","1366","768","de","rf07er10","null","","","","learningBlock1","","","","This is a tob:","null","","","","",""
"","image-keyboard-response","74","389225","0.0-6.0-1.22","LF","dy38rvvnxc","1366","768","de","rf07er10","null","","","","","","","","learning/Slide23.JPG","null","","","","",""
"","html-keyboard-response","75","390228","0.0-6.0-2.22","LF","dy38rvvnxc","1366","768","de","rf07er10","null","","","","learningBlock1","","","","<div style=""font-size:60px;""> </div>","null","LF","learning/Slide23.JPG","This is a tob:","",""
"","html-keyboard-response","76","391229","0.0-6.0-0.23","LF","dy38rvvnxc","1366","768","de","rf07er10","null","","","","learningBlock1","","","","This is a wug:","null","","","","",""
"","image-keyboard-response","77","391555","0.0-6.0-1.23","LF","dy38rvvnxc","1366","768","de","rf07er10","null","","","","","","","","learning/Slide24.JPG","null","","","","",""
"","html-keyboard-response","78","392558","0.0-6.0-2.23","LF","dy38rvvnxc","1366","768","de","rf07er10","null","","","","learningBlock1","","","","<div style=""font-size:60px;""> </div>","null","LF","learning/Slide24.JPG","This is a wug:","",""
"","html-keyboard-response","79","393559","0.0-6.0-0.24","LF","dy38rvvnxc","1366","768","de","rf07er10","null","","","","learningBlock1","","","","This is a dep:","null","","","","",""
"","image-keyboard-response","80","393887","0.0-6.0-1.24","LF","dy38rvvnxc","1366","768","de","rf07er10","null","","","","","","","","learning/Slide25.JPG","null","","","","",""
"","html-keyboard-response","81","394889","0.0-6.0-2.24","LF","dy38rvvnxc","1366","768","de","rf07er10","null","","","","learningBlock1","","","","<div style=""font-size:60px;""> </div>","null","LF","learning/Slide25.JPG","This is a dep:","",""
"","html-keyboard-response","82","395890","0.0-6.0-0.25","LF","dy38rvvnxc","1366","768","de","rf07er10","null","","","","learningBlock1","","","","This is a wug:","null","","","","",""
"","image-keyboard-response","83","396218","0.0-6.0-1.25","LF","dy38rvvnxc","1366","768","de","rf07er10","null","","","","","","","","learning/Slide26.JPG","null","","","","",""
"","html-keyboard-response","84","397220","0.0-6.0-2.25","LF","dy38rvvnxc","1366","768","de","rf07er10","null","","","","learningBlock1","","","","<div style=""font-size:60px;""> </div>","null","LF","learning/Slide26.JPG","This is a wug:","",""
"","html-keyboard-response","85","398221","0.0-6.0-0.26","LF","dy38rvvnxc","1366","768","de","rf07er10","null","","","","learningBlock1","","","","This is a bim:","null","","","","",""
"","image-keyboard-response","86","398548","0.0-6.0-1.26","LF","dy38rvvnxc","1366","768","de","rf07er10","null","","","","","","","","learning/Slide27.JPG","null","","","","",""
"","html-keyboard-response","87","399550","0.0-6.0-2.26","LF","dy38rvvnxc","1366","768","de","rf07er10","null","","","","learningBlock1","","","","<div style=""font-size:60px;""> </div>","null","LF","learning/Slide27.JPG","This is a bim:","",""
"","html-keyboard-response","88","400552","0.0-6.0-0.27","LF","dy38rvvnxc","1366","768","de","rf07er10","null","","","","learningBlock1","","","","This is a dep:","null","","","","",""
"","image-keyboard-response","89","400879","0.0-6.0-1.27","LF","dy38rvvnxc","1366","768","de","rf07er10","null","","","","","","","","learning/Slide28.JPG","null","","","","",""
"","html-keyboard-response","90","401881","0.0-6.0-2.27","LF","dy38rvvnxc","1366","768","de","rf07er10","null","","","","learningBlock1","","","","<div style=""font-size:60px;""> </div>","null","LF","learning/Slide28.JPG","This is a dep:","",""
"","html-keyboard-response","91","402883","0.0-6.0-0.28","LF","dy38rvvnxc","1366","768","de","rf07er10","null","","","","learningBlock1","","","","This is a tob:","null","","","","",""
"","image-keyboard-response","92","403210","0.0-6.0-1.28","LF","dy38rvvnxc","1366","768","de","rf07er10","null","","","","","","","","learning/Slide29.JPG","null","","","","",""
"","html-keyboard-response","93","404212","0.0-6.0-2.28","LF","dy38rvvnxc","1366","768","de","rf07er10","null","","","","learningBlock1","","","","<div style=""font-size:60px;""> </div>","null","LF","learning/Slide29.JPG","This is a tob:","",""
"","html-keyboard-response","94","405214","0.0-6.0-0.29","LF","dy38rvvnxc","1366","768","de","rf07er10","null","","","","learningBlock1","","","","This is a dep:","null","","","","",""
"","image-keyboard-response","95","405541","0.0-6.0-1.29","LF","dy38rvvnxc","1366","768","de","rf07er10","null","","","","","","","","learning/Slide30.JPG","null","","","","",""
"","html-keyboard-response","96","406543","0.0-6.0-2.29","LF","dy38rvvnxc","1366","768","de","rf07er10","null","","","","learningBlock1","","","","<div style=""font-size:60px;""> </div>","null","LF","learning/Slide30.JPG","This is a dep:","",""
"","html-keyboard-response","97","407545","0.0-6.0-0.30","LF","dy38rvvnxc","1366","768","de","rf07er10","null","","","","learningBlock1","","","","This is a wug:","null","","","","",""
"","image-keyboard-response","98","407872","0.0-6.0-1.30","LF","dy38rvvnxc","1366","768","de","rf07er10","null","","","","","","","","learning/Slide31.JPG","null","","","","",""
"","html-keyboard-response","99","408874","0.0-6.0-2.30","LF","dy38rvvnxc","1366","768","de","rf07er10","null","","","","learningBlock1","","","","<div style=""font-size:60px;""> </div>","null","LF","learning/Slide31.JPG","This is a wug:","",""
"","html-keyboard-response","100","409876","0.0-6.0-0.31","LF","dy38rvvnxc","1366","768","de","rf07er10","null","","","","learningBlock1","","","","This is a tob:","null","","","","",""
"","image-keyboard-response","101","410203","0.0-6.0-1.31","LF","dy38rvvnxc","1366","768","de","rf07er10","null","","","","","","","","learning/Slide32.JPG","null","","","","",""
"","html-keyboard-response","102","411205","0.0-6.0-2.31","LF","dy38rvvnxc","1366","768","de","rf07er10","null","","","","learningBlock1","","","","<div style=""font-size:60px;""> </div>","null","LF","learning/Slide32.JPG","This is a tob:","",""
"","html-keyboard-response","103","412207","0.0-6.0-0.32","LF","dy38rvvnxc","1366","768","de","rf07er10","null","","","","learningBlock1","","","","This is a bim:","null","","","","",""
"","image-keyboard-response","104","412534","0.0-6.0-1.32","LF","dy38rvvnxc","1366","768","de","rf07er10","null","","","","","","","","learning/Slide33.JPG","null","","","","",""
"","html-keyboard-response","105","413535","0.0-6.0-2.32","LF","dy38rvvnxc","1366","768","de","rf07er10","null","","","","learningBlock1","","","","<div style=""font-size:60px;""> </div>","null","LF","learning/Slide33.JPG","This is a bim:","",""
"","html-keyboard-response","106","414537","0.0-6.0-0.33","LF","dy38rvvnxc","1366","768","de","rf07er10","null","","","","learningBlock1","","","","This is a tob:","null","","","","",""
"","image-keyboard-response","107","414864","0.0-6.0-1.33","LF","dy38rvvnxc","1366","768","de","rf07er10","null","","","","","","","","learning/Slide34.JPG","null","","","","",""
"","html-keyboard-response","108","415865","0.0-6.0-2.33","LF","dy38rvvnxc","1366","768","de","rf07er10","null","","","","learningBlock1","","","","<div style=""font-size:60px;""> </div>","null","LF","learning/Slide34.JPG","This is a tob:","",""
"","html-keyboard-response","109","416867","0.0-6.0-0.34","LF","dy38rvvnxc","1366","768","de","rf07er10","null","","","","learningBlock1","","","","This is a bim:","null","","","","",""
"","image-keyboard-response","110","417195","0.0-6.0-1.34","LF","dy38rvvnxc","1366","768","de","rf07er10","null","","","","","","","","learning/Slide35.JPG","null","","","","",""
"","html-keyboard-response","111","418196","0.0-6.0-2.34","LF","dy38rvvnxc","1366","768","de","rf07er10","null","","","","learningBlock1","","","","<div style=""font-size:60px;""> </div>","null","LF","learning/Slide35.JPG","This is a bim:","",""
"","html-keyboard-response","112","419197","0.0-6.0-0.35","LF","dy38rvvnxc","1366","768","de","rf07er10","null","","","","learningBlock1","","","","This is a dep:","null","","","","",""
"","image-keyboard-response","113","419525","0.0-6.0-1.35","LF","dy38rvvnxc","1366","768","de","rf07er10","null","","","","","","","","learning/Slide36.JPG","null","","","","",""
"","html-keyboard-response","114","420527","0.0-6.0-2.35","LF","dy38rvvnxc","1366","768","de","rf07er10","null","","","","learningBlock1","","","","<div style=""font-size:60px;""> </div>","null","LF","learning/Slide36.JPG","This is a dep:","",""
"","html-keyboard-response","115","421529","0.0-6.0-0.36","LF","dy38rvvnxc","1366","768","de","rf07er10","null","","","","learningBlock1","","","","This is a tob:","null","","","","",""
"","image-keyboard-response","116","421856","0.0-6.0-1.36","LF","dy38rvvnxc","1366","768","de","rf07er10","null","","","","","","","","learning/Slide37.JPG","null","","","","",""
"","html-keyboard-response","117","422858","0.0-6.0-2.36","LF","dy38rvvnxc","1366","768","de","rf07er10","null","","","","learningBlock1","","","","<div style=""font-size:60px;""> </div>","null","LF","learning/Slide37.JPG","This is a tob:","",""
"","html-keyboard-response","118","423859","0.0-6.0-0.37","LF","dy38rvvnxc","1366","768","de","rf07er10","null","","","","learningBlock1","","","","This is a wug:","null","","","","",""
"","image-keyboard-response","119","424187","0.0-6.0-1.37","LF","dy38rvvnxc","1366","768","de","rf07er10","null","","","","","","","","learning/Slide38.JPG","null","","","","",""
"","html-keyboard-response","120","425189","0.0-6.0-2.37","LF","dy38rvvnxc","1366","768","de","rf07er10","null","","","","learningBlock1","","","","<div style=""font-size:60px;""> </div>","null","LF","learning/Slide38.JPG","This is a wug:","",""
"","html-keyboard-response","121","426191","0.0-6.0-0.38","LF","dy38rvvnxc","1366","768","de","rf07er10","null","","","","learningBlock1","","","","This is a bim:","null","","","","",""
"","image-keyboard-response","122","426519","0.0-6.0-1.38","LF","dy38rvvnxc","1366","768","de","rf07er10","null","","","","","","","","learning/Slide39.JPG","null","","","","",""
"","html-keyboard-response","123","427521","0.0-6.0-2.38","LF","dy38rvvnxc","1366","768","de","rf07er10","null","","","","learningBlock1","","","","<div style=""font-size:60px;""> </div>","null","LF","learning/Slide39.JPG","This is a bim:","",""
"","html-keyboard-response","124","428521","0.0-6.0-0.39","LF","dy38rvvnxc","1366","768","de","rf07er10","null","","","","learningBlock1","","","","This is a tob:","null","","","","",""
"","image-keyboard-response","125","428849","0.0-6.0-1.39","LF","dy38rvvnxc","1366","768","de","rf07er10","null","","","","","","","","learning/Slide40.JPG","null","","","","",""
"","html-keyboard-response","126","429850","0.0-6.0-2.39","LF","dy38rvvnxc","1366","768","de","rf07er10","null","","","","learningBlock1","","","","<div style=""font-size:60px;""> </div>","null","LF","learning/Slide40.JPG","This is a tob:","",""
"","html-keyboard-response","127","430851","0.0-6.0-0.40","LF","dy38rvvnxc","1366","768","de","rf07er10","null","","","","learningBlock1","","","","This is a bim:","null","","","","",""
"","image-keyboard-response","128","431179","0.0-6.0-1.40","LF","dy38rvvnxc","1366","768","de","rf07er10","null","","","","","","","","learning/Slide41.JPG","null","","","","",""
"","html-keyboard-response","129","432181","0.0-6.0-2.40","LF","dy38rvvnxc","1366","768","de","rf07er10","null","","","","learningBlock1","","","","<div style=""font-size:60px;""> </div>","null","LF","learning/Slide41.JPG","This is a bim:","",""
"","html-keyboard-response","130","433182","0.0-6.0-0.41","LF","dy38rvvnxc","1366","768","de","rf07er10","null","","","","learningBlock1","","","","This is a dep:","null","","","","",""
"","image-keyboard-response","131","433510","0.0-6.0-1.41","LF","dy38rvvnxc","1366","768","de","rf07er10","null","","","","","","","","learning/Slide42.JPG","null","","","","",""
"","html-keyboard-response","132","434512","0.0-6.0-2.41","LF","dy38rvvnxc","1366","768","de","rf07er10","null","","","","learningBlock1","","","","<div style=""font-size:60px;""> </div>","null","LF","learning/Slide42.JPG","This is a dep:","",""
"","html-keyboard-response","133","435513","0.0-6.0-0.42","LF","dy38rvvnxc","1366","768","de","rf07er10","null","","","","learningBlock1","","","","This is a wug:","null","","","","",""
"","image-keyboard-response","134","435840","0.0-6.0-1.42","LF","dy38rvvnxc","1366","768","de","rf07er10","null","","","","","","","","learning/Slide43.JPG","null","","","","",""
"","html-keyboard-response","135","436842","0.0-6.0-2.42","LF","dy38rvvnxc","1366","768","de","rf07er10","null","","","","learningBlock1","","","","<div style=""font-size:60px;""> </div>","null","LF","learning/Slide43.JPG","This is a wug:","",""
"","html-keyboard-response","136","437843","0.0-6.0-0.43","LF","dy38rvvnxc","1366","768","de","rf07er10","null","","","","learningBlock1","","","","This is a bim:","null","","","","",""
"","image-keyboard-response","137","438171","0.0-6.0-1.43","LF","dy38rvvnxc","1366","768","de","rf07er10","null","","","","","","","","learning/Slide44.JPG","null","","","","",""
"","html-keyboard-response","138","439172","0.0-6.0-2.43","LF","dy38rvvnxc","1366","768","de","rf07er10","null","","","","learningBlock1","","","","<div style=""font-size:60px;""> </div>","null","LF","learning/Slide44.JPG","This is a bim:","",""
"","html-keyboard-response","139","440174","0.0-6.0-0.44","LF","dy38rvvnxc","1366","768","de","rf07er10","null","","","","learningBlock1","","","","This is a wug:","null","","","","",""
"","image-keyboard-response","140","440502","0.0-6.0-1.44","LF","dy38rvvnxc","1366","768","de","rf07er10","null","","","","","","","","learning/Slide45.JPG","null","","","","",""
"","html-keyboard-response","141","441503","0.0-6.0-2.44","LF","dy38rvvnxc","1366","768","de","rf07er10","null","","","","learningBlock1","","","","<div style=""font-size:60px;""> </div>","null","LF","learning/Slide45.JPG","This is a wug:","",""
"","html-keyboard-response","142","442505","0.0-6.0-0.45","LF","dy38rvvnxc","1366","768","de","rf07er10","null","","","","learningBlock1","","","","This is a dep:","null","","","","",""
"","image-keyboard-response","143","442832","0.0-6.0-1.45","LF","dy38rvvnxc","1366","768","de","rf07er10","null","","","","","","","","learning/Slide46.JPG","null","","","","",""
"","html-keyboard-response","144","443833","0.0-6.0-2.45","LF","dy38rvvnxc","1366","768","de","rf07er10","null","","","","learningBlock1","","","","<div style=""font-size:60px;""> </div>","null","LF","learning/Slide46.JPG","This is a dep:","",""
"","html-keyboard-response","145","444834","0.0-6.0-0.46","LF","dy38rvvnxc","1366","768","de","rf07er10","null","","","","learningBlock1","","","","This is a tob:","null","","","","",""
"","image-keyboard-response","146","445162","0.0-6.0-1.46","LF","dy38rvvnxc","1366","768","de","rf07er10","null","","","","","","","","learning/Slide47.JPG","null","","","","",""
"","html-keyboard-response","147","446164","0.0-6.0-2.46","LF","dy38rvvnxc","1366","768","de","rf07er10","null","","","","learningBlock1","","","","<div style=""font-size:60px;""> </div>","null","LF","learning/Slide47.JPG","This is a tob:","",""
"","html-keyboard-response","148","447166","0.0-6.0-0.47","LF","dy38rvvnxc","1366","768","de","rf07er10","null","","","","learningBlock1","","","","This is a bim:","null","","","","",""
"","image-keyboard-response","149","447495","0.0-6.0-1.47","LF","dy38rvvnxc","1366","768","de","rf07er10","null","","","","","","","","learning/Slide48.JPG","null","","","","",""
"","html-keyboard-response","150","448496","0.0-6.0-2.47","LF","dy38rvvnxc","1366","768","de","rf07er10","null","","","","learningBlock1","","","","<div style=""font-size:60px;""> </div>","null","LF","learning/Slide48.JPG","This is a bim:","",""
"","html-keyboard-response","151","449498","0.0-6.0-0.48","LF","dy38rvvnxc","1366","768","de","rf07er10","null","","","","learningBlock1","","","","This is a dep:","null","","","","",""
"","image-keyboard-response","152","449825","0.0-6.0-1.48","LF","dy38rvvnxc","1366","768","de","rf07er10","null","","","","","","","","learning/Slide49.JPG","null","","","","",""
"","html-keyboard-response","153","450827","0.0-6.0-2.48","LF","dy38rvvnxc","1366","768","de","rf07er10","null","","","","learningBlock1","","","","<div style=""font-size:60px;""> </div>","null","LF","learning/Slide49.JPG","This is a dep:","",""
"","html-keyboard-response","154","451829","0.0-6.0-0.49","LF","dy38rvvnxc","1366","768","de","rf07er10","null","","","","learningBlock1","","","","This is a tob:","null","","","","",""
"","image-keyboard-response","155","452156","0.0-6.0-1.49","LF","dy38rvvnxc","1366","768","de","rf07er10","null","","","","","","","","learning/Slide50.JPG","null","","","","",""
"","html-keyboard-response","156","453159","0.0-6.0-2.49","LF","dy38rvvnxc","1366","768","de","rf07er10","null","","","","learningBlock1","","","","<div style=""font-size:60px;""> </div>","null","LF","learning/Slide50.JPG","This is a tob:","",""
"","html-keyboard-response","157","454162","0.0-6.0-0.50","LF","dy38rvvnxc","1366","768","de","rf07er10","null","","","","learningBlock1","","","","This is a bim:","null","","","","",""
"","image-keyboard-response","158","454488","0.0-6.0-1.50","LF","dy38rvvnxc","1366","768","de","rf07er10","null","","","","","","","","learning/Slide51.JPG","null","","","","",""
"","html-keyboard-response","159","455490","0.0-6.0-2.50","LF","dy38rvvnxc","1366","768","de","rf07er10","null","","","","learningBlock1","","","","<div style=""font-size:60px;""> </div>","null","LF","learning/Slide51.JPG","This is a bim:","",""
"","html-keyboard-response","160","456491","0.0-6.0-0.51","LF","dy38rvvnxc","1366","768","de","rf07er10","null","","","","learningBlock1","","","","This is a wug:","null","","","","",""
"","image-keyboard-response","161","456818","0.0-6.0-1.51","LF","dy38rvvnxc","1366","768","de","rf07er10","null","","","","","","","","learning/Slide52.JPG","null","","","","",""
"","html-keyboard-response","162","457820","0.0-6.0-2.51","LF","dy38rvvnxc","1366","768","de","rf07er10","null","","","","learningBlock1","","","","<div style=""font-size:60px;""> </div>","null","LF","learning/Slide52.JPG","This is a wug:","",""
"","html-keyboard-response","163","458822","0.0-6.0-0.52","LF","dy38rvvnxc","1366","768","de","rf07er10","null","","","","learningBlock1","","","","This is a tob:","null","","","","",""
"","image-keyboard-response","164","459148","0.0-6.0-1.52","LF","dy38rvvnxc","1366","768","de","rf07er10","null","","","","","","","","learning/Slide53.JPG","null","","","","",""
"","html-keyboard-response","165","460151","0.0-6.0-2.52","LF","dy38rvvnxc","1366","768","de","rf07er10","null","","","","learningBlock1","","","","<div style=""font-size:60px;""> </div>","null","LF","learning/Slide53.JPG","This is a tob:","",""
"","html-keyboard-response","166","461152","0.0-6.0-0.53","LF","dy38rvvnxc","1366","768","de","rf07er10","null","","","","learningBlock1","","","","This is a dep:","null","","","","",""
"","image-keyboard-response","167","461480","0.0-6.0-1.53","LF","dy38rvvnxc","1366","768","de","rf07er10","null","","","","","","","","learning/Slide54.JPG","null","","","","",""
"","html-keyboard-response","168","462482","0.0-6.0-2.53","LF","dy38rvvnxc","1366","768","de","rf07er10","null","","","","learningBlock1","","","","<div style=""font-size:60px;""> </div>","null","LF","learning/Slide54.JPG","This is a dep:","",""
"","html-keyboard-response","169","463484","0.0-6.0-0.54","LF","dy38rvvnxc","1366","768","de","rf07er10","null","","","","learningBlock1","","","","This is a bim:","null","","","","",""
"","image-keyboard-response","170","463812","0.0-6.0-1.54","LF","dy38rvvnxc","1366","768","de","rf07er10","null","","","","","","","","learning/Slide55.JPG","null","","","","",""
"","html-keyboard-response","171","464814","0.0-6.0-2.54","LF","dy38rvvnxc","1366","768","de","rf07er10","null","","","","learningBlock1","","","","<div style=""font-size:60px;""> </div>","null","LF","learning/Slide55.JPG","This is a bim:","",""
"","html-keyboard-response","172","465817","0.0-6.0-0.55","LF","dy38rvvnxc","1366","768","de","rf07er10","null","","","","learningBlock1","","","","This is a tob:","null","","","","",""
"","image-keyboard-response","173","466144","0.0-6.0-1.55","LF","dy38rvvnxc","1366","768","de","rf07er10","null","","","","","","","","learning/Slide56.JPG","null","","","","",""
"","html-keyboard-response","174","467146","0.0-6.0-2.55","LF","dy38rvvnxc","1366","768","de","rf07er10","null","","","","learningBlock1","","","","<div style=""font-size:60px;""> </div>","null","LF","learning/Slide56.JPG","This is a tob:","",""
"","html-keyboard-response","175","468148","0.0-6.0-0.56","LF","dy38rvvnxc","1366","768","de","rf07er10","null","","","","learningBlock1","","","","This is a dep:","null","","","","",""
"","image-keyboard-response","176","468475","0.0-6.0-1.56","LF","dy38rvvnxc","1366","768","de","rf07er10","null","","","","","","","","learning/Slide57.JPG","null","","","","",""
"","html-keyboard-response","177","469478","0.0-6.0-2.56","LF","dy38rvvnxc","1366","768","de","rf07er10","null","","","","learningBlock1","","","","<div style=""font-size:60px;""> </div>","null","LF","learning/Slide57.JPG","This is a dep:","",""
"","html-keyboard-response","178","470480","0.0-6.0-0.57","LF","dy38rvvnxc","1366","768","de","rf07er10","null","","","","learningBlock1","","","","This is a wug:","null","","","","",""
"","image-keyboard-response","179","470808","0.0-6.0-1.57","LF","dy38rvvnxc","1366","768","de","rf07er10","null","","","","","","","","learning/Slide58.JPG","null","","","","",""
"","html-keyboard-response","180","471809","0.0-6.0-2.57","LF","dy38rvvnxc","1366","768","de","rf07er10","null","","","","learningBlock1","","","","<div style=""font-size:60px;""> </div>","null","LF","learning/Slide58.JPG","This is a wug:","",""
"","html-keyboard-response","181","472810","0.0-6.0-0.58","LF","dy38rvvnxc","1366","768","de","rf07er10","null","","","","learningBlock1","","","","This is a dep:","null","","","","",""
"","image-keyboard-response","182","473139","0.0-6.0-1.58","LF","dy38rvvnxc","1366","768","de","rf07er10","null","","","","","","","","learning/Slide59.JPG","null","","","","",""
"","html-keyboard-response","183","474140","0.0-6.0-2.58","LF","dy38rvvnxc","1366","768","de","rf07er10","null","","","","learningBlock1","","","","<div style=""font-size:60px;""> </div>","null","LF","learning/Slide59.JPG","This is a dep:","",""
"","html-keyboard-response","184","475143","0.0-6.0-0.59","LF","dy38rvvnxc","1366","768","de","rf07er10","null","","","","learningBlock1","","","","This is a wug:","null","","","","",""
"","image-keyboard-response","185","475469","0.0-6.0-1.59","LF","dy38rvvnxc","1366","768","de","rf07er10","null","","","","","","","","learning/Slide60.JPG","null","","","","",""
"","html-keyboard-response","186","476471","0.0-6.0-2.59","LF","dy38rvvnxc","1366","768","de","rf07er10","null","","","","learningBlock1","","","","<div style=""font-size:60px;""> </div>","null","LF","learning/Slide60.JPG","This is a wug:","",""
"","html-keyboard-response","187","477472","0.0-6.0-0.60","LF","dy38rvvnxc","1366","768","de","rf07er10","null","","","","learningBlock1","","","","This is a bim:","null","","","","",""
"","image-keyboard-response","188","477800","0.0-6.0-1.60","LF","dy38rvvnxc","1366","768","de","rf07er10","null","","","","","","","","learning/Slide61.JPG","null","","","","",""
"","html-keyboard-response","189","478801","0.0-6.0-2.60","LF","dy38rvvnxc","1366","768","de","rf07er10","null","","","","learningBlock1","","","","<div style=""font-size:60px;""> </div>","null","LF","learning/Slide61.JPG","This is a bim:","",""
"","html-keyboard-response","190","479803","0.0-6.0-0.61","LF","dy38rvvnxc","1366","768","de","rf07er10","null","","","","learningBlock1","","","","This is a dep:","null","","","","",""
"","image-keyboard-response","191","480131","0.0-6.0-1.61","LF","dy38rvvnxc","1366","768","de","rf07er10","null","","","","","","","","learning/Slide62.JPG","null","","","","",""
"","html-keyboard-response","192","481131","0.0-6.0-2.61","LF","dy38rvvnxc","1366","768","de","rf07er10","null","","","","learningBlock1","","","","<div style=""font-size:60px;""> </div>","null","LF","learning/Slide62.JPG","This is a dep:","",""
"","html-keyboard-response","193","482134","0.0-6.0-0.62","LF","dy38rvvnxc","1366","768","de","rf07er10","null","","","","learningBlock1","","","","This is a bim:","null","","","","",""
"","image-keyboard-response","194","482461","0.0-6.0-1.62","LF","dy38rvvnxc","1366","768","de","rf07er10","null","","","","","","","","learning/Slide63.JPG","null","","","","",""
"","html-keyboard-response","195","483463","0.0-6.0-2.62","LF","dy38rvvnxc","1366","768","de","rf07er10","null","","","","learningBlock1","","","","<div style=""font-size:60px;""> </div>","null","LF","learning/Slide63.JPG","This is a bim:","",""
"","html-keyboard-response","196","484465","0.0-6.0-0.63","LF","dy38rvvnxc","1366","768","de","rf07er10","null","","","","learningBlock1","","","","This is a tob:","null","","","","",""
"","image-keyboard-response","197","484792","0.0-6.0-1.63","LF","dy38rvvnxc","1366","768","de","rf07er10","null","","","","","","","","learning/Slide64.JPG","null","","","","",""
"","html-keyboard-response","198","485793","0.0-6.0-2.63","LF","dy38rvvnxc","1366","768","de","rf07er10","null","","","","learningBlock1","","","","<div style=""font-size:60px;""> </div>","null","LF","learning/Slide64.JPG","This is a tob:","",""
"","html-keyboard-response","199","486794","0.0-6.0-0.64","LF","dy38rvvnxc","1366","768","de","rf07er10","null","","","","learningBlock1","","","","This is a wug:","null","","","","",""
"","image-keyboard-response","200","487122","0.0-6.0-1.64","LF","dy38rvvnxc","1366","768","de","rf07er10","null","","","","","","","","learning/Slide65.JPG","null","","","","",""
"","html-keyboard-response","201","488124","0.0-6.0-2.64","LF","dy38rvvnxc","1366","768","de","rf07er10","null","","","","learningBlock1","","","","<div style=""font-size:60px;""> </div>","null","LF","learning/Slide65.JPG","This is a wug:","",""
"","html-keyboard-response","202","489126","0.0-6.0-0.65","LF","dy38rvvnxc","1366","768","de","rf07er10","null","","","","learningBlock1","","","","This is a dep:","null","","","","",""
"","image-keyboard-response","203","489453","0.0-6.0-1.65","LF","dy38rvvnxc","1366","768","de","rf07er10","null","","","","","","","","learning/Slide66.JPG","null","","","","",""
"","html-keyboard-response","204","490455","0.0-6.0-2.65","LF","dy38rvvnxc","1366","768","de","rf07er10","null","","","","learningBlock1","","","","<div style=""font-size:60px;""> </div>","null","LF","learning/Slide66.JPG","This is a dep:","",""
"","html-keyboard-response","205","491457","0.0-6.0-0.66","LF","dy38rvvnxc","1366","768","de","rf07er10","null","","","","learningBlock1","","","","This is a tob:","null","","","","",""
"","image-keyboard-response","206","491784","0.0-6.0-1.66","LF","dy38rvvnxc","1366","768","de","rf07er10","null","","","","","","","","learning/Slide67.JPG","null","","","","",""
"","html-keyboard-response","207","492786","0.0-6.0-2.66","LF","dy38rvvnxc","1366","768","de","rf07er10","null","","","","learningBlock1","","","","<div style=""font-size:60px;""> </div>","null","LF","learning/Slide67.JPG","This is a tob:","",""
"","html-keyboard-response","208","493788","0.0-6.0-0.67","LF","dy38rvvnxc","1366","768","de","rf07er10","null","","","","learningBlock1","","","","This is a wug:","null","","","","",""
"","image-keyboard-response","209","494116","0.0-6.0-1.67","LF","dy38rvvnxc","1366","768","de","rf07er10","null","","","","","","","","learning/Slide68.JPG","null","","","","",""
"","html-keyboard-response","210","495116","0.0-6.0-2.67","LF","dy38rvvnxc","1366","768","de","rf07er10","null","","","","learningBlock1","","","","<div style=""font-size:60px;""> </div>","null","LF","learning/Slide68.JPG","This is a wug:","",""
"","html-keyboard-response","211","496117","0.0-6.0-0.68","LF","dy38rvvnxc","1366","768","de","rf07er10","null","","","","learningBlock1","","","","This is a tob:","null","","","","",""
"","image-keyboard-response","212","496444","0.0-6.0-1.68","LF","dy38rvvnxc","1366","768","de","rf07er10","null","","","","","","","","learning/Slide69.JPG","null","","","","",""
"","html-keyboard-response","213","497446","0.0-6.0-2.68","LF","dy38rvvnxc","1366","768","de","rf07er10","null","","","","learningBlock1","","","","<div style=""font-size:60px;""> </div>","null","LF","learning/Slide69.JPG","This is a tob:","",""
"","html-keyboard-response","214","498448","0.0-6.0-0.69","LF","dy38rvvnxc","1366","768","de","rf07er10","null","","","","learningBlock1","","","","This is a dep:","null","","","","",""
"","image-keyboard-response","215","498775","0.0-6.0-1.69","LF","dy38rvvnxc","1366","768","de","rf07er10","null","","","","","","","","learning/Slide70.JPG","null","","","","",""
"","html-keyboard-response","216","499776","0.0-6.0-2.69","LF","dy38rvvnxc","1366","768","de","rf07er10","null","","","","learningBlock1","","","","<div style=""font-size:60px;""> </div>","null","LF","learning/Slide70.JPG","This is a dep:","",""
"","html-keyboard-response","217","500778","0.0-6.0-0.70","LF","dy38rvvnxc","1366","768","de","rf07er10","null","","","","learningBlock1","","","","This is a wug:","null","","","","",""
"","image-keyboard-response","218","501105","0.0-6.0-1.70","LF","dy38rvvnxc","1366","768","de","rf07er10","null","","","","","","","","learning/Slide71.JPG","null","","","","",""
"","html-keyboard-response","219","502106","0.0-6.0-2.70","LF","dy38rvvnxc","1366","768","de","rf07er10","null","","","","learningBlock1","","","","<div style=""font-size:60px;""> </div>","null","LF","learning/Slide71.JPG","This is a wug:","",""
"","html-keyboard-response","220","503108","0.0-6.0-0.71","LF","dy38rvvnxc","1366","768","de","rf07er10","null","","","","learningBlock1","","","","This is a bim:","null","","","","",""
"","image-keyboard-response","221","503435","0.0-6.0-1.71","LF","dy38rvvnxc","1366","768","de","rf07er10","null","","","","","","","","learning/Slide72.JPG","null","","","","",""
"","html-keyboard-response","222","504436","0.0-6.0-2.71","LF","dy38rvvnxc","1366","768","de","rf07er10","null","","","","learningBlock1","","","","<div style=""font-size:60px;""> </div>","null","LF","learning/Slide72.JPG","This is a bim:","",""
"","html-keyboard-response","223","505438","0.0-6.0-0.72","LF","dy38rvvnxc","1366","768","de","rf07er10","null","","","","learningBlock1","","","","This is a wug:","null","","","","",""
"","image-keyboard-response","224","505765","0.0-6.0-1.72","LF","dy38rvvnxc","1366","768","de","rf07er10","null","","","","","","","","learning/Slide73.JPG","null","","","","",""
"","html-keyboard-response","225","506767","0.0-6.0-2.72","LF","dy38rvvnxc","1366","768","de","rf07er10","null","","","","learningBlock1","","","","<div style=""font-size:60px;""> </div>","null","LF","learning/Slide73.JPG","This is a wug:","",""
"","html-keyboard-response","226","507767","0.0-6.0-0.73","LF","dy38rvvnxc","1366","768","de","rf07er10","null","","","","learningBlock1","","","","This is a dep:","null","","","","",""
"","image-keyboard-response","227","508096","0.0-6.0-1.73","LF","dy38rvvnxc","1366","768","de","rf07er10","null","","","","","","","","learning/Slide74.JPG","null","","","","",""
"","html-keyboard-response","228","509098","0.0-6.0-2.73","LF","dy38rvvnxc","1366","768","de","rf07er10","null","","","","learningBlock1","","","","<div style=""font-size:60px;""> </div>","null","LF","learning/Slide74.JPG","This is a dep:","",""
"","html-keyboard-response","229","510099","0.0-6.0-0.74","LF","dy38rvvnxc","1366","768","de","rf07er10","null","","","","learningBlock1","","","","This is a tob:","null","","","","",""
"","image-keyboard-response","230","510426","0.0-6.0-1.74","LF","dy38rvvnxc","1366","768","de","rf07er10","null","","","","","","","","learning/Slide75.JPG","null","","","","",""
"","html-keyboard-response","231","511428","0.0-6.0-2.74","LF","dy38rvvnxc","1366","768","de","rf07er10","null","","","","learningBlock1","","","","<div style=""font-size:60px;""> </div>","null","LF","learning/Slide75.JPG","This is a tob:","",""
"","html-keyboard-response","232","512428","0.0-6.0-0.75","LF","dy38rvvnxc","1366","768","de","rf07er10","null","","","","learningBlock1","","","","This is a bim:","null","","","","",""
"","image-keyboard-response","233","512756","0.0-6.0-1.75","LF","dy38rvvnxc","1366","768","de","rf07er10","null","","","","","","","","learning/Slide76.JPG","null","","","","",""
"","html-keyboard-response","234","513758","0.0-6.0-2.75","LF","dy38rvvnxc","1366","768","de","rf07er10","null","","","","learningBlock1","","","","<div style=""font-size:60px;""> </div>","null","LF","learning/Slide76.JPG","This is a bim:","",""
"","html-keyboard-response","235","514758","0.0-6.0-0.76","LF","dy38rvvnxc","1366","768","de","rf07er10","null","","","","learningBlock1","","","","This is a tob:","null","","","","",""
"","image-keyboard-response","236","515086","0.0-6.0-1.76","LF","dy38rvvnxc","1366","768","de","rf07er10","null","","","","","","","","learning/Slide77.JPG","null","","","","",""
"","html-keyboard-response","237","516088","0.0-6.0-2.76","LF","dy38rvvnxc","1366","768","de","rf07er10","null","","","","learningBlock1","","","","<div style=""font-size:60px;""> </div>","null","LF","learning/Slide77.JPG","This is a tob:","",""
"","html-keyboard-response","238","517090","0.0-6.0-0.77","LF","dy38rvvnxc","1366","768","de","rf07er10","null","","","","learningBlock1","","","","This is a wug:","null","","","","",""
"","image-keyboard-response","239","517418","0.0-6.0-1.77","LF","dy38rvvnxc","1366","768","de","rf07er10","null","","","","","","","","learning/Slide78.JPG","null","","","","",""
"","html-keyboard-response","240","518420","0.0-6.0-2.77","LF","dy38rvvnxc","1366","768","de","rf07er10","null","","","","learningBlock1","","","","<div style=""font-size:60px;""> </div>","null","LF","learning/Slide78.JPG","This is a wug:","",""
"","html-keyboard-response","241","519421","0.0-6.0-0.78","LF","dy38rvvnxc","1366","768","de","rf07er10","null","","","","learningBlock1","","","","This is a bim:","null","","","","",""
"","image-keyboard-response","242","519748","0.0-6.0-1.78","LF","dy38rvvnxc","1366","768","de","rf07er10","null","","","","","","","","learning/Slide79.JPG","null","","","","",""
"","html-keyboard-response","243","520749","0.0-6.0-2.78","LF","dy38rvvnxc","1366","768","de","rf07er10","null","","","","learningBlock1","","","","<div style=""font-size:60px;""> </div>","null","LF","learning/Slide79.JPG","This is a bim:","",""
"","html-keyboard-response","244","521751","0.0-6.0-0.79","LF","dy38rvvnxc","1366","768","de","rf07er10","null","","","","learningBlock1","","","","This is a tob:","null","","","","",""
"","image-keyboard-response","245","522078","0.0-6.0-1.79","LF","dy38rvvnxc","1366","768","de","rf07er10","null","","","","","","","","learning/Slide80.JPG","null","","","","",""
"","html-keyboard-response","246","523080","0.0-6.0-2.79","LF","dy38rvvnxc","1366","768","de","rf07er10","null","","","","learningBlock1","","","","<div style=""font-size:60px;""> </div>","null","LF","learning/Slide80.JPG","This is a tob:","",""
"","instructions","247","541448","0.0-7.0","LF","dy38rvvnxc","1366","768","de","rf07er10","NA","","","[{""page_index"":0,""viewing_time"":18366}]","instructions","","","","","","","","","",""
"","html-keyboard-response","248","542451","0.0-8.0-0.0","LF","dy38rvvnxc","1366","768","de","rf07er10","null","","","","learningBlock2","","","","This is a wug:","null","","","","",""
"","image-keyboard-response","249","542779","0.0-8.0-1.0","LF","dy38rvvnxc","1366","768","de","rf07er10","null","","","","","","","","learning/Slide81.JPG","null","","","","",""
"","html-keyboard-response","250","543781","0.0-8.0-2.0","LF","dy38rvvnxc","1366","768","de","rf07er10","null","","","","learningBlock2","","","","<div style=""font-size:60px;""> </div>","null","LF","learning/Slide81.JPG","This is a wug:","",""
"","html-keyboard-response","251","544782","0.0-8.0-0.1","LF","dy38rvvnxc","1366","768","de","rf07er10","null","","","","learningBlock2","","","","This is a bim:","null","","","","",""
"","image-keyboard-response","252","545109","0.0-8.0-1.1","LF","dy38rvvnxc","1366","768","de","rf07er10","null","","","","","","","","learning/Slide82.JPG","null","","","","",""
"","html-keyboard-response","253","546110","0.0-8.0-2.1","LF","dy38rvvnxc","1366","768","de","rf07er10","null","","","","learningBlock2","","","","<div style=""font-size:60px;""> </div>","null","LF","learning/Slide82.JPG","This is a bim:","",""
"","html-keyboard-response","254","547112","0.0-8.0-0.2","LF","dy38rvvnxc","1366","768","de","rf07er10","null","","","","learningBlock2","","","","This is a wug:","null","","","","",""
"","image-keyboard-response","255","547440","0.0-8.0-1.2","LF","dy38rvvnxc","1366","768","de","rf07er10","null","","","","","","","","learning/Slide83.JPG","null","","","","",""
"","html-keyboard-response","256","548441","0.0-8.0-2.2","LF","dy38rvvnxc","1366","768","de","rf07er10","null","","","","learningBlock2","","","","<div style=""font-size:60px;""> </div>","null","LF","learning/Slide83.JPG","This is a wug:","",""
"","html-keyboard-response","257","549442","0.0-8.0-0.3","LF","dy38rvvnxc","1366","768","de","rf07er10","null","","","","learningBlock2","","","","This is a dep:","null","","","","",""
"","image-keyboard-response","258","549770","0.0-8.0-1.3","LF","dy38rvvnxc","1366","768","de","rf07er10","null","","","","","","","","learning/Slide84.JPG","null","","","","",""
"","html-keyboard-response","259","550772","0.0-8.0-2.3","LF","dy38rvvnxc","1366","768","de","rf07er10","null","","","","learningBlock2","","","","<div style=""font-size:60px;""> </div>","null","LF","learning/Slide84.JPG","This is a dep:","",""
"","html-keyboard-response","260","551773","0.0-8.0-0.4","LF","dy38rvvnxc","1366","768","de","rf07er10","null","","","","learningBlock2","","","","This is a bim:","null","","","","",""
"","image-keyboard-response","261","552100","0.0-8.0-1.4","LF","dy38rvvnxc","1366","768","de","rf07er10","null","","","","","","","","learning/Slide85.JPG","null","","","","",""
"","html-keyboard-response","262","553102","0.0-8.0-2.4","LF","dy38rvvnxc","1366","768","de","rf07er10","null","","","","learningBlock2","","","","<div style=""font-size:60px;""> </div>","null","LF","learning/Slide85.JPG","This is a bim:","",""
"","html-keyboard-response","263","554103","0.0-8.0-0.5","LF","dy38rvvnxc","1366","768","de","rf07er10","null","","","","learningBlock2","","","","This is a tob:","null","","","","",""
"","image-keyboard-response","264","554430","0.0-8.0-1.5","LF","dy38rvvnxc","1366","768","de","rf07er10","null","","","","","","","","learning/Slide86.JPG","null","","","","",""
"","html-keyboard-response","265","555431","0.0-8.0-2.5","LF","dy38rvvnxc","1366","768","de","rf07er10","null","","","","learningBlock2","","","","<div style=""font-size:60px;""> </div>","null","LF","learning/Slide86.JPG","This is a tob:","",""
"","html-keyboard-response","266","556433","0.0-8.0-0.6","LF","dy38rvvnxc","1366","768","de","rf07er10","null","","","","learningBlock2","","","","This is a wug:","null","","","","",""
"","image-keyboard-response","267","556761","0.0-8.0-1.6","LF","dy38rvvnxc","1366","768","de","rf07er10","null","","","","","","","","learning/Slide87.JPG","null","","","","",""
"","html-keyboard-response","268","557763","0.0-8.0-2.6","LF","dy38rvvnxc","1366","768","de","rf07er10","null","","","","learningBlock2","","","","<div style=""font-size:60px;""> </div>","null","LF","learning/Slide87.JPG","This is a wug:","",""
"","html-keyboard-response","269","558764","0.0-8.0-0.7","LF","dy38rvvnxc","1366","768","de","rf07er10","null","","","","learningBlock2","","","","This is a tob:","null","","","","",""
"","image-keyboard-response","270","559091","0.0-8.0-1.7","LF","dy38rvvnxc","1366","768","de","rf07er10","null","","","","","","","","learning/Slide88.JPG","null","","","","",""
"","html-keyboard-response","271","560093","0.0-8.0-2.7","LF","dy38rvvnxc","1366","768","de","rf07er10","null","","","","learningBlock2","","","","<div style=""font-size:60px;""> </div>","null","LF","learning/Slide88.JPG","This is a tob:","",""
"","html-keyboard-response","272","561094","0.0-8.0-0.8","LF","dy38rvvnxc","1366","768","de","rf07er10","null","","","","learningBlock2","","","","This is a bim:","null","","","","",""
"","image-keyboard-response","273","561421","0.0-8.0-1.8","LF","dy38rvvnxc","1366","768","de","rf07er10","null","","","","","","","","learning/Slide89.JPG","null","","","","",""
"","html-keyboard-response","274","562422","0.0-8.0-2.8","LF","dy38rvvnxc","1366","768","de","rf07er10","null","","","","learningBlock2","","","","<div style=""font-size:60px;""> </div>","null","LF","learning/Slide89.JPG","This is a bim:","",""
"","html-keyboard-response","275","563424","0.0-8.0-0.9","LF","dy38rvvnxc","1366","768","de","rf07er10","null","","","","learningBlock2","","","","This is a dep:","null","","","","",""
"","image-keyboard-response","276","563750","0.0-8.0-1.9","LF","dy38rvvnxc","1366","768","de","rf07er10","null","","","","","","","","learning/Slide90.JPG","null","","","","",""
"","html-keyboard-response","277","564753","0.0-8.0-2.9","LF","dy38rvvnxc","1366","768","de","rf07er10","null","","","","learningBlock2","","","","<div style=""font-size:60px;""> </div>","null","LF","learning/Slide90.JPG","This is a dep:","",""
"","html-keyboard-response","278","565754","0.0-8.0-0.10","LF","dy38rvvnxc","1366","768","de","rf07er10","null","","","","learningBlock2","","","","This is a wug:","null","","","","",""
"","image-keyboard-response","279","566082","0.0-8.0-1.10","LF","dy38rvvnxc","1366","768","de","rf07er10","null","","","","","","","","learning/Slide91.JPG","null","","","","",""
"","html-keyboard-response","280","567082","0.0-8.0-2.10","LF","dy38rvvnxc","1366","768","de","rf07er10","null","","","","learningBlock2","","","","<div style=""font-size:60px;""> </div>","null","LF","learning/Slide91.JPG","This is a wug:","",""
"","html-keyboard-response","281","568084","0.0-8.0-0.11","LF","dy38rvvnxc","1366","768","de","rf07er10","null","","","","learningBlock2","","","","This is a tob:","null","","","","",""
"","image-keyboard-response","282","568412","0.0-8.0-1.11","LF","dy38rvvnxc","1366","768","de","rf07er10","null","","","","","","","","learning/Slide92.JPG","null","","","","",""
"","html-keyboard-response","283","569414","0.0-8.0-2.11","LF","dy38rvvnxc","1366","768","de","rf07er10","null","","","","learningBlock2","","","","<div style=""font-size:60px;""> </div>","null","LF","learning/Slide92.JPG","This is a tob:","",""
"","html-keyboard-response","284","570415","0.0-8.0-0.12","LF","dy38rvvnxc","1366","768","de","rf07er10","null","","","","learningBlock2","","","","This is a bim:","null","","","","",""
"","image-keyboard-response","285","570742","0.0-8.0-1.12","LF","dy38rvvnxc","1366","768","de","rf07er10","null","","","","","","","","learning/Slide93.JPG","null","","","","",""
"","html-keyboard-response","286","571745","0.0-8.0-2.12","LF","dy38rvvnxc","1366","768","de","rf07er10","null","","","","learningBlock2","","","","<div style=""font-size:60px;""> </div>","null","LF","learning/Slide93.JPG","This is a bim:","",""
"","html-keyboard-response","287","572746","0.0-8.0-0.13","LF","dy38rvvnxc","1366","768","de","rf07er10","null","","","","learningBlock2","","","","This is a tob:","null","","","","",""
"","image-keyboard-response","288","573074","0.0-8.0-1.13","LF","dy38rvvnxc","1366","768","de","rf07er10","null","","","","","","","","learning/Slide94.JPG","null","","","","",""
"","html-keyboard-response","289","574075","0.0-8.0-2.13","LF","dy38rvvnxc","1366","768","de","rf07er10","null","","","","learningBlock2","","","","<div style=""font-size:60px;""> </div>","null","LF","learning/Slide94.JPG","This is a tob:","",""
"","html-keyboard-response","290","575076","0.0-8.0-0.14","LF","dy38rvvnxc","1366","768","de","rf07er10","null","","","","learningBlock2","","","","This is a wug:","null","","","","",""
"","image-keyboard-response","291","575405","0.0-8.0-1.14","LF","dy38rvvnxc","1366","768","de","rf07er10","null","","","","","","","","learning/Slide95.JPG","null","","","","",""
"","html-keyboard-response","292","576406","0.0-8.0-2.14","LF","dy38rvvnxc","1366","768","de","rf07er10","null","","","","learningBlock2","","","","<div style=""font-size:60px;""> </div>","null","LF","learning/Slide95.JPG","This is a wug:","",""
"","html-keyboard-response","293","577408","0.0-8.0-0.15","LF","dy38rvvnxc","1366","768","de","rf07er10","null","","","","learningBlock2","","","","This is a tob:","null","","","","",""
"","image-keyboard-response","294","577736","0.0-8.0-1.15","LF","dy38rvvnxc","1366","768","de","rf07er10","null","","","","","","","","learning/Slide96.JPG","null","","","","",""
"","html-keyboard-response","295","578737","0.0-8.0-2.15","LF","dy38rvvnxc","1366","768","de","rf07er10","null","","","","learningBlock2","","","","<div style=""font-size:60px;""> </div>","null","LF","learning/Slide96.JPG","This is a tob:","",""
"","html-keyboard-response","296","579739","0.0-8.0-0.16","LF","dy38rvvnxc","1366","768","de","rf07er10","null","","","","learningBlock2","","","","This is a dep:","null","","","","",""
"","image-keyboard-response","297","580066","0.0-8.0-1.16","LF","dy38rvvnxc","1366","768","de","rf07er10","null","","","","","","","","learning/Slide97.JPG","null","","","","",""
"","html-keyboard-response","298","581068","0.0-8.0-2.16","LF","dy38rvvnxc","1366","768","de","rf07er10","null","","","","learningBlock2","","","","<div style=""font-size:60px;""> </div>","null","LF","learning/Slide97.JPG","This is a dep:","",""
"","html-keyboard-response","299","582069","0.0-8.0-0.17","LF","dy38rvvnxc","1366","768","de","rf07er10","null","","","","learningBlock2","","","","This is a bim:","null","","","","",""
"","image-keyboard-response","300","582398","0.0-8.0-1.17","LF","dy38rvvnxc","1366","768","de","rf07er10","null","","","","","","","","learning/Slide98.JPG","null","","","","",""
"","html-keyboard-response","301","583400","0.0-8.0-2.17","LF","dy38rvvnxc","1366","768","de","rf07er10","null","","","","learningBlock2","","","","<div style=""font-size:60px;""> </div>","null","LF","learning/Slide98.JPG","This is a bim:","",""
"","html-keyboard-response","302","584402","0.0-8.0-0.18","LF","dy38rvvnxc","1366","768","de","rf07er10","null","","","","learningBlock2","","","","This is a dep:","null","","","","",""
"","image-keyboard-response","303","584729","0.0-8.0-1.18","LF","dy38rvvnxc","1366","768","de","rf07er10","null","","","","","","","","learning/Slide99.JPG","null","","","","",""
"","html-keyboard-response","304","585731","0.0-8.0-2.18","LF","dy38rvvnxc","1366","768","de","rf07er10","null","","","","learningBlock2","","","","<div style=""font-size:60px;""> </div>","null","LF","learning/Slide99.JPG","This is a dep:","",""
"","html-keyboard-response","305","586732","0.0-8.0-0.19","LF","dy38rvvnxc","1366","768","de","rf07er10","null","","","","learningBlock2","","","","This is a bim:","null","","","","",""
"","image-keyboard-response","306","587061","0.0-8.0-1.19","LF","dy38rvvnxc","1366","768","de","rf07er10","null","","","","","","","","learning/Slide100.JPG","null","","","","",""
"","html-keyboard-response","307","588062","0.0-8.0-2.19","LF","dy38rvvnxc","1366","768","de","rf07er10","null","","","","learningBlock2","","","","<div style=""font-size:60px;""> </div>","null","LF","learning/Slide100.JPG","This is a bim:","",""
"","html-keyboard-response","308","589064","0.0-8.0-0.20","LF","dy38rvvnxc","1366","768","de","rf07er10","null","","","","learningBlock2","","","","This is a tob:","null","","","","",""
"","image-keyboard-response","309","589392","0.0-8.0-1.20","LF","dy38rvvnxc","1366","768","de","rf07er10","null","","","","","","","","learning/Slide101.JPG","null","","","","",""
"","html-keyboard-response","310","590393","0.0-8.0-2.20","LF","dy38rvvnxc","1366","768","de","rf07er10","null","","","","learningBlock2","","","","<div style=""font-size:60px;""> </div>","null","LF","learning/Slide101.JPG","This is a tob:","",""
"","html-keyboard-response","311","591395","0.0-8.0-0.21","LF","dy38rvvnxc","1366","768","de","rf07er10","null","","","","learningBlock2","","","","This is a bim:","null","","","","",""
"","image-keyboard-response","312","591723","0.0-8.0-1.21","LF","dy38rvvnxc","1366","768","de","rf07er10","null","","","","","","","","learning/Slide102.JPG","null","","","","",""
"","html-keyboard-response","313","592724","0.0-8.0-2.21","LF","dy38rvvnxc","1366","768","de","rf07er10","null","","","","learningBlock2","","","","<div style=""font-size:60px;""> </div>","null","LF","learning/Slide102.JPG","This is a bim:","",""
"","html-keyboard-response","314","593726","0.0-8.0-0.22","LF","dy38rvvnxc","1366","768","de","rf07er10","null","","","","learningBlock2","","","","This is a dep:","null","","","","",""
"","image-keyboard-response","315","594053","0.0-8.0-1.22","LF","dy38rvvnxc","1366","768","de","rf07er10","null","","","","","","","","learning/Slide103.JPG","null","","","","",""
"","html-keyboard-response","316","595054","0.0-8.0-2.22","LF","dy38rvvnxc","1366","768","de","rf07er10","null","","","","learningBlock2","","","","<div style=""font-size:60px;""> </div>","null","LF","learning/Slide103.JPG","This is a dep:","",""
"","html-keyboard-response","317","596055","0.0-8.0-0.23","LF","dy38rvvnxc","1366","768","de","rf07er10","null","","","","learningBlock2","","","","This is a tob:","null","","","","",""
"","image-keyboard-response","318","596382","0.0-8.0-1.23","LF","dy38rvvnxc","1366","768","de","rf07er10","null","","","","","","","","learning/Slide104.JPG","null","","","","",""
"","html-keyboard-response","319","597384","0.0-8.0-2.23","LF","dy38rvvnxc","1366","768","de","rf07er10","null","","","","learningBlock2","","","","<div style=""font-size:60px;""> </div>","null","LF","learning/Slide104.JPG","This is a tob:","",""
"","html-keyboard-response","320","598385","0.0-8.0-0.24","LF","dy38rvvnxc","1366","768","de","rf07er10","null","","","","learningBlock2","","","","This is a dep:","null","","","","",""
"","image-keyboard-response","321","598712","0.0-8.0-1.24","LF","dy38rvvnxc","1366","768","de","rf07er10","null","","","","","","","","learning/Slide105.JPG","null","","","","",""
"","html-keyboard-response","322","599714","0.0-8.0-2.24","LF","dy38rvvnxc","1366","768","de","rf07er10","null","","","","learningBlock2","","","","<div style=""font-size:60px;""> </div>","null","LF","learning/Slide105.JPG","This is a dep:","",""
"","html-keyboard-response","323","600716","0.0-8.0-0.25","LF","dy38rvvnxc","1366","768","de","rf07er10","null","","","","learningBlock2","","","","This is a wug:","null","","","","",""
"","image-keyboard-response","324","601043","0.0-8.0-1.25","LF","dy38rvvnxc","1366","768","de","rf07er10","null","","","","","","","","learning/Slide106.JPG","null","","","","",""
"","html-keyboard-response","325","602044","0.0-8.0-2.25","LF","dy38rvvnxc","1366","768","de","rf07er10","null","","","","learningBlock2","","","","<div style=""font-size:60px;""> </div>","null","LF","learning/Slide106.JPG","This is a wug:","",""
"","html-keyboard-response","326","603045","0.0-8.0-0.26","LF","dy38rvvnxc","1366","768","de","rf07er10","null","","","","learningBlock2","","","","This is a bim:","null","","","","",""
"","image-keyboard-response","327","603373","0.0-8.0-1.26","LF","dy38rvvnxc","1366","768","de","rf07er10","null","","","","","","","","learning/Slide107.JPG","null","","","","",""
"","html-keyboard-response","328","604374","0.0-8.0-2.26","LF","dy38rvvnxc","1366","768","de","rf07er10","null","","","","learningBlock2","","","","<div style=""font-size:60px;""> </div>","null","LF","learning/Slide107.JPG","This is a bim:","",""
"","html-keyboard-response","329","605375","0.0-8.0-0.27","LF","dy38rvvnxc","1366","768","de","rf07er10","null","","","","learningBlock2","","","","This is a dep:","null","","","","",""
"","image-keyboard-response","330","605702","0.0-8.0-1.27","LF","dy38rvvnxc","1366","768","de","rf07er10","null","","","","","","","","learning/Slide108.JPG","null","","","","",""
"","html-keyboard-response","331","606703","0.0-8.0-2.27","LF","dy38rvvnxc","1366","768","de","rf07er10","null","","","","learningBlock2","","","","<div style=""font-size:60px;""> </div>","null","LF","learning/Slide108.JPG","This is a dep:","",""
"","html-keyboard-response","332","607705","0.0-8.0-0.28","LF","dy38rvvnxc","1366","768","de","rf07er10","null","","","","learningBlock2","","","","This is a wug:","null","","","","",""
"","image-keyboard-response","333","608031","0.0-8.0-1.28","LF","dy38rvvnxc","1366","768","de","rf07er10","null","","","","","","","","learning/Slide109.JPG","null","","","","",""
"","html-keyboard-response","334","609033","0.0-8.0-2.28","LF","dy38rvvnxc","1366","768","de","rf07er10","null","","","","learningBlock2","","","","<div style=""font-size:60px;""> </div>","null","LF","learning/Slide109.JPG","This is a wug:","",""
"","html-keyboard-response","335","610034","0.0-8.0-0.29","LF","dy38rvvnxc","1366","768","de","rf07er10","null","","","","learningBlock2","","","","This is a bim:","null","","","","",""
"","image-keyboard-response","336","610362","0.0-8.0-1.29","LF","dy38rvvnxc","1366","768","de","rf07er10","null","","","","","","","","learning/Slide110.JPG","null","","","","",""
"","html-keyboard-response","337","611364","0.0-8.0-2.29","LF","dy38rvvnxc","1366","768","de","rf07er10","null","","","","learningBlock2","","","","<div style=""font-size:60px;""> </div>","null","LF","learning/Slide110.JPG","This is a bim:","",""
"","html-keyboard-response","338","612365","0.0-8.0-0.30","LF","dy38rvvnxc","1366","768","de","rf07er10","null","","","","learningBlock2","","","","This is a tob:","null","","","","",""
"","image-keyboard-response","339","612693","0.0-8.0-1.30","LF","dy38rvvnxc","1366","768","de","rf07er10","null","","","","","","","","learning/Slide111.JPG","null","","","","",""
"","html-keyboard-response","340","613694","0.0-8.0-2.30","LF","dy38rvvnxc","1366","768","de","rf07er10","null","","","","learningBlock2","","","","<div style=""font-size:60px;""> </div>","null","LF","learning/Slide111.JPG","This is a tob:","",""
"","html-keyboard-response","341","614695","0.0-8.0-0.31","LF","dy38rvvnxc","1366","768","de","rf07er10","null","","","","learningBlock2","","","","This is a wug:","null","","","","",""
"","image-keyboard-response","342","615022","0.0-8.0-1.31","LF","dy38rvvnxc","1366","768","de","rf07er10","null","","","","","","","","learning/Slide112.JPG","null","","","","",""
"","html-keyboard-response","343","616024","0.0-8.0-2.31","LF","dy38rvvnxc","1366","768","de","rf07er10","null","","","","learningBlock2","","","","<div style=""font-size:60px;""> </div>","null","LF","learning/Slide112.JPG","This is a wug:","",""
"","html-keyboard-response","344","617026","0.0-8.0-0.32","LF","dy38rvvnxc","1366","768","de","rf07er10","null","","","","learningBlock2","","","","This is a tob:","null","","","","",""
"","image-keyboard-response","345","617353","0.0-8.0-1.32","LF","dy38rvvnxc","1366","768","de","rf07er10","null","","","","","","","","learning/Slide113.JPG","null","","","","",""
"","html-keyboard-response","346","618354","0.0-8.0-2.32","LF","dy38rvvnxc","1366","768","de","rf07er10","null","","","","learningBlock2","","","","<div style=""font-size:60px;""> </div>","null","LF","learning/Slide113.JPG","This is a tob:","",""
"","html-keyboard-response","347","619356","0.0-8.0-0.33","LF","dy38rvvnxc","1366","768","de","rf07er10","null","","","","learningBlock2","","","","This is a wug:","null","","","","",""
"","image-keyboard-response","348","619684","0.0-8.0-1.33","LF","dy38rvvnxc","1366","768","de","rf07er10","null","","","","","","","","learning/Slide114.JPG","null","","","","",""
"","html-keyboard-response","349","620685","0.0-8.0-2.33","LF","dy38rvvnxc","1366","768","de","rf07er10","null","","","","learningBlock2","","","","<div style=""font-size:60px;""> </div>","null","LF","learning/Slide114.JPG","This is a wug:","",""
"","html-keyboard-response","350","621686","0.0-8.0-0.34","LF","dy38rvvnxc","1366","768","de","rf07er10","null","","","","learningBlock2","","","","This is a bim:","null","","","","",""
"","image-keyboard-response","351","622014","0.0-8.0-1.34","LF","dy38rvvnxc","1366","768","de","rf07er10","null","","","","","","","","learning/Slide115.JPG","null","","","","",""
"","html-keyboard-response","352","623016","0.0-8.0-2.34","LF","dy38rvvnxc","1366","768","de","rf07er10","null","","","","learningBlock2","","","","<div style=""font-size:60px;""> </div>","null","LF","learning/Slide115.JPG","This is a bim:","",""
"","html-keyboard-response","353","624018","0.0-8.0-0.35","LF","dy38rvvnxc","1366","768","de","rf07er10","null","","","","learningBlock2","","","","This is a dep:","null","","","","",""
"","image-keyboard-response","354","624344","0.0-8.0-1.35","LF","dy38rvvnxc","1366","768","de","rf07er10","null","","","","","","","","learning/Slide116.JPG","null","","","","",""
"","html-keyboard-response","355","625346","0.0-8.0-2.35","LF","dy38rvvnxc","1366","768","de","rf07er10","null","","","","learningBlock2","","","","<div style=""font-size:60px;""> </div>","null","LF","learning/Slide116.JPG","This is a dep:","",""
"","html-keyboard-response","356","626348","0.0-8.0-0.36","LF","dy38rvvnxc","1366","768","de","rf07er10","null","","","","learningBlock2","","","","This is a tob:","null","","","","",""
"","image-keyboard-response","357","626676","0.0-8.0-1.36","LF","dy38rvvnxc","1366","768","de","rf07er10","null","","","","","","","","learning/Slide117.JPG","null","","","","",""
"","html-keyboard-response","358","627677","0.0-8.0-2.36","LF","dy38rvvnxc","1366","768","de","rf07er10","null","","","","learningBlock2","","","","<div style=""font-size:60px;""> </div>","null","LF","learning/Slide117.JPG","This is a tob:","",""
"","html-keyboard-response","359","628678","0.0-8.0-0.37","LF","dy38rvvnxc","1366","768","de","rf07er10","null","","","","learningBlock2","","","","This is a dep:","null","","","","",""
"","image-keyboard-response","360","629005","0.0-8.0-1.37","LF","dy38rvvnxc","1366","768","de","rf07er10","null","","","","","","","","learning/Slide118.JPG","null","","","","",""
"","html-keyboard-response","361","630008","0.0-8.0-2.37","LF","dy38rvvnxc","1366","768","de","rf07er10","null","","","","learningBlock2","","","","<div style=""font-size:60px;""> </div>","null","LF","learning/Slide118.JPG","This is a dep:","",""
"","html-keyboard-response","362","631009","0.0-8.0-0.38","LF","dy38rvvnxc","1366","768","de","rf07er10","null","","","","learningBlock2","","","","This is a wug:","null","","","","",""
"","image-keyboard-response","363","631337","0.0-8.0-1.38","LF","dy38rvvnxc","1366","768","de","rf07er10","null","","","","","","","","learning/Slide119.JPG","null","","","","",""
"","html-keyboard-response","364","632338","0.0-8.0-2.38","LF","dy38rvvnxc","1366","768","de","rf07er10","null","","","","learningBlock2","","","","<div style=""font-size:60px;""> </div>","null","LF","learning/Slide119.JPG","This is a wug:","",""
"","html-keyboard-response","365","633340","0.0-8.0-0.39","LF","dy38rvvnxc","1366","768","de","rf07er10","null","","","","learningBlock2","","","","This is a dep:","null","","","","",""
"","image-keyboard-response","366","633668","0.0-8.0-1.39","LF","dy38rvvnxc","1366","768","de","rf07er10","null","","","","","","","","learning/Slide120.JPG","null","","","","",""
"","html-keyboard-response","367","634669","0.0-8.0-2.39","LF","dy38rvvnxc","1366","768","de","rf07er10","null","","","","learningBlock2","","","","<div style=""font-size:60px;""> </div>","null","LF","learning/Slide120.JPG","This is a dep:","",""
"","html-keyboard-response","368","635670","0.0-8.0-0.40","LF","dy38rvvnxc","1366","768","de","rf07er10","null","","","","learningBlock2","","","","This is a bim:","null","","","","",""
"","image-keyboard-response","369","635997","0.0-8.0-1.40","LF","dy38rvvnxc","1366","768","de","rf07er10","null","","","","","","","","learning/Slide121.JPG","null","","","","",""
"","html-keyboard-response","370","636999","0.0-8.0-2.40","LF","dy38rvvnxc","1366","768","de","rf07er10","null","","","","learningBlock2","","","","<div style=""font-size:60px;""> </div>","null","LF","learning/Slide121.JPG","This is a bim:","",""
"","html-keyboard-response","371","638001","0.0-8.0-0.41","LF","dy38rvvnxc","1366","768","de","rf07er10","null","","","","learningBlock2","","","","This is a wug:","null","","","","",""
"","image-keyboard-response","372","638328","0.0-8.0-1.41","LF","dy38rvvnxc","1366","768","de","rf07er10","null","","","","","","","","learning/Slide122.JPG","null","","","","",""
"","html-keyboard-response","373","639330","0.0-8.0-2.41","LF","dy38rvvnxc","1366","768","de","rf07er10","null","","","","learningBlock2","","","","<div style=""font-size:60px;""> </div>","null","LF","learning/Slide122.JPG","This is a wug:","",""
"","html-keyboard-response","374","640332","0.0-8.0-0.42","LF","dy38rvvnxc","1366","768","de","rf07er10","null","","","","learningBlock2","","","","This is a bim:","null","","","","",""
"","image-keyboard-response","375","640659","0.0-8.0-1.42","LF","dy38rvvnxc","1366","768","de","rf07er10","null","","","","","","","","learning/Slide123.JPG","null","","","","",""
"","html-keyboard-response","376","641660","0.0-8.0-2.42","LF","dy38rvvnxc","1366","768","de","rf07er10","null","","","","learningBlock2","","","","<div style=""font-size:60px;""> </div>","null","LF","learning/Slide123.JPG","This is a bim:","",""
"","html-keyboard-response","377","642662","0.0-8.0-0.43","LF","dy38rvvnxc","1366","768","de","rf07er10","null","","","","learningBlock2","","","","This is a tob:","null","","","","",""
"","image-keyboard-response","378","642989","0.0-8.0-1.43","LF","dy38rvvnxc","1366","768","de","rf07er10","null","","","","","","","","learning/Slide124.JPG","null","","","","",""
"","html-keyboard-response","379","643990","0.0-8.0-2.43","LF","dy38rvvnxc","1366","768","de","rf07er10","null","","","","learningBlock2","","","","<div style=""font-size:60px;""> </div>","null","LF","learning/Slide124.JPG","This is a tob:","",""
"","html-keyboard-response","380","644992","0.0-8.0-0.44","LF","dy38rvvnxc","1366","768","de","rf07er10","null","","","","learningBlock2","","","","This is a bim:","null","","","","",""
"","image-keyboard-response","381","645319","0.0-8.0-1.44","LF","dy38rvvnxc","1366","768","de","rf07er10","null","","","","","","","","learning/Slide125.JPG","null","","","","",""
"","html-keyboard-response","382","646322","0.0-8.0-2.44","LF","dy38rvvnxc","1366","768","de","rf07er10","null","","","","learningBlock2","","","","<div style=""font-size:60px;""> </div>","null","LF","learning/Slide125.JPG","This is a bim:","",""
"","html-keyboard-response","383","647323","0.0-8.0-0.45","LF","dy38rvvnxc","1366","768","de","rf07er10","null","","","","learningBlock2","","","","This is a tob:","null","","","","",""
"","image-keyboard-response","384","647651","0.0-8.0-1.45","LF","dy38rvvnxc","1366","768","de","rf07er10","null","","","","","","","","learning/Slide126.JPG","null","","","","",""
"","html-keyboard-response","385","648653","0.0-8.0-2.45","LF","dy38rvvnxc","1366","768","de","rf07er10","null","","","","learningBlock2","","","","<div style=""font-size:60px;""> </div>","null","LF","learning/Slide126.JPG","This is a tob:","",""
"","html-keyboard-response","386","649655","0.0-8.0-0.46","LF","dy38rvvnxc","1366","768","de","rf07er10","null","","","","learningBlock2","","","","This is a dep:","null","","","","",""
"","image-keyboard-response","387","649981","0.0-8.0-1.46","LF","dy38rvvnxc","1366","768","de","rf07er10","null","","","","","","","","learning/Slide127.JPG","null","","","","",""
"","html-keyboard-response","388","650983","0.0-8.0-2.46","LF","dy38rvvnxc","1366","768","de","rf07er10","null","","","","learningBlock2","","","","<div style=""font-size:60px;""> </div>","null","LF","learning/Slide127.JPG","This is a dep:","",""
"","html-keyboard-response","389","651985","0.0-8.0-0.47","LF","dy38rvvnxc","1366","768","de","rf07er10","null","","","","learningBlock2","","","","This is a wug:","null","","","","",""
"","image-keyboard-response","390","652312","0.0-8.0-1.47","LF","dy38rvvnxc","1366","768","de","rf07er10","null","","","","","","","","learning/Slide128.JPG","null","","","","",""
"","html-keyboard-response","391","653313","0.0-8.0-2.47","LF","dy38rvvnxc","1366","768","de","rf07er10","null","","","","learningBlock2","","","","<div style=""font-size:60px;""> </div>","null","LF","learning/Slide128.JPG","This is a wug:","",""
"","html-keyboard-response","392","654315","0.0-8.0-0.48","LF","dy38rvvnxc","1366","768","de","rf07er10","null","","","","learningBlock2","","","","This is a tob:","null","","","","",""
"","image-keyboard-response","393","654643","0.0-8.0-1.48","LF","dy38rvvnxc","1366","768","de","rf07er10","null","","","","","","","","learning/Slide129.JPG","null","","","","",""
"","html-keyboard-response","394","655644","0.0-8.0-2.48","LF","dy38rvvnxc","1366","768","de","rf07er10","null","","","","learningBlock2","","","","<div style=""font-size:60px;""> </div>","null","LF","learning/Slide129.JPG","This is a tob:","",""
"","html-keyboard-response","395","656645","0.0-8.0-0.49","LF","dy38rvvnxc","1366","768","de","rf07er10","null","","","","learningBlock2","","","","This is a wug:","null","","","","",""
"","image-keyboard-response","396","656972","0.0-8.0-1.49","LF","dy38rvvnxc","1366","768","de","rf07er10","null","","","","","","","","learning/Slide130.JPG","null","","","","",""
"","html-keyboard-response","397","657974","0.0-8.0-2.49","LF","dy38rvvnxc","1366","768","de","rf07er10","null","","","","learningBlock2","","","","<div style=""font-size:60px;""> </div>","null","LF","learning/Slide130.JPG","This is a wug:","",""
"","html-keyboard-response","398","658976","0.0-8.0-0.50","LF","dy38rvvnxc","1366","768","de","rf07er10","null","","","","learningBlock2","","","","This is a bim:","null","","","","",""
"","image-keyboard-response","399","659303","0.0-8.0-1.50","LF","dy38rvvnxc","1366","768","de","rf07er10","null","","","","","","","","learning/Slide131.JPG","null","","","","",""
"","html-keyboard-response","400","660305","0.0-8.0-2.50","LF","dy38rvvnxc","1366","768","de","rf07er10","null","","","","learningBlock2","","","","<div style=""font-size:60px;""> </div>","null","LF","learning/Slide131.JPG","This is a bim:","",""
"","html-keyboard-response","401","661306","0.0-8.0-0.51","LF","dy38rvvnxc","1366","768","de","rf07er10","null","","","","learningBlock2","","","","This is a dep:","null","","","","",""
"","image-keyboard-response","402","661633","0.0-8.0-1.51","LF","dy38rvvnxc","1366","768","de","rf07er10","null","","","","","","","","learning/Slide132.JPG","null","","","","",""
"","html-keyboard-response","403","662636","0.0-8.0-2.51","LF","dy38rvvnxc","1366","768","de","rf07er10","null","","","","learningBlock2","","","","<div style=""font-size:60px;""> </div>","null","LF","learning/Slide132.JPG","This is a dep:","",""
"","html-keyboard-response","404","663636","0.0-8.0-0.52","LF","dy38rvvnxc","1366","768","de","rf07er10","null","","","","learningBlock2","","","","This is a tob:","null","","","","",""
"","image-keyboard-response","405","663964","0.0-8.0-1.52","LF","dy38rvvnxc","1366","768","de","rf07er10","null","","","","","","","","learning/Slide133.JPG","null","","","","",""
"","html-keyboard-response","406","664966","0.0-8.0-2.52","LF","dy38rvvnxc","1366","768","de","rf07er10","null","","","","learningBlock2","","","","<div style=""font-size:60px;""> </div>","null","LF","learning/Slide133.JPG","This is a tob:","",""
"","html-keyboard-response","407","665968","0.0-8.0-0.53","LF","dy38rvvnxc","1366","768","de","rf07er10","null","","","","learningBlock2","","","","This is a dep:","null","","","","",""
"","image-keyboard-response","408","666296","0.0-8.0-1.53","LF","dy38rvvnxc","1366","768","de","rf07er10","null","","","","","","","","learning/Slide134.JPG","null","","","","",""
"","html-keyboard-response","409","667298","0.0-8.0-2.53","LF","dy38rvvnxc","1366","768","de","rf07er10","null","","","","learningBlock2","","","","<div style=""font-size:60px;""> </div>","null","LF","learning/Slide134.JPG","This is a dep:","",""
"","html-keyboard-response","410","668299","0.0-8.0-0.54","LF","dy38rvvnxc","1366","768","de","rf07er10","null","","","","learningBlock2","","","","This is a tob:","null","","","","",""
"","image-keyboard-response","411","668626","0.0-8.0-1.54","LF","dy38rvvnxc","1366","768","de","rf07er10","null","","","","","","","","learning/Slide135.JPG","null","","","","",""
"","html-keyboard-response","412","669629","0.0-8.0-2.54","LF","dy38rvvnxc","1366","768","de","rf07er10","null","","","","learningBlock2","","","","<div style=""font-size:60px;""> </div>","null","LF","learning/Slide135.JPG","This is a tob:","",""
"","html-keyboard-response","413","670630","0.0-8.0-0.55","LF","dy38rvvnxc","1366","768","de","rf07er10","null","","","","learningBlock2","","","","This is a wug:","null","","","","",""
"","image-keyboard-response","414","670957","0.0-8.0-1.55","LF","dy38rvvnxc","1366","768","de","rf07er10","null","","","","","","","","learning/Slide136.JPG","null","","","","",""
"","html-keyboard-response","415","671960","0.0-8.0-2.55","LF","dy38rvvnxc","1366","768","de","rf07er10","null","","","","learningBlock2","","","","<div style=""font-size:60px;""> </div>","null","LF","learning/Slide136.JPG","This is a wug:","",""
"","html-keyboard-response","416","672962","0.0-8.0-0.56","LF","dy38rvvnxc","1366","768","de","rf07er10","null","","","","learningBlock2","","","","This is a tob:","null","","","","",""
"","image-keyboard-response","417","673288","0.0-8.0-1.56","LF","dy38rvvnxc","1366","768","de","rf07er10","null","","","","","","","","learning/Slide137.JPG","null","","","","",""
"","html-keyboard-response","418","674290","0.0-8.0-2.56","LF","dy38rvvnxc","1366","768","de","rf07er10","null","","","","learningBlock2","","","","<div style=""font-size:60px;""> </div>","null","LF","learning/Slide137.JPG","This is a tob:","",""
"","html-keyboard-response","419","675292","0.0-8.0-0.57","LF","dy38rvvnxc","1366","768","de","rf07er10","null","","","","learningBlock2","","","","This is a bim:","null","","","","",""
"","image-keyboard-response","420","675620","0.0-8.0-1.57","LF","dy38rvvnxc","1366","768","de","rf07er10","null","","","","","","","","learning/Slide138.JPG","null","","","","",""
"","html-keyboard-response","421","676621","0.0-8.0-2.57","LF","dy38rvvnxc","1366","768","de","rf07er10","null","","","","learningBlock2","","","","<div style=""font-size:60px;""> </div>","null","LF","learning/Slide138.JPG","This is a bim:","",""
"","html-keyboard-response","422","677623","0.0-8.0-0.58","LF","dy38rvvnxc","1366","768","de","rf07er10","null","","","","learningBlock2","","","","This is a wug:","null","","","","",""
"","image-keyboard-response","423","677951","0.0-8.0-1.58","LF","dy38rvvnxc","1366","768","de","rf07er10","null","","","","","","","","learning/Slide139.JPG","null","","","","",""
"","html-keyboard-response","424","678953","0.0-8.0-2.58","LF","dy38rvvnxc","1366","768","de","rf07er10","null","","","","learningBlock2","","","","<div style=""font-size:60px;""> </div>","null","LF","learning/Slide139.JPG","This is a wug:","",""
"","html-keyboard-response","425","679954","0.0-8.0-0.59","LF","dy38rvvnxc","1366","768","de","rf07er10","null","","","","learningBlock2","","","","This is a dep:","null","","","","",""
"","image-keyboard-response","426","680281","0.0-8.0-1.59","LF","dy38rvvnxc","1366","768","de","rf07er10","null","","","","","","","","learning/Slide140.JPG","null","","","","",""
"","html-keyboard-response","427","681283","0.0-8.0-2.59","LF","dy38rvvnxc","1366","768","de","rf07er10","null","","","","learningBlock2","","","","<div style=""font-size:60px;""> </div>","null","LF","learning/Slide140.JPG","This is a dep:","",""
"","html-keyboard-response","428","682285","0.0-8.0-0.60","LF","dy38rvvnxc","1366","768","de","rf07er10","null","","","","learningBlock2","","","","This is a tob:","null","","","","",""
"","image-keyboard-response","429","682613","0.0-8.0-1.60","LF","dy38rvvnxc","1366","768","de","rf07er10","null","","","","","","","","learning/Slide141.JPG","null","","","","",""
"","html-keyboard-response","430","683615","0.0-8.0-2.60","LF","dy38rvvnxc","1366","768","de","rf07er10","null","","","","learningBlock2","","","","<div style=""font-size:60px;""> </div>","null","LF","learning/Slide141.JPG","This is a tob:","",""
"","html-keyboard-response","431","684616","0.0-8.0-0.61","LF","dy38rvvnxc","1366","768","de","rf07er10","null","","","","learningBlock2","","","","This is a wug:","null","","","","",""
"","image-keyboard-response","432","684944","0.0-8.0-1.61","LF","dy38rvvnxc","1366","768","de","rf07er10","null","","","","","","","","learning/Slide142.JPG","null","","","","",""
"","html-keyboard-response","433","685945","0.0-8.0-2.61","LF","dy38rvvnxc","1366","768","de","rf07er10","null","","","","learningBlock2","","","","<div style=""font-size:60px;""> </div>","null","LF","learning/Slide142.JPG","This is a wug:","",""
"","html-keyboard-response","434","686947","0.0-8.0-0.62","LF","dy38rvvnxc","1366","768","de","rf07er10","null","","","","learningBlock2","","","","This is a bim:","null","","","","",""
"","image-keyboard-response","435","687275","0.0-8.0-1.62","LF","dy38rvvnxc","1366","768","de","rf07er10","null","","","","","","","","learning/Slide143.JPG","null","","","","",""
"","html-keyboard-response","436","688276","0.0-8.0-2.62","LF","dy38rvvnxc","1366","768","de","rf07er10","null","","","","learningBlock2","","","","<div style=""font-size:60px;""> </div>","null","LF","learning/Slide143.JPG","This is a bim:","",""
"","html-keyboard-response","437","689278","0.0-8.0-0.63","LF","dy38rvvnxc","1366","768","de","rf07er10","null","","","","learningBlock2","","","","This is a dep:","null","","","","",""
"","image-keyboard-response","438","689605","0.0-8.0-1.63","LF","dy38rvvnxc","1366","768","de","rf07er10","null","","","","","","","","learning/Slide144.JPG","null","","","","",""
"","html-keyboard-response","439","690607","0.0-8.0-2.63","LF","dy38rvvnxc","1366","768","de","rf07er10","null","","","","learningBlock2","","","","<div style=""font-size:60px;""> </div>","null","LF","learning/Slide144.JPG","This is a dep:","",""
"","html-keyboard-response","440","691608","0.0-8.0-0.64","LF","dy38rvvnxc","1366","768","de","rf07er10","null","","","","learningBlock2","","","","This is a bim:","null","","","","",""
"","image-keyboard-response","441","691935","0.0-8.0-1.64","LF","dy38rvvnxc","1366","768","de","rf07er10","null","","","","","","","","learning/Slide145.JPG","null","","","","",""
"","html-keyboard-response","442","692937","0.0-8.0-2.64","LF","dy38rvvnxc","1366","768","de","rf07er10","null","","","","learningBlock2","","","","<div style=""font-size:60px;""> </div>","null","LF","learning/Slide145.JPG","This is a bim:","",""
"","html-keyboard-response","443","693939","0.0-8.0-0.65","LF","dy38rvvnxc","1366","768","de","rf07er10","null","","","","learningBlock2","","","","This is a tob:","null","","","","",""
"","image-keyboard-response","444","694266","0.0-8.0-1.65","LF","dy38rvvnxc","1366","768","de","rf07er10","null","","","","","","","","learning/Slide146.JPG","null","","","","",""
"","html-keyboard-response","445","695268","0.0-8.0-2.65","LF","dy38rvvnxc","1366","768","de","rf07er10","null","","","","learningBlock2","","","","<div style=""font-size:60px;""> </div>","null","LF","learning/Slide146.JPG","This is a tob:","",""
"","html-keyboard-response","446","696270","0.0-8.0-0.66","LF","dy38rvvnxc","1366","768","de","rf07er10","null","","","","learningBlock2","","","","This is a wug:","null","","","","",""
"","image-keyboard-response","447","696596","0.0-8.0-1.66","LF","dy38rvvnxc","1366","768","de","rf07er10","null","","","","","","","","learning/Slide147.JPG","null","","","","",""
"","html-keyboard-response","448","697598","0.0-8.0-2.66","LF","dy38rvvnxc","1366","768","de","rf07er10","null","","","","learningBlock2","","","","<div style=""font-size:60px;""> </div>","null","LF","learning/Slide147.JPG","This is a wug:","",""
"","html-keyboard-response","449","698599","0.0-8.0-0.67","LF","dy38rvvnxc","1366","768","de","rf07er10","null","","","","learningBlock2","","","","This is a bim:","null","","","","",""
"","image-keyboard-response","450","698927","0.0-8.0-1.67","LF","dy38rvvnxc","1366","768","de","rf07er10","null","","","","","","","","learning/Slide148.JPG","null","","","","",""
"","html-keyboard-response","451","699929","0.0-8.0-2.67","LF","dy38rvvnxc","1366","768","de","rf07er10","null","","","","learningBlock2","","","","<div style=""font-size:60px;""> </div>","null","LF","learning/Slide148.JPG","This is a bim:","",""
"","html-keyboard-response","452","700931","0.0-8.0-0.68","LF","dy38rvvnxc","1366","768","de","rf07er10","null","","","","learningBlock2","","","","This is a dep:","null","","","","",""
"","image-keyboard-response","453","701258","0.0-8.0-1.68","LF","dy38rvvnxc","1366","768","de","rf07er10","null","","","","","","","","learning/Slide149.JPG","null","","","","",""
"","html-keyboard-response","454","702260","0.0-8.0-2.68","LF","dy38rvvnxc","1366","768","de","rf07er10","null","","","","learningBlock2","","","","<div style=""font-size:60px;""> </div>","null","LF","learning/Slide149.JPG","This is a dep:","",""
"","html-keyboard-response","455","703261","0.0-8.0-0.69","LF","dy38rvvnxc","1366","768","de","rf07er10","null","","","","learningBlock2","","","","This is a wug:","null","","","","",""
"","image-keyboard-response","456","703588","0.0-8.0-1.69","LF","dy38rvvnxc","1366","768","de","rf07er10","null","","","","","","","","learning/Slide150.JPG","null","","","","",""
"","html-keyboard-response","457","704590","0.0-8.0-2.69","LF","dy38rvvnxc","1366","768","de","rf07er10","null","","","","learningBlock2","","","","<div style=""font-size:60px;""> </div>","null","LF","learning/Slide150.JPG","This is a wug:","",""
"","html-keyboard-response","458","705591","0.0-8.0-0.70","LF","dy38rvvnxc","1366","768","de","rf07er10","null","","","","learningBlock2","","","","This is a dep:","null","","","","",""
"","image-keyboard-response","459","705919","0.0-8.0-1.70","LF","dy38rvvnxc","1366","768","de","rf07er10","null","","","","","","","","learning/Slide151.JPG","null","","","","",""
"","html-keyboard-response","460","706919","0.0-8.0-2.70","LF","dy38rvvnxc","1366","768","de","rf07er10","null","","","","learningBlock2","","","","<div style=""font-size:60px;""> </div>","null","LF","learning/Slide151.JPG","This is a dep:","",""
"","html-keyboard-response","461","707920","0.0-8.0-0.71","LF","dy38rvvnxc","1366","768","de","rf07er10","null","","","","learningBlock2","","","","This is a wug:","null","","","","",""
"","image-keyboard-response","462","708248","0.0-8.0-1.71","LF","dy38rvvnxc","1366","768","de","rf07er10","null","","","","","","","","learning/Slide152.JPG","null","","","","",""
"","html-keyboard-response","463","709250","0.0-8.0-2.71","LF","dy38rvvnxc","1366","768","de","rf07er10","null","","","","learningBlock2","","","","<div style=""font-size:60px;""> </div>","null","LF","learning/Slide152.JPG","This is a wug:","",""
"","html-keyboard-response","464","710250","0.0-8.0-0.72","LF","dy38rvvnxc","1366","768","de","rf07er10","null","","","","learningBlock2","","","","This is a bim:","null","","","","",""
"","image-keyboard-response","465","710577","0.0-8.0-1.72","LF","dy38rvvnxc","1366","768","de","rf07er10","null","","","","","","","","learning/Slide153.JPG","null","","","","",""
"","html-keyboard-response","466","711579","0.0-8.0-2.72","LF","dy38rvvnxc","1366","768","de","rf07er10","null","","","","learningBlock2","","","","<div style=""font-size:60px;""> </div>","null","LF","learning/Slide153.JPG","This is a bim:","",""
"","html-keyboard-response","467","712581","0.0-8.0-0.73","LF","dy38rvvnxc","1366","768","de","rf07er10","null","","","","learningBlock2","","","","This is a tob:","null","","","","",""
"","image-keyboard-response","468","712909","0.0-8.0-1.73","LF","dy38rvvnxc","1366","768","de","rf07er10","null","","","","","","","","learning/Slide154.JPG","null","","","","",""
"","html-keyboard-response","469","713910","0.0-8.0-2.73","LF","dy38rvvnxc","1366","768","de","rf07er10","null","","","","learningBlock2","","","","<div style=""font-size:60px;""> </div>","null","LF","learning/Slide154.JPG","This is a tob:","",""
"","html-keyboard-response","470","714911","0.0-8.0-0.74","LF","dy38rvvnxc","1366","768","de","rf07er10","null","","","","learningBlock2","","","","This is a dep:","null","","","","",""
"","image-keyboard-response","471","715239","0.0-8.0-1.74","LF","dy38rvvnxc","1366","768","de","rf07er10","null","","","","","","","","learning/Slide155.JPG","null","","","","",""
"","html-keyboard-response","472","716241","0.0-8.0-2.74","LF","dy38rvvnxc","1366","768","de","rf07er10","null","","","","learningBlock2","","","","<div style=""font-size:60px;""> </div>","null","LF","learning/Slide155.JPG","This is a dep:","",""
"","html-keyboard-response","473","717242","0.0-8.0-0.75","LF","dy38rvvnxc","1366","768","de","rf07er10","null","","","","learningBlock2","","","","This is a bim:","null","","","","",""
"","image-keyboard-response","474","717569","0.0-8.0-1.75","LF","dy38rvvnxc","1366","768","de","rf07er10","null","","","","","","","","learning/Slide156.JPG","null","","","","",""
"","html-keyboard-response","475","718571","0.0-8.0-2.75","LF","dy38rvvnxc","1366","768","de","rf07er10","null","","","","learningBlock2","","","","<div style=""font-size:60px;""> </div>","null","LF","learning/Slide156.JPG","This is a bim:","",""
"","html-keyboard-response","476","719572","0.0-8.0-0.76","LF","dy38rvvnxc","1366","768","de","rf07er10","null","","","","learningBlock2","","","","This is a dep:","null","","","","",""
"","image-keyboard-response","477","719901","0.0-8.0-1.76","LF","dy38rvvnxc","1366","768","de","rf07er10","null","","","","","","","","learning/Slide157.JPG","null","","","","",""
"","html-keyboard-response","478","720901","0.0-8.0-2.76","LF","dy38rvvnxc","1366","768","de","rf07er10","null","","","","learningBlock2","","","","<div style=""font-size:60px;""> </div>","null","LF","learning/Slide157.JPG","This is a dep:","",""
"","html-keyboard-response","479","721903","0.0-8.0-0.77","LF","dy38rvvnxc","1366","768","de","rf07er10","null","","","","learningBlock2","","","","This is a tob:","null","","","","",""
"","image-keyboard-response","480","722231","0.0-8.0-1.77","LF","dy38rvvnxc","1366","768","de","rf07er10","null","","","","","","","","learning/Slide158.JPG","null","","","","",""
"","html-keyboard-response","481","723232","0.0-8.0-2.77","LF","dy38rvvnxc","1366","768","de","rf07er10","null","","","","learningBlock2","","","","<div style=""font-size:60px;""> </div>","null","LF","learning/Slide158.JPG","This is a tob:","",""
"","html-keyboard-response","482","724235","0.0-8.0-0.78","LF","dy38rvvnxc","1366","768","de","rf07er10","null","","","","learningBlock2","","","","This is a dep:","null","","","","",""
"","image-keyboard-response","483","724561","0.0-8.0-1.78","LF","dy38rvvnxc","1366","768","de","rf07er10","null","","","","","","","","learning/Slide159.JPG","null","","","","",""
"","html-keyboard-response","484","725563","0.0-8.0-2.78","LF","dy38rvvnxc","1366","768","de","rf07er10","null","","","","learningBlock2","","","","<div style=""font-size:60px;""> </div>","null","LF","learning/Slide159.JPG","This is a dep:","",""
"","html-keyboard-response","485","726564","0.0-8.0-0.79","LF","dy38rvvnxc","1366","768","de","rf07er10","null","","","","learningBlock2","","","","This is a wug:","null","","","","",""
"","image-keyboard-response","486","726892","0.0-8.0-1.79","LF","dy38rvvnxc","1366","768","de","rf07er10","null","","","","","","","","learning/Slide160.JPG","null","","","","",""
"","html-keyboard-response","487","727894","0.0-8.0-2.79","LF","dy38rvvnxc","1366","768","de","rf07er10","null","","","","learningBlock2","","","","<div style=""font-size:60px;""> </div>","null","LF","learning/Slide160.JPG","This is a wug:","",""
"","resize2","488","734632","0.0-9.0","LF","dy38rvvnxc","1366","768","de","rf07er10","","","","","","","104","1.04","","","","","","",""
"","instructions","489","754858","0.0-10.0","LF","dy38rvvnxc","1366","768","de","rf07er10","NA","","","[{""page_index"":0,""viewing_time"":20224}]","instructions","","","","","","","","","",""
"","html-keyboard-response","490","755861","0.0-11.0-0.0","LF","dy38rvvnxc","1366","768","de","rf07er10","null","","","","","","","","<div style=""font-size:60px;"">+</div>","null","","","","",""
