"success","trial_type","trial_index","time_elapsed","internal_node_id","condition","subject","screen_width","screen_height","language","codeword","rt","responses","url","view_history","test_part","final_height_px","final_width_px","scale_factor","stimulus","key_press","learningType","presentedImage","presentedLabel","button_pressed","response"
"true","fullscreen","0","8244","0.0-0.0","FL","mn35br66m1","1536","864","de","IS05RY26","","","","","","","","","","","","","","",""
"","survey-html-form","1","21734","0.0-1.0","FL","mn35br66m1","1536","864","de","IS05RY26","13487.079999991693","{""language"":""de""}","","","","","","","","","","","","",""
"","external-html","2","573632","0.0-2.0-0.0","FL","mn35br66m1","1536","864","de","IS05RY26","551780.8700000169","","text/information.html","","","","","","","","","","","",""
"","external-html","3","616065","0.0-2.0-1.0","FL","mn35br66m1","1536","864","de","IS05RY26","42341.09499998158","","text/consent.html","","","","","","","","","","","",""
"","survey-html-form","4","690185","0.0-2.0-2.0","FL","mn35br66m1","1536","864","de","IS05RY26","74115.83499994595","{""codeword_enter"":""IS05RY26""}","","","","","","","","","","","","",""
"","instructions","5","725253","0.0-4.0","FL","mn35br66m1","1536","864","de","IS05RY26","NA","","","[{""page_index"":0,""viewing_time"":9006.575000006706},{""page_index"":1,""viewing_time"":24549.644999962766}]","instructions","","","","","","","","","",""
"","resize","6","777799","0.0-5.0","FL","mn35br66m1","1536","864","de","IS05RY26","","","","","","","386","2.450793650793651","","","","","","",""
"","image-keyboard-response","7","777979","0.0-6.0-0.0","FL","mn35br66m1","1536","864","de","IS05RY26","null","","","","","","","","learning/Slide1.JPG","null","","","","",""
"","html-keyboard-response","8","779142","0.0-6.0-1.0","FL","mn35br66m1","1536","864","de","IS05RY26","null","","","","learningBlock1","","","","That was a tob.","null","","","","",""
"","html-keyboard-response","9","780144","0.0-6.0-2.0","FL","mn35br66m1","1536","864","de","IS05RY26","null","","","","learningBlock1","","","","<div style=""font-size:60px;""> </div>","null","FL","learning/Slide1.JPG","That was a tob.","",""
"","image-keyboard-response","10","780321","0.0-6.0-0.1","FL","mn35br66m1","1536","864","de","IS05RY26","null","","","","","","","","learning/Slide2.JPG","null","","","","",""
"","html-keyboard-response","11","781488","0.0-6.0-1.1","FL","mn35br66m1","1536","864","de","IS05RY26","null","","","","learningBlock1","","","","That was a wug.","null","","","","",""
"","html-keyboard-response","12","782498","0.0-6.0-2.1","FL","mn35br66m1","1536","864","de","IS05RY26","null","","","","learningBlock1","","","","<div style=""font-size:60px;""> </div>","null","FL","learning/Slide2.JPG","That was a wug.","",""
"","image-keyboard-response","13","782675","0.0-6.0-0.2","FL","mn35br66m1","1536","864","de","IS05RY26","null","","","","","","","","learning/Slide3.JPG","null","","","","",""
"","html-keyboard-response","14","783851","0.0-6.0-1.2","FL","mn35br66m1","1536","864","de","IS05RY26","null","","","","learningBlock1","","","","That was a bim.","null","","","","",""
"","html-keyboard-response","15","784867","0.0-6.0-2.2","FL","mn35br66m1","1536","864","de","IS05RY26","null","","","","learningBlock1","","","","<div style=""font-size:60px;""> </div>","null","FL","learning/Slide3.JPG","That was a bim.","",""
"","image-keyboard-response","16","785043","0.0-6.0-0.3","FL","mn35br66m1","1536","864","de","IS05RY26","null","","","","","","","","learning/Slide4.JPG","null","","","","",""
"","html-keyboard-response","17","786196","0.0-6.0-1.3","FL","mn35br66m1","1536","864","de","IS05RY26","null","","","","learningBlock1","","","","That was a dep.","null","","","","",""
"","html-keyboard-response","18","787210","0.0-6.0-2.3","FL","mn35br66m1","1536","864","de","IS05RY26","null","","","","learningBlock1","","","","<div style=""font-size:60px;""> </div>","null","FL","learning/Slide4.JPG","That was a dep.","",""
"","image-keyboard-response","19","787387","0.0-6.0-0.4","FL","mn35br66m1","1536","864","de","IS05RY26","null","","","","","","","","learning/Slide5.JPG","null","","","","",""
"","html-keyboard-response","20","788555","0.0-6.0-1.4","FL","mn35br66m1","1536","864","de","IS05RY26","null","","","","learningBlock1","","","","That was a wug.","null","","","","",""
"","html-keyboard-response","21","789558","0.0-6.0-2.4","FL","mn35br66m1","1536","864","de","IS05RY26","null","","","","learningBlock1","","","","<div style=""font-size:60px;""> </div>","null","FL","learning/Slide5.JPG","That was a wug.","",""
"","image-keyboard-response","22","789744","0.0-6.0-0.5","FL","mn35br66m1","1536","864","de","IS05RY26","null","","","","","","","","learning/Slide6.JPG","null","","","","",""
"","html-keyboard-response","23","790903","0.0-6.0-1.5","FL","mn35br66m1","1536","864","de","IS05RY26","null","","","","learningBlock1","","","","That was a dep.","null","","","","",""
"","html-keyboard-response","24","791917","0.0-6.0-2.5","FL","mn35br66m1","1536","864","de","IS05RY26","null","","","","learningBlock1","","","","<div style=""font-size:60px;""> </div>","null","FL","learning/Slide6.JPG","That was a dep.","",""
"","image-keyboard-response","25","792107","0.0-6.0-0.6","FL","mn35br66m1","1536","864","de","IS05RY26","null","","","","","","","","learning/Slide7.JPG","null","","","","",""
"","html-keyboard-response","26","793272","0.0-6.0-1.6","FL","mn35br66m1","1536","864","de","IS05RY26","null","","","","learningBlock1","","","","That was a wug.","null","","","","",""
"","html-keyboard-response","27","794284","0.0-6.0-2.6","FL","mn35br66m1","1536","864","de","IS05RY26","null","","","","learningBlock1","","","","<div style=""font-size:60px;""> </div>","null","FL","learning/Slide7.JPG","That was a wug.","",""
"","image-keyboard-response","28","794470","0.0-6.0-0.7","FL","mn35br66m1","1536","864","de","IS05RY26","null","","","","","","","","learning/Slide8.JPG","null","","","","",""
"","html-keyboard-response","29","795639","0.0-6.0-1.7","FL","mn35br66m1","1536","864","de","IS05RY26","null","","","","learningBlock1","","","","That was a bim.","null","","","","",""
"","html-keyboard-response","30","796649","0.0-6.0-2.7","FL","mn35br66m1","1536","864","de","IS05RY26","null","","","","learningBlock1","","","","<div style=""font-size:60px;""> </div>","null","FL","learning/Slide8.JPG","That was a bim.","",""
"","image-keyboard-response","31","796833","0.0-6.0-0.8","FL","mn35br66m1","1536","864","de","IS05RY26","null","","","","","","","","learning/Slide9.JPG","null","","","","",""
"","html-keyboard-response","32","797990","0.0-6.0-1.8","FL","mn35br66m1","1536","864","de","IS05RY26","null","","","","learningBlock1","","","","That was a wug.","null","","","","",""
"","html-keyboard-response","33","799002","0.0-6.0-2.8","FL","mn35br66m1","1536","864","de","IS05RY26","null","","","","learningBlock1","","","","<div style=""font-size:60px;""> </div>","null","FL","learning/Slide9.JPG","That was a wug.","",""
"","image-keyboard-response","34","799190","0.0-6.0-0.9","FL","mn35br66m1","1536","864","de","IS05RY26","null","","","","","","","","learning/Slide10.JPG","null","","","","",""
"","html-keyboard-response","35","800342","0.0-6.0-1.9","FL","mn35br66m1","1536","864","de","IS05RY26","null","","","","learningBlock1","","","","That was a dep.","null","","","","",""
"","html-keyboard-response","36","801353","0.0-6.0-2.9","FL","mn35br66m1","1536","864","de","IS05RY26","null","","","","learningBlock1","","","","<div style=""font-size:60px;""> </div>","null","FL","learning/Slide10.JPG","That was a dep.","",""
"","image-keyboard-response","37","801530","0.0-6.0-0.10","FL","mn35br66m1","1536","864","de","IS05RY26","null","","","","","","","","learning/Slide11.JPG","null","","","","",""
"","html-keyboard-response","38","802691","0.0-6.0-1.10","FL","mn35br66m1","1536","864","de","IS05RY26","null","","","","learningBlock1","","","","That was a tob.","null","","","","",""
"","html-keyboard-response","39","803705","0.0-6.0-2.10","FL","mn35br66m1","1536","864","de","IS05RY26","null","","","","learningBlock1","","","","<div style=""font-size:60px;""> </div>","null","FL","learning/Slide11.JPG","That was a tob.","",""
"","image-keyboard-response","40","803889","0.0-6.0-0.11","FL","mn35br66m1","1536","864","de","IS05RY26","null","","","","","","","","learning/Slide12.JPG","null","","","","",""
"","html-keyboard-response","41","805059","0.0-6.0-1.11","FL","mn35br66m1","1536","864","de","IS05RY26","null","","","","learningBlock1","","","","That was a dep.","null","","","","",""
"","html-keyboard-response","42","806071","0.0-6.0-2.11","FL","mn35br66m1","1536","864","de","IS05RY26","null","","","","learningBlock1","","","","<div style=""font-size:60px;""> </div>","null","FL","learning/Slide12.JPG","That was a dep.","",""
"","image-keyboard-response","43","806258","0.0-6.0-0.12","FL","mn35br66m1","1536","864","de","IS05RY26","null","","","","","","","","learning/Slide13.JPG","null","","","","",""
"","html-keyboard-response","44","807424","0.0-6.0-1.12","FL","mn35br66m1","1536","864","de","IS05RY26","null","","","","learningBlock1","","","","That was a bim.","null","","","","",""
"","html-keyboard-response","45","808438","0.0-6.0-2.12","FL","mn35br66m1","1536","864","de","IS05RY26","null","","","","learningBlock1","","","","<div style=""font-size:60px;""> </div>","null","FL","learning/Slide13.JPG","That was a bim.","",""
"","image-keyboard-response","46","808615","0.0-6.0-0.13","FL","mn35br66m1","1536","864","de","IS05RY26","null","","","","","","","","learning/Slide14.JPG","null","","","","",""
"","html-keyboard-response","47","809777","0.0-6.0-1.13","FL","mn35br66m1","1536","864","de","IS05RY26","null","","","","learningBlock1","","","","That was a wug.","null","","","","",""
"","html-keyboard-response","48","810794","0.0-6.0-2.13","FL","mn35br66m1","1536","864","de","IS05RY26","null","","","","learningBlock1","","","","<div style=""font-size:60px;""> </div>","null","FL","learning/Slide14.JPG","That was a wug.","",""
"","image-keyboard-response","49","810981","0.0-6.0-0.14","FL","mn35br66m1","1536","864","de","IS05RY26","null","","","","","","","","learning/Slide15.JPG","null","","","","",""
"","html-keyboard-response","50","812137","0.0-6.0-1.14","FL","mn35br66m1","1536","864","de","IS05RY26","null","","","","learningBlock1","","","","That was a tob.","null","","","","",""
"","html-keyboard-response","51","813153","0.0-6.0-2.14","FL","mn35br66m1","1536","864","de","IS05RY26","null","","","","learningBlock1","","","","<div style=""font-size:60px;""> </div>","null","FL","learning/Slide15.JPG","That was a tob.","",""
"","image-keyboard-response","52","813338","0.0-6.0-0.15","FL","mn35br66m1","1536","864","de","IS05RY26","null","","","","","","","","learning/Slide16.JPG","null","","","","",""
"","html-keyboard-response","53","814504","0.0-6.0-1.15","FL","mn35br66m1","1536","864","de","IS05RY26","null","","","","learningBlock1","","","","That was a dep.","null","","","","",""
"","html-keyboard-response","54","815518","0.0-6.0-2.15","FL","mn35br66m1","1536","864","de","IS05RY26","null","","","","learningBlock1","","","","<div style=""font-size:60px;""> </div>","null","FL","learning/Slide16.JPG","That was a dep.","",""
"","image-keyboard-response","55","815695","0.0-6.0-0.16","FL","mn35br66m1","1536","864","de","IS05RY26","null","","","","","","","","learning/Slide17.JPG","null","","","","",""
"","html-keyboard-response","56","816856","0.0-6.0-1.16","FL","mn35br66m1","1536","864","de","IS05RY26","null","","","","learningBlock1","","","","That was a bim.","null","","","","",""
"","html-keyboard-response","57","817870","0.0-6.0-2.16","FL","mn35br66m1","1536","864","de","IS05RY26","null","","","","learningBlock1","","","","<div style=""font-size:60px;""> </div>","null","FL","learning/Slide17.JPG","That was a bim.","",""
"","image-keyboard-response","58","818046","0.0-6.0-0.17","FL","mn35br66m1","1536","864","de","IS05RY26","null","","","","","","","","learning/Slide18.JPG","null","","","","",""
"","html-keyboard-response","59","819211","0.0-6.0-1.17","FL","mn35br66m1","1536","864","de","IS05RY26","null","","","","learningBlock1","","","","That was a tob.","null","","","","",""
"","html-keyboard-response","60","820224","0.0-6.0-2.17","FL","mn35br66m1","1536","864","de","IS05RY26","null","","","","learningBlock1","","","","<div style=""font-size:60px;""> </div>","null","FL","learning/Slide18.JPG","That was a tob.","",""
"","image-keyboard-response","61","820401","0.0-6.0-0.18","FL","mn35br66m1","1536","864","de","IS05RY26","null","","","","","","","","learning/Slide19.JPG","null","","","","",""
"","html-keyboard-response","62","821554","0.0-6.0-1.18","FL","mn35br66m1","1536","864","de","IS05RY26","null","","","","learningBlock1","","","","That was a wug.","null","","","","",""
"","html-keyboard-response","63","822556","0.0-6.0-2.18","FL","mn35br66m1","1536","864","de","IS05RY26","null","","","","learningBlock1","","","","<div style=""font-size:60px;""> </div>","null","FL","learning/Slide19.JPG","That was a wug.","",""
"","image-keyboard-response","64","822732","0.0-6.0-0.19","FL","mn35br66m1","1536","864","de","IS05RY26","null","","","","","","","","learning/Slide20.JPG","null","","","","",""
"","html-keyboard-response","65","823896","0.0-6.0-1.19","FL","mn35br66m1","1536","864","de","IS05RY26","null","","","","learningBlock1","","","","That was a bim.","null","","","","",""
"","html-keyboard-response","66","824907","0.0-6.0-2.19","FL","mn35br66m1","1536","864","de","IS05RY26","null","","","","learningBlock1","","","","<div style=""font-size:60px;""> </div>","null","FL","learning/Slide20.JPG","That was a bim.","",""
"","image-keyboard-response","67","825094","0.0-6.0-0.20","FL","mn35br66m1","1536","864","de","IS05RY26","null","","","","","","","","learning/Slide21.JPG","null","","","","",""
"","html-keyboard-response","68","826258","0.0-6.0-1.20","FL","mn35br66m1","1536","864","de","IS05RY26","null","","","","learningBlock1","","","","That was a dep.","null","","","","",""
"","html-keyboard-response","69","827272","0.0-6.0-2.20","FL","mn35br66m1","1536","864","de","IS05RY26","null","","","","learningBlock1","","","","<div style=""font-size:60px;""> </div>","null","FL","learning/Slide21.JPG","That was a dep.","",""
"","image-keyboard-response","70","827459","0.0-6.0-0.21","FL","mn35br66m1","1536","864","de","IS05RY26","null","","","","","","","","learning/Slide22.JPG","null","","","","",""
"","html-keyboard-response","71","828629","0.0-6.0-1.21","FL","mn35br66m1","1536","864","de","IS05RY26","null","","","","learningBlock1","","","","That was a bim.","null","","","","",""
"","html-keyboard-response","72","829638","0.0-6.0-2.21","FL","mn35br66m1","1536","864","de","IS05RY26","null","","","","learningBlock1","","","","<div style=""font-size:60px;""> </div>","null","FL","learning/Slide22.JPG","That was a bim.","",""
"","image-keyboard-response","73","829815","0.0-6.0-0.22","FL","mn35br66m1","1536","864","de","IS05RY26","null","","","","","","","","learning/Slide23.JPG","null","","","","",""
"","html-keyboard-response","74","830984","0.0-6.0-1.22","FL","mn35br66m1","1536","864","de","IS05RY26","null","","","","learningBlock1","","","","That was a tob.","null","","","","",""
"","html-keyboard-response","75","831999","0.0-6.0-2.22","FL","mn35br66m1","1536","864","de","IS05RY26","null","","","","learningBlock1","","","","<div style=""font-size:60px;""> </div>","null","FL","learning/Slide23.JPG","That was a tob.","",""
"","image-keyboard-response","76","832176","0.0-6.0-0.23","FL","mn35br66m1","1536","864","de","IS05RY26","null","","","","","","","","learning/Slide24.JPG","null","","","","",""
"","html-keyboard-response","77","833342","0.0-6.0-1.23","FL","mn35br66m1","1536","864","de","IS05RY26","null","","","","learningBlock1","","","","That was a wug.","null","","","","",""
"","html-keyboard-response","78","834354","0.0-6.0-2.23","FL","mn35br66m1","1536","864","de","IS05RY26","null","","","","learningBlock1","","","","<div style=""font-size:60px;""> </div>","null","FL","learning/Slide24.JPG","That was a wug.","",""
"","image-keyboard-response","79","834530","0.0-6.0-0.24","FL","mn35br66m1","1536","864","de","IS05RY26","null","","","","","","","","learning/Slide25.JPG","null","","","","",""
"","html-keyboard-response","80","835710","0.0-6.0-1.24","FL","mn35br66m1","1536","864","de","IS05RY26","null","","","","learningBlock1","","","","That was a dep.","null","","","","",""
"","html-keyboard-response","81","836718","0.0-6.0-2.24","FL","mn35br66m1","1536","864","de","IS05RY26","null","","","","learningBlock1","","","","<div style=""font-size:60px;""> </div>","null","FL","learning/Slide25.JPG","That was a dep.","",""
"","image-keyboard-response","82","836895","0.0-6.0-0.25","FL","mn35br66m1","1536","864","de","IS05RY26","null","","","","","","","","learning/Slide26.JPG","null","","","","",""
"","html-keyboard-response","83","838056","0.0-6.0-1.25","FL","mn35br66m1","1536","864","de","IS05RY26","null","","","","learningBlock1","","","","That was a wug.","null","","","","",""
"","html-keyboard-response","84","839067","0.0-6.0-2.25","FL","mn35br66m1","1536","864","de","IS05RY26","null","","","","learningBlock1","","","","<div style=""font-size:60px;""> </div>","null","FL","learning/Slide26.JPG","That was a wug.","",""
"","image-keyboard-response","85","839254","0.0-6.0-0.26","FL","mn35br66m1","1536","864","de","IS05RY26","null","","","","","","","","learning/Slide27.JPG","null","","","","",""
"","html-keyboard-response","86","840420","0.0-6.0-1.26","FL","mn35br66m1","1536","864","de","IS05RY26","null","","","","learningBlock1","","","","That was a bim.","null","","","","",""
"","html-keyboard-response","87","841436","0.0-6.0-2.26","FL","mn35br66m1","1536","864","de","IS05RY26","null","","","","learningBlock1","","","","<div style=""font-size:60px;""> </div>","null","FL","learning/Slide27.JPG","That was a bim.","",""
"","image-keyboard-response","88","841613","0.0-6.0-0.27","FL","mn35br66m1","1536","864","de","IS05RY26","null","","","","","","","","learning/Slide28.JPG","null","","","","",""
"","html-keyboard-response","89","842792","0.0-6.0-1.27","FL","mn35br66m1","1536","864","de","IS05RY26","null","","","","learningBlock1","","","","That was a dep.","null","","","","",""
"","html-keyboard-response","90","843806","0.0-6.0-2.27","FL","mn35br66m1","1536","864","de","IS05RY26","null","","","","learningBlock1","","","","<div style=""font-size:60px;""> </div>","null","FL","learning/Slide28.JPG","That was a dep.","",""
"","image-keyboard-response","91","843993","0.0-6.0-0.28","FL","mn35br66m1","1536","864","de","IS05RY26","null","","","","","","","","learning/Slide29.JPG","null","","","","",""
"","html-keyboard-response","92","845161","0.0-6.0-1.28","FL","mn35br66m1","1536","864","de","IS05RY26","null","","","","learningBlock1","","","","That was a tob.","null","","","","",""
"","html-keyboard-response","93","846175","0.0-6.0-2.28","FL","mn35br66m1","1536","864","de","IS05RY26","null","","","","learningBlock1","","","","<div style=""font-size:60px;""> </div>","null","FL","learning/Slide29.JPG","That was a tob.","",""
"","image-keyboard-response","94","846362","0.0-6.0-0.29","FL","mn35br66m1","1536","864","de","IS05RY26","null","","","","","","","","learning/Slide30.JPG","null","","","","",""
"","html-keyboard-response","95","847526","0.0-6.0-1.29","FL","mn35br66m1","1536","864","de","IS05RY26","null","","","","learningBlock1","","","","That was a dep.","null","","","","",""
"","html-keyboard-response","96","848541","0.0-6.0-2.29","FL","mn35br66m1","1536","864","de","IS05RY26","null","","","","learningBlock1","","","","<div style=""font-size:60px;""> </div>","null","FL","learning/Slide30.JPG","That was a dep.","",""
"","image-keyboard-response","97","848728","0.0-6.0-0.30","FL","mn35br66m1","1536","864","de","IS05RY26","null","","","","","","","","learning/Slide31.JPG","null","","","","",""
"","html-keyboard-response","98","849881","0.0-6.0-1.30","FL","mn35br66m1","1536","864","de","IS05RY26","null","","","","learningBlock1","","","","That was a wug.","null","","","","",""
"","html-keyboard-response","99","850894","0.0-6.0-2.30","FL","mn35br66m1","1536","864","de","IS05RY26","null","","","","learningBlock1","","","","<div style=""font-size:60px;""> </div>","null","FL","learning/Slide31.JPG","That was a wug.","",""
"","image-keyboard-response","100","851081","0.0-6.0-0.31","FL","mn35br66m1","1536","864","de","IS05RY26","null","","","","","","","","learning/Slide32.JPG","null","","","","",""
"","html-keyboard-response","101","852248","0.0-6.0-1.31","FL","mn35br66m1","1536","864","de","IS05RY26","null","","","","learningBlock1","","","","That was a tob.","null","","","","",""
"","html-keyboard-response","102","853260","0.0-6.0-2.31","FL","mn35br66m1","1536","864","de","IS05RY26","null","","","","learningBlock1","","","","<div style=""font-size:60px;""> </div>","null","FL","learning/Slide32.JPG","That was a tob.","",""
"","image-keyboard-response","103","853447","0.0-6.0-0.32","FL","mn35br66m1","1536","864","de","IS05RY26","null","","","","","","","","learning/Slide33.JPG","null","","","","",""
"","html-keyboard-response","104","854615","0.0-6.0-1.32","FL","mn35br66m1","1536","864","de","IS05RY26","null","","","","learningBlock1","","","","That was a bim.","null","","","","",""
"","html-keyboard-response","105","855626","0.0-6.0-2.32","FL","mn35br66m1","1536","864","de","IS05RY26","null","","","","learningBlock1","","","","<div style=""font-size:60px;""> </div>","null","FL","learning/Slide33.JPG","That was a bim.","",""
"","image-keyboard-response","106","855812","0.0-6.0-0.33","FL","mn35br66m1","1536","864","de","IS05RY26","null","","","","","","","","learning/Slide34.JPG","null","","","","",""
"","html-keyboard-response","107","856976","0.0-6.0-1.33","FL","mn35br66m1","1536","864","de","IS05RY26","null","","","","learningBlock1","","","","That was a tob.","null","","","","",""
"","html-keyboard-response","108","857992","0.0-6.0-2.33","FL","mn35br66m1","1536","864","de","IS05RY26","null","","","","learningBlock1","","","","<div style=""font-size:60px;""> </div>","null","FL","learning/Slide34.JPG","That was a tob.","",""
"","image-keyboard-response","109","858181","0.0-6.0-0.34","FL","mn35br66m1","1536","864","de","IS05RY26","null","","","","","","","","learning/Slide35.JPG","null","","","","",""
"","html-keyboard-response","110","859346","0.0-6.0-1.34","FL","mn35br66m1","1536","864","de","IS05RY26","null","","","","learningBlock1","","","","That was a bim.","null","","","","",""
"","html-keyboard-response","111","860358","0.0-6.0-2.34","FL","mn35br66m1","1536","864","de","IS05RY26","null","","","","learningBlock1","","","","<div style=""font-size:60px;""> </div>","null","FL","learning/Slide35.JPG","That was a bim.","",""
"","image-keyboard-response","112","860535","0.0-6.0-0.35","FL","mn35br66m1","1536","864","de","IS05RY26","null","","","","","","","","learning/Slide36.JPG","null","","","","",""
"","html-keyboard-response","113","861694","0.0-6.0-1.35","FL","mn35br66m1","1536","864","de","IS05RY26","null","","","","learningBlock1","","","","That was a dep.","null","","","","",""
"","html-keyboard-response","114","862706","0.0-6.0-2.35","FL","mn35br66m1","1536","864","de","IS05RY26","null","","","","learningBlock1","","","","<div style=""font-size:60px;""> </div>","null","FL","learning/Slide36.JPG","That was a dep.","",""
"","image-keyboard-response","115","862883","0.0-6.0-0.36","FL","mn35br66m1","1536","864","de","IS05RY26","null","","","","","","","","learning/Slide37.JPG","null","","","","",""
"","html-keyboard-response","116","864050","0.0-6.0-1.36","FL","mn35br66m1","1536","864","de","IS05RY26","null","","","","learningBlock1","","","","That was a tob.","null","","","","",""
"","html-keyboard-response","117","865062","0.0-6.0-2.36","FL","mn35br66m1","1536","864","de","IS05RY26","null","","","","learningBlock1","","","","<div style=""font-size:60px;""> </div>","null","FL","learning/Slide37.JPG","That was a tob.","",""
"","image-keyboard-response","118","865239","0.0-6.0-0.37","FL","mn35br66m1","1536","864","de","IS05RY26","null","","","","","","","","learning/Slide38.JPG","null","","","","",""
"","html-keyboard-response","119","866400","0.0-6.0-1.37","FL","mn35br66m1","1536","864","de","IS05RY26","null","","","","learningBlock1","","","","That was a wug.","null","","","","",""
"","html-keyboard-response","120","867412","0.0-6.0-2.37","FL","mn35br66m1","1536","864","de","IS05RY26","null","","","","learningBlock1","","","","<div style=""font-size:60px;""> </div>","null","FL","learning/Slide38.JPG","That was a wug.","",""
"","image-keyboard-response","121","867589","0.0-6.0-0.38","FL","mn35br66m1","1536","864","de","IS05RY26","null","","","","","","","","learning/Slide39.JPG","null","","","","",""
"","html-keyboard-response","122","868750","0.0-6.0-1.38","FL","mn35br66m1","1536","864","de","IS05RY26","null","","","","learningBlock1","","","","That was a bim.","null","","","","",""
"","html-keyboard-response","123","869762","0.0-6.0-2.38","FL","mn35br66m1","1536","864","de","IS05RY26","null","","","","learningBlock1","","","","<div style=""font-size:60px;""> </div>","null","FL","learning/Slide39.JPG","That was a bim.","",""
"","image-keyboard-response","124","869939","0.0-6.0-0.39","FL","mn35br66m1","1536","864","de","IS05RY26","null","","","","","","","","learning/Slide40.JPG","null","","","","",""
"","html-keyboard-response","125","871116","0.0-6.0-1.39","FL","mn35br66m1","1536","864","de","IS05RY26","null","","","","learningBlock1","","","","That was a tob.","null","","","","",""
"","html-keyboard-response","126","872128","0.0-6.0-2.39","FL","mn35br66m1","1536","864","de","IS05RY26","null","","","","learningBlock1","","","","<div style=""font-size:60px;""> </div>","null","FL","learning/Slide40.JPG","That was a tob.","",""
"","image-keyboard-response","127","872304","0.0-6.0-0.40","FL","mn35br66m1","1536","864","de","IS05RY26","null","","","","","","","","learning/Slide41.JPG","null","","","","",""
"","html-keyboard-response","128","873466","0.0-6.0-1.40","FL","mn35br66m1","1536","864","de","IS05RY26","null","","","","learningBlock1","","","","That was a bim.","null","","","","",""
"","html-keyboard-response","129","874476","0.0-6.0-2.40","FL","mn35br66m1","1536","864","de","IS05RY26","null","","","","learningBlock1","","","","<div style=""font-size:60px;""> </div>","null","FL","learning/Slide41.JPG","That was a bim.","",""
"","image-keyboard-response","130","874653","0.0-6.0-0.41","FL","mn35br66m1","1536","864","de","IS05RY26","null","","","","","","","","learning/Slide42.JPG","null","","","","",""
"","html-keyboard-response","131","875832","0.0-6.0-1.41","FL","mn35br66m1","1536","864","de","IS05RY26","null","","","","learningBlock1","","","","That was a dep.","null","","","","",""
"","html-keyboard-response","132","876837","0.0-6.0-2.41","FL","mn35br66m1","1536","864","de","IS05RY26","null","","","","learningBlock1","","","","<div style=""font-size:60px;""> </div>","null","FL","learning/Slide42.JPG","That was a dep.","",""
"","image-keyboard-response","133","877022","0.0-6.0-0.42","FL","mn35br66m1","1536","864","de","IS05RY26","null","","","","","","","","learning/Slide43.JPG","null","","","","",""
"","html-keyboard-response","134","878183","0.0-6.0-1.42","FL","mn35br66m1","1536","864","de","IS05RY26","null","","","","learningBlock1","","","","That was a wug.","null","","","","",""
"","html-keyboard-response","135","879197","0.0-6.0-2.42","FL","mn35br66m1","1536","864","de","IS05RY26","null","","","","learningBlock1","","","","<div style=""font-size:60px;""> </div>","null","FL","learning/Slide43.JPG","That was a wug.","",""
"","image-keyboard-response","136","879375","0.0-6.0-0.43","FL","mn35br66m1","1536","864","de","IS05RY26","null","","","","","","","","learning/Slide44.JPG","null","","","","",""
"","html-keyboard-response","137","880536","0.0-6.0-1.43","FL","mn35br66m1","1536","864","de","IS05RY26","null","","","","learningBlock1","","","","That was a bim.","null","","","","",""
"","html-keyboard-response","138","881548","0.0-6.0-2.43","FL","mn35br66m1","1536","864","de","IS05RY26","null","","","","learningBlock1","","","","<div style=""font-size:60px;""> </div>","null","FL","learning/Slide44.JPG","That was a bim.","",""
"","image-keyboard-response","139","881724","0.0-6.0-0.44","FL","mn35br66m1","1536","864","de","IS05RY26","null","","","","","","","","learning/Slide45.JPG","null","","","","",""
"","html-keyboard-response","140","882885","0.0-6.0-1.44","FL","mn35br66m1","1536","864","de","IS05RY26","null","","","","learningBlock1","","","","That was a wug.","null","","","","",""
"","html-keyboard-response","141","883898","0.0-6.0-2.44","FL","mn35br66m1","1536","864","de","IS05RY26","null","","","","learningBlock1","","","","<div style=""font-size:60px;""> </div>","null","FL","learning/Slide45.JPG","That was a wug.","",""
"","image-keyboard-response","142","884084","0.0-6.0-0.45","FL","mn35br66m1","1536","864","de","IS05RY26","null","","","","","","","","learning/Slide46.JPG","null","","","","",""
"","html-keyboard-response","143","885238","0.0-6.0-1.45","FL","mn35br66m1","1536","864","de","IS05RY26","null","","","","learningBlock1","","","","That was a dep.","null","","","","",""
"","html-keyboard-response","144","886246","0.0-6.0-2.45","FL","mn35br66m1","1536","864","de","IS05RY26","null","","","","learningBlock1","","","","<div style=""font-size:60px;""> </div>","null","FL","learning/Slide46.JPG","That was a dep.","",""
"","image-keyboard-response","145","886432","0.0-6.0-0.46","FL","mn35br66m1","1536","864","de","IS05RY26","null","","","","","","","","learning/Slide47.JPG","null","","","","",""
"","html-keyboard-response","146","887599","0.0-6.0-1.46","FL","mn35br66m1","1536","864","de","IS05RY26","null","","","","learningBlock1","","","","That was a tob.","null","","","","",""
"","html-keyboard-response","147","888616","0.0-6.0-2.46","FL","mn35br66m1","1536","864","de","IS05RY26","null","","","","learningBlock1","","","","<div style=""font-size:60px;""> </div>","null","FL","learning/Slide47.JPG","That was a tob.","",""
"","image-keyboard-response","148","888804","0.0-6.0-0.47","FL","mn35br66m1","1536","864","de","IS05RY26","null","","","","","","","","learning/Slide48.JPG","null","","","","",""
"","html-keyboard-response","149","889960","0.0-6.0-1.47","FL","mn35br66m1","1536","864","de","IS05RY26","null","","","","learningBlock1","","","","That was a bim.","null","","","","",""
"","html-keyboard-response","150","890968","0.0-6.0-2.47","FL","mn35br66m1","1536","864","de","IS05RY26","null","","","","learningBlock1","","","","<div style=""font-size:60px;""> </div>","null","FL","learning/Slide48.JPG","That was a bim.","",""
"","image-keyboard-response","151","891145","0.0-6.0-0.48","FL","mn35br66m1","1536","864","de","IS05RY26","null","","","","","","","","learning/Slide49.JPG","null","","","","",""
"","html-keyboard-response","152","892310","0.0-6.0-1.48","FL","mn35br66m1","1536","864","de","IS05RY26","null","","","","learningBlock1","","","","That was a dep.","null","","","","",""
"","html-keyboard-response","153","893318","0.0-6.0-2.48","FL","mn35br66m1","1536","864","de","IS05RY26","null","","","","learningBlock1","","","","<div style=""font-size:60px;""> </div>","null","FL","learning/Slide49.JPG","That was a dep.","",""
"","image-keyboard-response","154","893495","0.0-6.0-0.49","FL","mn35br66m1","1536","864","de","IS05RY26","null","","","","","","","","learning/Slide50.JPG","null","","","","",""
"","html-keyboard-response","155","894671","0.0-6.0-1.49","FL","mn35br66m1","1536","864","de","IS05RY26","null","","","","learningBlock1","","","","That was a tob.","null","","","","",""
"","html-keyboard-response","156","895683","0.0-6.0-2.49","FL","mn35br66m1","1536","864","de","IS05RY26","null","","","","learningBlock1","","","","<div style=""font-size:60px;""> </div>","null","FL","learning/Slide50.JPG","That was a tob.","",""
"","image-keyboard-response","157","895859","0.0-6.0-0.50","FL","mn35br66m1","1536","864","de","IS05RY26","null","","","","","","","","learning/Slide51.JPG","null","","","","",""
"","html-keyboard-response","158","897023","0.0-6.0-1.50","FL","mn35br66m1","1536","864","de","IS05RY26","null","","","","learningBlock1","","","","That was a bim.","null","","","","",""
"","html-keyboard-response","159","898031","0.0-6.0-2.50","FL","mn35br66m1","1536","864","de","IS05RY26","null","","","","learningBlock1","","","","<div style=""font-size:60px;""> </div>","null","FL","learning/Slide51.JPG","That was a bim.","",""
"","image-keyboard-response","160","898217","0.0-6.0-0.51","FL","mn35br66m1","1536","864","de","IS05RY26","null","","","","","","","","learning/Slide52.JPG","null","","","","",""
"","html-keyboard-response","161","899383","0.0-6.0-1.51","FL","mn35br66m1","1536","864","de","IS05RY26","null","","","","learningBlock1","","","","That was a wug.","null","","","","",""
"","html-keyboard-response","162","900398","0.0-6.0-2.51","FL","mn35br66m1","1536","864","de","IS05RY26","null","","","","learningBlock1","","","","<div style=""font-size:60px;""> </div>","null","FL","learning/Slide52.JPG","That was a wug.","",""
"","image-keyboard-response","163","900575","0.0-6.0-0.52","FL","mn35br66m1","1536","864","de","IS05RY26","null","","","","","","","","learning/Slide53.JPG","null","","","","",""
"","html-keyboard-response","164","901735","0.0-6.0-1.52","FL","mn35br66m1","1536","864","de","IS05RY26","null","","","","learningBlock1","","","","That was a tob.","null","","","","",""
"","html-keyboard-response","165","902744","0.0-6.0-2.52","FL","mn35br66m1","1536","864","de","IS05RY26","null","","","","learningBlock1","","","","<div style=""font-size:60px;""> </div>","null","FL","learning/Slide53.JPG","That was a tob.","",""
"","image-keyboard-response","166","902921","0.0-6.0-0.53","FL","mn35br66m1","1536","864","de","IS05RY26","null","","","","","","","","learning/Slide54.JPG","null","","","","",""
"","html-keyboard-response","167","904101","0.0-6.0-1.53","FL","mn35br66m1","1536","864","de","IS05RY26","null","","","","learningBlock1","","","","That was a dep.","null","","","","",""
"","html-keyboard-response","168","905114","0.0-6.0-2.53","FL","mn35br66m1","1536","864","de","IS05RY26","null","","","","learningBlock1","","","","<div style=""font-size:60px;""> </div>","null","FL","learning/Slide54.JPG","That was a dep.","",""
"","image-keyboard-response","169","905300","0.0-6.0-0.54","FL","mn35br66m1","1536","864","de","IS05RY26","null","","","","","","","","learning/Slide55.JPG","null","","","","",""
"","html-keyboard-response","170","906456","0.0-6.0-1.54","FL","mn35br66m1","1536","864","de","IS05RY26","null","","","","learningBlock1","","","","That was a bim.","null","","","","",""
"","html-keyboard-response","171","907469","0.0-6.0-2.54","FL","mn35br66m1","1536","864","de","IS05RY26","null","","","","learningBlock1","","","","<div style=""font-size:60px;""> </div>","null","FL","learning/Slide55.JPG","That was a bim.","",""
"","image-keyboard-response","172","907656","0.0-6.0-0.55","FL","mn35br66m1","1536","864","de","IS05RY26","null","","","","","","","","learning/Slide56.JPG","null","","","","",""
"","html-keyboard-response","173","908822","0.0-6.0-1.55","FL","mn35br66m1","1536","864","de","IS05RY26","null","","","","learningBlock1","","","","That was a tob.","null","","","","",""
"","html-keyboard-response","174","909824","0.0-6.0-2.55","FL","mn35br66m1","1536","864","de","IS05RY26","null","","","","learningBlock1","","","","<div style=""font-size:60px;""> </div>","null","FL","learning/Slide56.JPG","That was a tob.","",""
"","image-keyboard-response","175","910011","0.0-6.0-0.56","FL","mn35br66m1","1536","864","de","IS05RY26","null","","","","","","","","learning/Slide57.JPG","null","","","","",""
"","html-keyboard-response","176","911176","0.0-6.0-1.56","FL","mn35br66m1","1536","864","de","IS05RY26","null","","","","learningBlock1","","","","That was a dep.","null","","","","",""
"","html-keyboard-response","177","912188","0.0-6.0-2.56","FL","mn35br66m1","1536","864","de","IS05RY26","null","","","","learningBlock1","","","","<div style=""font-size:60px;""> </div>","null","FL","learning/Slide57.JPG","That was a dep.","",""
"","image-keyboard-response","178","912364","0.0-6.0-0.57","FL","mn35br66m1","1536","864","de","IS05RY26","null","","","","","","","","learning/Slide58.JPG","null","","","","",""
"","html-keyboard-response","179","913537","0.0-6.0-1.57","FL","mn35br66m1","1536","864","de","IS05RY26","null","","","","learningBlock1","","","","That was a wug.","null","","","","",""
"","html-keyboard-response","180","914553","0.0-6.0-2.57","FL","mn35br66m1","1536","864","de","IS05RY26","null","","","","learningBlock1","","","","<div style=""font-size:60px;""> </div>","null","FL","learning/Slide58.JPG","That was a wug.","",""
"","image-keyboard-response","181","914729","0.0-6.0-0.58","FL","mn35br66m1","1536","864","de","IS05RY26","null","","","","","","","","learning/Slide59.JPG","null","","","","",""
"","html-keyboard-response","182","915910","0.0-6.0-1.58","FL","mn35br66m1","1536","864","de","IS05RY26","null","","","","learningBlock1","","","","That was a dep.","null","","","","",""
"","html-keyboard-response","183","916924","0.0-6.0-2.58","FL","mn35br66m1","1536","864","de","IS05RY26","null","","","","learningBlock1","","","","<div style=""font-size:60px;""> </div>","null","FL","learning/Slide59.JPG","That was a dep.","",""
"","image-keyboard-response","184","917101","0.0-6.0-0.59","FL","mn35br66m1","1536","864","de","IS05RY26","null","","","","","","","","learning/Slide60.JPG","null","","","","",""
"","html-keyboard-response","185","918260","0.0-6.0-1.59","FL","mn35br66m1","1536","864","de","IS05RY26","null","","","","learningBlock1","","","","That was a wug.","null","","","","",""
"","html-keyboard-response","186","919273","0.0-6.0-2.59","FL","mn35br66m1","1536","864","de","IS05RY26","null","","","","learningBlock1","","","","<div style=""font-size:60px;""> </div>","null","FL","learning/Slide60.JPG","That was a wug.","",""
"","image-keyboard-response","187","919449","0.0-6.0-0.60","FL","mn35br66m1","1536","864","de","IS05RY26","null","","","","","","","","learning/Slide61.JPG","null","","","","",""
"","html-keyboard-response","188","920613","0.0-6.0-1.60","FL","mn35br66m1","1536","864","de","IS05RY26","null","","","","learningBlock1","","","","That was a bim.","null","","","","",""
"","html-keyboard-response","189","921615","0.0-6.0-2.60","FL","mn35br66m1","1536","864","de","IS05RY26","null","","","","learningBlock1","","","","<div style=""font-size:60px;""> </div>","null","FL","learning/Slide61.JPG","That was a bim.","",""
"","image-keyboard-response","190","921803","0.0-6.0-0.61","FL","mn35br66m1","1536","864","de","IS05RY26","null","","","","","","","","learning/Slide62.JPG","null","","","","",""
"","html-keyboard-response","191","922973","0.0-6.0-1.61","FL","mn35br66m1","1536","864","de","IS05RY26","null","","","","learningBlock1","","","","That was a dep.","null","","","","",""
"","html-keyboard-response","192","923976","0.0-6.0-2.61","FL","mn35br66m1","1536","864","de","IS05RY26","null","","","","learningBlock1","","","","<div style=""font-size:60px;""> </div>","null","FL","learning/Slide62.JPG","That was a dep.","",""
"","image-keyboard-response","193","924162","0.0-6.0-0.62","FL","mn35br66m1","1536","864","de","IS05RY26","null","","","","","","","","learning/Slide63.JPG","null","","","","",""
"","html-keyboard-response","194","925331","0.0-6.0-1.62","FL","mn35br66m1","1536","864","de","IS05RY26","null","","","","learningBlock1","","","","That was a bim.","null","","","","",""
"","html-keyboard-response","195","926344","0.0-6.0-2.62","FL","mn35br66m1","1536","864","de","IS05RY26","null","","","","learningBlock1","","","","<div style=""font-size:60px;""> </div>","null","FL","learning/Slide63.JPG","That was a bim.","",""
"","image-keyboard-response","196","926520","0.0-6.0-0.63","FL","mn35br66m1","1536","864","de","IS05RY26","null","","","","","","","","learning/Slide64.JPG","null","","","","",""
"","html-keyboard-response","197","927681","0.0-6.0-1.63","FL","mn35br66m1","1536","864","de","IS05RY26","null","","","","learningBlock1","","","","That was a tob.","null","","","","",""
"","html-keyboard-response","198","928697","0.0-6.0-2.63","FL","mn35br66m1","1536","864","de","IS05RY26","null","","","","learningBlock1","","","","<div style=""font-size:60px;""> </div>","null","FL","learning/Slide64.JPG","That was a tob.","",""
"","image-keyboard-response","199","928874","0.0-6.0-0.64","FL","mn35br66m1","1536","864","de","IS05RY26","null","","","","","","","","learning/Slide65.JPG","null","","","","",""
"","html-keyboard-response","200","930054","0.0-6.0-1.64","FL","mn35br66m1","1536","864","de","IS05RY26","null","","","","learningBlock1","","","","That was a wug.","null","","","","",""
"","html-keyboard-response","201","931057","0.0-6.0-2.64","FL","mn35br66m1","1536","864","de","IS05RY26","null","","","","learningBlock1","","","","<div style=""font-size:60px;""> </div>","null","FL","learning/Slide65.JPG","That was a wug.","",""
"","image-keyboard-response","202","931234","0.0-6.0-0.65","FL","mn35br66m1","1536","864","de","IS05RY26","null","","","","","","","","learning/Slide66.JPG","null","","","","",""
"","html-keyboard-response","203","932395","0.0-6.0-1.65","FL","mn35br66m1","1536","864","de","IS05RY26","null","","","","learningBlock1","","","","That was a dep.","null","","","","",""
"","html-keyboard-response","204","933397","0.0-6.0-2.65","FL","mn35br66m1","1536","864","de","IS05RY26","null","","","","learningBlock1","","","","<div style=""font-size:60px;""> </div>","null","FL","learning/Slide66.JPG","That was a dep.","",""
"","image-keyboard-response","205","933573","0.0-6.0-0.66","FL","mn35br66m1","1536","864","de","IS05RY26","null","","","","","","","","learning/Slide67.JPG","null","","","","",""
"","html-keyboard-response","206","934753","0.0-6.0-1.66","FL","mn35br66m1","1536","864","de","IS05RY26","null","","","","learningBlock1","","","","That was a tob.","null","","","","",""
"","html-keyboard-response","207","935766","0.0-6.0-2.66","FL","mn35br66m1","1536","864","de","IS05RY26","null","","","","learningBlock1","","","","<div style=""font-size:60px;""> </div>","null","FL","learning/Slide67.JPG","That was a tob.","",""
"","image-keyboard-response","208","935943","0.0-6.0-0.67","FL","mn35br66m1","1536","864","de","IS05RY26","null","","","","","","","","learning/Slide68.JPG","null","","","","",""
"","html-keyboard-response","209","937108","0.0-6.0-1.67","FL","mn35br66m1","1536","864","de","IS05RY26","null","","","","learningBlock1","","","","That was a wug.","null","","","","",""
"","html-keyboard-response","210","938123","0.0-6.0-2.67","FL","mn35br66m1","1536","864","de","IS05RY26","null","","","","learningBlock1","","","","<div style=""font-size:60px;""> </div>","null","FL","learning/Slide68.JPG","That was a wug.","",""
"","image-keyboard-response","211","938310","0.0-6.0-0.68","FL","mn35br66m1","1536","864","de","IS05RY26","null","","","","","","","","learning/Slide69.JPG","null","","","","",""
"","html-keyboard-response","212","939478","0.0-6.0-1.68","FL","mn35br66m1","1536","864","de","IS05RY26","null","","","","learningBlock1","","","","That was a tob.","null","","","","",""
"","html-keyboard-response","213","940489","0.0-6.0-2.68","FL","mn35br66m1","1536","864","de","IS05RY26","null","","","","learningBlock1","","","","<div style=""font-size:60px;""> </div>","null","FL","learning/Slide69.JPG","That was a tob.","",""
"","image-keyboard-response","214","940666","0.0-6.0-0.69","FL","mn35br66m1","1536","864","de","IS05RY26","null","","","","","","","","learning/Slide70.JPG","null","","","","",""
"","html-keyboard-response","215","941845","0.0-6.0-1.69","FL","mn35br66m1","1536","864","de","IS05RY26","null","","","","learningBlock1","","","","That was a dep.","null","","","","",""
"","html-keyboard-response","216","942858","0.0-6.0-2.69","FL","mn35br66m1","1536","864","de","IS05RY26","null","","","","learningBlock1","","","","<div style=""font-size:60px;""> </div>","null","FL","learning/Slide70.JPG","That was a dep.","",""
"","image-keyboard-response","217","943034","0.0-6.0-0.70","FL","mn35br66m1","1536","864","de","IS05RY26","null","","","","","","","","learning/Slide71.JPG","null","","","","",""
"","html-keyboard-response","218","944209","0.0-6.0-1.70","FL","mn35br66m1","1536","864","de","IS05RY26","null","","","","learningBlock1","","","","That was a wug.","null","","","","",""
"","html-keyboard-response","219","945222","0.0-6.0-2.70","FL","mn35br66m1","1536","864","de","IS05RY26","null","","","","learningBlock1","","","","<div style=""font-size:60px;""> </div>","null","FL","learning/Slide71.JPG","That was a wug.","",""
"","image-keyboard-response","220","945409","0.0-6.0-0.71","FL","mn35br66m1","1536","864","de","IS05RY26","null","","","","","","","","learning/Slide72.JPG","null","","","","",""
"","html-keyboard-response","221","946572","0.0-6.0-1.71","FL","mn35br66m1","1536","864","de","IS05RY26","null","","","","learningBlock1","","","","That was a bim.","null","","","","",""
"","html-keyboard-response","222","947586","0.0-6.0-2.71","FL","mn35br66m1","1536","864","de","IS05RY26","null","","","","learningBlock1","","","","<div style=""font-size:60px;""> </div>","null","FL","learning/Slide72.JPG","That was a bim.","",""
"","image-keyboard-response","223","947773","0.0-6.0-0.72","FL","mn35br66m1","1536","864","de","IS05RY26","null","","","","","","","","learning/Slide73.JPG","null","","","","",""
"","html-keyboard-response","224","948938","0.0-6.0-1.72","FL","mn35br66m1","1536","864","de","IS05RY26","null","","","","learningBlock1","","","","That was a wug.","null","","","","",""
"","html-keyboard-response","225","949954","0.0-6.0-2.72","FL","mn35br66m1","1536","864","de","IS05RY26","null","","","","learningBlock1","","","","<div style=""font-size:60px;""> </div>","null","FL","learning/Slide73.JPG","That was a wug.","",""
"","image-keyboard-response","226","950131","0.0-6.0-0.73","FL","mn35br66m1","1536","864","de","IS05RY26","null","","","","","","","","learning/Slide74.JPG","null","","","","",""
"","html-keyboard-response","227","951307","0.0-6.0-1.73","FL","mn35br66m1","1536","864","de","IS05RY26","null","","","","learningBlock1","","","","That was a dep.","null","","","","",""
"","html-keyboard-response","228","952321","0.0-6.0-2.73","FL","mn35br66m1","1536","864","de","IS05RY26","null","","","","learningBlock1","","","","<div style=""font-size:60px;""> </div>","null","FL","learning/Slide74.JPG","That was a dep.","",""
"","image-keyboard-response","229","952506","0.0-6.0-0.74","FL","mn35br66m1","1536","864","de","IS05RY26","null","","","","","","","","learning/Slide75.JPG","null","","","","",""
"","html-keyboard-response","230","953662","0.0-6.0-1.74","FL","mn35br66m1","1536","864","de","IS05RY26","null","","","","learningBlock1","","","","That was a tob.","null","","","","",""
"","html-keyboard-response","231","954674","0.0-6.0-2.74","FL","mn35br66m1","1536","864","de","IS05RY26","null","","","","learningBlock1","","","","<div style=""font-size:60px;""> </div>","null","FL","learning/Slide75.JPG","That was a tob.","",""
"","image-keyboard-response","232","954862","0.0-6.0-0.75","FL","mn35br66m1","1536","864","de","IS05RY26","null","","","","","","","","learning/Slide76.JPG","null","","","","",""
"","html-keyboard-response","233","956030","0.0-6.0-1.75","FL","mn35br66m1","1536","864","de","IS05RY26","null","","","","learningBlock1","","","","That was a bim.","null","","","","",""
"","html-keyboard-response","234","957040","0.0-6.0-2.75","FL","mn35br66m1","1536","864","de","IS05RY26","null","","","","learningBlock1","","","","<div style=""font-size:60px;""> </div>","null","FL","learning/Slide76.JPG","That was a bim.","",""
"","image-keyboard-response","235","957224","0.0-6.0-0.76","FL","mn35br66m1","1536","864","de","IS05RY26","null","","","","","","","","learning/Slide77.JPG","null","","","","",""
"","html-keyboard-response","236","958392","0.0-6.0-1.76","FL","mn35br66m1","1536","864","de","IS05RY26","null","","","","learningBlock1","","","","That was a tob.","null","","","","",""
"","html-keyboard-response","237","959407","0.0-6.0-2.76","FL","mn35br66m1","1536","864","de","IS05RY26","null","","","","learningBlock1","","","","<div style=""font-size:60px;""> </div>","null","FL","learning/Slide77.JPG","That was a tob.","",""
"","image-keyboard-response","238","959593","0.0-6.0-0.77","FL","mn35br66m1","1536","864","de","IS05RY26","null","","","","","","","","learning/Slide78.JPG","null","","","","",""
"","html-keyboard-response","239","960745","0.0-6.0-1.77","FL","mn35br66m1","1536","864","de","IS05RY26","null","","","","learningBlock1","","","","That was a wug.","null","","","","",""
"","html-keyboard-response","240","961757","0.0-6.0-2.77","FL","mn35br66m1","1536","864","de","IS05RY26","null","","","","learningBlock1","","","","<div style=""font-size:60px;""> </div>","null","FL","learning/Slide78.JPG","That was a wug.","",""
"","image-keyboard-response","241","961942","0.0-6.0-0.78","FL","mn35br66m1","1536","864","de","IS05RY26","null","","","","","","","","learning/Slide79.JPG","null","","","","",""
"","html-keyboard-response","242","963106","0.0-6.0-1.78","FL","mn35br66m1","1536","864","de","IS05RY26","null","","","","learningBlock1","","","","That was a bim.","null","","","","",""
"","html-keyboard-response","243","964121","0.0-6.0-2.78","FL","mn35br66m1","1536","864","de","IS05RY26","null","","","","learningBlock1","","","","<div style=""font-size:60px;""> </div>","null","FL","learning/Slide79.JPG","That was a bim.","",""
"","image-keyboard-response","244","964305","0.0-6.0-0.79","FL","mn35br66m1","1536","864","de","IS05RY26","null","","","","","","","","learning/Slide80.JPG","null","","","","",""
"","html-keyboard-response","245","965469","0.0-6.0-1.79","FL","mn35br66m1","1536","864","de","IS05RY26","null","","","","learningBlock1","","","","That was a tob.","null","","","","",""
"","html-keyboard-response","246","966482","0.0-6.0-2.79","FL","mn35br66m1","1536","864","de","IS05RY26","null","","","","learningBlock1","","","","<div style=""font-size:60px;""> </div>","null","FL","learning/Slide80.JPG","That was a tob.","",""
"","instructions","247","973052","0.0-7.0","FL","mn35br66m1","1536","864","de","IS05RY26","NA","","","[{""page_index"":0,""viewing_time"":6569.885000004433}]","instructions","","","","","","","","","",""
"","image-keyboard-response","248","973233","0.0-8.0-0.0","FL","mn35br66m1","1536","864","de","IS05RY26","null","","","","","","","","learning/Slide81.JPG","null","","","","",""
"","html-keyboard-response","249","974394","0.0-8.0-1.0","FL","mn35br66m1","1536","864","de","IS05RY26","null","","","","learningBlock2","","","","That was a wug.","null","","","","",""
"","html-keyboard-response","250","975407","0.0-8.0-2.0","FL","mn35br66m1","1536","864","de","IS05RY26","null","","","","learningBlock2","","","","<div style=""font-size:60px;""> </div>","null","FL","learning/Slide81.JPG","That was a wug.","",""
"","image-keyboard-response","251","975594","0.0-8.0-0.1","FL","mn35br66m1","1536","864","de","IS05RY26","null","","","","","","","","learning/Slide82.JPG","null","","","","",""
"","html-keyboard-response","252","976746","0.0-8.0-1.1","FL","mn35br66m1","1536","864","de","IS05RY26","null","","","","learningBlock2","","","","That was a bim.","null","","","","",""
"","html-keyboard-response","253","977757","0.0-8.0-2.1","FL","mn35br66m1","1536","864","de","IS05RY26","null","","","","learningBlock2","","","","<div style=""font-size:60px;""> </div>","null","FL","learning/Slide82.JPG","That was a bim.","",""
"","image-keyboard-response","254","977933","0.0-8.0-0.2","FL","mn35br66m1","1536","864","de","IS05RY26","null","","","","","","","","learning/Slide83.JPG","null","","","","",""
"","html-keyboard-response","255","979097","0.0-8.0-1.2","FL","mn35br66m1","1536","864","de","IS05RY26","null","","","","learningBlock2","","","","That was a wug.","null","","","","",""
"","html-keyboard-response","256","980112","0.0-8.0-2.2","FL","mn35br66m1","1536","864","de","IS05RY26","null","","","","learningBlock2","","","","<div style=""font-size:60px;""> </div>","null","FL","learning/Slide83.JPG","That was a wug.","",""
"","image-keyboard-response","257","980297","0.0-8.0-0.3","FL","mn35br66m1","1536","864","de","IS05RY26","null","","","","","","","","learning/Slide84.JPG","null","","","","",""
"","html-keyboard-response","258","981452","0.0-8.0-1.3","FL","mn35br66m1","1536","864","de","IS05RY26","null","","","","learningBlock2","","","","That was a dep.","null","","","","",""
"","html-keyboard-response","259","982464","0.0-8.0-2.3","FL","mn35br66m1","1536","864","de","IS05RY26","null","","","","learningBlock2","","","","<div style=""font-size:60px;""> </div>","null","FL","learning/Slide84.JPG","That was a dep.","",""
"","image-keyboard-response","260","982641","0.0-8.0-0.4","FL","mn35br66m1","1536","864","de","IS05RY26","null","","","","","","","","learning/Slide85.JPG","null","","","","",""
"","html-keyboard-response","261","983819","0.0-8.0-1.4","FL","mn35br66m1","1536","864","de","IS05RY26","null","","","","learningBlock2","","","","That was a bim.","null","","","","",""
"","html-keyboard-response","262","984826","0.0-8.0-2.4","FL","mn35br66m1","1536","864","de","IS05RY26","null","","","","learningBlock2","","","","<div style=""font-size:60px;""> </div>","null","FL","learning/Slide85.JPG","That was a bim.","",""
"","image-keyboard-response","263","985013","0.0-8.0-0.5","FL","mn35br66m1","1536","864","de","IS05RY26","null","","","","","","","","learning/Slide86.JPG","null","","","","",""
"","html-keyboard-response","264","986167","0.0-8.0-1.5","FL","mn35br66m1","1536","864","de","IS05RY26","null","","","","learningBlock2","","","","That was a tob.","null","","","","",""
"","html-keyboard-response","265","987183","0.0-8.0-2.5","FL","mn35br66m1","1536","864","de","IS05RY26","null","","","","learningBlock2","","","","<div style=""font-size:60px;""> </div>","null","FL","learning/Slide86.JPG","That was a tob.","",""
"","image-keyboard-response","266","987369","0.0-8.0-0.6","FL","mn35br66m1","1536","864","de","IS05RY26","null","","","","","","","","learning/Slide87.JPG","null","","","","",""
"","html-keyboard-response","267","988525","0.0-8.0-1.6","FL","mn35br66m1","1536","864","de","IS05RY26","null","","","","learningBlock2","","","","That was a wug.","null","","","","",""
"","html-keyboard-response","268","989538","0.0-8.0-2.6","FL","mn35br66m1","1536","864","de","IS05RY26","null","","","","learningBlock2","","","","<div style=""font-size:60px;""> </div>","null","FL","learning/Slide87.JPG","That was a wug.","",""
"","image-keyboard-response","269","989715","0.0-8.0-0.7","FL","mn35br66m1","1536","864","de","IS05RY26","null","","","","","","","","learning/Slide88.JPG","null","","","","",""
"","html-keyboard-response","270","990877","0.0-8.0-1.7","FL","mn35br66m1","1536","864","de","IS05RY26","null","","","","learningBlock2","","","","That was a tob.","null","","","","",""
"","html-keyboard-response","271","991888","0.0-8.0-2.7","FL","mn35br66m1","1536","864","de","IS05RY26","null","","","","learningBlock2","","","","<div style=""font-size:60px;""> </div>","null","FL","learning/Slide88.JPG","That was a tob.","",""
"","image-keyboard-response","272","992065","0.0-8.0-0.8","FL","mn35br66m1","1536","864","de","IS05RY26","null","","","","","","","","learning/Slide89.JPG","null","","","","",""
"","html-keyboard-response","273","993225","0.0-8.0-1.8","FL","mn35br66m1","1536","864","de","IS05RY26","null","","","","learningBlock2","","","","That was a bim.","null","","","","",""
"","html-keyboard-response","274","994237","0.0-8.0-2.8","FL","mn35br66m1","1536","864","de","IS05RY26","null","","","","learningBlock2","","","","<div style=""font-size:60px;""> </div>","null","FL","learning/Slide89.JPG","That was a bim.","",""
"","image-keyboard-response","275","994422","0.0-8.0-0.9","FL","mn35br66m1","1536","864","de","IS05RY26","null","","","","","","","","learning/Slide90.JPG","null","","","","",""
"","html-keyboard-response","276","995577","0.0-8.0-1.9","FL","mn35br66m1","1536","864","de","IS05RY26","null","","","","learningBlock2","","","","That was a dep.","null","","","","",""
"","html-keyboard-response","277","996590","0.0-8.0-2.9","FL","mn35br66m1","1536","864","de","IS05RY26","null","","","","learningBlock2","","","","<div style=""font-size:60px;""> </div>","null","FL","learning/Slide90.JPG","That was a dep.","",""
"","image-keyboard-response","278","996777","0.0-8.0-0.10","FL","mn35br66m1","1536","864","de","IS05RY26","null","","","","","","","","learning/Slide91.JPG","null","","","","",""
"","html-keyboard-response","279","997943","0.0-8.0-1.10","FL","mn35br66m1","1536","864","de","IS05RY26","null","","","","learningBlock2","","","","That was a wug.","null","","","","",""
"","html-keyboard-response","280","998959","0.0-8.0-2.10","FL","mn35br66m1","1536","864","de","IS05RY26","null","","","","learningBlock2","","","","<div style=""font-size:60px;""> </div>","null","FL","learning/Slide91.JPG","That was a wug.","",""
"","image-keyboard-response","281","999144","0.0-8.0-0.11","FL","mn35br66m1","1536","864","de","IS05RY26","null","","","","","","","","learning/Slide92.JPG","null","","","","",""
"","html-keyboard-response","282","1000311","0.0-8.0-1.11","FL","mn35br66m1","1536","864","de","IS05RY26","null","","","","learningBlock2","","","","That was a tob.","null","","","","",""
"","html-keyboard-response","283","1001324","0.0-8.0-2.11","FL","mn35br66m1","1536","864","de","IS05RY26","null","","","","learningBlock2","","","","<div style=""font-size:60px;""> </div>","null","FL","learning/Slide92.JPG","That was a tob.","",""
"","image-keyboard-response","284","1001502","0.0-8.0-0.12","FL","mn35br66m1","1536","864","de","IS05RY26","null","","","","","","","","learning/Slide93.JPG","null","","","","",""
"","html-keyboard-response","285","1002660","0.0-8.0-1.12","FL","mn35br66m1","1536","864","de","IS05RY26","null","","","","learningBlock2","","","","That was a bim.","null","","","","",""
"","html-keyboard-response","286","1003674","0.0-8.0-2.12","FL","mn35br66m1","1536","864","de","IS05RY26","null","","","","learningBlock2","","","","<div style=""font-size:60px;""> </div>","null","FL","learning/Slide93.JPG","That was a bim.","",""
"","image-keyboard-response","287","1003851","0.0-8.0-0.13","FL","mn35br66m1","1536","864","de","IS05RY26","null","","","","","","","","learning/Slide94.JPG","null","","","","",""
"","html-keyboard-response","288","1005023","0.0-8.0-1.13","FL","mn35br66m1","1536","864","de","IS05RY26","null","","","","learningBlock2","","","","That was a tob.","null","","","","",""
"","html-keyboard-response","289","1006034","0.0-8.0-2.13","FL","mn35br66m1","1536","864","de","IS05RY26","null","","","","learningBlock2","","","","<div style=""font-size:60px;""> </div>","null","FL","learning/Slide94.JPG","That was a tob.","",""
"","image-keyboard-response","290","1006210","0.0-8.0-0.14","FL","mn35br66m1","1536","864","de","IS05RY26","null","","","","","","","","learning/Slide95.JPG","null","","","","",""
"","html-keyboard-response","291","1007374","0.0-8.0-1.14","FL","mn35br66m1","1536","864","de","IS05RY26","null","","","","learningBlock2","","","","That was a wug.","null","","","","",""
"","html-keyboard-response","292","1008388","0.0-8.0-2.14","FL","mn35br66m1","1536","864","de","IS05RY26","null","","","","learningBlock2","","","","<div style=""font-size:60px;""> </div>","null","FL","learning/Slide95.JPG","That was a wug.","",""
"","image-keyboard-response","293","1008574","0.0-8.0-0.15","FL","mn35br66m1","1536","864","de","IS05RY26","null","","","","","","","","learning/Slide96.JPG","null","","","","",""
"","html-keyboard-response","294","1009727","0.0-8.0-1.15","FL","mn35br66m1","1536","864","de","IS05RY26","null","","","","learningBlock2","","","","That was a tob.","null","","","","",""
"","html-keyboard-response","295","1010737","0.0-8.0-2.15","FL","mn35br66m1","1536","864","de","IS05RY26","null","","","","learningBlock2","","","","<div style=""font-size:60px;""> </div>","null","FL","learning/Slide96.JPG","That was a tob.","",""
"","image-keyboard-response","296","1010922","0.0-8.0-0.16","FL","mn35br66m1","1536","864","de","IS05RY26","null","","","","","","","","learning/Slide97.JPG","null","","","","",""
"","html-keyboard-response","297","1012074","0.0-8.0-1.16","FL","mn35br66m1","1536","864","de","IS05RY26","null","","","","learningBlock2","","","","That was a dep.","null","","","","",""
"","html-keyboard-response","298","1013087","0.0-8.0-2.16","FL","mn35br66m1","1536","864","de","IS05RY26","null","","","","learningBlock2","","","","<div style=""font-size:60px;""> </div>","null","FL","learning/Slide97.JPG","That was a dep.","",""
"","image-keyboard-response","299","1013273","0.0-8.0-0.17","FL","mn35br66m1","1536","864","de","IS05RY26","null","","","","","","","","learning/Slide98.JPG","null","","","","",""
"","html-keyboard-response","300","1014440","0.0-8.0-1.17","FL","mn35br66m1","1536","864","de","IS05RY26","null","","","","learningBlock2","","","","That was a bim.","null","","","","",""
"","html-keyboard-response","301","1015456","0.0-8.0-2.17","FL","mn35br66m1","1536","864","de","IS05RY26","null","","","","learningBlock2","","","","<div style=""font-size:60px;""> </div>","null","FL","learning/Slide98.JPG","That was a bim.","",""
"","image-keyboard-response","302","1015633","0.0-8.0-0.18","FL","mn35br66m1","1536","864","de","IS05RY26","null","","","","","","","","learning/Slide99.JPG","null","","","","",""
"","html-keyboard-response","303","1016808","0.0-8.0-1.18","FL","mn35br66m1","1536","864","de","IS05RY26","null","","","","learningBlock2","","","","That was a dep.","null","","","","",""
"","html-keyboard-response","304","1017820","0.0-8.0-2.18","FL","mn35br66m1","1536","864","de","IS05RY26","null","","","","learningBlock2","","","","<div style=""font-size:60px;""> </div>","null","FL","learning/Slide99.JPG","That was a dep.","",""
"","image-keyboard-response","305","1017996","0.0-8.0-0.19","FL","mn35br66m1","1536","864","de","IS05RY26","null","","","","","","","","learning/Slide100.JPG","null","","","","",""
"","html-keyboard-response","306","1019169","0.0-8.0-1.19","FL","mn35br66m1","1536","864","de","IS05RY26","null","","","","learningBlock2","","","","That was a bim.","null","","","","",""
"","html-keyboard-response","307","1020179","0.0-8.0-2.19","FL","mn35br66m1","1536","864","de","IS05RY26","null","","","","learningBlock2","","","","<div style=""font-size:60px;""> </div>","null","FL","learning/Slide100.JPG","That was a bim.","",""
"","image-keyboard-response","308","1020356","0.0-8.0-0.20","FL","mn35br66m1","1536","864","de","IS05RY26","null","","","","","","","","learning/Slide101.JPG","null","","","","",""
"","html-keyboard-response","309","1021519","0.0-8.0-1.20","FL","mn35br66m1","1536","864","de","IS05RY26","null","","","","learningBlock2","","","","That was a tob.","null","","","","",""
"","html-keyboard-response","310","1022529","0.0-8.0-2.20","FL","mn35br66m1","1536","864","de","IS05RY26","null","","","","learningBlock2","","","","<div style=""font-size:60px;""> </div>","null","FL","learning/Slide101.JPG","That was a tob.","",""
"","image-keyboard-response","311","1022715","0.0-8.0-0.21","FL","mn35br66m1","1536","864","de","IS05RY26","null","","","","","","","","learning/Slide102.JPG","null","","","","",""
"","html-keyboard-response","312","1023872","0.0-8.0-1.21","FL","mn35br66m1","1536","864","de","IS05RY26","null","","","","learningBlock2","","","","That was a bim.","null","","","","",""
"","html-keyboard-response","313","1024883","0.0-8.0-2.21","FL","mn35br66m1","1536","864","de","IS05RY26","null","","","","learningBlock2","","","","<div style=""font-size:60px;""> </div>","null","FL","learning/Slide102.JPG","That was a bim.","",""
"","image-keyboard-response","314","1025068","0.0-8.0-0.22","FL","mn35br66m1","1536","864","de","IS05RY26","null","","","","","","","","learning/Slide103.JPG","null","","","","",""
"","html-keyboard-response","315","1026232","0.0-8.0-1.22","FL","mn35br66m1","1536","864","de","IS05RY26","null","","","","learningBlock2","","","","That was a dep.","null","","","","",""
"","html-keyboard-response","316","1027247","0.0-8.0-2.22","FL","mn35br66m1","1536","864","de","IS05RY26","null","","","","learningBlock2","","","","<div style=""font-size:60px;""> </div>","null","FL","learning/Slide103.JPG","That was a dep.","",""
"","image-keyboard-response","317","1027435","0.0-8.0-0.23","FL","mn35br66m1","1536","864","de","IS05RY26","null","","","","","","","","learning/Slide104.JPG","null","","","","",""
"","html-keyboard-response","318","1028589","0.0-8.0-1.23","FL","mn35br66m1","1536","864","de","IS05RY26","null","","","","learningBlock2","","","","That was a tob.","null","","","","",""
"","html-keyboard-response","319","1029600","0.0-8.0-2.23","FL","mn35br66m1","1536","864","de","IS05RY26","null","","","","learningBlock2","","","","<div style=""font-size:60px;""> </div>","null","FL","learning/Slide104.JPG","That was a tob.","",""
"","image-keyboard-response","320","1029777","0.0-8.0-0.24","FL","mn35br66m1","1536","864","de","IS05RY26","null","","","","","","","","learning/Slide105.JPG","null","","","","",""
"","html-keyboard-response","321","1030951","0.0-8.0-1.24","FL","mn35br66m1","1536","864","de","IS05RY26","null","","","","learningBlock2","","","","That was a dep.","null","","","","",""
"","html-keyboard-response","322","1031967","0.0-8.0-2.24","FL","mn35br66m1","1536","864","de","IS05RY26","null","","","","learningBlock2","","","","<div style=""font-size:60px;""> </div>","null","FL","learning/Slide105.JPG","That was a dep.","",""
"","image-keyboard-response","323","1032154","0.0-8.0-0.25","FL","mn35br66m1","1536","864","de","IS05RY26","null","","","","","","","","learning/Slide106.JPG","null","","","","",""
"","html-keyboard-response","324","1033323","0.0-8.0-1.25","FL","mn35br66m1","1536","864","de","IS05RY26","null","","","","learningBlock2","","","","That was a wug.","null","","","","",""
"","html-keyboard-response","325","1034336","0.0-8.0-2.25","FL","mn35br66m1","1536","864","de","IS05RY26","null","","","","learningBlock2","","","","<div style=""font-size:60px;""> </div>","null","FL","learning/Slide106.JPG","That was a wug.","",""
"","image-keyboard-response","326","1034522","0.0-8.0-0.26","FL","mn35br66m1","1536","864","de","IS05RY26","null","","","","","","","","learning/Slide107.JPG","null","","","","",""
"","html-keyboard-response","327","1035690","0.0-8.0-1.26","FL","mn35br66m1","1536","864","de","IS05RY26","null","","","","learningBlock2","","","","That was a bim.","null","","","","",""
"","html-keyboard-response","328","1036700","0.0-8.0-2.26","FL","mn35br66m1","1536","864","de","IS05RY26","null","","","","learningBlock2","","","","<div style=""font-size:60px;""> </div>","null","FL","learning/Slide107.JPG","That was a bim.","",""
"","image-keyboard-response","329","1036877","0.0-8.0-0.27","FL","mn35br66m1","1536","864","de","IS05RY26","null","","","","","","","","learning/Slide108.JPG","null","","","","",""
"","html-keyboard-response","330","1038041","0.0-8.0-1.27","FL","mn35br66m1","1536","864","de","IS05RY26","null","","","","learningBlock2","","","","That was a dep.","null","","","","",""
"","html-keyboard-response","331","1039045","0.0-8.0-2.27","FL","mn35br66m1","1536","864","de","IS05RY26","null","","","","learningBlock2","","","","<div style=""font-size:60px;""> </div>","null","FL","learning/Slide108.JPG","That was a dep.","",""
"","image-keyboard-response","332","1039228","0.0-8.0-0.28","FL","mn35br66m1","1536","864","de","IS05RY26","null","","","","","","","","learning/Slide109.JPG","null","","","","",""
"","html-keyboard-response","333","1040395","0.0-8.0-1.28","FL","mn35br66m1","1536","864","de","IS05RY26","null","","","","learningBlock2","","","","That was a wug.","null","","","","",""
"","html-keyboard-response","334","1041411","0.0-8.0-2.28","FL","mn35br66m1","1536","864","de","IS05RY26","null","","","","learningBlock2","","","","<div style=""font-size:60px;""> </div>","null","FL","learning/Slide109.JPG","That was a wug.","",""
"","image-keyboard-response","335","1041597","0.0-8.0-0.29","FL","mn35br66m1","1536","864","de","IS05RY26","null","","","","","","","","learning/Slide110.JPG","null","","","","",""
"","html-keyboard-response","336","1042763","0.0-8.0-1.29","FL","mn35br66m1","1536","864","de","IS05RY26","null","","","","learningBlock2","","","","That was a bim.","null","","","","",""
"","html-keyboard-response","337","1043774","0.0-8.0-2.29","FL","mn35br66m1","1536","864","de","IS05RY26","null","","","","learningBlock2","","","","<div style=""font-size:60px;""> </div>","null","FL","learning/Slide110.JPG","That was a bim.","",""
"","image-keyboard-response","338","1043951","0.0-8.0-0.30","FL","mn35br66m1","1536","864","de","IS05RY26","null","","","","","","","","learning/Slide111.JPG","null","","","","",""
"","html-keyboard-response","339","1045111","0.0-8.0-1.30","FL","mn35br66m1","1536","864","de","IS05RY26","null","","","","learningBlock2","","","","That was a tob.","null","","","","",""
"","html-keyboard-response","340","1046126","0.0-8.0-2.30","FL","mn35br66m1","1536","864","de","IS05RY26","null","","","","learningBlock2","","","","<div style=""font-size:60px;""> </div>","null","FL","learning/Slide111.JPG","That was a tob.","",""
"","image-keyboard-response","341","1046314","0.0-8.0-0.31","FL","mn35br66m1","1536","864","de","IS05RY26","null","","","","","","","","learning/Slide112.JPG","null","","","","",""
"","html-keyboard-response","342","1047480","0.0-8.0-1.31","FL","mn35br66m1","1536","864","de","IS05RY26","null","","","","learningBlock2","","","","That was a wug.","null","","","","",""
"","html-keyboard-response","343","1048491","0.0-8.0-2.31","FL","mn35br66m1","1536","864","de","IS05RY26","null","","","","learningBlock2","","","","<div style=""font-size:60px;""> </div>","null","FL","learning/Slide112.JPG","That was a wug.","",""
"","image-keyboard-response","344","1048677","0.0-8.0-0.32","FL","mn35br66m1","1536","864","de","IS05RY26","null","","","","","","","","learning/Slide113.JPG","null","","","","",""
"","html-keyboard-response","345","1049840","0.0-8.0-1.32","FL","mn35br66m1","1536","864","de","IS05RY26","null","","","","learningBlock2","","","","That was a tob.","null","","","","",""
"","html-keyboard-response","346","1050854","0.0-8.0-2.32","FL","mn35br66m1","1536","864","de","IS05RY26","null","","","","learningBlock2","","","","<div style=""font-size:60px;""> </div>","null","FL","learning/Slide113.JPG","That was a tob.","",""
"","image-keyboard-response","347","1051040","0.0-8.0-0.33","FL","mn35br66m1","1536","864","de","IS05RY26","null","","","","","","","","learning/Slide114.JPG","null","","","","",""
"","html-keyboard-response","348","1052210","0.0-8.0-1.33","FL","mn35br66m1","1536","864","de","IS05RY26","null","","","","learningBlock2","","","","That was a wug.","null","","","","",""
"","html-keyboard-response","349","1053223","0.0-8.0-2.33","FL","mn35br66m1","1536","864","de","IS05RY26","null","","","","learningBlock2","","","","<div style=""font-size:60px;""> </div>","null","FL","learning/Slide114.JPG","That was a wug.","",""
"","image-keyboard-response","350","1053409","0.0-8.0-0.34","FL","mn35br66m1","1536","864","de","IS05RY26","null","","","","","","","","learning/Slide115.JPG","null","","","","",""
"","html-keyboard-response","351","1054565","0.0-8.0-1.34","FL","mn35br66m1","1536","864","de","IS05RY26","null","","","","learningBlock2","","","","That was a bim.","null","","","","",""
"","html-keyboard-response","352","1055574","0.0-8.0-2.34","FL","mn35br66m1","1536","864","de","IS05RY26","null","","","","learningBlock2","","","","<div style=""font-size:60px;""> </div>","null","FL","learning/Slide115.JPG","That was a bim.","",""
"","image-keyboard-response","353","1055761","0.0-8.0-0.35","FL","mn35br66m1","1536","864","de","IS05RY26","null","","","","","","","","learning/Slide116.JPG","null","","","","",""
"","html-keyboard-response","354","1056915","0.0-8.0-1.35","FL","mn35br66m1","1536","864","de","IS05RY26","null","","","","learningBlock2","","","","That was a dep.","null","","","","",""
"","html-keyboard-response","355","1057926","0.0-8.0-2.35","FL","mn35br66m1","1536","864","de","IS05RY26","null","","","","learningBlock2","","","","<div style=""font-size:60px;""> </div>","null","FL","learning/Slide116.JPG","That was a dep.","",""
"","image-keyboard-response","356","1058103","0.0-8.0-0.36","FL","mn35br66m1","1536","864","de","IS05RY26","null","","","","","","","","learning/Slide117.JPG","null","","","","",""
"","html-keyboard-response","357","1059267","0.0-8.0-1.36","FL","mn35br66m1","1536","864","de","IS05RY26","null","","","","learningBlock2","","","","That was a tob.","null","","","","",""
"","html-keyboard-response","358","1060278","0.0-8.0-2.36","FL","mn35br66m1","1536","864","de","IS05RY26","null","","","","learningBlock2","","","","<div style=""font-size:60px;""> </div>","null","FL","learning/Slide117.JPG","That was a tob.","",""
"","image-keyboard-response","359","1060465","0.0-8.0-0.37","FL","mn35br66m1","1536","864","de","IS05RY26","null","","","","","","","","learning/Slide118.JPG","null","","","","",""
"","html-keyboard-response","360","1061630","0.0-8.0-1.37","FL","mn35br66m1","1536","864","de","IS05RY26","null","","","","learningBlock2","","","","That was a dep.","null","","","","",""
"","html-keyboard-response","361","1062643","0.0-8.0-2.37","FL","mn35br66m1","1536","864","de","IS05RY26","null","","","","learningBlock2","","","","<div style=""font-size:60px;""> </div>","null","FL","learning/Slide118.JPG","That was a dep.","",""
"","image-keyboard-response","362","1062828","0.0-8.0-0.38","FL","mn35br66m1","1536","864","de","IS05RY26","null","","","","","","","","learning/Slide119.JPG","null","","","","",""
"","html-keyboard-response","363","1063994","0.0-8.0-1.38","FL","mn35br66m1","1536","864","de","IS05RY26","null","","","","learningBlock2","","","","That was a wug.","null","","","","",""
"","html-keyboard-response","364","1065008","0.0-8.0-2.38","FL","mn35br66m1","1536","864","de","IS05RY26","null","","","","learningBlock2","","","","<div style=""font-size:60px;""> </div>","null","FL","learning/Slide119.JPG","That was a wug.","",""
"","image-keyboard-response","365","1065186","0.0-8.0-0.39","FL","mn35br66m1","1536","864","de","IS05RY26","null","","","","","","","","learning/Slide120.JPG","null","","","","",""
"","html-keyboard-response","366","1066365","0.0-8.0-1.39","FL","mn35br66m1","1536","864","de","IS05RY26","null","","","","learningBlock2","","","","That was a dep.","null","","","","",""
"","html-keyboard-response","367","1067380","0.0-8.0-2.39","FL","mn35br66m1","1536","864","de","IS05RY26","null","","","","learningBlock2","","","","<div style=""font-size:60px;""> </div>","null","FL","learning/Slide120.JPG","That was a dep.","",""
"","image-keyboard-response","368","1067566","0.0-8.0-0.40","FL","mn35br66m1","1536","864","de","IS05RY26","null","","","","","","","","learning/Slide121.JPG","null","","","","",""
"","html-keyboard-response","369","1068722","0.0-8.0-1.40","FL","mn35br66m1","1536","864","de","IS05RY26","null","","","","learningBlock2","","","","That was a bim.","null","","","","",""
"","html-keyboard-response","370","1069735","0.0-8.0-2.40","FL","mn35br66m1","1536","864","de","IS05RY26","null","","","","learningBlock2","","","","<div style=""font-size:60px;""> </div>","null","FL","learning/Slide121.JPG","That was a bim.","",""
"","image-keyboard-response","371","1069922","0.0-8.0-0.41","FL","mn35br66m1","1536","864","de","IS05RY26","null","","","","","","","","learning/Slide122.JPG","null","","","","",""
"","html-keyboard-response","372","1071090","0.0-8.0-1.41","FL","mn35br66m1","1536","864","de","IS05RY26","null","","","","learningBlock2","","","","That was a wug.","null","","","","",""
"","html-keyboard-response","373","1072100","0.0-8.0-2.41","FL","mn35br66m1","1536","864","de","IS05RY26","null","","","","learningBlock2","","","","<div style=""font-size:60px;""> </div>","null","FL","learning/Slide122.JPG","That was a wug.","",""
"","image-keyboard-response","374","1072287","0.0-8.0-0.42","FL","mn35br66m1","1536","864","de","IS05RY26","null","","","","","","","","learning/Slide123.JPG","null","","","","",""
"","html-keyboard-response","375","1073452","0.0-8.0-1.42","FL","mn35br66m1","1536","864","de","IS05RY26","null","","","","learningBlock2","","","","That was a bim.","null","","","","",""
"","html-keyboard-response","376","1074467","0.0-8.0-2.42","FL","mn35br66m1","1536","864","de","IS05RY26","null","","","","learningBlock2","","","","<div style=""font-size:60px;""> </div>","null","FL","learning/Slide123.JPG","That was a bim.","",""
"","image-keyboard-response","377","1074654","0.0-8.0-0.43","FL","mn35br66m1","1536","864","de","IS05RY26","null","","","","","","","","learning/Slide124.JPG","null","","","","",""
"","html-keyboard-response","378","1075824","0.0-8.0-1.43","FL","mn35br66m1","1536","864","de","IS05RY26","null","","","","learningBlock2","","","","That was a tob.","null","","","","",""
"","html-keyboard-response","379","1076837","0.0-8.0-2.43","FL","mn35br66m1","1536","864","de","IS05RY26","null","","","","learningBlock2","","","","<div style=""font-size:60px;""> </div>","null","FL","learning/Slide124.JPG","That was a tob.","",""
"","image-keyboard-response","380","1077022","0.0-8.0-0.44","FL","mn35br66m1","1536","864","de","IS05RY26","null","","","","","","","","learning/Slide125.JPG","null","","","","",""
"","html-keyboard-response","381","1078190","0.0-8.0-1.44","FL","mn35br66m1","1536","864","de","IS05RY26","null","","","","learningBlock2","","","","That was a bim.","null","","","","",""
"","html-keyboard-response","382","1079202","0.0-8.0-2.44","FL","mn35br66m1","1536","864","de","IS05RY26","null","","","","learningBlock2","","","","<div style=""font-size:60px;""> </div>","null","FL","learning/Slide125.JPG","That was a bim.","",""
"","image-keyboard-response","383","1079379","0.0-8.0-0.45","FL","mn35br66m1","1536","864","de","IS05RY26","null","","","","","","","","learning/Slide126.JPG","null","","","","",""
"","html-keyboard-response","384","1080557","0.0-8.0-1.45","FL","mn35br66m1","1536","864","de","IS05RY26","null","","","","learningBlock2","","","","That was a tob.","null","","","","",""
"","html-keyboard-response","385","1081567","0.0-8.0-2.45","FL","mn35br66m1","1536","864","de","IS05RY26","null","","","","learningBlock2","","","","<div style=""font-size:60px;""> </div>","null","FL","learning/Slide126.JPG","That was a tob.","",""
"","image-keyboard-response","386","1081754","0.0-8.0-0.46","FL","mn35br66m1","1536","864","de","IS05RY26","null","","","","","","","","learning/Slide127.JPG","null","","","","",""
"","html-keyboard-response","387","1082917","0.0-8.0-1.46","FL","mn35br66m1","1536","864","de","IS05RY26","null","","","","learningBlock2","","","","That was a dep.","null","","","","",""
"","html-keyboard-response","388","1083930","0.0-8.0-2.46","FL","mn35br66m1","1536","864","de","IS05RY26","null","","","","learningBlock2","","","","<div style=""font-size:60px;""> </div>","null","FL","learning/Slide127.JPG","That was a dep.","",""
"","image-keyboard-response","389","1084119","0.0-8.0-0.47","FL","mn35br66m1","1536","864","de","IS05RY26","null","","","","","","","","learning/Slide128.JPG","null","","","","",""
"","html-keyboard-response","390","1085275","0.0-8.0-1.47","FL","mn35br66m1","1536","864","de","IS05RY26","null","","","","learningBlock2","","","","That was a wug.","null","","","","",""
"","html-keyboard-response","391","1086289","0.0-8.0-2.47","FL","mn35br66m1","1536","864","de","IS05RY26","null","","","","learningBlock2","","","","<div style=""font-size:60px;""> </div>","null","FL","learning/Slide128.JPG","That was a wug.","",""
"","image-keyboard-response","392","1086475","0.0-8.0-0.48","FL","mn35br66m1","1536","864","de","IS05RY26","null","","","","","","","","learning/Slide129.JPG","null","","","","",""
"","html-keyboard-response","393","1087640","0.0-8.0-1.48","FL","mn35br66m1","1536","864","de","IS05RY26","null","","","","learningBlock2","","","","That was a tob.","null","","","","",""
"","html-keyboard-response","394","1088643","0.0-8.0-2.48","FL","mn35br66m1","1536","864","de","IS05RY26","null","","","","learningBlock2","","","","<div style=""font-size:60px;""> </div>","null","FL","learning/Slide129.JPG","That was a tob.","",""
"","image-keyboard-response","395","1088820","0.0-8.0-0.49","FL","mn35br66m1","1536","864","de","IS05RY26","null","","","","","","","","learning/Slide130.JPG","null","","","","",""
"","html-keyboard-response","396","1089977","0.0-8.0-1.49","FL","mn35br66m1","1536","864","de","IS05RY26","null","","","","learningBlock2","","","","That was a wug.","null","","","","",""
"","html-keyboard-response","397","1090990","0.0-8.0-2.49","FL","mn35br66m1","1536","864","de","IS05RY26","null","","","","learningBlock2","","","","<div style=""font-size:60px;""> </div>","null","FL","learning/Slide130.JPG","That was a wug.","",""
"","image-keyboard-response","398","1091175","0.0-8.0-0.50","FL","mn35br66m1","1536","864","de","IS05RY26","null","","","","","","","","learning/Slide131.JPG","null","","","","",""
"","html-keyboard-response","399","1092346","0.0-8.0-1.50","FL","mn35br66m1","1536","864","de","IS05RY26","null","","","","learningBlock2","","","","That was a bim.","null","","","","",""
"","html-keyboard-response","400","1093357","0.0-8.0-2.50","FL","mn35br66m1","1536","864","de","IS05RY26","null","","","","learningBlock2","","","","<div style=""font-size:60px;""> </div>","null","FL","learning/Slide131.JPG","That was a bim.","",""
"","image-keyboard-response","401","1093533","0.0-8.0-0.51","FL","mn35br66m1","1536","864","de","IS05RY26","null","","","","","","","","learning/Slide132.JPG","null","","","","",""
"","html-keyboard-response","402","1094698","0.0-8.0-1.51","FL","mn35br66m1","1536","864","de","IS05RY26","null","","","","learningBlock2","","","","That was a dep.","null","","","","",""
"","html-keyboard-response","403","1095713","0.0-8.0-2.51","FL","mn35br66m1","1536","864","de","IS05RY26","null","","","","learningBlock2","","","","<div style=""font-size:60px;""> </div>","null","FL","learning/Slide132.JPG","That was a dep.","",""
"","image-keyboard-response","404","1095892","0.0-8.0-0.52","FL","mn35br66m1","1536","864","de","IS05RY26","null","","","","","","","","learning/Slide133.JPG","null","","","","",""
"","html-keyboard-response","405","1097065","0.0-8.0-1.52","FL","mn35br66m1","1536","864","de","IS05RY26","null","","","","learningBlock2","","","","That was a tob.","null","","","","",""
"","html-keyboard-response","406","1098075","0.0-8.0-2.52","FL","mn35br66m1","1536","864","de","IS05RY26","null","","","","learningBlock2","","","","<div style=""font-size:60px;""> </div>","null","FL","learning/Slide133.JPG","That was a tob.","",""
"","image-keyboard-response","407","1098251","0.0-8.0-0.53","FL","mn35br66m1","1536","864","de","IS05RY26","null","","","","","","","","learning/Slide134.JPG","null","","","","",""
"","html-keyboard-response","408","1099428","0.0-8.0-1.53","FL","mn35br66m1","1536","864","de","IS05RY26","null","","","","learningBlock2","","","","That was a dep.","null","","","","",""
"","html-keyboard-response","409","1100441","0.0-8.0-2.53","FL","mn35br66m1","1536","864","de","IS05RY26","null","","","","learningBlock2","","","","<div style=""font-size:60px;""> </div>","null","FL","learning/Slide134.JPG","That was a dep.","",""
"","image-keyboard-response","410","1100627","0.0-8.0-0.54","FL","mn35br66m1","1536","864","de","IS05RY26","null","","","","","","","","learning/Slide135.JPG","null","","","","",""
"","html-keyboard-response","411","1101794","0.0-8.0-1.54","FL","mn35br66m1","1536","864","de","IS05RY26","null","","","","learningBlock2","","","","That was a tob.","null","","","","",""
"","html-keyboard-response","412","1102808","0.0-8.0-2.54","FL","mn35br66m1","1536","864","de","IS05RY26","null","","","","learningBlock2","","","","<div style=""font-size:60px;""> </div>","null","FL","learning/Slide135.JPG","That was a tob.","",""
"","image-keyboard-response","413","1102984","0.0-8.0-0.55","FL","mn35br66m1","1536","864","de","IS05RY26","null","","","","","","","","learning/Slide136.JPG","null","","","","",""
"","html-keyboard-response","414","1104151","0.0-8.0-1.55","FL","mn35br66m1","1536","864","de","IS05RY26","null","","","","learningBlock2","","","","That was a wug.","null","","","","",""
"","html-keyboard-response","415","1105159","0.0-8.0-2.55","FL","mn35br66m1","1536","864","de","IS05RY26","null","","","","learningBlock2","","","","<div style=""font-size:60px;""> </div>","null","FL","learning/Slide136.JPG","That was a wug.","",""
"","image-keyboard-response","416","1105336","0.0-8.0-0.56","FL","mn35br66m1","1536","864","de","IS05RY26","null","","","","","","","","learning/Slide137.JPG","null","","","","",""
"","html-keyboard-response","417","1106516","0.0-8.0-1.56","FL","mn35br66m1","1536","864","de","IS05RY26","null","","","","learningBlock2","","","","That was a tob.","null","","","","",""
"","html-keyboard-response","418","1107530","0.0-8.0-2.56","FL","mn35br66m1","1536","864","de","IS05RY26","null","","","","learningBlock2","","","","<div style=""font-size:60px;""> </div>","null","FL","learning/Slide137.JPG","That was a tob.","",""
"","image-keyboard-response","419","1107707","0.0-8.0-0.57","FL","mn35br66m1","1536","864","de","IS05RY26","null","","","","","","","","learning/Slide138.JPG","null","","","","",""
"","html-keyboard-response","420","1108870","0.0-8.0-1.57","FL","mn35br66m1","1536","864","de","IS05RY26","null","","","","learningBlock2","","","","That was a bim.","null","","","","",""
"","html-keyboard-response","421","1109878","0.0-8.0-2.57","FL","mn35br66m1","1536","864","de","IS05RY26","null","","","","learningBlock2","","","","<div style=""font-size:60px;""> </div>","null","FL","learning/Slide138.JPG","That was a bim.","",""
"","image-keyboard-response","422","1110064","0.0-8.0-0.58","FL","mn35br66m1","1536","864","de","IS05RY26","null","","","","","","","","learning/Slide139.JPG","null","","","","",""
"","html-keyboard-response","423","1111226","0.0-8.0-1.58","FL","mn35br66m1","1536","864","de","IS05RY26","null","","","","learningBlock2","","","","That was a wug.","null","","","","",""
"","html-keyboard-response","424","1112235","0.0-8.0-2.58","FL","mn35br66m1","1536","864","de","IS05RY26","null","","","","learningBlock2","","","","<div style=""font-size:60px;""> </div>","null","FL","learning/Slide139.JPG","That was a wug.","",""
"","image-keyboard-response","425","1112423","0.0-8.0-0.59","FL","mn35br66m1","1536","864","de","IS05RY26","null","","","","","","","","learning/Slide140.JPG","null","","","","",""
"","html-keyboard-response","426","1113589","0.0-8.0-1.59","FL","mn35br66m1","1536","864","de","IS05RY26","null","","","","learningBlock2","","","","That was a dep.","null","","","","",""
"","html-keyboard-response","427","1114603","0.0-8.0-2.59","FL","mn35br66m1","1536","864","de","IS05RY26","null","","","","learningBlock2","","","","<div style=""font-size:60px;""> </div>","null","FL","learning/Slide140.JPG","That was a dep.","",""
"","image-keyboard-response","428","1114789","0.0-8.0-0.60","FL","mn35br66m1","1536","864","de","IS05RY26","null","","","","","","","","learning/Slide141.JPG","null","","","","",""
"","html-keyboard-response","429","1115958","0.0-8.0-1.60","FL","mn35br66m1","1536","864","de","IS05RY26","null","","","","learningBlock2","","","","That was a tob.","null","","","","",""
"","html-keyboard-response","430","1116969","0.0-8.0-2.60","FL","mn35br66m1","1536","864","de","IS05RY26","null","","","","learningBlock2","","","","<div style=""font-size:60px;""> </div>","null","FL","learning/Slide141.JPG","That was a tob.","",""
"","image-keyboard-response","431","1117155","0.0-8.0-0.61","FL","mn35br66m1","1536","864","de","IS05RY26","null","","","","","","","","learning/Slide142.JPG","null","","","","",""
"","html-keyboard-response","432","1118326","0.0-8.0-1.61","FL","mn35br66m1","1536","864","de","IS05RY26","null","","","","learningBlock2","","","","That was a wug.","null","","","","",""
"","html-keyboard-response","433","1119334","0.0-8.0-2.61","FL","mn35br66m1","1536","864","de","IS05RY26","null","","","","learningBlock2","","","","<div style=""font-size:60px;""> </div>","null","FL","learning/Slide142.JPG","That was a wug.","",""
"","image-keyboard-response","434","1119521","0.0-8.0-0.62","FL","mn35br66m1","1536","864","de","IS05RY26","null","","","","","","","","learning/Slide143.JPG","null","","","","",""
"","html-keyboard-response","435","1120674","0.0-8.0-1.62","FL","mn35br66m1","1536","864","de","IS05RY26","null","","","","learningBlock2","","","","That was a bim.","null","","","","",""
"","html-keyboard-response","436","1121687","0.0-8.0-2.62","FL","mn35br66m1","1536","864","de","IS05RY26","null","","","","learningBlock2","","","","<div style=""font-size:60px;""> </div>","null","FL","learning/Slide143.JPG","That was a bim.","",""
"","image-keyboard-response","437","1121864","0.0-8.0-0.63","FL","mn35br66m1","1536","864","de","IS05RY26","null","","","","","","","","learning/Slide144.JPG","null","","","","",""
"","html-keyboard-response","438","1123017","0.0-8.0-1.63","FL","mn35br66m1","1536","864","de","IS05RY26","null","","","","learningBlock2","","","","That was a dep.","null","","","","",""
"","html-keyboard-response","439","1124031","0.0-8.0-2.63","FL","mn35br66m1","1536","864","de","IS05RY26","null","","","","learningBlock2","","","","<div style=""font-size:60px;""> </div>","null","FL","learning/Slide144.JPG","That was a dep.","",""
"","image-keyboard-response","440","1124219","0.0-8.0-0.64","FL","mn35br66m1","1536","864","de","IS05RY26","null","","","","","","","","learning/Slide145.JPG","null","","","","",""
"","html-keyboard-response","441","1125385","0.0-8.0-1.64","FL","mn35br66m1","1536","864","de","IS05RY26","null","","","","learningBlock2","","","","That was a bim.","null","","","","",""
"","html-keyboard-response","442","1126395","0.0-8.0-2.64","FL","mn35br66m1","1536","864","de","IS05RY26","null","","","","learningBlock2","","","","<div style=""font-size:60px;""> </div>","null","FL","learning/Slide145.JPG","That was a bim.","",""
"","image-keyboard-response","443","1126583","0.0-8.0-0.65","FL","mn35br66m1","1536","864","de","IS05RY26","null","","","","","","","","learning/Slide146.JPG","null","","","","",""
"","html-keyboard-response","444","1127754","0.0-8.0-1.65","FL","mn35br66m1","1536","864","de","IS05RY26","null","","","","learningBlock2","","","","That was a tob.","null","","","","",""
"","html-keyboard-response","445","1128767","0.0-8.0-2.65","FL","mn35br66m1","1536","864","de","IS05RY26","null","","","","learningBlock2","","","","<div style=""font-size:60px;""> </div>","null","FL","learning/Slide146.JPG","That was a tob.","",""
"","image-keyboard-response","446","1128944","0.0-8.0-0.66","FL","mn35br66m1","1536","864","de","IS05RY26","null","","","","","","","","learning/Slide147.JPG","null","","","","",""
"","html-keyboard-response","447","1130101","0.0-8.0-1.66","FL","mn35br66m1","1536","864","de","IS05RY26","null","","","","learningBlock2","","","","That was a wug.","null","","","","",""
"","html-keyboard-response","448","1131116","0.0-8.0-2.66","FL","mn35br66m1","1536","864","de","IS05RY26","null","","","","learningBlock2","","","","<div style=""font-size:60px;""> </div>","null","FL","learning/Slide147.JPG","That was a wug.","",""
"","image-keyboard-response","449","1131304","0.0-8.0-0.67","FL","mn35br66m1","1536","864","de","IS05RY26","null","","","","","","","","learning/Slide148.JPG","null","","","","",""
"","html-keyboard-response","450","1132471","0.0-8.0-1.67","FL","mn35br66m1","1536","864","de","IS05RY26","null","","","","learningBlock2","","","","That was a bim.","null","","","","",""
"","html-keyboard-response","451","1133484","0.0-8.0-2.67","FL","mn35br66m1","1536","864","de","IS05RY26","null","","","","learningBlock2","","","","<div style=""font-size:60px;""> </div>","null","FL","learning/Slide148.JPG","That was a bim.","",""
"","image-keyboard-response","452","1133661","0.0-8.0-0.68","FL","mn35br66m1","1536","864","de","IS05RY26","null","","","","","","","","learning/Slide149.JPG","null","","","","",""
"","html-keyboard-response","453","1134835","0.0-8.0-1.68","FL","mn35br66m1","1536","864","de","IS05RY26","null","","","","learningBlock2","","","","That was a dep.","null","","","","",""
"","html-keyboard-response","454","1135836","0.0-8.0-2.68","FL","mn35br66m1","1536","864","de","IS05RY26","null","","","","learningBlock2","","","","<div style=""font-size:60px;""> </div>","null","FL","learning/Slide149.JPG","That was a dep.","",""
"","image-keyboard-response","455","1136012","0.0-8.0-0.69","FL","mn35br66m1","1536","864","de","IS05RY26","null","","","","","","","","learning/Slide150.JPG","null","","","","",""
"","html-keyboard-response","456","1137170","0.0-8.0-1.69","FL","mn35br66m1","1536","864","de","IS05RY26","null","","","","learningBlock2","","","","That was a wug.","null","","","","",""
"","html-keyboard-response","457","1138186","0.0-8.0-2.69","FL","mn35br66m1","1536","864","de","IS05RY26","null","","","","learningBlock2","","","","<div style=""font-size:60px;""> </div>","null","FL","learning/Slide150.JPG","That was a wug.","",""
"","image-keyboard-response","458","1138372","0.0-8.0-0.70","FL","mn35br66m1","1536","864","de","IS05RY26","null","","","","","","","","learning/Slide151.JPG","null","","","","",""
"","html-keyboard-response","459","1139524","0.0-8.0-1.70","FL","mn35br66m1","1536","864","de","IS05RY26","null","","","","learningBlock2","","","","That was a dep.","null","","","","",""
"","html-keyboard-response","460","1140532","0.0-8.0-2.70","FL","mn35br66m1","1536","864","de","IS05RY26","null","","","","learningBlock2","","","","<div style=""font-size:60px;""> </div>","null","FL","learning/Slide151.JPG","That was a dep.","",""
"","image-keyboard-response","461","1140719","0.0-8.0-0.71","FL","mn35br66m1","1536","864","de","IS05RY26","null","","","","","","","","learning/Slide152.JPG","null","","","","",""
"","html-keyboard-response","462","1141886","0.0-8.0-1.71","FL","mn35br66m1","1536","864","de","IS05RY26","null","","","","learningBlock2","","","","That was a wug.","null","","","","",""
"","html-keyboard-response","463","1142897","0.0-8.0-2.71","FL","mn35br66m1","1536","864","de","IS05RY26","null","","","","learningBlock2","","","","<div style=""font-size:60px;""> </div>","null","FL","learning/Slide152.JPG","That was a wug.","",""
"","image-keyboard-response","464","1143084","0.0-8.0-0.72","FL","mn35br66m1","1536","864","de","IS05RY26","null","","","","","","","","learning/Slide153.JPG","null","","","","",""
"","html-keyboard-response","465","1144251","0.0-8.0-1.72","FL","mn35br66m1","1536","864","de","IS05RY26","null","","","","learningBlock2","","","","That was a bim.","null","","","","",""
"","html-keyboard-response","466","1145262","0.0-8.0-2.72","FL","mn35br66m1","1536","864","de","IS05RY26","null","","","","learningBlock2","","","","<div style=""font-size:60px;""> </div>","null","FL","learning/Slide153.JPG","That was a bim.","",""
"","image-keyboard-response","467","1145439","0.0-8.0-0.73","FL","mn35br66m1","1536","864","de","IS05RY26","null","","","","","","","","learning/Slide154.JPG","null","","","","",""
"","html-keyboard-response","468","1146600","0.0-8.0-1.73","FL","mn35br66m1","1536","864","de","IS05RY26","null","","","","learningBlock2","","","","That was a tob.","null","","","","",""
"","html-keyboard-response","469","1147616","0.0-8.0-2.73","FL","mn35br66m1","1536","864","de","IS05RY26","null","","","","learningBlock2","","","","<div style=""font-size:60px;""> </div>","null","FL","learning/Slide154.JPG","That was a tob.","",""
"","image-keyboard-response","470","1147793","0.0-8.0-0.74","FL","mn35br66m1","1536","864","de","IS05RY26","null","","","","","","","","learning/Slide155.JPG","null","","","","",""
"","html-keyboard-response","471","1148967","0.0-8.0-1.74","FL","mn35br66m1","1536","864","de","IS05RY26","null","","","","learningBlock2","","","","That was a dep.","null","","","","",""
"","html-keyboard-response","472","1149979","0.0-8.0-2.74","FL","mn35br66m1","1536","864","de","IS05RY26","null","","","","learningBlock2","","","","<div style=""font-size:60px;""> </div>","null","FL","learning/Slide155.JPG","That was a dep.","",""
"","image-keyboard-response","473","1150156","0.0-8.0-0.75","FL","mn35br66m1","1536","864","de","IS05RY26","null","","","","","","","","learning/Slide156.JPG","null","","","","",""
"","html-keyboard-response","474","1151315","0.0-8.0-1.75","FL","mn35br66m1","1536","864","de","IS05RY26","null","","","","learningBlock2","","","","That was a bim.","null","","","","",""
"","html-keyboard-response","475","1152316","0.0-8.0-2.75","FL","mn35br66m1","1536","864","de","IS05RY26","null","","","","learningBlock2","","","","<div style=""font-size:60px;""> </div>","null","FL","learning/Slide156.JPG","That was a bim.","",""
"","image-keyboard-response","476","1152492","0.0-8.0-0.76","FL","mn35br66m1","1536","864","de","IS05RY26","null","","","","","","","","learning/Slide157.JPG","null","","","","",""
"","html-keyboard-response","477","1153655","0.0-8.0-1.76","FL","mn35br66m1","1536","864","de","IS05RY26","null","","","","learningBlock2","","","","That was a dep.","null","","","","",""
"","html-keyboard-response","478","1154667","0.0-8.0-2.76","FL","mn35br66m1","1536","864","de","IS05RY26","null","","","","learningBlock2","","","","<div style=""font-size:60px;""> </div>","null","FL","learning/Slide157.JPG","That was a dep.","",""
"","image-keyboard-response","479","1154854","0.0-8.0-0.77","FL","mn35br66m1","1536","864","de","IS05RY26","null","","","","","","","","learning/Slide158.JPG","null","","","","",""
"","html-keyboard-response","480","1156021","0.0-8.0-1.77","FL","mn35br66m1","1536","864","de","IS05RY26","null","","","","learningBlock2","","","","That was a tob.","null","","","","",""
"","html-keyboard-response","481","1157035","0.0-8.0-2.77","FL","mn35br66m1","1536","864","de","IS05RY26","null","","","","learningBlock2","","","","<div style=""font-size:60px;""> </div>","null","FL","learning/Slide158.JPG","That was a tob.","",""
"","image-keyboard-response","482","1157212","0.0-8.0-0.78","FL","mn35br66m1","1536","864","de","IS05RY26","null","","","","","","","","learning/Slide159.JPG","null","","","","",""
"","html-keyboard-response","483","1158386","0.0-8.0-1.78","FL","mn35br66m1","1536","864","de","IS05RY26","null","","","","learningBlock2","","","","That was a dep.","null","","","","",""
"","html-keyboard-response","484","1159400","0.0-8.0-2.78","FL","mn35br66m1","1536","864","de","IS05RY26","null","","","","learningBlock2","","","","<div style=""font-size:60px;""> </div>","null","FL","learning/Slide159.JPG","That was a dep.","",""
"","image-keyboard-response","485","1159588","0.0-8.0-0.79","FL","mn35br66m1","1536","864","de","IS05RY26","null","","","","","","","","learning/Slide160.JPG","null","","","","",""
"","html-keyboard-response","486","1160755","0.0-8.0-1.79","FL","mn35br66m1","1536","864","de","IS05RY26","null","","","","learningBlock2","","","","That was a wug.","null","","","","",""
