"success","trial_type","trial_index","time_elapsed","internal_node_id","condition","subject","screen_width","screen_height","language","codeword","rt","responses","url","view_history","test_part","final_height_px","final_width_px","scale_factor","stimulus","key_press","learningType","presentedImage","presentedLabel","button_pressed","response"
"true","fullscreen","0","8108","0.0-0.0","LF","ro2w51u9qx","1280","720","de","ER04AV16","","","","","","","","","","","","","","",""
"","survey-html-form","1","16801","0.0-1.0","LF","ro2w51u9qx","1280","720","de","ER04AV16","8687.619999982417","{""language"":""de""}","","","","","","","","","","","","",""
"","external-html","2","58465","0.0-2.0-0.0","LF","ro2w51u9qx","1280","720","de","ER04AV16","41573.85499984957","","text/information.html","","","","","","","","","","","",""
"","external-html","3","79017","0.0-2.0-1.0","LF","ro2w51u9qx","1280","720","de","ER04AV16","20413.76499994658","","text/consent.html","","","","","","","","","","","",""
"","survey-html-form","4","135369","0.0-2.0-2.0","LF","ro2w51u9qx","1280","720","de","ER04AV16","56350.20500002429","{""codeword_enter"":""ER04AV16""}","","","","","","","","","","","","",""
"","instructions","5","152921","0.0-4.0","LF","ro2w51u9qx","1280","720","de","ER04AV16","NA","","","[{""page_index"":0,""viewing_time"":3166.874999878928},{""page_index"":1,""viewing_time"":12879.829999990761}]","instructions","","","","","","","","","",""
"","resize","6","192409","0.0-5.0","LF","ro2w51u9qx","1280","720","de","ER04AV16","","","","","","","349","2.2158730158730156","","","","","","",""
"","html-keyboard-response","7","193413","0.0-6.0-0.0","LF","ro2w51u9qx","1280","720","de","ER04AV16","null","","","","learningBlock1","","","","This is a tob:","null","","","","",""
"","image-keyboard-response","8","193759","0.0-6.0-1.0","LF","ro2w51u9qx","1280","720","de","ER04AV16","null","","","","","","","","learning/Slide1.JPG","null","","","","",""
"","html-keyboard-response","9","194772","0.0-6.0-2.0","LF","ro2w51u9qx","1280","720","de","ER04AV16","null","","","","learningBlock1","","","","<div style=""font-size:60px;""> </div>","null","LF","learning/Slide1.JPG","This is a tob:","",""
"","html-keyboard-response","10","195776","0.0-6.0-0.1","LF","ro2w51u9qx","1280","720","de","ER04AV16","null","","","","learningBlock1","","","","This is a wug:","null","","","","",""
"","image-keyboard-response","11","196112","0.0-6.0-1.1","LF","ro2w51u9qx","1280","720","de","ER04AV16","null","","","","","","","","learning/Slide2.JPG","null","","","","",""
"","html-keyboard-response","12","197120","0.0-6.0-2.1","LF","ro2w51u9qx","1280","720","de","ER04AV16","null","","","","learningBlock1","","","","<div style=""font-size:60px;""> </div>","null","LF","learning/Slide2.JPG","This is a wug:","",""
"","html-keyboard-response","13","198136","0.0-6.0-0.2","LF","ro2w51u9qx","1280","720","de","ER04AV16","null","","","","learningBlock1","","","","This is a bim:","null","","","","",""
"","image-keyboard-response","14","198473","0.0-6.0-1.2","LF","ro2w51u9qx","1280","720","de","ER04AV16","null","","","","","","","","learning/Slide3.JPG","null","","","","",""
"","html-keyboard-response","15","199488","0.0-6.0-2.2","LF","ro2w51u9qx","1280","720","de","ER04AV16","null","","","","learningBlock1","","","","<div style=""font-size:60px;""> </div>","null","LF","learning/Slide3.JPG","This is a bim:","",""
"","html-keyboard-response","16","200492","0.0-6.0-0.3","LF","ro2w51u9qx","1280","720","de","ER04AV16","null","","","","learningBlock1","","","","This is a dep:","null","","","","",""
"","image-keyboard-response","17","200823","0.0-6.0-1.3","LF","ro2w51u9qx","1280","720","de","ER04AV16","null","","","","","","","","learning/Slide4.JPG","null","","","","",""
"","html-keyboard-response","18","201835","0.0-6.0-2.3","LF","ro2w51u9qx","1280","720","de","ER04AV16","null","","","","learningBlock1","","","","<div style=""font-size:60px;""> </div>","null","LF","learning/Slide4.JPG","This is a dep:","",""
"","html-keyboard-response","19","202837","0.0-6.0-0.4","LF","ro2w51u9qx","1280","720","de","ER04AV16","null","","","","learningBlock1","","","","This is a wug:","null","","","","",""
"","image-keyboard-response","20","203172","0.0-6.0-1.4","LF","ro2w51u9qx","1280","720","de","ER04AV16","null","","","","","","","","learning/Slide5.JPG","null","","","","",""
"","html-keyboard-response","21","204187","0.0-6.0-2.4","LF","ro2w51u9qx","1280","720","de","ER04AV16","null","","","","learningBlock1","","","","<div style=""font-size:60px;""> </div>","null","LF","learning/Slide5.JPG","This is a wug:","",""
"","html-keyboard-response","22","205191","0.0-6.0-0.5","LF","ro2w51u9qx","1280","720","de","ER04AV16","null","","","","learningBlock1","","","","This is a dep:","null","","","","",""
"","image-keyboard-response","23","205523","0.0-6.0-1.5","LF","ro2w51u9qx","1280","720","de","ER04AV16","null","","","","","","","","learning/Slide6.JPG","null","","","","",""
"","html-keyboard-response","24","206534","0.0-6.0-2.5","LF","ro2w51u9qx","1280","720","de","ER04AV16","null","","","","learningBlock1","","","","<div style=""font-size:60px;""> </div>","null","LF","learning/Slide6.JPG","This is a dep:","",""
"","html-keyboard-response","25","207538","0.0-6.0-0.6","LF","ro2w51u9qx","1280","720","de","ER04AV16","null","","","","learningBlock1","","","","This is a wug:","null","","","","",""
"","image-keyboard-response","26","207869","0.0-6.0-1.6","LF","ro2w51u9qx","1280","720","de","ER04AV16","null","","","","","","","","learning/Slide7.JPG","null","","","","",""
"","html-keyboard-response","27","208871","0.0-6.0-2.6","LF","ro2w51u9qx","1280","720","de","ER04AV16","null","","","","learningBlock1","","","","<div style=""font-size:60px;""> </div>","null","LF","learning/Slide7.JPG","This is a wug:","",""
"","html-keyboard-response","28","209880","0.0-6.0-0.7","LF","ro2w51u9qx","1280","720","de","ER04AV16","null","","","","learningBlock1","","","","This is a bim:","null","","","","",""
"","image-keyboard-response","29","210222","0.0-6.0-1.7","LF","ro2w51u9qx","1280","720","de","ER04AV16","null","","","","","","","","learning/Slide8.JPG","null","","","","",""
"","html-keyboard-response","30","211233","0.0-6.0-2.7","LF","ro2w51u9qx","1280","720","de","ER04AV16","null","","","","learningBlock1","","","","<div style=""font-size:60px;""> </div>","null","LF","learning/Slide8.JPG","This is a bim:","",""
"","html-keyboard-response","31","212251","0.0-6.0-0.8","LF","ro2w51u9qx","1280","720","de","ER04AV16","null","","","","learningBlock1","","","","This is a wug:","null","","","","",""
"","image-keyboard-response","32","212593","0.0-6.0-1.8","LF","ro2w51u9qx","1280","720","de","ER04AV16","null","","","","","","","","learning/Slide9.JPG","null","","","","",""
"","html-keyboard-response","33","213598","0.0-6.0-2.8","LF","ro2w51u9qx","1280","720","de","ER04AV16","null","","","","learningBlock1","","","","<div style=""font-size:60px;""> </div>","null","LF","learning/Slide9.JPG","This is a wug:","",""
"","html-keyboard-response","34","214618","0.0-6.0-0.9","LF","ro2w51u9qx","1280","720","de","ER04AV16","null","","","","learningBlock1","","","","This is a dep:","null","","","","",""
"","image-keyboard-response","35","214954","0.0-6.0-1.9","LF","ro2w51u9qx","1280","720","de","ER04AV16","null","","","","","","","","learning/Slide10.JPG","null","","","","",""
"","html-keyboard-response","36","215965","0.0-6.0-2.9","LF","ro2w51u9qx","1280","720","de","ER04AV16","null","","","","learningBlock1","","","","<div style=""font-size:60px;""> </div>","null","LF","learning/Slide10.JPG","This is a dep:","",""
"","html-keyboard-response","37","216981","0.0-6.0-0.10","LF","ro2w51u9qx","1280","720","de","ER04AV16","null","","","","learningBlock1","","","","This is a tob:","null","","","","",""
"","image-keyboard-response","38","217320","0.0-6.0-1.10","LF","ro2w51u9qx","1280","720","de","ER04AV16","null","","","","","","","","learning/Slide11.JPG","null","","","","",""
"","html-keyboard-response","39","218326","0.0-6.0-2.10","LF","ro2w51u9qx","1280","720","de","ER04AV16","null","","","","learningBlock1","","","","<div style=""font-size:60px;""> </div>","null","LF","learning/Slide11.JPG","This is a tob:","",""
"","html-keyboard-response","40","219329","0.0-6.0-0.11","LF","ro2w51u9qx","1280","720","de","ER04AV16","null","","","","learningBlock1","","","","This is a dep:","null","","","","",""
"","image-keyboard-response","41","219675","0.0-6.0-1.11","LF","ro2w51u9qx","1280","720","de","ER04AV16","null","","","","","","","","learning/Slide12.JPG","null","","","","",""
"","html-keyboard-response","42","220682","0.0-6.0-2.11","LF","ro2w51u9qx","1280","720","de","ER04AV16","null","","","","learningBlock1","","","","<div style=""font-size:60px;""> </div>","null","LF","learning/Slide12.JPG","This is a dep:","",""
"","html-keyboard-response","43","221696","0.0-6.0-0.12","LF","ro2w51u9qx","1280","720","de","ER04AV16","null","","","","learningBlock1","","","","This is a bim:","null","","","","",""
"","image-keyboard-response","44","222038","0.0-6.0-1.12","LF","ro2w51u9qx","1280","720","de","ER04AV16","null","","","","","","","","learning/Slide13.JPG","null","","","","",""
"","html-keyboard-response","45","223054","0.0-6.0-2.12","LF","ro2w51u9qx","1280","720","de","ER04AV16","null","","","","learningBlock1","","","","<div style=""font-size:60px;""> </div>","null","LF","learning/Slide13.JPG","This is a bim:","",""
"","html-keyboard-response","46","224058","0.0-6.0-0.13","LF","ro2w51u9qx","1280","720","de","ER04AV16","null","","","","learningBlock1","","","","This is a wug:","null","","","","",""
"","image-keyboard-response","47","224402","0.0-6.0-1.13","LF","ro2w51u9qx","1280","720","de","ER04AV16","null","","","","","","","","learning/Slide14.JPG","null","","","","",""
"","html-keyboard-response","48","225420","0.0-6.0-2.13","LF","ro2w51u9qx","1280","720","de","ER04AV16","null","","","","learningBlock1","","","","<div style=""font-size:60px;""> </div>","null","LF","learning/Slide14.JPG","This is a wug:","",""
"","html-keyboard-response","49","226425","0.0-6.0-0.14","LF","ro2w51u9qx","1280","720","de","ER04AV16","null","","","","learningBlock1","","","","This is a tob:","null","","","","",""
"","image-keyboard-response","50","226770","0.0-6.0-1.14","LF","ro2w51u9qx","1280","720","de","ER04AV16","null","","","","","","","","learning/Slide15.JPG","null","","","","",""
"","html-keyboard-response","51","227789","0.0-6.0-2.14","LF","ro2w51u9qx","1280","720","de","ER04AV16","null","","","","learningBlock1","","","","<div style=""font-size:60px;""> </div>","null","LF","learning/Slide15.JPG","This is a tob:","",""
"","html-keyboard-response","52","228792","0.0-6.0-0.15","LF","ro2w51u9qx","1280","720","de","ER04AV16","null","","","","learningBlock1","","","","This is a dep:","null","","","","",""
"","image-keyboard-response","53","229134","0.0-6.0-1.15","LF","ro2w51u9qx","1280","720","de","ER04AV16","null","","","","","","","","learning/Slide16.JPG","null","","","","",""
"","html-keyboard-response","54","230147","0.0-6.0-2.15","LF","ro2w51u9qx","1280","720","de","ER04AV16","null","","","","learningBlock1","","","","<div style=""font-size:60px;""> </div>","null","LF","learning/Slide16.JPG","This is a dep:","",""
"","html-keyboard-response","55","231152","0.0-6.0-0.16","LF","ro2w51u9qx","1280","720","de","ER04AV16","null","","","","learningBlock1","","","","This is a bim:","null","","","","",""
"","image-keyboard-response","56","231501","0.0-6.0-1.16","LF","ro2w51u9qx","1280","720","de","ER04AV16","null","","","","","","","","learning/Slide17.JPG","null","","","","",""
"","html-keyboard-response","57","232512","0.0-6.0-2.16","LF","ro2w51u9qx","1280","720","de","ER04AV16","null","","","","learningBlock1","","","","<div style=""font-size:60px;""> </div>","null","LF","learning/Slide17.JPG","This is a bim:","",""
"","html-keyboard-response","58","233517","0.0-6.0-0.17","LF","ro2w51u9qx","1280","720","de","ER04AV16","null","","","","learningBlock1","","","","This is a tob:","null","","","","",""
"","image-keyboard-response","59","233850","0.0-6.0-1.17","LF","ro2w51u9qx","1280","720","de","ER04AV16","null","","","","","","","","learning/Slide18.JPG","null","","","","",""
"","html-keyboard-response","60","234866","0.0-6.0-2.17","LF","ro2w51u9qx","1280","720","de","ER04AV16","null","","","","learningBlock1","","","","<div style=""font-size:60px;""> </div>","null","LF","learning/Slide18.JPG","This is a tob:","",""
"","html-keyboard-response","61","235869","0.0-6.0-0.18","LF","ro2w51u9qx","1280","720","de","ER04AV16","null","","","","learningBlock1","","","","This is a wug:","null","","","","",""
"","image-keyboard-response","62","236215","0.0-6.0-1.18","LF","ro2w51u9qx","1280","720","de","ER04AV16","null","","","","","","","","learning/Slide19.JPG","null","","","","",""
"","html-keyboard-response","63","237229","0.0-6.0-2.18","LF","ro2w51u9qx","1280","720","de","ER04AV16","null","","","","learningBlock1","","","","<div style=""font-size:60px;""> </div>","null","LF","learning/Slide19.JPG","This is a wug:","",""
"","html-keyboard-response","64","238233","0.0-6.0-0.19","LF","ro2w51u9qx","1280","720","de","ER04AV16","null","","","","learningBlock1","","","","This is a bim:","null","","","","",""
"","image-keyboard-response","65","238584","0.0-6.0-1.19","LF","ro2w51u9qx","1280","720","de","ER04AV16","null","","","","","","","","learning/Slide20.JPG","null","","","","",""
"","html-keyboard-response","66","239596","0.0-6.0-2.19","LF","ro2w51u9qx","1280","720","de","ER04AV16","null","","","","learningBlock1","","","","<div style=""font-size:60px;""> </div>","null","LF","learning/Slide20.JPG","This is a bim:","",""
"","html-keyboard-response","67","240607","0.0-6.0-0.20","LF","ro2w51u9qx","1280","720","de","ER04AV16","null","","","","learningBlock1","","","","This is a dep:","null","","","","",""
"","image-keyboard-response","68","240948","0.0-6.0-1.20","LF","ro2w51u9qx","1280","720","de","ER04AV16","null","","","","","","","","learning/Slide21.JPG","null","","","","",""
"","html-keyboard-response","69","241960","0.0-6.0-2.20","LF","ro2w51u9qx","1280","720","de","ER04AV16","null","","","","learningBlock1","","","","<div style=""font-size:60px;""> </div>","null","LF","learning/Slide21.JPG","This is a dep:","",""
"","html-keyboard-response","70","242978","0.0-6.0-0.21","LF","ro2w51u9qx","1280","720","de","ER04AV16","null","","","","learningBlock1","","","","This is a bim:","null","","","","",""
"","image-keyboard-response","71","243314","0.0-6.0-1.21","LF","ro2w51u9qx","1280","720","de","ER04AV16","null","","","","","","","","learning/Slide22.JPG","null","","","","",""
"","html-keyboard-response","72","244319","0.0-6.0-2.21","LF","ro2w51u9qx","1280","720","de","ER04AV16","null","","","","learningBlock1","","","","<div style=""font-size:60px;""> </div>","null","LF","learning/Slide22.JPG","This is a bim:","",""
"","html-keyboard-response","73","245322","0.0-6.0-0.22","LF","ro2w51u9qx","1280","720","de","ER04AV16","null","","","","learningBlock1","","","","This is a tob:","null","","","","",""
"","image-keyboard-response","74","245669","0.0-6.0-1.22","LF","ro2w51u9qx","1280","720","de","ER04AV16","null","","","","","","","","learning/Slide23.JPG","null","","","","",""
"","html-keyboard-response","75","246673","0.0-6.0-2.22","LF","ro2w51u9qx","1280","720","de","ER04AV16","null","","","","learningBlock1","","","","<div style=""font-size:60px;""> </div>","null","LF","learning/Slide23.JPG","This is a tob:","",""
"","html-keyboard-response","76","247691","0.0-6.0-0.23","LF","ro2w51u9qx","1280","720","de","ER04AV16","null","","","","learningBlock1","","","","This is a wug:","null","","","","",""
"","image-keyboard-response","77","248029","0.0-6.0-1.23","LF","ro2w51u9qx","1280","720","de","ER04AV16","null","","","","","","","","learning/Slide24.JPG","null","","","","",""
"","html-keyboard-response","78","249038","0.0-6.0-2.23","LF","ro2w51u9qx","1280","720","de","ER04AV16","null","","","","learningBlock1","","","","<div style=""font-size:60px;""> </div>","null","LF","learning/Slide24.JPG","This is a wug:","",""
"","html-keyboard-response","79","250041","0.0-6.0-0.24","LF","ro2w51u9qx","1280","720","de","ER04AV16","null","","","","learningBlock1","","","","This is a dep:","null","","","","",""
"","image-keyboard-response","80","250379","0.0-6.0-1.24","LF","ro2w51u9qx","1280","720","de","ER04AV16","null","","","","","","","","learning/Slide25.JPG","null","","","","",""
"","html-keyboard-response","81","251391","0.0-6.0-2.24","LF","ro2w51u9qx","1280","720","de","ER04AV16","null","","","","learningBlock1","","","","<div style=""font-size:60px;""> </div>","null","LF","learning/Slide25.JPG","This is a dep:","",""
"","html-keyboard-response","82","252400","0.0-6.0-0.25","LF","ro2w51u9qx","1280","720","de","ER04AV16","null","","","","learningBlock1","","","","This is a wug:","null","","","","",""
"","image-keyboard-response","83","252745","0.0-6.0-1.25","LF","ro2w51u9qx","1280","720","de","ER04AV16","null","","","","","","","","learning/Slide26.JPG","null","","","","",""
"","html-keyboard-response","84","253751","0.0-6.0-2.25","LF","ro2w51u9qx","1280","720","de","ER04AV16","null","","","","learningBlock1","","","","<div style=""font-size:60px;""> </div>","null","LF","learning/Slide26.JPG","This is a wug:","",""
"","html-keyboard-response","85","254769","0.0-6.0-0.26","LF","ro2w51u9qx","1280","720","de","ER04AV16","null","","","","learningBlock1","","","","This is a bim:","null","","","","",""
"","image-keyboard-response","86","255111","0.0-6.0-1.26","LF","ro2w51u9qx","1280","720","de","ER04AV16","null","","","","","","","","learning/Slide27.JPG","null","","","","",""
"","html-keyboard-response","87","256115","0.0-6.0-2.26","LF","ro2w51u9qx","1280","720","de","ER04AV16","null","","","","learningBlock1","","","","<div style=""font-size:60px;""> </div>","null","LF","learning/Slide27.JPG","This is a bim:","",""
"","html-keyboard-response","88","257126","0.0-6.0-0.27","LF","ro2w51u9qx","1280","720","de","ER04AV16","null","","","","learningBlock1","","","","This is a dep:","null","","","","",""
"","image-keyboard-response","89","257460","0.0-6.0-1.27","LF","ro2w51u9qx","1280","720","de","ER04AV16","null","","","","","","","","learning/Slide28.JPG","null","","","","",""
"","html-keyboard-response","90","258467","0.0-6.0-2.27","LF","ro2w51u9qx","1280","720","de","ER04AV16","null","","","","learningBlock1","","","","<div style=""font-size:60px;""> </div>","null","LF","learning/Slide28.JPG","This is a dep:","",""
"","html-keyboard-response","91","259473","0.0-6.0-0.28","LF","ro2w51u9qx","1280","720","de","ER04AV16","null","","","","learningBlock1","","","","This is a tob:","null","","","","",""
"","image-keyboard-response","92","259827","0.0-6.0-1.28","LF","ro2w51u9qx","1280","720","de","ER04AV16","null","","","","","","","","learning/Slide29.JPG","null","","","","",""
"","html-keyboard-response","93","260837","0.0-6.0-2.28","LF","ro2w51u9qx","1280","720","de","ER04AV16","null","","","","learningBlock1","","","","<div style=""font-size:60px;""> </div>","null","LF","learning/Slide29.JPG","This is a tob:","",""
"","html-keyboard-response","94","261853","0.0-6.0-0.29","LF","ro2w51u9qx","1280","720","de","ER04AV16","null","","","","learningBlock1","","","","This is a dep:","null","","","","",""
"","image-keyboard-response","95","262191","0.0-6.0-1.29","LF","ro2w51u9qx","1280","720","de","ER04AV16","null","","","","","","","","learning/Slide30.JPG","null","","","","",""
"","html-keyboard-response","96","263194","0.0-6.0-2.29","LF","ro2w51u9qx","1280","720","de","ER04AV16","null","","","","learningBlock1","","","","<div style=""font-size:60px;""> </div>","null","LF","learning/Slide30.JPG","This is a dep:","",""
"","html-keyboard-response","97","264204","0.0-6.0-0.30","LF","ro2w51u9qx","1280","720","de","ER04AV16","null","","","","learningBlock1","","","","This is a wug:","null","","","","",""
"","image-keyboard-response","98","264542","0.0-6.0-1.30","LF","ro2w51u9qx","1280","720","de","ER04AV16","null","","","","","","","","learning/Slide31.JPG","null","","","","",""
"","html-keyboard-response","99","265557","0.0-6.0-2.30","LF","ro2w51u9qx","1280","720","de","ER04AV16","null","","","","learningBlock1","","","","<div style=""font-size:60px;""> </div>","null","LF","learning/Slide31.JPG","This is a wug:","",""
"","html-keyboard-response","100","266567","0.0-6.0-0.31","LF","ro2w51u9qx","1280","720","de","ER04AV16","null","","","","learningBlock1","","","","This is a tob:","null","","","","",""
"","image-keyboard-response","101","266908","0.0-6.0-1.31","LF","ro2w51u9qx","1280","720","de","ER04AV16","null","","","","","","","","learning/Slide32.JPG","null","","","","",""
"","html-keyboard-response","102","267922","0.0-6.0-2.31","LF","ro2w51u9qx","1280","720","de","ER04AV16","null","","","","learningBlock1","","","","<div style=""font-size:60px;""> </div>","null","LF","learning/Slide32.JPG","This is a tob:","",""
"","html-keyboard-response","103","268925","0.0-6.0-0.32","LF","ro2w51u9qx","1280","720","de","ER04AV16","null","","","","learningBlock1","","","","This is a bim:","null","","","","",""
"","image-keyboard-response","104","269274","0.0-6.0-1.32","LF","ro2w51u9qx","1280","720","de","ER04AV16","null","","","","","","","","learning/Slide33.JPG","null","","","","",""
"","html-keyboard-response","105","270284","0.0-6.0-2.32","LF","ro2w51u9qx","1280","720","de","ER04AV16","null","","","","learningBlock1","","","","<div style=""font-size:60px;""> </div>","null","LF","learning/Slide33.JPG","This is a bim:","",""
"","html-keyboard-response","106","271291","0.0-6.0-0.33","LF","ro2w51u9qx","1280","720","de","ER04AV16","null","","","","learningBlock1","","","","This is a tob:","null","","","","",""
"","image-keyboard-response","107","271624","0.0-6.0-1.33","LF","ro2w51u9qx","1280","720","de","ER04AV16","null","","","","","","","","learning/Slide34.JPG","null","","","","",""
"","html-keyboard-response","108","272636","0.0-6.0-2.33","LF","ro2w51u9qx","1280","720","de","ER04AV16","null","","","","learningBlock1","","","","<div style=""font-size:60px;""> </div>","null","LF","learning/Slide34.JPG","This is a tob:","",""
"","html-keyboard-response","109","273652","0.0-6.0-0.34","LF","ro2w51u9qx","1280","720","de","ER04AV16","null","","","","learningBlock1","","","","This is a bim:","null","","","","",""
"","image-keyboard-response","110","273995","0.0-6.0-1.34","LF","ro2w51u9qx","1280","720","de","ER04AV16","null","","","","","","","","learning/Slide35.JPG","null","","","","",""
"","html-keyboard-response","111","274999","0.0-6.0-2.34","LF","ro2w51u9qx","1280","720","de","ER04AV16","null","","","","learningBlock1","","","","<div style=""font-size:60px;""> </div>","null","LF","learning/Slide35.JPG","This is a bim:","",""
"","html-keyboard-response","112","276004","0.0-6.0-0.35","LF","ro2w51u9qx","1280","720","de","ER04AV16","null","","","","learningBlock1","","","","This is a dep:","null","","","","",""
"","image-keyboard-response","113","276340","0.0-6.0-1.35","LF","ro2w51u9qx","1280","720","de","ER04AV16","null","","","","","","","","learning/Slide36.JPG","null","","","","",""
"","html-keyboard-response","114","277353","0.0-6.0-2.35","LF","ro2w51u9qx","1280","720","de","ER04AV16","null","","","","learningBlock1","","","","<div style=""font-size:60px;""> </div>","null","LF","learning/Slide36.JPG","This is a dep:","",""
"","html-keyboard-response","115","278370","0.0-6.0-0.36","LF","ro2w51u9qx","1280","720","de","ER04AV16","null","","","","learningBlock1","","","","This is a tob:","null","","","","",""
"","image-keyboard-response","116","278711","0.0-6.0-1.36","LF","ro2w51u9qx","1280","720","de","ER04AV16","null","","","","","","","","learning/Slide37.JPG","null","","","","",""
"","html-keyboard-response","117","279723","0.0-6.0-2.36","LF","ro2w51u9qx","1280","720","de","ER04AV16","null","","","","learningBlock1","","","","<div style=""font-size:60px;""> </div>","null","LF","learning/Slide37.JPG","This is a tob:","",""
"","html-keyboard-response","118","280730","0.0-6.0-0.37","LF","ro2w51u9qx","1280","720","de","ER04AV16","null","","","","learningBlock1","","","","This is a wug:","null","","","","",""
"","image-keyboard-response","119","281074","0.0-6.0-1.37","LF","ro2w51u9qx","1280","720","de","ER04AV16","null","","","","","","","","learning/Slide38.JPG","null","","","","",""
"","html-keyboard-response","120","282087","0.0-6.0-2.37","LF","ro2w51u9qx","1280","720","de","ER04AV16","null","","","","learningBlock1","","","","<div style=""font-size:60px;""> </div>","null","LF","learning/Slide38.JPG","This is a wug:","",""
"","html-keyboard-response","121","283095","0.0-6.0-0.38","LF","ro2w51u9qx","1280","720","de","ER04AV16","null","","","","learningBlock1","","","","This is a bim:","null","","","","",""
"","image-keyboard-response","122","283438","0.0-6.0-1.38","LF","ro2w51u9qx","1280","720","de","ER04AV16","null","","","","","","","","learning/Slide39.JPG","null","","","","",""
"","html-keyboard-response","123","284443","0.0-6.0-2.38","LF","ro2w51u9qx","1280","720","de","ER04AV16","null","","","","learningBlock1","","","","<div style=""font-size:60px;""> </div>","null","LF","learning/Slide39.JPG","This is a bim:","",""
"","html-keyboard-response","124","285447","0.0-6.0-0.39","LF","ro2w51u9qx","1280","720","de","ER04AV16","null","","","","learningBlock1","","","","This is a tob:","null","","","","",""
"","image-keyboard-response","125","285787","0.0-6.0-1.39","LF","ro2w51u9qx","1280","720","de","ER04AV16","null","","","","","","","","learning/Slide40.JPG","null","","","","",""
"","html-keyboard-response","126","286791","0.0-6.0-2.39","LF","ro2w51u9qx","1280","720","de","ER04AV16","null","","","","learningBlock1","","","","<div style=""font-size:60px;""> </div>","null","LF","learning/Slide40.JPG","This is a tob:","",""
"","html-keyboard-response","127","287795","0.0-6.0-0.40","LF","ro2w51u9qx","1280","720","de","ER04AV16","null","","","","learningBlock1","","","","This is a bim:","null","","","","",""
"","image-keyboard-response","128","288137","0.0-6.0-1.40","LF","ro2w51u9qx","1280","720","de","ER04AV16","null","","","","","","","","learning/Slide41.JPG","null","","","","",""
"","html-keyboard-response","129","289141","0.0-6.0-2.40","LF","ro2w51u9qx","1280","720","de","ER04AV16","null","","","","learningBlock1","","","","<div style=""font-size:60px;""> </div>","null","LF","learning/Slide41.JPG","This is a bim:","",""
"","html-keyboard-response","130","290145","0.0-6.0-0.41","LF","ro2w51u9qx","1280","720","de","ER04AV16","null","","","","learningBlock1","","","","This is a dep:","null","","","","",""
"","image-keyboard-response","131","290487","0.0-6.0-1.41","LF","ro2w51u9qx","1280","720","de","ER04AV16","null","","","","","","","","learning/Slide42.JPG","null","","","","",""
"","html-keyboard-response","132","291491","0.0-6.0-2.41","LF","ro2w51u9qx","1280","720","de","ER04AV16","null","","","","learningBlock1","","","","<div style=""font-size:60px;""> </div>","null","LF","learning/Slide42.JPG","This is a dep:","",""
"","html-keyboard-response","133","292506","0.0-6.0-0.42","LF","ro2w51u9qx","1280","720","de","ER04AV16","null","","","","learningBlock1","","","","This is a wug:","null","","","","",""
"","image-keyboard-response","134","292852","0.0-6.0-1.42","LF","ro2w51u9qx","1280","720","de","ER04AV16","null","","","","","","","","learning/Slide43.JPG","null","","","","",""
"","html-keyboard-response","135","293860","0.0-6.0-2.42","LF","ro2w51u9qx","1280","720","de","ER04AV16","null","","","","learningBlock1","","","","<div style=""font-size:60px;""> </div>","null","LF","learning/Slide43.JPG","This is a wug:","",""
"","html-keyboard-response","136","294872","0.0-6.0-0.43","LF","ro2w51u9qx","1280","720","de","ER04AV16","null","","","","learningBlock1","","","","This is a bim:","null","","","","",""
"","image-keyboard-response","137","295218","0.0-6.0-1.43","LF","ro2w51u9qx","1280","720","de","ER04AV16","null","","","","","","","","learning/Slide44.JPG","null","","","","",""
"","html-keyboard-response","138","296235","0.0-6.0-2.43","LF","ro2w51u9qx","1280","720","de","ER04AV16","null","","","","learningBlock1","","","","<div style=""font-size:60px;""> </div>","null","LF","learning/Slide44.JPG","This is a bim:","",""
"","html-keyboard-response","139","297249","0.0-6.0-0.44","LF","ro2w51u9qx","1280","720","de","ER04AV16","null","","","","learningBlock1","","","","This is a wug:","null","","","","",""
"","image-keyboard-response","140","297590","0.0-6.0-1.44","LF","ro2w51u9qx","1280","720","de","ER04AV16","null","","","","","","","","learning/Slide45.JPG","null","","","","",""
"","html-keyboard-response","141","298600","0.0-6.0-2.44","LF","ro2w51u9qx","1280","720","de","ER04AV16","null","","","","learningBlock1","","","","<div style=""font-size:60px;""> </div>","null","LF","learning/Slide45.JPG","This is a wug:","",""
"","html-keyboard-response","142","299615","0.0-6.0-0.45","LF","ro2w51u9qx","1280","720","de","ER04AV16","null","","","","learningBlock1","","","","This is a dep:","null","","","","",""
"","image-keyboard-response","143","299951","0.0-6.0-1.45","LF","ro2w51u9qx","1280","720","de","ER04AV16","null","","","","","","","","learning/Slide46.JPG","null","","","","",""
"","html-keyboard-response","144","300962","0.0-6.0-2.45","LF","ro2w51u9qx","1280","720","de","ER04AV16","null","","","","learningBlock1","","","","<div style=""font-size:60px;""> </div>","null","LF","learning/Slide46.JPG","This is a dep:","",""
"","html-keyboard-response","145","301978","0.0-6.0-0.46","LF","ro2w51u9qx","1280","720","de","ER04AV16","null","","","","learningBlock1","","","","This is a tob:","null","","","","",""
"","image-keyboard-response","146","302317","0.0-6.0-1.46","LF","ro2w51u9qx","1280","720","de","ER04AV16","null","","","","","","","","learning/Slide47.JPG","null","","","","",""
"","html-keyboard-response","147","303329","0.0-6.0-2.46","LF","ro2w51u9qx","1280","720","de","ER04AV16","null","","","","learningBlock1","","","","<div style=""font-size:60px;""> </div>","null","LF","learning/Slide47.JPG","This is a tob:","",""
"","html-keyboard-response","148","304347","0.0-6.0-0.47","LF","ro2w51u9qx","1280","720","de","ER04AV16","null","","","","learningBlock1","","","","This is a bim:","null","","","","",""
"","image-keyboard-response","149","304688","0.0-6.0-1.47","LF","ro2w51u9qx","1280","720","de","ER04AV16","null","","","","","","","","learning/Slide48.JPG","null","","","","",""
"","html-keyboard-response","150","305701","0.0-6.0-2.47","LF","ro2w51u9qx","1280","720","de","ER04AV16","null","","","","learningBlock1","","","","<div style=""font-size:60px;""> </div>","null","LF","learning/Slide48.JPG","This is a bim:","",""
"","html-keyboard-response","151","306710","0.0-6.0-0.48","LF","ro2w51u9qx","1280","720","de","ER04AV16","null","","","","learningBlock1","","","","This is a dep:","null","","","","",""
"","image-keyboard-response","152","307054","0.0-6.0-1.48","LF","ro2w51u9qx","1280","720","de","ER04AV16","null","","","","","","","","learning/Slide49.JPG","null","","","","",""
"","html-keyboard-response","153","308058","0.0-6.0-2.48","LF","ro2w51u9qx","1280","720","de","ER04AV16","null","","","","learningBlock1","","","","<div style=""font-size:60px;""> </div>","null","LF","learning/Slide49.JPG","This is a dep:","",""
"","html-keyboard-response","154","309069","0.0-6.0-0.49","LF","ro2w51u9qx","1280","720","de","ER04AV16","null","","","","learningBlock1","","","","This is a tob:","null","","","","",""
"","image-keyboard-response","155","309415","0.0-6.0-1.49","LF","ro2w51u9qx","1280","720","de","ER04AV16","null","","","","","","","","learning/Slide50.JPG","null","","","","",""
"","html-keyboard-response","156","310431","0.0-6.0-2.49","LF","ro2w51u9qx","1280","720","de","ER04AV16","null","","","","learningBlock1","","","","<div style=""font-size:60px;""> </div>","null","LF","learning/Slide50.JPG","This is a tob:","",""
"","html-keyboard-response","157","311441","0.0-6.0-0.50","LF","ro2w51u9qx","1280","720","de","ER04AV16","null","","","","learningBlock1","","","","This is a bim:","null","","","","",""
"","image-keyboard-response","158","311783","0.0-6.0-1.50","LF","ro2w51u9qx","1280","720","de","ER04AV16","null","","","","","","","","learning/Slide51.JPG","null","","","","",""
"","html-keyboard-response","159","312791","0.0-6.0-2.50","LF","ro2w51u9qx","1280","720","de","ER04AV16","null","","","","learningBlock1","","","","<div style=""font-size:60px;""> </div>","null","LF","learning/Slide51.JPG","This is a bim:","",""
"","html-keyboard-response","160","313805","0.0-6.0-0.51","LF","ro2w51u9qx","1280","720","de","ER04AV16","null","","","","learningBlock1","","","","This is a wug:","null","","","","",""
"","image-keyboard-response","161","314134","0.0-6.0-1.51","LF","ro2w51u9qx","1280","720","de","ER04AV16","null","","","","","","","","learning/Slide52.JPG","null","","","","",""
"","html-keyboard-response","162","315150","0.0-6.0-2.51","LF","ro2w51u9qx","1280","720","de","ER04AV16","null","","","","learningBlock1","","","","<div style=""font-size:60px;""> </div>","null","LF","learning/Slide52.JPG","This is a wug:","",""
"","html-keyboard-response","163","316153","0.0-6.0-0.52","LF","ro2w51u9qx","1280","720","de","ER04AV16","null","","","","learningBlock1","","","","This is a tob:","null","","","","",""
"","image-keyboard-response","164","316497","0.0-6.0-1.52","LF","ro2w51u9qx","1280","720","de","ER04AV16","null","","","","","","","","learning/Slide53.JPG","null","","","","",""
"","html-keyboard-response","165","317501","0.0-6.0-2.52","LF","ro2w51u9qx","1280","720","de","ER04AV16","null","","","","learningBlock1","","","","<div style=""font-size:60px;""> </div>","null","LF","learning/Slide53.JPG","This is a tob:","",""
"","html-keyboard-response","166","318521","0.0-6.0-0.53","LF","ro2w51u9qx","1280","720","de","ER04AV16","null","","","","learningBlock1","","","","This is a dep:","null","","","","",""
"","image-keyboard-response","167","318862","0.0-6.0-1.53","LF","ro2w51u9qx","1280","720","de","ER04AV16","null","","","","","","","","learning/Slide54.JPG","null","","","","",""
"","html-keyboard-response","168","319868","0.0-6.0-2.53","LF","ro2w51u9qx","1280","720","de","ER04AV16","null","","","","learningBlock1","","","","<div style=""font-size:60px;""> </div>","null","LF","learning/Slide54.JPG","This is a dep:","",""
"","html-keyboard-response","169","320882","0.0-6.0-0.54","LF","ro2w51u9qx","1280","720","de","ER04AV16","null","","","","learningBlock1","","","","This is a bim:","null","","","","",""
"","image-keyboard-response","170","321228","0.0-6.0-1.54","LF","ro2w51u9qx","1280","720","de","ER04AV16","null","","","","","","","","learning/Slide55.JPG","null","","","","",""
"","html-keyboard-response","171","322244","0.0-6.0-2.54","LF","ro2w51u9qx","1280","720","de","ER04AV16","null","","","","learningBlock1","","","","<div style=""font-size:60px;""> </div>","null","LF","learning/Slide55.JPG","This is a bim:","",""
"","html-keyboard-response","172","323247","0.0-6.0-0.55","LF","ro2w51u9qx","1280","720","de","ER04AV16","null","","","","learningBlock1","","","","This is a tob:","null","","","","",""
"","image-keyboard-response","173","323594","0.0-6.0-1.55","LF","ro2w51u9qx","1280","720","de","ER04AV16","null","","","","","","","","learning/Slide56.JPG","null","","","","",""
"","html-keyboard-response","174","324607","0.0-6.0-2.55","LF","ro2w51u9qx","1280","720","de","ER04AV16","null","","","","learningBlock1","","","","<div style=""font-size:60px;""> </div>","null","LF","learning/Slide56.JPG","This is a tob:","",""
"","html-keyboard-response","175","325613","0.0-6.0-0.56","LF","ro2w51u9qx","1280","720","de","ER04AV16","null","","","","learningBlock1","","","","This is a dep:","null","","","","",""
"","image-keyboard-response","176","325961","0.0-6.0-1.56","LF","ro2w51u9qx","1280","720","de","ER04AV16","null","","","","","","","","learning/Slide57.JPG","null","","","","",""
"","html-keyboard-response","177","326971","0.0-6.0-2.56","LF","ro2w51u9qx","1280","720","de","ER04AV16","null","","","","learningBlock1","","","","<div style=""font-size:60px;""> </div>","null","LF","learning/Slide57.JPG","This is a dep:","",""
"","html-keyboard-response","178","327975","0.0-6.0-0.57","LF","ro2w51u9qx","1280","720","de","ER04AV16","null","","","","learningBlock1","","","","This is a wug:","null","","","","",""
"","image-keyboard-response","179","328311","0.0-6.0-1.57","LF","ro2w51u9qx","1280","720","de","ER04AV16","null","","","","","","","","learning/Slide58.JPG","null","","","","",""
"","html-keyboard-response","180","329321","0.0-6.0-2.57","LF","ro2w51u9qx","1280","720","de","ER04AV16","null","","","","learningBlock1","","","","<div style=""font-size:60px;""> </div>","null","LF","learning/Slide58.JPG","This is a wug:","",""
"","html-keyboard-response","181","330337","0.0-6.0-0.58","LF","ro2w51u9qx","1280","720","de","ER04AV16","null","","","","learningBlock1","","","","This is a dep:","null","","","","",""
"","image-keyboard-response","182","330672","0.0-6.0-1.58","LF","ro2w51u9qx","1280","720","de","ER04AV16","null","","","","","","","","learning/Slide59.JPG","null","","","","",""
"","html-keyboard-response","183","331691","0.0-6.0-2.58","LF","ro2w51u9qx","1280","720","de","ER04AV16","null","","","","learningBlock1","","","","<div style=""font-size:60px;""> </div>","null","LF","learning/Slide59.JPG","This is a dep:","",""
"","html-keyboard-response","184","332704","0.0-6.0-0.59","LF","ro2w51u9qx","1280","720","de","ER04AV16","null","","","","learningBlock1","","","","This is a wug:","null","","","","",""
"","image-keyboard-response","185","333041","0.0-6.0-1.59","LF","ro2w51u9qx","1280","720","de","ER04AV16","null","","","","","","","","learning/Slide60.JPG","null","","","","",""
"","html-keyboard-response","186","334057","0.0-6.0-2.59","LF","ro2w51u9qx","1280","720","de","ER04AV16","null","","","","learningBlock1","","","","<div style=""font-size:60px;""> </div>","null","LF","learning/Slide60.JPG","This is a wug:","",""
"","html-keyboard-response","187","335069","0.0-6.0-0.60","LF","ro2w51u9qx","1280","720","de","ER04AV16","null","","","","learningBlock1","","","","This is a bim:","null","","","","",""
"","image-keyboard-response","188","335409","0.0-6.0-1.60","LF","ro2w51u9qx","1280","720","de","ER04AV16","null","","","","","","","","learning/Slide61.JPG","null","","","","",""
"","html-keyboard-response","189","336415","0.0-6.0-2.60","LF","ro2w51u9qx","1280","720","de","ER04AV16","null","","","","learningBlock1","","","","<div style=""font-size:60px;""> </div>","null","LF","learning/Slide61.JPG","This is a bim:","",""
"","html-keyboard-response","190","337419","0.0-6.0-0.61","LF","ro2w51u9qx","1280","720","de","ER04AV16","null","","","","learningBlock1","","","","This is a dep:","null","","","","",""
"","image-keyboard-response","191","337759","0.0-6.0-1.61","LF","ro2w51u9qx","1280","720","de","ER04AV16","null","","","","","","","","learning/Slide62.JPG","null","","","","",""
"","html-keyboard-response","192","338770","0.0-6.0-2.61","LF","ro2w51u9qx","1280","720","de","ER04AV16","null","","","","learningBlock1","","","","<div style=""font-size:60px;""> </div>","null","LF","learning/Slide62.JPG","This is a dep:","",""
"","html-keyboard-response","193","339788","0.0-6.0-0.62","LF","ro2w51u9qx","1280","720","de","ER04AV16","null","","","","learningBlock1","","","","This is a bim:","null","","","","",""
"","image-keyboard-response","194","340125","0.0-6.0-1.62","LF","ro2w51u9qx","1280","720","de","ER04AV16","null","","","","","","","","learning/Slide63.JPG","null","","","","",""
"","html-keyboard-response","195","341135","0.0-6.0-2.62","LF","ro2w51u9qx","1280","720","de","ER04AV16","null","","","","learningBlock1","","","","<div style=""font-size:60px;""> </div>","null","LF","learning/Slide63.JPG","This is a bim:","",""
"","html-keyboard-response","196","342149","0.0-6.0-0.63","LF","ro2w51u9qx","1280","720","de","ER04AV16","null","","","","learningBlock1","","","","This is a tob:","null","","","","",""
"","image-keyboard-response","197","342487","0.0-6.0-1.63","LF","ro2w51u9qx","1280","720","de","ER04AV16","null","","","","","","","","learning/Slide64.JPG","null","","","","",""
"","html-keyboard-response","198","343501","0.0-6.0-2.63","LF","ro2w51u9qx","1280","720","de","ER04AV16","null","","","","learningBlock1","","","","<div style=""font-size:60px;""> </div>","null","LF","learning/Slide64.JPG","This is a tob:","",""
"","html-keyboard-response","199","344512","0.0-6.0-0.64","LF","ro2w51u9qx","1280","720","de","ER04AV16","null","","","","learningBlock1","","","","This is a wug:","null","","","","",""
"","image-keyboard-response","200","344856","0.0-6.0-1.64","LF","ro2w51u9qx","1280","720","de","ER04AV16","null","","","","","","","","learning/Slide65.JPG","null","","","","",""
"","html-keyboard-response","201","345866","0.0-6.0-2.64","LF","ro2w51u9qx","1280","720","de","ER04AV16","null","","","","learningBlock1","","","","<div style=""font-size:60px;""> </div>","null","LF","learning/Slide65.JPG","This is a wug:","",""
"","html-keyboard-response","202","346881","0.0-6.0-0.65","LF","ro2w51u9qx","1280","720","de","ER04AV16","null","","","","learningBlock1","","","","This is a dep:","null","","","","",""
"","image-keyboard-response","203","347223","0.0-6.0-1.65","LF","ro2w51u9qx","1280","720","de","ER04AV16","null","","","","","","","","learning/Slide66.JPG","null","","","","",""
"","html-keyboard-response","204","348228","0.0-6.0-2.65","LF","ro2w51u9qx","1280","720","de","ER04AV16","null","","","","learningBlock1","","","","<div style=""font-size:60px;""> </div>","null","LF","learning/Slide66.JPG","This is a dep:","",""
"","html-keyboard-response","205","349241","0.0-6.0-0.66","LF","ro2w51u9qx","1280","720","de","ER04AV16","null","","","","learningBlock1","","","","This is a tob:","null","","","","",""
"","image-keyboard-response","206","349587","0.0-6.0-1.66","LF","ro2w51u9qx","1280","720","de","ER04AV16","null","","","","","","","","learning/Slide67.JPG","null","","","","",""
"","html-keyboard-response","207","350591","0.0-6.0-2.66","LF","ro2w51u9qx","1280","720","de","ER04AV16","null","","","","learningBlock1","","","","<div style=""font-size:60px;""> </div>","null","LF","learning/Slide67.JPG","This is a tob:","",""
"","html-keyboard-response","208","351598","0.0-6.0-0.67","LF","ro2w51u9qx","1280","720","de","ER04AV16","null","","","","learningBlock1","","","","This is a wug:","null","","","","",""
"","image-keyboard-response","209","351938","0.0-6.0-1.67","LF","ro2w51u9qx","1280","720","de","ER04AV16","null","","","","","","","","learning/Slide68.JPG","null","","","","",""
"","html-keyboard-response","210","352956","0.0-6.0-2.67","LF","ro2w51u9qx","1280","720","de","ER04AV16","null","","","","learningBlock1","","","","<div style=""font-size:60px;""> </div>","null","LF","learning/Slide68.JPG","This is a wug:","",""
"","html-keyboard-response","211","353965","0.0-6.0-0.68","LF","ro2w51u9qx","1280","720","de","ER04AV16","null","","","","learningBlock1","","","","This is a tob:","null","","","","",""
"","image-keyboard-response","212","354308","0.0-6.0-1.68","LF","ro2w51u9qx","1280","720","de","ER04AV16","null","","","","","","","","learning/Slide69.JPG","null","","","","",""
"","html-keyboard-response","213","355322","0.0-6.0-2.68","LF","ro2w51u9qx","1280","720","de","ER04AV16","null","","","","learningBlock1","","","","<div style=""font-size:60px;""> </div>","null","LF","learning/Slide69.JPG","This is a tob:","",""
"","html-keyboard-response","214","356332","0.0-6.0-0.69","LF","ro2w51u9qx","1280","720","de","ER04AV16","null","","","","learningBlock1","","","","This is a dep:","null","","","","",""
"","image-keyboard-response","215","356671","0.0-6.0-1.69","LF","ro2w51u9qx","1280","720","de","ER04AV16","null","","","","","","","","learning/Slide70.JPG","null","","","","",""
"","html-keyboard-response","216","357681","0.0-6.0-2.69","LF","ro2w51u9qx","1280","720","de","ER04AV16","null","","","","learningBlock1","","","","<div style=""font-size:60px;""> </div>","null","LF","learning/Slide70.JPG","This is a dep:","",""
"","html-keyboard-response","217","358688","0.0-6.0-0.70","LF","ro2w51u9qx","1280","720","de","ER04AV16","null","","","","learningBlock1","","","","This is a wug:","null","","","","",""
"","image-keyboard-response","218","359037","0.0-6.0-1.70","LF","ro2w51u9qx","1280","720","de","ER04AV16","null","","","","","","","","learning/Slide71.JPG","null","","","","",""
"","html-keyboard-response","219","360050","0.0-6.0-2.70","LF","ro2w51u9qx","1280","720","de","ER04AV16","null","","","","learningBlock1","","","","<div style=""font-size:60px;""> </div>","null","LF","learning/Slide71.JPG","This is a wug:","",""
"","html-keyboard-response","220","361054","0.0-6.0-0.71","LF","ro2w51u9qx","1280","720","de","ER04AV16","null","","","","learningBlock1","","","","This is a bim:","null","","","","",""
"","image-keyboard-response","221","361403","0.0-6.0-1.71","LF","ro2w51u9qx","1280","720","de","ER04AV16","null","","","","","","","","learning/Slide72.JPG","null","","","","",""
"","html-keyboard-response","222","362413","0.0-6.0-2.71","LF","ro2w51u9qx","1280","720","de","ER04AV16","null","","","","learningBlock1","","","","<div style=""font-size:60px;""> </div>","null","LF","learning/Slide72.JPG","This is a bim:","",""
"","html-keyboard-response","223","363429","0.0-6.0-0.72","LF","ro2w51u9qx","1280","720","de","ER04AV16","null","","","","learningBlock1","","","","This is a wug:","null","","","","",""
"","image-keyboard-response","224","363769","0.0-6.0-1.72","LF","ro2w51u9qx","1280","720","de","ER04AV16","null","","","","","","","","learning/Slide73.JPG","null","","","","",""
"","html-keyboard-response","225","364778","0.0-6.0-2.72","LF","ro2w51u9qx","1280","720","de","ER04AV16","null","","","","learningBlock1","","","","<div style=""font-size:60px;""> </div>","null","LF","learning/Slide73.JPG","This is a wug:","",""
"","html-keyboard-response","226","365782","0.0-6.0-0.73","LF","ro2w51u9qx","1280","720","de","ER04AV16","null","","","","learningBlock1","","","","This is a dep:","null","","","","",""
"","image-keyboard-response","227","366119","0.0-6.0-1.73","LF","ro2w51u9qx","1280","720","de","ER04AV16","null","","","","","","","","learning/Slide74.JPG","null","","","","",""
"","html-keyboard-response","228","367130","0.0-6.0-2.73","LF","ro2w51u9qx","1280","720","de","ER04AV16","null","","","","learningBlock1","","","","<div style=""font-size:60px;""> </div>","null","LF","learning/Slide74.JPG","This is a dep:","",""
"","html-keyboard-response","229","368148","0.0-6.0-0.74","LF","ro2w51u9qx","1280","720","de","ER04AV16","null","","","","learningBlock1","","","","This is a tob:","null","","","","",""
"","image-keyboard-response","230","368485","0.0-6.0-1.74","LF","ro2w51u9qx","1280","720","de","ER04AV16","null","","","","","","","","learning/Slide75.JPG","null","","","","",""
"","html-keyboard-response","231","369493","0.0-6.0-2.74","LF","ro2w51u9qx","1280","720","de","ER04AV16","null","","","","learningBlock1","","","","<div style=""font-size:60px;""> </div>","null","LF","learning/Slide75.JPG","This is a tob:","",""
"","html-keyboard-response","232","370496","0.0-6.0-0.75","LF","ro2w51u9qx","1280","720","de","ER04AV16","null","","","","learningBlock1","","","","This is a bim:","null","","","","",""
"","image-keyboard-response","233","370850","0.0-6.0-1.75","LF","ro2w51u9qx","1280","720","de","ER04AV16","null","","","","","","","","learning/Slide76.JPG","null","","","","",""
"","html-keyboard-response","234","371857","0.0-6.0-2.75","LF","ro2w51u9qx","1280","720","de","ER04AV16","null","","","","learningBlock1","","","","<div style=""font-size:60px;""> </div>","null","LF","learning/Slide76.JPG","This is a bim:","",""
"","html-keyboard-response","235","372876","0.0-6.0-0.76","LF","ro2w51u9qx","1280","720","de","ER04AV16","null","","","","learningBlock1","","","","This is a tob:","null","","","","",""
"","image-keyboard-response","236","373217","0.0-6.0-1.76","LF","ro2w51u9qx","1280","720","de","ER04AV16","null","","","","","","","","learning/Slide77.JPG","null","","","","",""
"","html-keyboard-response","237","374223","0.0-6.0-2.76","LF","ro2w51u9qx","1280","720","de","ER04AV16","null","","","","learningBlock1","","","","<div style=""font-size:60px;""> </div>","null","LF","learning/Slide77.JPG","This is a tob:","",""
"","html-keyboard-response","238","375228","0.0-6.0-0.77","LF","ro2w51u9qx","1280","720","de","ER04AV16","null","","","","learningBlock1","","","","This is a wug:","null","","","","",""
"","image-keyboard-response","239","375565","0.0-6.0-1.77","LF","ro2w51u9qx","1280","720","de","ER04AV16","null","","","","","","","","learning/Slide78.JPG","null","","","","",""
"","html-keyboard-response","240","376571","0.0-6.0-2.77","LF","ro2w51u9qx","1280","720","de","ER04AV16","null","","","","learningBlock1","","","","<div style=""font-size:60px;""> </div>","null","LF","learning/Slide78.JPG","This is a wug:","",""
"","html-keyboard-response","241","377574","0.0-6.0-0.78","LF","ro2w51u9qx","1280","720","de","ER04AV16","null","","","","learningBlock1","","","","This is a bim:","null","","","","",""
"","image-keyboard-response","242","377916","0.0-6.0-1.78","LF","ro2w51u9qx","1280","720","de","ER04AV16","null","","","","","","","","learning/Slide79.JPG","null","","","","",""
"","html-keyboard-response","243","378919","0.0-6.0-2.78","LF","ro2w51u9qx","1280","720","de","ER04AV16","null","","","","learningBlock1","","","","<div style=""font-size:60px;""> </div>","null","LF","learning/Slide79.JPG","This is a bim:","",""
"","html-keyboard-response","244","379926","0.0-6.0-0.79","LF","ro2w51u9qx","1280","720","de","ER04AV16","null","","","","learningBlock1","","","","This is a tob:","null","","","","",""
"","image-keyboard-response","245","380265","0.0-6.0-1.79","LF","ro2w51u9qx","1280","720","de","ER04AV16","null","","","","","","","","learning/Slide80.JPG","null","","","","",""
"","html-keyboard-response","246","381270","0.0-6.0-2.79","LF","ro2w51u9qx","1280","720","de","ER04AV16","null","","","","learningBlock1","","","","<div style=""font-size:60px;""> </div>","null","LF","learning/Slide80.JPG","This is a tob:","",""
"","instructions","247","384280","0.0-7.0","LF","ro2w51u9qx","1280","720","de","ER04AV16","NA","","","[{""page_index"":0,""viewing_time"":3008.9000000152737}]","instructions","","","","","","","","","",""
"","html-keyboard-response","248","385292","0.0-8.0-0.0","LF","ro2w51u9qx","1280","720","de","ER04AV16","null","","","","learningBlock2","","","","This is a wug:","null","","","","",""
"","image-keyboard-response","249","385622","0.0-8.0-1.0","LF","ro2w51u9qx","1280","720","de","ER04AV16","null","","","","","","","","learning/Slide81.JPG","null","","","","",""
"","html-keyboard-response","250","386641","0.0-8.0-2.0","LF","ro2w51u9qx","1280","720","de","ER04AV16","null","","","","learningBlock2","","","","<div style=""font-size:60px;""> </div>","null","LF","learning/Slide81.JPG","This is a wug:","",""
"","html-keyboard-response","251","387658","0.0-8.0-0.1","LF","ro2w51u9qx","1280","720","de","ER04AV16","null","","","","learningBlock2","","","","This is a bim:","null","","","","",""
"","image-keyboard-response","252","387997","0.0-8.0-1.1","LF","ro2w51u9qx","1280","720","de","ER04AV16","null","","","","","","","","learning/Slide82.JPG","null","","","","",""
"","html-keyboard-response","253","389007","0.0-8.0-2.1","LF","ro2w51u9qx","1280","720","de","ER04AV16","null","","","","learningBlock2","","","","<div style=""font-size:60px;""> </div>","null","LF","learning/Slide82.JPG","This is a bim:","",""
"","html-keyboard-response","254","390021","0.0-8.0-0.2","LF","ro2w51u9qx","1280","720","de","ER04AV16","null","","","","learningBlock2","","","","This is a wug:","null","","","","",""
"","image-keyboard-response","255","390365","0.0-8.0-1.2","LF","ro2w51u9qx","1280","720","de","ER04AV16","null","","","","","","","","learning/Slide83.JPG","null","","","","",""
"","html-keyboard-response","256","391368","0.0-8.0-2.2","LF","ro2w51u9qx","1280","720","de","ER04AV16","null","","","","learningBlock2","","","","<div style=""font-size:60px;""> </div>","null","LF","learning/Slide83.JPG","This is a wug:","",""
"","html-keyboard-response","257","392385","0.0-8.0-0.3","LF","ro2w51u9qx","1280","720","de","ER04AV16","null","","","","learningBlock2","","","","This is a dep:","null","","","","",""
"","image-keyboard-response","258","392713","0.0-8.0-1.3","LF","ro2w51u9qx","1280","720","de","ER04AV16","null","","","","","","","","learning/Slide84.JPG","null","","","","",""
"","html-keyboard-response","259","393719","0.0-8.0-2.3","LF","ro2w51u9qx","1280","720","de","ER04AV16","null","","","","learningBlock2","","","","<div style=""font-size:60px;""> </div>","null","LF","learning/Slide84.JPG","This is a dep:","",""
"","html-keyboard-response","260","394723","0.0-8.0-0.4","LF","ro2w51u9qx","1280","720","de","ER04AV16","null","","","","learningBlock2","","","","This is a bim:","null","","","","",""
"","image-keyboard-response","261","395063","0.0-8.0-1.4","LF","ro2w51u9qx","1280","720","de","ER04AV16","null","","","","","","","","learning/Slide85.JPG","null","","","","",""
"","html-keyboard-response","262","396069","0.0-8.0-2.4","LF","ro2w51u9qx","1280","720","de","ER04AV16","null","","","","learningBlock2","","","","<div style=""font-size:60px;""> </div>","null","LF","learning/Slide85.JPG","This is a bim:","",""
"","html-keyboard-response","263","397079","0.0-8.0-0.5","LF","ro2w51u9qx","1280","720","de","ER04AV16","null","","","","learningBlock2","","","","This is a tob:","null","","","","",""
"","image-keyboard-response","264","397412","0.0-8.0-1.5","LF","ro2w51u9qx","1280","720","de","ER04AV16","null","","","","","","","","learning/Slide86.JPG","null","","","","",""
"","html-keyboard-response","265","398429","0.0-8.0-2.5","LF","ro2w51u9qx","1280","720","de","ER04AV16","null","","","","learningBlock2","","","","<div style=""font-size:60px;""> </div>","null","LF","learning/Slide86.JPG","This is a tob:","",""
"","html-keyboard-response","266","399447","0.0-8.0-0.6","LF","ro2w51u9qx","1280","720","de","ER04AV16","null","","","","learningBlock2","","","","This is a wug:","null","","","","",""
"","image-keyboard-response","267","399789","0.0-8.0-1.6","LF","ro2w51u9qx","1280","720","de","ER04AV16","null","","","","","","","","learning/Slide87.JPG","null","","","","",""
"","html-keyboard-response","268","400808","0.0-8.0-2.6","LF","ro2w51u9qx","1280","720","de","ER04AV16","null","","","","learningBlock2","","","","<div style=""font-size:60px;""> </div>","null","LF","learning/Slide87.JPG","This is a wug:","",""
"","html-keyboard-response","269","401821","0.0-8.0-0.7","LF","ro2w51u9qx","1280","720","de","ER04AV16","null","","","","learningBlock2","","","","This is a tob:","null","","","","",""
"","image-keyboard-response","270","402165","0.0-8.0-1.7","LF","ro2w51u9qx","1280","720","de","ER04AV16","null","","","","","","","","learning/Slide88.JPG","null","","","","",""
"","html-keyboard-response","271","403179","0.0-8.0-2.7","LF","ro2w51u9qx","1280","720","de","ER04AV16","null","","","","learningBlock2","","","","<div style=""font-size:60px;""> </div>","null","LF","learning/Slide88.JPG","This is a tob:","",""
"","html-keyboard-response","272","404181","0.0-8.0-0.8","LF","ro2w51u9qx","1280","720","de","ER04AV16","null","","","","learningBlock2","","","","This is a bim:","null","","","","",""
"","image-keyboard-response","273","404522","0.0-8.0-1.8","LF","ro2w51u9qx","1280","720","de","ER04AV16","null","","","","","","","","learning/Slide89.JPG","null","","","","",""
"","html-keyboard-response","274","405541","0.0-8.0-2.8","LF","ro2w51u9qx","1280","720","de","ER04AV16","null","","","","learningBlock2","","","","<div style=""font-size:60px;""> </div>","null","LF","learning/Slide89.JPG","This is a bim:","",""
"","html-keyboard-response","275","406553","0.0-8.0-0.9","LF","ro2w51u9qx","1280","720","de","ER04AV16","null","","","","learningBlock2","","","","This is a dep:","null","","","","",""
"","image-keyboard-response","276","406893","0.0-8.0-1.9","LF","ro2w51u9qx","1280","720","de","ER04AV16","null","","","","","","","","learning/Slide90.JPG","null","","","","",""
"","html-keyboard-response","277","407907","0.0-8.0-2.9","LF","ro2w51u9qx","1280","720","de","ER04AV16","null","","","","learningBlock2","","","","<div style=""font-size:60px;""> </div>","null","LF","learning/Slide90.JPG","This is a dep:","",""
"","html-keyboard-response","278","408910","0.0-8.0-0.10","LF","ro2w51u9qx","1280","720","de","ER04AV16","null","","","","learningBlock2","","","","This is a wug:","null","","","","",""
"","image-keyboard-response","279","409259","0.0-8.0-1.10","LF","ro2w51u9qx","1280","720","de","ER04AV16","null","","","","","","","","learning/Slide91.JPG","null","","","","",""
"","html-keyboard-response","280","410273","0.0-8.0-2.10","LF","ro2w51u9qx","1280","720","de","ER04AV16","null","","","","learningBlock2","","","","<div style=""font-size:60px;""> </div>","null","LF","learning/Slide91.JPG","This is a wug:","",""
"","html-keyboard-response","281","411275","0.0-8.0-0.11","LF","ro2w51u9qx","1280","720","de","ER04AV16","null","","","","learningBlock2","","","","This is a tob:","null","","","","",""
"","image-keyboard-response","282","411626","0.0-8.0-1.11","LF","ro2w51u9qx","1280","720","de","ER04AV16","null","","","","","","","","learning/Slide92.JPG","null","","","","",""
"","html-keyboard-response","283","412635","0.0-8.0-2.11","LF","ro2w51u9qx","1280","720","de","ER04AV16","null","","","","learningBlock2","","","","<div style=""font-size:60px;""> </div>","null","LF","learning/Slide92.JPG","This is a tob:","",""
"","html-keyboard-response","284","413651","0.0-8.0-0.12","LF","ro2w51u9qx","1280","720","de","ER04AV16","null","","","","learningBlock2","","","","This is a bim:","null","","","","",""
"","image-keyboard-response","285","413994","0.0-8.0-1.12","LF","ro2w51u9qx","1280","720","de","ER04AV16","null","","","","","","","","learning/Slide93.JPG","null","","","","",""
"","html-keyboard-response","286","415010","0.0-8.0-2.12","LF","ro2w51u9qx","1280","720","de","ER04AV16","null","","","","learningBlock2","","","","<div style=""font-size:60px;""> </div>","null","LF","learning/Slide93.JPG","This is a bim:","",""
"","html-keyboard-response","287","416019","0.0-8.0-0.13","LF","ro2w51u9qx","1280","720","de","ER04AV16","null","","","","learningBlock2","","","","This is a tob:","null","","","","",""
"","image-keyboard-response","288","416357","0.0-8.0-1.13","LF","ro2w51u9qx","1280","720","de","ER04AV16","null","","","","","","","","learning/Slide94.JPG","null","","","","",""
"","html-keyboard-response","289","417379","0.0-8.0-2.13","LF","ro2w51u9qx","1280","720","de","ER04AV16","null","","","","learningBlock2","","","","<div style=""font-size:60px;""> </div>","null","LF","learning/Slide94.JPG","This is a tob:","",""
"","html-keyboard-response","290","418385","0.0-8.0-0.14","LF","ro2w51u9qx","1280","720","de","ER04AV16","null","","","","learningBlock2","","","","This is a wug:","null","","","","",""
"","image-keyboard-response","291","418723","0.0-8.0-1.14","LF","ro2w51u9qx","1280","720","de","ER04AV16","null","","","","","","","","learning/Slide95.JPG","null","","","","",""
"","html-keyboard-response","292","419728","0.0-8.0-2.14","LF","ro2w51u9qx","1280","720","de","ER04AV16","null","","","","learningBlock2","","","","<div style=""font-size:60px;""> </div>","null","LF","learning/Slide95.JPG","This is a wug:","",""
"","html-keyboard-response","293","420732","0.0-8.0-0.15","LF","ro2w51u9qx","1280","720","de","ER04AV16","null","","","","learningBlock2","","","","This is a tob:","null","","","","",""
"","image-keyboard-response","294","421073","0.0-8.0-1.15","LF","ro2w51u9qx","1280","720","de","ER04AV16","null","","","","","","","","learning/Slide96.JPG","null","","","","",""
"","html-keyboard-response","295","422078","0.0-8.0-2.15","LF","ro2w51u9qx","1280","720","de","ER04AV16","null","","","","learningBlock2","","","","<div style=""font-size:60px;""> </div>","null","LF","learning/Slide96.JPG","This is a tob:","",""
"","html-keyboard-response","296","423081","0.0-8.0-0.16","LF","ro2w51u9qx","1280","720","de","ER04AV16","null","","","","learningBlock2","","","","This is a dep:","null","","","","",""
"","image-keyboard-response","297","423422","0.0-8.0-1.16","LF","ro2w51u9qx","1280","720","de","ER04AV16","null","","","","","","","","learning/Slide97.JPG","null","","","","",""
"","html-keyboard-response","298","424427","0.0-8.0-2.16","LF","ro2w51u9qx","1280","720","de","ER04AV16","null","","","","learningBlock2","","","","<div style=""font-size:60px;""> </div>","null","LF","learning/Slide97.JPG","This is a dep:","",""
"","html-keyboard-response","299","425431","0.0-8.0-0.17","LF","ro2w51u9qx","1280","720","de","ER04AV16","null","","","","learningBlock2","","","","This is a bim:","null","","","","",""
"","image-keyboard-response","300","425771","0.0-8.0-1.17","LF","ro2w51u9qx","1280","720","de","ER04AV16","null","","","","","","","","learning/Slide98.JPG","null","","","","",""
"","html-keyboard-response","301","426775","0.0-8.0-2.17","LF","ro2w51u9qx","1280","720","de","ER04AV16","null","","","","learningBlock2","","","","<div style=""font-size:60px;""> </div>","null","LF","learning/Slide98.JPG","This is a bim:","",""
"","html-keyboard-response","302","427794","0.0-8.0-0.18","LF","ro2w51u9qx","1280","720","de","ER04AV16","null","","","","learningBlock2","","","","This is a dep:","null","","","","",""
"","image-keyboard-response","303","428137","0.0-8.0-1.18","LF","ro2w51u9qx","1280","720","de","ER04AV16","null","","","","","","","","learning/Slide99.JPG","null","","","","",""
"","html-keyboard-response","304","429140","0.0-8.0-2.18","LF","ro2w51u9qx","1280","720","de","ER04AV16","null","","","","learningBlock2","","","","<div style=""font-size:60px;""> </div>","null","LF","learning/Slide99.JPG","This is a dep:","",""
"","html-keyboard-response","305","430147","0.0-8.0-0.19","LF","ro2w51u9qx","1280","720","de","ER04AV16","null","","","","learningBlock2","","","","This is a bim:","null","","","","",""
"","image-keyboard-response","306","430490","0.0-8.0-1.19","LF","ro2w51u9qx","1280","720","de","ER04AV16","null","","","","","","","","learning/Slide100.JPG","null","","","","",""
"","html-keyboard-response","307","431502","0.0-8.0-2.19","LF","ro2w51u9qx","1280","720","de","ER04AV16","null","","","","learningBlock2","","","","<div style=""font-size:60px;""> </div>","null","LF","learning/Slide100.JPG","This is a bim:","",""
"","html-keyboard-response","308","432510","0.0-8.0-0.20","LF","ro2w51u9qx","1280","720","de","ER04AV16","null","","","","learningBlock2","","","","This is a tob:","null","","","","",""
"","image-keyboard-response","309","432853","0.0-8.0-1.20","LF","ro2w51u9qx","1280","720","de","ER04AV16","null","","","","","","","","learning/Slide101.JPG","null","","","","",""
"","html-keyboard-response","310","433868","0.0-8.0-2.20","LF","ro2w51u9qx","1280","720","de","ER04AV16","null","","","","learningBlock2","","","","<div style=""font-size:60px;""> </div>","null","LF","learning/Slide101.JPG","This is a tob:","",""
"","html-keyboard-response","311","434872","0.0-8.0-0.21","LF","ro2w51u9qx","1280","720","de","ER04AV16","null","","","","learningBlock2","","","","This is a bim:","null","","","","",""
"","image-keyboard-response","312","435219","0.0-8.0-1.21","LF","ro2w51u9qx","1280","720","de","ER04AV16","null","","","","","","","","learning/Slide102.JPG","null","","","","",""
"","html-keyboard-response","313","436234","0.0-8.0-2.21","LF","ro2w51u9qx","1280","720","de","ER04AV16","null","","","","learningBlock2","","","","<div style=""font-size:60px;""> </div>","null","LF","learning/Slide102.JPG","This is a bim:","",""
"","html-keyboard-response","314","437249","0.0-8.0-0.22","LF","ro2w51u9qx","1280","720","de","ER04AV16","null","","","","learningBlock2","","","","This is a dep:","null","","","","",""
"","image-keyboard-response","315","437589","0.0-8.0-1.22","LF","ro2w51u9qx","1280","720","de","ER04AV16","null","","","","","","","","learning/Slide103.JPG","null","","","","",""
"","html-keyboard-response","316","438599","0.0-8.0-2.22","LF","ro2w51u9qx","1280","720","de","ER04AV16","null","","","","learningBlock2","","","","<div style=""font-size:60px;""> </div>","null","LF","learning/Slide103.JPG","This is a dep:","",""
"","html-keyboard-response","317","439616","0.0-8.0-0.23","LF","ro2w51u9qx","1280","720","de","ER04AV16","null","","","","learningBlock2","","","","This is a tob:","null","","","","",""
"","image-keyboard-response","318","439951","0.0-8.0-1.23","LF","ro2w51u9qx","1280","720","de","ER04AV16","null","","","","","","","","learning/Slide104.JPG","null","","","","",""
"","html-keyboard-response","319","440960","0.0-8.0-2.23","LF","ro2w51u9qx","1280","720","de","ER04AV16","null","","","","learningBlock2","","","","<div style=""font-size:60px;""> </div>","null","LF","learning/Slide104.JPG","This is a tob:","",""
"","html-keyboard-response","320","441976","0.0-8.0-0.24","LF","ro2w51u9qx","1280","720","de","ER04AV16","null","","","","learningBlock2","","","","This is a dep:","null","","","","",""
"","image-keyboard-response","321","442317","0.0-8.0-1.24","LF","ro2w51u9qx","1280","720","de","ER04AV16","null","","","","","","","","learning/Slide105.JPG","null","","","","",""
"","html-keyboard-response","322","443335","0.0-8.0-2.24","LF","ro2w51u9qx","1280","720","de","ER04AV16","null","","","","learningBlock2","","","","<div style=""font-size:60px;""> </div>","null","LF","learning/Slide105.JPG","This is a dep:","",""
"","html-keyboard-response","323","444348","0.0-8.0-0.25","LF","ro2w51u9qx","1280","720","de","ER04AV16","null","","","","learningBlock2","","","","This is a wug:","null","","","","",""
"","image-keyboard-response","324","444691","0.0-8.0-1.25","LF","ro2w51u9qx","1280","720","de","ER04AV16","null","","","","","","","","learning/Slide106.JPG","null","","","","",""
"","html-keyboard-response","325","445709","0.0-8.0-2.25","LF","ro2w51u9qx","1280","720","de","ER04AV16","null","","","","learningBlock2","","","","<div style=""font-size:60px;""> </div>","null","LF","learning/Slide106.JPG","This is a wug:","",""
"","html-keyboard-response","326","446724","0.0-8.0-0.26","LF","ro2w51u9qx","1280","720","de","ER04AV16","null","","","","learningBlock2","","","","This is a bim:","null","","","","",""
"","image-keyboard-response","327","447066","0.0-8.0-1.26","LF","ro2w51u9qx","1280","720","de","ER04AV16","null","","","","","","","","learning/Slide107.JPG","null","","","","",""
"","html-keyboard-response","328","448072","0.0-8.0-2.26","LF","ro2w51u9qx","1280","720","de","ER04AV16","null","","","","learningBlock2","","","","<div style=""font-size:60px;""> </div>","null","LF","learning/Slide107.JPG","This is a bim:","",""
"","html-keyboard-response","329","449076","0.0-8.0-0.27","LF","ro2w51u9qx","1280","720","de","ER04AV16","null","","","","learningBlock2","","","","This is a dep:","null","","","","",""
"","image-keyboard-response","330","449416","0.0-8.0-1.27","LF","ro2w51u9qx","1280","720","de","ER04AV16","null","","","","","","","","learning/Slide108.JPG","null","","","","",""
"","html-keyboard-response","331","450430","0.0-8.0-2.27","LF","ro2w51u9qx","1280","720","de","ER04AV16","null","","","","learningBlock2","","","","<div style=""font-size:60px;""> </div>","null","LF","learning/Slide108.JPG","This is a dep:","",""
"","html-keyboard-response","332","451437","0.0-8.0-0.28","LF","ro2w51u9qx","1280","720","de","ER04AV16","null","","","","learningBlock2","","","","This is a wug:","null","","","","",""
"","image-keyboard-response","333","451772","0.0-8.0-1.28","LF","ro2w51u9qx","1280","720","de","ER04AV16","null","","","","","","","","learning/Slide109.JPG","null","","","","",""
"","html-keyboard-response","334","452777","0.0-8.0-2.28","LF","ro2w51u9qx","1280","720","de","ER04AV16","null","","","","learningBlock2","","","","<div style=""font-size:60px;""> </div>","null","LF","learning/Slide109.JPG","This is a wug:","",""
"","html-keyboard-response","335","453793","0.0-8.0-0.29","LF","ro2w51u9qx","1280","720","de","ER04AV16","null","","","","learningBlock2","","","","This is a bim:","null","","","","",""
"","image-keyboard-response","336","454134","0.0-8.0-1.29","LF","ro2w51u9qx","1280","720","de","ER04AV16","null","","","","","","","","learning/Slide110.JPG","null","","","","",""
"","html-keyboard-response","337","455140","0.0-8.0-2.29","LF","ro2w51u9qx","1280","720","de","ER04AV16","null","","","","learningBlock2","","","","<div style=""font-size:60px;""> </div>","null","LF","learning/Slide110.JPG","This is a bim:","",""
"","html-keyboard-response","338","456144","0.0-8.0-0.30","LF","ro2w51u9qx","1280","720","de","ER04AV16","null","","","","learningBlock2","","","","This is a tob:","null","","","","",""
"","image-keyboard-response","339","456481","0.0-8.0-1.30","LF","ro2w51u9qx","1280","720","de","ER04AV16","null","","","","","","","","learning/Slide111.JPG","null","","","","",""
"","html-keyboard-response","340","457484","0.0-8.0-2.30","LF","ro2w51u9qx","1280","720","de","ER04AV16","null","","","","learningBlock2","","","","<div style=""font-size:60px;""> </div>","null","LF","learning/Slide111.JPG","This is a tob:","",""
"","html-keyboard-response","341","458494","0.0-8.0-0.31","LF","ro2w51u9qx","1280","720","de","ER04AV16","null","","","","learningBlock2","","","","This is a wug:","null","","","","",""
"","image-keyboard-response","342","458830","0.0-8.0-1.31","LF","ro2w51u9qx","1280","720","de","ER04AV16","null","","","","","","","","learning/Slide112.JPG","null","","","","",""
"","html-keyboard-response","343","459838","0.0-8.0-2.31","LF","ro2w51u9qx","1280","720","de","ER04AV16","null","","","","learningBlock2","","","","<div style=""font-size:60px;""> </div>","null","LF","learning/Slide112.JPG","This is a wug:","",""
"","html-keyboard-response","344","460850","0.0-8.0-0.32","LF","ro2w51u9qx","1280","720","de","ER04AV16","null","","","","learningBlock2","","","","This is a tob:","null","","","","",""
"","image-keyboard-response","345","461197","0.0-8.0-1.32","LF","ro2w51u9qx","1280","720","de","ER04AV16","null","","","","","","","","learning/Slide113.JPG","null","","","","",""
"","html-keyboard-response","346","462201","0.0-8.0-2.32","LF","ro2w51u9qx","1280","720","de","ER04AV16","null","","","","learningBlock2","","","","<div style=""font-size:60px;""> </div>","null","LF","learning/Slide113.JPG","This is a tob:","",""
"","html-keyboard-response","347","463216","0.0-8.0-0.33","LF","ro2w51u9qx","1280","720","de","ER04AV16","null","","","","learningBlock2","","","","This is a wug:","null","","","","",""
"","image-keyboard-response","348","463563","0.0-8.0-1.33","LF","ro2w51u9qx","1280","720","de","ER04AV16","null","","","","","","","","learning/Slide114.JPG","null","","","","",""
"","html-keyboard-response","349","464577","0.0-8.0-2.33","LF","ro2w51u9qx","1280","720","de","ER04AV16","null","","","","learningBlock2","","","","<div style=""font-size:60px;""> </div>","null","LF","learning/Slide114.JPG","This is a wug:","",""
"","html-keyboard-response","350","465590","0.0-8.0-0.34","LF","ro2w51u9qx","1280","720","de","ER04AV16","null","","","","learningBlock2","","","","This is a bim:","null","","","","",""
"","image-keyboard-response","351","465929","0.0-8.0-1.34","LF","ro2w51u9qx","1280","720","de","ER04AV16","null","","","","","","","","learning/Slide115.JPG","null","","","","",""
"","html-keyboard-response","352","466946","0.0-8.0-2.34","LF","ro2w51u9qx","1280","720","de","ER04AV16","null","","","","learningBlock2","","","","<div style=""font-size:60px;""> </div>","null","LF","learning/Slide115.JPG","This is a bim:","",""
"","html-keyboard-response","353","467959","0.0-8.0-0.35","LF","ro2w51u9qx","1280","720","de","ER04AV16","null","","","","learningBlock2","","","","This is a dep:","null","","","","",""
"","image-keyboard-response","354","468294","0.0-8.0-1.35","LF","ro2w51u9qx","1280","720","de","ER04AV16","null","","","","","","","","learning/Slide116.JPG","null","","","","",""
"","html-keyboard-response","355","469306","0.0-8.0-2.35","LF","ro2w51u9qx","1280","720","de","ER04AV16","null","","","","learningBlock2","","","","<div style=""font-size:60px;""> </div>","null","LF","learning/Slide116.JPG","This is a dep:","",""
"","html-keyboard-response","356","470309","0.0-8.0-0.36","LF","ro2w51u9qx","1280","720","de","ER04AV16","null","","","","learningBlock2","","","","This is a tob:","null","","","","",""
"","image-keyboard-response","357","470641","0.0-8.0-1.36","LF","ro2w51u9qx","1280","720","de","ER04AV16","null","","","","","","","","learning/Slide117.JPG","null","","","","",""
"","html-keyboard-response","358","471655","0.0-8.0-2.36","LF","ro2w51u9qx","1280","720","de","ER04AV16","null","","","","learningBlock2","","","","<div style=""font-size:60px;""> </div>","null","LF","learning/Slide117.JPG","This is a tob:","",""
"","html-keyboard-response","359","472670","0.0-8.0-0.37","LF","ro2w51u9qx","1280","720","de","ER04AV16","null","","","","learningBlock2","","","","This is a dep:","null","","","","",""
"","image-keyboard-response","360","473012","0.0-8.0-1.37","LF","ro2w51u9qx","1280","720","de","ER04AV16","null","","","","","","","","learning/Slide118.JPG","null","","","","",""
"","html-keyboard-response","361","474021","0.0-8.0-2.37","LF","ro2w51u9qx","1280","720","de","ER04AV16","null","","","","learningBlock2","","","","<div style=""font-size:60px;""> </div>","null","LF","learning/Slide118.JPG","This is a dep:","",""
"","html-keyboard-response","362","475038","0.0-8.0-0.38","LF","ro2w51u9qx","1280","720","de","ER04AV16","null","","","","learningBlock2","","","","This is a wug:","null","","","","",""
"","image-keyboard-response","363","475376","0.0-8.0-1.38","LF","ro2w51u9qx","1280","720","de","ER04AV16","null","","","","","","","","learning/Slide119.JPG","null","","","","",""
"","html-keyboard-response","364","476385","0.0-8.0-2.38","LF","ro2w51u9qx","1280","720","de","ER04AV16","null","","","","learningBlock2","","","","<div style=""font-size:60px;""> </div>","null","LF","learning/Slide119.JPG","This is a wug:","",""
"","html-keyboard-response","365","477388","0.0-8.0-0.39","LF","ro2w51u9qx","1280","720","de","ER04AV16","null","","","","learningBlock2","","","","This is a dep:","null","","","","",""
"","image-keyboard-response","366","477735","0.0-8.0-1.39","LF","ro2w51u9qx","1280","720","de","ER04AV16","null","","","","","","","","learning/Slide120.JPG","null","","","","",""
"","html-keyboard-response","367","478739","0.0-8.0-2.39","LF","ro2w51u9qx","1280","720","de","ER04AV16","null","","","","learningBlock2","","","","<div style=""font-size:60px;""> </div>","null","LF","learning/Slide120.JPG","This is a dep:","",""
"","html-keyboard-response","368","479756","0.0-8.0-0.40","LF","ro2w51u9qx","1280","720","de","ER04AV16","null","","","","learningBlock2","","","","This is a bim:","null","","","","",""
"","image-keyboard-response","369","480093","0.0-8.0-1.40","LF","ro2w51u9qx","1280","720","de","ER04AV16","null","","","","","","","","learning/Slide121.JPG","null","","","","",""
"","html-keyboard-response","370","481103","0.0-8.0-2.40","LF","ro2w51u9qx","1280","720","de","ER04AV16","null","","","","learningBlock2","","","","<div style=""font-size:60px;""> </div>","null","LF","learning/Slide121.JPG","This is a bim:","",""
"","html-keyboard-response","371","482119","0.0-8.0-0.41","LF","ro2w51u9qx","1280","720","de","ER04AV16","null","","","","learningBlock2","","","","This is a wug:","null","","","","",""
"","image-keyboard-response","372","482461","0.0-8.0-1.41","LF","ro2w51u9qx","1280","720","de","ER04AV16","null","","","","","","","","learning/Slide122.JPG","null","","","","",""
"","html-keyboard-response","373","483478","0.0-8.0-2.41","LF","ro2w51u9qx","1280","720","de","ER04AV16","null","","","","learningBlock2","","","","<div style=""font-size:60px;""> </div>","null","LF","learning/Slide122.JPG","This is a wug:","",""
"","html-keyboard-response","374","484481","0.0-8.0-0.42","LF","ro2w51u9qx","1280","720","de","ER04AV16","null","","","","learningBlock2","","","","This is a bim:","null","","","","",""
"","image-keyboard-response","375","484824","0.0-8.0-1.42","LF","ro2w51u9qx","1280","720","de","ER04AV16","null","","","","","","","","learning/Slide123.JPG","null","","","","",""
"","html-keyboard-response","376","485832","0.0-8.0-2.42","LF","ro2w51u9qx","1280","720","de","ER04AV16","null","","","","learningBlock2","","","","<div style=""font-size:60px;""> </div>","null","LF","learning/Slide123.JPG","This is a bim:","",""
"","html-keyboard-response","377","486839","0.0-8.0-0.43","LF","ro2w51u9qx","1280","720","de","ER04AV16","null","","","","learningBlock2","","","","This is a tob:","null","","","","",""
"","image-keyboard-response","378","487173","0.0-8.0-1.43","LF","ro2w51u9qx","1280","720","de","ER04AV16","null","","","","","","","","learning/Slide124.JPG","null","","","","",""
"","html-keyboard-response","379","488182","0.0-8.0-2.43","LF","ro2w51u9qx","1280","720","de","ER04AV16","null","","","","learningBlock2","","","","<div style=""font-size:60px;""> </div>","null","LF","learning/Slide124.JPG","This is a tob:","",""
"","html-keyboard-response","380","489194","0.0-8.0-0.44","LF","ro2w51u9qx","1280","720","de","ER04AV16","null","","","","learningBlock2","","","","This is a bim:","null","","","","",""
"","image-keyboard-response","381","489540","0.0-8.0-1.44","LF","ro2w51u9qx","1280","720","de","ER04AV16","null","","","","","","","","learning/Slide125.JPG","null","","","","",""
"","html-keyboard-response","382","490549","0.0-8.0-2.44","LF","ro2w51u9qx","1280","720","de","ER04AV16","null","","","","learningBlock2","","","","<div style=""font-size:60px;""> </div>","null","LF","learning/Slide125.JPG","This is a bim:","",""
"","html-keyboard-response","383","491552","0.0-8.0-0.45","LF","ro2w51u9qx","1280","720","de","ER04AV16","null","","","","learningBlock2","","","","This is a tob:","null","","","","",""
"","image-keyboard-response","384","491890","0.0-8.0-1.45","LF","ro2w51u9qx","1280","720","de","ER04AV16","null","","","","","","","","learning/Slide126.JPG","null","","","","",""
"","html-keyboard-response","385","492894","0.0-8.0-2.45","LF","ro2w51u9qx","1280","720","de","ER04AV16","null","","","","learningBlock2","","","","<div style=""font-size:60px;""> </div>","null","LF","learning/Slide126.JPG","This is a tob:","",""
"","html-keyboard-response","386","493902","0.0-8.0-0.46","LF","ro2w51u9qx","1280","720","de","ER04AV16","null","","","","learningBlock2","","","","This is a dep:","null","","","","",""
"","image-keyboard-response","387","494244","0.0-8.0-1.46","LF","ro2w51u9qx","1280","720","de","ER04AV16","null","","","","","","","","learning/Slide127.JPG","null","","","","",""
"","html-keyboard-response","388","495255","0.0-8.0-2.46","LF","ro2w51u9qx","1280","720","de","ER04AV16","null","","","","learningBlock2","","","","<div style=""font-size:60px;""> </div>","null","LF","learning/Slide127.JPG","This is a dep:","",""
"","html-keyboard-response","389","496272","0.0-8.0-0.47","LF","ro2w51u9qx","1280","720","de","ER04AV16","null","","","","learningBlock2","","","","This is a wug:","null","","","","",""
"","image-keyboard-response","390","496619","0.0-8.0-1.47","LF","ro2w51u9qx","1280","720","de","ER04AV16","null","","","","","","","","learning/Slide128.JPG","null","","","","",""
"","html-keyboard-response","391","497632","0.0-8.0-2.47","LF","ro2w51u9qx","1280","720","de","ER04AV16","null","","","","learningBlock2","","","","<div style=""font-size:60px;""> </div>","null","LF","learning/Slide128.JPG","This is a wug:","",""
"","html-keyboard-response","392","498646","0.0-8.0-0.48","LF","ro2w51u9qx","1280","720","de","ER04AV16","null","","","","learningBlock2","","","","This is a tob:","null","","","","",""
"","image-keyboard-response","393","498978","0.0-8.0-1.48","LF","ro2w51u9qx","1280","720","de","ER04AV16","null","","","","","","","","learning/Slide129.JPG","null","","","","",""
"","html-keyboard-response","394","499987","0.0-8.0-2.48","LF","ro2w51u9qx","1280","720","de","ER04AV16","null","","","","learningBlock2","","","","<div style=""font-size:60px;""> </div>","null","LF","learning/Slide129.JPG","This is a tob:","",""
"","html-keyboard-response","395","500991","0.0-8.0-0.49","LF","ro2w51u9qx","1280","720","de","ER04AV16","null","","","","learningBlock2","","","","This is a wug:","null","","","","",""
"","image-keyboard-response","396","501337","0.0-8.0-1.49","LF","ro2w51u9qx","1280","720","de","ER04AV16","null","","","","","","","","learning/Slide130.JPG","null","","","","",""
"","html-keyboard-response","397","502354","0.0-8.0-2.49","LF","ro2w51u9qx","1280","720","de","ER04AV16","null","","","","learningBlock2","","","","<div style=""font-size:60px;""> </div>","null","LF","learning/Slide130.JPG","This is a wug:","",""
"","html-keyboard-response","398","503366","0.0-8.0-0.50","LF","ro2w51u9qx","1280","720","de","ER04AV16","null","","","","learningBlock2","","","","This is a bim:","null","","","","",""
"","image-keyboard-response","399","503703","0.0-8.0-1.50","LF","ro2w51u9qx","1280","720","de","ER04AV16","null","","","","","","","","learning/Slide131.JPG","null","","","","",""
"","html-keyboard-response","400","504716","0.0-8.0-2.50","LF","ro2w51u9qx","1280","720","de","ER04AV16","null","","","","learningBlock2","","","","<div style=""font-size:60px;""> </div>","null","LF","learning/Slide131.JPG","This is a bim:","",""
"","html-keyboard-response","401","505719","0.0-8.0-0.51","LF","ro2w51u9qx","1280","720","de","ER04AV16","null","","","","learningBlock2","","","","This is a dep:","null","","","","",""
"","image-keyboard-response","402","506053","0.0-8.0-1.51","LF","ro2w51u9qx","1280","720","de","ER04AV16","null","","","","","","","","learning/Slide132.JPG","null","","","","",""
"","html-keyboard-response","403","507066","0.0-8.0-2.51","LF","ro2w51u9qx","1280","720","de","ER04AV16","null","","","","learningBlock2","","","","<div style=""font-size:60px;""> </div>","null","LF","learning/Slide132.JPG","This is a dep:","",""
"","html-keyboard-response","404","508083","0.0-8.0-0.52","LF","ro2w51u9qx","1280","720","de","ER04AV16","null","","","","learningBlock2","","","","This is a tob:","null","","","","",""
"","image-keyboard-response","405","508419","0.0-8.0-1.52","LF","ro2w51u9qx","1280","720","de","ER04AV16","null","","","","","","","","learning/Slide133.JPG","null","","","","",""
"","html-keyboard-response","406","509430","0.0-8.0-2.52","LF","ro2w51u9qx","1280","720","de","ER04AV16","null","","","","learningBlock2","","","","<div style=""font-size:60px;""> </div>","null","LF","learning/Slide133.JPG","This is a tob:","",""
"","html-keyboard-response","407","510440","0.0-8.0-0.53","LF","ro2w51u9qx","1280","720","de","ER04AV16","null","","","","learningBlock2","","","","This is a dep:","null","","","","",""
"","image-keyboard-response","408","510769","0.0-8.0-1.53","LF","ro2w51u9qx","1280","720","de","ER04AV16","null","","","","","","","","learning/Slide134.JPG","null","","","","",""
"","html-keyboard-response","409","511773","0.0-8.0-2.53","LF","ro2w51u9qx","1280","720","de","ER04AV16","null","","","","learningBlock2","","","","<div style=""font-size:60px;""> </div>","null","LF","learning/Slide134.JPG","This is a dep:","",""
"","html-keyboard-response","410","512782","0.0-8.0-0.54","LF","ro2w51u9qx","1280","720","de","ER04AV16","null","","","","learningBlock2","","","","This is a tob:","null","","","","",""
"","image-keyboard-response","411","513118","0.0-8.0-1.54","LF","ro2w51u9qx","1280","720","de","ER04AV16","null","","","","","","","","learning/Slide135.JPG","null","","","","",""
"","html-keyboard-response","412","514128","0.0-8.0-2.54","LF","ro2w51u9qx","1280","720","de","ER04AV16","null","","","","learningBlock2","","","","<div style=""font-size:60px;""> </div>","null","LF","learning/Slide135.JPG","This is a tob:","",""
"","html-keyboard-response","413","515131","0.0-8.0-0.55","LF","ro2w51u9qx","1280","720","de","ER04AV16","null","","","","learningBlock2","","","","This is a wug:","null","","","","",""
"","image-keyboard-response","414","515467","0.0-8.0-1.55","LF","ro2w51u9qx","1280","720","de","ER04AV16","null","","","","","","","","learning/Slide136.JPG","null","","","","",""
"","html-keyboard-response","415","516478","0.0-8.0-2.55","LF","ro2w51u9qx","1280","720","de","ER04AV16","null","","","","learningBlock2","","","","<div style=""font-size:60px;""> </div>","null","LF","learning/Slide136.JPG","This is a wug:","",""
"","html-keyboard-response","416","517486","0.0-8.0-0.56","LF","ro2w51u9qx","1280","720","de","ER04AV16","null","","","","learningBlock2","","","","This is a tob:","null","","","","",""
"","image-keyboard-response","417","517833","0.0-8.0-1.56","LF","ro2w51u9qx","1280","720","de","ER04AV16","null","","","","","","","","learning/Slide137.JPG","null","","","","",""
"","html-keyboard-response","418","518841","0.0-8.0-2.56","LF","ro2w51u9qx","1280","720","de","ER04AV16","null","","","","learningBlock2","","","","<div style=""font-size:60px;""> </div>","null","LF","learning/Slide137.JPG","This is a tob:","",""
"","html-keyboard-response","419","519845","0.0-8.0-0.57","LF","ro2w51u9qx","1280","720","de","ER04AV16","null","","","","learningBlock2","","","","This is a bim:","null","","","","",""
"","image-keyboard-response","420","520184","0.0-8.0-1.57","LF","ro2w51u9qx","1280","720","de","ER04AV16","null","","","","","","","","learning/Slide138.JPG","null","","","","",""
"","html-keyboard-response","421","521193","0.0-8.0-2.57","LF","ro2w51u9qx","1280","720","de","ER04AV16","null","","","","learningBlock2","","","","<div style=""font-size:60px;""> </div>","null","LF","learning/Slide138.JPG","This is a bim:","",""
"","html-keyboard-response","422","522212","0.0-8.0-0.58","LF","ro2w51u9qx","1280","720","de","ER04AV16","null","","","","learningBlock2","","","","This is a wug:","null","","","","",""
"","image-keyboard-response","423","522547","0.0-8.0-1.58","LF","ro2w51u9qx","1280","720","de","ER04AV16","null","","","","","","","","learning/Slide139.JPG","null","","","","",""
"","html-keyboard-response","424","523554","0.0-8.0-2.58","LF","ro2w51u9qx","1280","720","de","ER04AV16","null","","","","learningBlock2","","","","<div style=""font-size:60px;""> </div>","null","LF","learning/Slide139.JPG","This is a wug:","",""
"","html-keyboard-response","425","524558","0.0-8.0-0.59","LF","ro2w51u9qx","1280","720","de","ER04AV16","null","","","","learningBlock2","","","","This is a dep:","null","","","","",""
"","image-keyboard-response","426","524900","0.0-8.0-1.59","LF","ro2w51u9qx","1280","720","de","ER04AV16","null","","","","","","","","learning/Slide140.JPG","null","","","","",""
"","html-keyboard-response","427","525904","0.0-8.0-2.59","LF","ro2w51u9qx","1280","720","de","ER04AV16","null","","","","learningBlock2","","","","<div style=""font-size:60px;""> </div>","null","LF","learning/Slide140.JPG","This is a dep:","",""
"","html-keyboard-response","428","526907","0.0-8.0-0.60","LF","ro2w51u9qx","1280","720","de","ER04AV16","null","","","","learningBlock2","","","","This is a tob:","null","","","","",""
"","image-keyboard-response","429","527249","0.0-8.0-1.60","LF","ro2w51u9qx","1280","720","de","ER04AV16","null","","","","","","","","learning/Slide141.JPG","null","","","","",""
"","html-keyboard-response","430","528259","0.0-8.0-2.60","LF","ro2w51u9qx","1280","720","de","ER04AV16","null","","","","learningBlock2","","","","<div style=""font-size:60px;""> </div>","null","LF","learning/Slide141.JPG","This is a tob:","",""
"","html-keyboard-response","431","529271","0.0-8.0-0.61","LF","ro2w51u9qx","1280","720","de","ER04AV16","null","","","","learningBlock2","","","","This is a wug:","null","","","","",""
"","image-keyboard-response","432","529619","0.0-8.0-1.61","LF","ro2w51u9qx","1280","720","de","ER04AV16","null","","","","","","","","learning/Slide142.JPG","null","","","","",""
"","html-keyboard-response","433","530632","0.0-8.0-2.61","LF","ro2w51u9qx","1280","720","de","ER04AV16","null","","","","learningBlock2","","","","<div style=""font-size:60px;""> </div>","null","LF","learning/Slide142.JPG","This is a wug:","",""
"","html-keyboard-response","434","531635","0.0-8.0-0.62","LF","ro2w51u9qx","1280","720","de","ER04AV16","null","","","","learningBlock2","","","","This is a bim:","null","","","","",""
"","image-keyboard-response","435","531980","0.0-8.0-1.62","LF","ro2w51u9qx","1280","720","de","ER04AV16","null","","","","","","","","learning/Slide143.JPG","null","","","","",""
"","html-keyboard-response","436","532999","0.0-8.0-2.62","LF","ro2w51u9qx","1280","720","de","ER04AV16","null","","","","learningBlock2","","","","<div style=""font-size:60px;""> </div>","null","LF","learning/Slide143.JPG","This is a bim:","",""
"","html-keyboard-response","437","534006","0.0-8.0-0.63","LF","ro2w51u9qx","1280","720","de","ER04AV16","null","","","","learningBlock2","","","","This is a dep:","null","","","","",""
"","image-keyboard-response","438","534347","0.0-8.0-1.63","LF","ro2w51u9qx","1280","720","de","ER04AV16","null","","","","","","","","learning/Slide144.JPG","null","","","","",""
"","html-keyboard-response","439","535363","0.0-8.0-2.63","LF","ro2w51u9qx","1280","720","de","ER04AV16","null","","","","learningBlock2","","","","<div style=""font-size:60px;""> </div>","null","LF","learning/Slide144.JPG","This is a dep:","",""
"","html-keyboard-response","440","536374","0.0-8.0-0.64","LF","ro2w51u9qx","1280","720","de","ER04AV16","null","","","","learningBlock2","","","","This is a bim:","null","","","","",""
"","image-keyboard-response","441","536717","0.0-8.0-1.64","LF","ro2w51u9qx","1280","720","de","ER04AV16","null","","","","","","","","learning/Slide145.JPG","null","","","","",""
"","html-keyboard-response","442","537729","0.0-8.0-2.64","LF","ro2w51u9qx","1280","720","de","ER04AV16","null","","","","learningBlock2","","","","<div style=""font-size:60px;""> </div>","null","LF","learning/Slide145.JPG","This is a bim:","",""
"","html-keyboard-response","443","538745","0.0-8.0-0.65","LF","ro2w51u9qx","1280","720","de","ER04AV16","null","","","","learningBlock2","","","","This is a tob:","null","","","","",""
"","image-keyboard-response","444","539080","0.0-8.0-1.65","LF","ro2w51u9qx","1280","720","de","ER04AV16","null","","","","","","","","learning/Slide146.JPG","null","","","","",""
"","html-keyboard-response","445","540092","0.0-8.0-2.65","LF","ro2w51u9qx","1280","720","de","ER04AV16","null","","","","learningBlock2","","","","<div style=""font-size:60px;""> </div>","null","LF","learning/Slide146.JPG","This is a tob:","",""
"","html-keyboard-response","446","541097","0.0-8.0-0.66","LF","ro2w51u9qx","1280","720","de","ER04AV16","null","","","","learningBlock2","","","","This is a wug:","null","","","","",""
"","image-keyboard-response","447","541446","0.0-8.0-1.66","LF","ro2w51u9qx","1280","720","de","ER04AV16","null","","","","","","","","learning/Slide147.JPG","null","","","","",""
"","html-keyboard-response","448","542454","0.0-8.0-2.66","LF","ro2w51u9qx","1280","720","de","ER04AV16","null","","","","learningBlock2","","","","<div style=""font-size:60px;""> </div>","null","LF","learning/Slide147.JPG","This is a wug:","",""
"","html-keyboard-response","449","543457","0.0-8.0-0.67","LF","ro2w51u9qx","1280","720","de","ER04AV16","null","","","","learningBlock2","","","","This is a bim:","null","","","","",""
"","image-keyboard-response","450","543792","0.0-8.0-1.67","LF","ro2w51u9qx","1280","720","de","ER04AV16","null","","","","","","","","learning/Slide148.JPG","null","","","","",""
"","html-keyboard-response","451","544805","0.0-8.0-2.67","LF","ro2w51u9qx","1280","720","de","ER04AV16","null","","","","learningBlock2","","","","<div style=""font-size:60px;""> </div>","null","LF","learning/Slide148.JPG","This is a bim:","",""
"","html-keyboard-response","452","545817","0.0-8.0-0.68","LF","ro2w51u9qx","1280","720","de","ER04AV16","null","","","","learningBlock2","","","","This is a dep:","null","","","","",""
"","image-keyboard-response","453","546161","0.0-8.0-1.68","LF","ro2w51u9qx","1280","720","de","ER04AV16","null","","","","","","","","learning/Slide149.JPG","null","","","","",""
"","html-keyboard-response","454","547170","0.0-8.0-2.68","LF","ro2w51u9qx","1280","720","de","ER04AV16","null","","","","learningBlock2","","","","<div style=""font-size:60px;""> </div>","null","LF","learning/Slide149.JPG","This is a dep:","",""
"","html-keyboard-response","455","548174","0.0-8.0-0.69","LF","ro2w51u9qx","1280","720","de","ER04AV16","null","","","","learningBlock2","","","","This is a wug:","null","","","","",""
"","image-keyboard-response","456","548511","0.0-8.0-1.69","LF","ro2w51u9qx","1280","720","de","ER04AV16","null","","","","","","","","learning/Slide150.JPG","null","","","","",""
"","html-keyboard-response","457","549521","0.0-8.0-2.69","LF","ro2w51u9qx","1280","720","de","ER04AV16","null","","","","learningBlock2","","","","<div style=""font-size:60px;""> </div>","null","LF","learning/Slide150.JPG","This is a wug:","",""
"","html-keyboard-response","458","550524","0.0-8.0-0.70","LF","ro2w51u9qx","1280","720","de","ER04AV16","null","","","","learningBlock2","","","","This is a dep:","null","","","","",""
"","image-keyboard-response","459","550870","0.0-8.0-1.70","LF","ro2w51u9qx","1280","720","de","ER04AV16","null","","","","","","","","learning/Slide151.JPG","null","","","","",""
"","html-keyboard-response","460","551887","0.0-8.0-2.70","LF","ro2w51u9qx","1280","720","de","ER04AV16","null","","","","learningBlock2","","","","<div style=""font-size:60px;""> </div>","null","LF","learning/Slide151.JPG","This is a dep:","",""
"","html-keyboard-response","461","552904","0.0-8.0-0.71","LF","ro2w51u9qx","1280","720","de","ER04AV16","null","","","","learningBlock2","","","","This is a wug:","null","","","","",""
"","image-keyboard-response","462","553242","0.0-8.0-1.71","LF","ro2w51u9qx","1280","720","de","ER04AV16","null","","","","","","","","learning/Slide152.JPG","null","","","","",""
"","html-keyboard-response","463","554248","0.0-8.0-2.71","LF","ro2w51u9qx","1280","720","de","ER04AV16","null","","","","learningBlock2","","","","<div style=""font-size:60px;""> </div>","null","LF","learning/Slide152.JPG","This is a wug:","",""
"","html-keyboard-response","464","555251","0.0-8.0-0.72","LF","ro2w51u9qx","1280","720","de","ER04AV16","null","","","","learningBlock2","","","","This is a bim:","null","","","","",""
"","image-keyboard-response","465","555593","0.0-8.0-1.72","LF","ro2w51u9qx","1280","720","de","ER04AV16","null","","","","","","","","learning/Slide153.JPG","null","","","","",""
"","html-keyboard-response","466","556604","0.0-8.0-2.72","LF","ro2w51u9qx","1280","720","de","ER04AV16","null","","","","learningBlock2","","","","<div style=""font-size:60px;""> </div>","null","LF","learning/Slide153.JPG","This is a bim:","",""
"","html-keyboard-response","467","557620","0.0-8.0-0.73","LF","ro2w51u9qx","1280","720","de","ER04AV16","null","","","","learningBlock2","","","","This is a tob:","null","","","","",""
"","image-keyboard-response","468","557975","0.0-8.0-1.73","LF","ro2w51u9qx","1280","720","de","ER04AV16","null","","","","","","","","learning/Slide154.JPG","null","","","","",""
"","html-keyboard-response","469","558992","0.0-8.0-2.73","LF","ro2w51u9qx","1280","720","de","ER04AV16","null","","","","learningBlock2","","","","<div style=""font-size:60px;""> </div>","null","LF","learning/Slide154.JPG","This is a tob:","",""
"","html-keyboard-response","470","559994","0.0-8.0-0.74","LF","ro2w51u9qx","1280","720","de","ER04AV16","null","","","","learningBlock2","","","","This is a dep:","null","","","","",""
"","image-keyboard-response","471","560341","0.0-8.0-1.74","LF","ro2w51u9qx","1280","720","de","ER04AV16","null","","","","","","","","learning/Slide155.JPG","null","","","","",""
"","html-keyboard-response","472","561346","0.0-8.0-2.74","LF","ro2w51u9qx","1280","720","de","ER04AV16","null","","","","learningBlock2","","","","<div style=""font-size:60px;""> </div>","null","LF","learning/Slide155.JPG","This is a dep:","",""
"","html-keyboard-response","473","562352","0.0-8.0-0.75","LF","ro2w51u9qx","1280","720","de","ER04AV16","null","","","","learningBlock2","","","","This is a bim:","null","","","","",""
"","image-keyboard-response","474","562693","0.0-8.0-1.75","LF","ro2w51u9qx","1280","720","de","ER04AV16","null","","","","","","","","learning/Slide156.JPG","null","","","","",""
"","html-keyboard-response","475","563702","0.0-8.0-2.75","LF","ro2w51u9qx","1280","720","de","ER04AV16","null","","","","learningBlock2","","","","<div style=""font-size:60px;""> </div>","null","LF","learning/Slide156.JPG","This is a bim:","",""
"","html-keyboard-response","476","564710","0.0-8.0-0.76","LF","ro2w51u9qx","1280","720","de","ER04AV16","null","","","","learningBlock2","","","","This is a dep:","null","","","","",""
"","image-keyboard-response","477","565057","0.0-8.0-1.76","LF","ro2w51u9qx","1280","720","de","ER04AV16","null","","","","","","","","learning/Slide157.JPG","null","","","","",""
"","html-keyboard-response","478","566069","0.0-8.0-2.76","LF","ro2w51u9qx","1280","720","de","ER04AV16","null","","","","learningBlock2","","","","<div style=""font-size:60px;""> </div>","null","LF","learning/Slide157.JPG","This is a dep:","",""
"","html-keyboard-response","479","567073","0.0-8.0-0.77","LF","ro2w51u9qx","1280","720","de","ER04AV16","null","","","","learningBlock2","","","","This is a tob:","null","","","","",""
"","image-keyboard-response","480","567423","0.0-8.0-1.77","LF","ro2w51u9qx","1280","720","de","ER04AV16","null","","","","","","","","learning/Slide158.JPG","null","","","","",""
"","html-keyboard-response","481","568435","0.0-8.0-2.77","LF","ro2w51u9qx","1280","720","de","ER04AV16","null","","","","learningBlock2","","","","<div style=""font-size:60px;""> </div>","null","LF","learning/Slide158.JPG","This is a tob:","",""
"","html-keyboard-response","482","569439","0.0-8.0-0.78","LF","ro2w51u9qx","1280","720","de","ER04AV16","null","","","","learningBlock2","","","","This is a dep:","null","","","","",""
"","image-keyboard-response","483","569769","0.0-8.0-1.78","LF","ro2w51u9qx","1280","720","de","ER04AV16","null","","","","","","","","learning/Slide159.JPG","null","","","","",""
"","html-keyboard-response","484","570773","0.0-8.0-2.78","LF","ro2w51u9qx","1280","720","de","ER04AV16","null","","","","learningBlock2","","","","<div style=""font-size:60px;""> </div>","null","LF","learning/Slide159.JPG","This is a dep:","",""
"","html-keyboard-response","485","571792","0.0-8.0-0.79","LF","ro2w51u9qx","1280","720","de","ER04AV16","null","","","","learningBlock2","","","","This is a wug:","null","","","","",""
"","image-keyboard-response","486","572139","0.0-8.0-1.79","LF","ro2w51u9qx","1280","720","de","ER04AV16","null","","","","","","","","learning/Slide160.JPG","null","","","","",""
"","html-keyboard-response","487","573152","0.0-8.0-2.79","LF","ro2w51u9qx","1280","720","de","ER04AV16","null","","","","learningBlock2","","","","<div style=""font-size:60px;""> </div>","null","LF","learning/Slide160.JPG","This is a wug:","",""
"","resize2","488","582745","0.0-9.0","LF","ro2w51u9qx","1280","720","de","ER04AV16","","","","","","","104","1.04","","","","","","",""
"","instructions","489","590568","0.0-10.0","LF","ro2w51u9qx","1280","720","de","ER04AV16","NA","","","[{""page_index"":0,""viewing_time"":7822.600000072271}]","instructions","","","","","","","","","",""
