"success","trial_type","trial_index","time_elapsed","internal_node_id","condition","subject","screen_width","screen_height","language","codeword","rt","responses","url","view_history","test_part","final_height_px","final_width_px","scale_factor","stimulus","key_press","learningType","presentedImage","presentedLabel","button_pressed","response"
"true","fullscreen","0","6779","0.0-0.0","FL","f00qbt8xgh","1536","864","en","NE07SE16","","","","","","","","","","","","","","",""
"","survey-html-form","1","8876","0.0-1.0","FL","f00qbt8xgh","1536","864","en","NE07SE16","2092.2099999152124","{""language"":""en""}","","","","","","","","","","","","",""
"","external-html","2","13441","0.0-3.0-0.0","FL","f00qbt8xgh","1536","864","en","NE07SE16","4557.319999905303","","text/information_english.html","","","","","","","","","","","",""
"","external-html","3","19453","0.0-3.0-1.0","FL","f00qbt8xgh","1536","864","en","NE07SE16","6004.855000181124","","text/consent_english.html","","","","","","","","","","","",""
"","survey-html-form","4","24282","0.0-3.0-2.0","FL","f00qbt8xgh","1536","864","en","NE07SE16","4827.689999947324","{""codeword_enter"":""NE07SE16""}","","","","","","","","","","","","",""
"","instructions","5","29649","0.0-4.0","FL","f00qbt8xgh","1536","864","en","NE07SE16","NA","","","[{""page_index"":0,""viewing_time"":2650.9799999184906},{""page_index"":1,""viewing_time"":1212.2599999420345}]","instructions","","","","","","","","","",""
"","resize","6","35025","0.0-5.0","FL","f00qbt8xgh","1536","864","en","NE07SE16","","","","","","","360","2.2857142857142856","","","","","","",""
"","image-keyboard-response","7","35209","0.0-6.0-0.0","FL","f00qbt8xgh","1536","864","en","NE07SE16","null","","","","","","","","learning/Slide1.JPG","null","","","","",""
"","html-keyboard-response","8","36382","0.0-6.0-1.0","FL","f00qbt8xgh","1536","864","en","NE07SE16","null","","","","learningBlock1","","","","That was a tob.","null","","","","",""
"","html-keyboard-response","9","37398","0.0-6.0-2.0","FL","f00qbt8xgh","1536","864","en","NE07SE16","null","","","","learningBlock1","","","","<div style=""font-size:60px;""> </div>","null","FL","learning/Slide1.JPG","That was a tob.","",""
"","image-keyboard-response","10","37579","0.0-6.0-0.1","FL","f00qbt8xgh","1536","864","en","NE07SE16","null","","","","","","","","learning/Slide2.JPG","null","","","","",""
"","html-keyboard-response","11","38744","0.0-6.0-1.1","FL","f00qbt8xgh","1536","864","en","NE07SE16","null","","","","learningBlock1","","","","That was a wug.","null","","","","",""
"","html-keyboard-response","12","39762","0.0-6.0-2.1","FL","f00qbt8xgh","1536","864","en","NE07SE16","null","","","","learningBlock1","","","","<div style=""font-size:60px;""> </div>","null","FL","learning/Slide2.JPG","That was a wug.","",""
"","image-keyboard-response","13","39949","0.0-6.0-0.2","FL","f00qbt8xgh","1536","864","en","NE07SE16","null","","","","","","","","learning/Slide3.JPG","null","","","","",""
"","html-keyboard-response","14","41116","0.0-6.0-1.2","FL","f00qbt8xgh","1536","864","en","NE07SE16","null","","","","learningBlock1","","","","That was a bim.","null","","","","",""
"","html-keyboard-response","15","42122","0.0-6.0-2.2","FL","f00qbt8xgh","1536","864","en","NE07SE16","null","","","","learningBlock1","","","","<div style=""font-size:60px;""> </div>","null","FL","learning/Slide3.JPG","That was a bim.","",""
"","image-keyboard-response","16","42310","0.0-6.0-0.3","FL","f00qbt8xgh","1536","864","en","NE07SE16","null","","","","","","","","learning/Slide4.JPG","null","","","","",""
"","html-keyboard-response","17","43483","0.0-6.0-1.3","FL","f00qbt8xgh","1536","864","en","NE07SE16","null","","","","learningBlock1","","","","That was a dep.","null","","","","",""
"","html-keyboard-response","18","44485","0.0-6.0-2.3","FL","f00qbt8xgh","1536","864","en","NE07SE16","null","","","","learningBlock1","","","","<div style=""font-size:60px;""> </div>","null","FL","learning/Slide4.JPG","That was a dep.","",""
"","image-keyboard-response","19","44672","0.0-6.0-0.4","FL","f00qbt8xgh","1536","864","en","NE07SE16","null","","","","","","","","learning/Slide5.JPG","null","","","","",""
"","html-keyboard-response","20","45841","0.0-6.0-1.4","FL","f00qbt8xgh","1536","864","en","NE07SE16","null","","","","learningBlock1","","","","That was a wug.","null","","","","",""
"","html-keyboard-response","21","46851","0.0-6.0-2.4","FL","f00qbt8xgh","1536","864","en","NE07SE16","null","","","","learningBlock1","","","","<div style=""font-size:60px;""> </div>","null","FL","learning/Slide5.JPG","That was a wug.","",""
"","image-keyboard-response","22","47053","0.0-6.0-0.5","FL","f00qbt8xgh","1536","864","en","NE07SE16","null","","","","","","","","learning/Slide6.JPG","null","","","","",""
"","html-keyboard-response","23","48219","0.0-6.0-1.5","FL","f00qbt8xgh","1536","864","en","NE07SE16","null","","","","learningBlock1","","","","That was a dep.","null","","","","",""
"","html-keyboard-response","24","49235","0.0-6.0-2.5","FL","f00qbt8xgh","1536","864","en","NE07SE16","null","","","","learningBlock1","","","","<div style=""font-size:60px;""> </div>","null","FL","learning/Slide6.JPG","That was a dep.","",""
"","image-keyboard-response","25","49421","0.0-6.0-0.6","FL","f00qbt8xgh","1536","864","en","NE07SE16","null","","","","","","","","learning/Slide7.JPG","null","","","","",""
"","html-keyboard-response","26","50591","0.0-6.0-1.6","FL","f00qbt8xgh","1536","864","en","NE07SE16","null","","","","learningBlock1","","","","That was a wug.","null","","","","",""
"","html-keyboard-response","27","51607","0.0-6.0-2.6","FL","f00qbt8xgh","1536","864","en","NE07SE16","null","","","","learningBlock1","","","","<div style=""font-size:60px;""> </div>","null","FL","learning/Slide7.JPG","That was a wug.","",""
"","image-keyboard-response","28","51786","0.0-6.0-0.7","FL","f00qbt8xgh","1536","864","en","NE07SE16","null","","","","","","","","learning/Slide8.JPG","null","","","","",""
"","html-keyboard-response","29","52942","0.0-6.0-1.7","FL","f00qbt8xgh","1536","864","en","NE07SE16","null","","","","learningBlock1","","","","That was a bim.","null","","","","",""
"","html-keyboard-response","30","53950","0.0-6.0-2.7","FL","f00qbt8xgh","1536","864","en","NE07SE16","null","","","","learningBlock1","","","","<div style=""font-size:60px;""> </div>","null","FL","learning/Slide8.JPG","That was a bim.","",""
"","image-keyboard-response","31","54137","0.0-6.0-0.8","FL","f00qbt8xgh","1536","864","en","NE07SE16","null","","","","","","","","learning/Slide9.JPG","null","","","","",""
"","html-keyboard-response","32","55309","0.0-6.0-1.8","FL","f00qbt8xgh","1536","864","en","NE07SE16","null","","","","learningBlock1","","","","That was a wug.","null","","","","",""
"","html-keyboard-response","33","56316","0.0-6.0-2.8","FL","f00qbt8xgh","1536","864","en","NE07SE16","null","","","","learningBlock1","","","","<div style=""font-size:60px;""> </div>","null","FL","learning/Slide9.JPG","That was a wug.","",""
"","image-keyboard-response","34","56497","0.0-6.0-0.9","FL","f00qbt8xgh","1536","864","en","NE07SE16","null","","","","","","","","learning/Slide10.JPG","null","","","","",""
"","html-keyboard-response","35","57665","0.0-6.0-1.9","FL","f00qbt8xgh","1536","864","en","NE07SE16","null","","","","learningBlock1","","","","That was a dep.","null","","","","",""
"","html-keyboard-response","36","58682","0.0-6.0-2.9","FL","f00qbt8xgh","1536","864","en","NE07SE16","null","","","","learningBlock1","","","","<div style=""font-size:60px;""> </div>","null","FL","learning/Slide10.JPG","That was a dep.","",""
"","image-keyboard-response","37","58863","0.0-6.0-0.10","FL","f00qbt8xgh","1536","864","en","NE07SE16","null","","","","","","","","learning/Slide11.JPG","null","","","","",""
"","html-keyboard-response","38","60034","0.0-6.0-1.10","FL","f00qbt8xgh","1536","864","en","NE07SE16","null","","","","learningBlock1","","","","That was a tob.","null","","","","",""
"","html-keyboard-response","39","61051","0.0-6.0-2.10","FL","f00qbt8xgh","1536","864","en","NE07SE16","null","","","","learningBlock1","","","","<div style=""font-size:60px;""> </div>","null","FL","learning/Slide11.JPG","That was a tob.","",""
"","image-keyboard-response","40","61242","0.0-6.0-0.11","FL","f00qbt8xgh","1536","864","en","NE07SE16","null","","","","","","","","learning/Slide12.JPG","null","","","","",""
"","html-keyboard-response","41","62407","0.0-6.0-1.11","FL","f00qbt8xgh","1536","864","en","NE07SE16","null","","","","learningBlock1","","","","That was a dep.","null","","","","",""
"","html-keyboard-response","42","63416","0.0-6.0-2.11","FL","f00qbt8xgh","1536","864","en","NE07SE16","null","","","","learningBlock1","","","","<div style=""font-size:60px;""> </div>","null","FL","learning/Slide12.JPG","That was a dep.","",""
"","image-keyboard-response","43","63595","0.0-6.0-0.12","FL","f00qbt8xgh","1536","864","en","NE07SE16","null","","","","","","","","learning/Slide13.JPG","null","","","","",""
"","html-keyboard-response","44","64772","0.0-6.0-1.12","FL","f00qbt8xgh","1536","864","en","NE07SE16","null","","","","learningBlock1","","","","That was a bim.","null","","","","",""
"","html-keyboard-response","45","65778","0.0-6.0-2.12","FL","f00qbt8xgh","1536","864","en","NE07SE16","null","","","","learningBlock1","","","","<div style=""font-size:60px;""> </div>","null","FL","learning/Slide13.JPG","That was a bim.","",""
"","image-keyboard-response","46","65961","0.0-6.0-0.13","FL","f00qbt8xgh","1536","864","en","NE07SE16","null","","","","","","","","learning/Slide14.JPG","null","","","","",""
"","html-keyboard-response","47","67133","0.0-6.0-1.13","FL","f00qbt8xgh","1536","864","en","NE07SE16","null","","","","learningBlock1","","","","That was a wug.","null","","","","",""
"","html-keyboard-response","48","68145","0.0-6.0-2.13","FL","f00qbt8xgh","1536","864","en","NE07SE16","null","","","","learningBlock1","","","","<div style=""font-size:60px;""> </div>","null","FL","learning/Slide14.JPG","That was a wug.","",""
"","image-keyboard-response","49","68327","0.0-6.0-0.14","FL","f00qbt8xgh","1536","864","en","NE07SE16","null","","","","","","","","learning/Slide15.JPG","null","","","","",""
"","html-keyboard-response","50","69498","0.0-6.0-1.14","FL","f00qbt8xgh","1536","864","en","NE07SE16","null","","","","learningBlock1","","","","That was a tob.","null","","","","",""
"","html-keyboard-response","51","70501","0.0-6.0-2.14","FL","f00qbt8xgh","1536","864","en","NE07SE16","null","","","","learningBlock1","","","","<div style=""font-size:60px;""> </div>","null","FL","learning/Slide15.JPG","That was a tob.","",""
"","image-keyboard-response","52","70683","0.0-6.0-0.15","FL","f00qbt8xgh","1536","864","en","NE07SE16","null","","","","","","","","learning/Slide16.JPG","null","","","","",""
"","html-keyboard-response","53","71854","0.0-6.0-1.15","FL","f00qbt8xgh","1536","864","en","NE07SE16","null","","","","learningBlock1","","","","That was a dep.","null","","","","",""
"","html-keyboard-response","54","72873","0.0-6.0-2.15","FL","f00qbt8xgh","1536","864","en","NE07SE16","null","","","","learningBlock1","","","","<div style=""font-size:60px;""> </div>","null","FL","learning/Slide16.JPG","That was a dep.","",""
"","image-keyboard-response","55","73063","0.0-6.0-0.16","FL","f00qbt8xgh","1536","864","en","NE07SE16","null","","","","","","","","learning/Slide17.JPG","null","","","","",""
"","html-keyboard-response","56","74233","0.0-6.0-1.16","FL","f00qbt8xgh","1536","864","en","NE07SE16","null","","","","learningBlock1","","","","That was a bim.","null","","","","",""
"","html-keyboard-response","57","75237","0.0-6.0-2.16","FL","f00qbt8xgh","1536","864","en","NE07SE16","null","","","","learningBlock1","","","","<div style=""font-size:60px;""> </div>","null","FL","learning/Slide17.JPG","That was a bim.","",""
"","image-keyboard-response","58","75428","0.0-6.0-0.17","FL","f00qbt8xgh","1536","864","en","NE07SE16","null","","","","","","","","learning/Slide18.JPG","null","","","","",""
"","html-keyboard-response","59","76596","0.0-6.0-1.17","FL","f00qbt8xgh","1536","864","en","NE07SE16","null","","","","learningBlock1","","","","That was a tob.","null","","","","",""
"","html-keyboard-response","60","77599","0.0-6.0-2.17","FL","f00qbt8xgh","1536","864","en","NE07SE16","null","","","","learningBlock1","","","","<div style=""font-size:60px;""> </div>","null","FL","learning/Slide18.JPG","That was a tob.","",""
"","image-keyboard-response","61","77777","0.0-6.0-0.18","FL","f00qbt8xgh","1536","864","en","NE07SE16","null","","","","","","","","learning/Slide19.JPG","null","","","","",""
"","html-keyboard-response","62","78934","0.0-6.0-1.18","FL","f00qbt8xgh","1536","864","en","NE07SE16","null","","","","learningBlock1","","","","That was a wug.","null","","","","",""
"","html-keyboard-response","63","79938","0.0-6.0-2.18","FL","f00qbt8xgh","1536","864","en","NE07SE16","null","","","","learningBlock1","","","","<div style=""font-size:60px;""> </div>","null","FL","learning/Slide19.JPG","That was a wug.","",""
"","image-keyboard-response","64","80129","0.0-6.0-0.19","FL","f00qbt8xgh","1536","864","en","NE07SE16","null","","","","","","","","learning/Slide20.JPG","null","","","","",""
"","html-keyboard-response","65","81307","0.0-6.0-1.19","FL","f00qbt8xgh","1536","864","en","NE07SE16","null","","","","learningBlock1","","","","That was a bim.","null","","","","",""
"","html-keyboard-response","66","82310","0.0-6.0-2.19","FL","f00qbt8xgh","1536","864","en","NE07SE16","null","","","","learningBlock1","","","","<div style=""font-size:60px;""> </div>","null","FL","learning/Slide20.JPG","That was a bim.","",""
"","image-keyboard-response","67","82503","0.0-6.0-0.20","FL","f00qbt8xgh","1536","864","en","NE07SE16","null","","","","","","","","learning/Slide21.JPG","null","","","","",""
"","html-keyboard-response","68","83660","0.0-6.0-1.20","FL","f00qbt8xgh","1536","864","en","NE07SE16","null","","","","learningBlock1","","","","That was a dep.","null","","","","",""
"","html-keyboard-response","69","84666","0.0-6.0-2.20","FL","f00qbt8xgh","1536","864","en","NE07SE16","null","","","","learningBlock1","","","","<div style=""font-size:60px;""> </div>","null","FL","learning/Slide21.JPG","That was a dep.","",""
"","image-keyboard-response","70","84850","0.0-6.0-0.21","FL","f00qbt8xgh","1536","864","en","NE07SE16","null","","","","","","","","learning/Slide22.JPG","null","","","","",""
"","html-keyboard-response","71","86019","0.0-6.0-1.21","FL","f00qbt8xgh","1536","864","en","NE07SE16","null","","","","learningBlock1","","","","That was a bim.","null","","","","",""
"","html-keyboard-response","72","87021","0.0-6.0-2.21","FL","f00qbt8xgh","1536","864","en","NE07SE16","null","","","","learningBlock1","","","","<div style=""font-size:60px;""> </div>","null","FL","learning/Slide22.JPG","That was a bim.","",""
"","image-keyboard-response","73","87203","0.0-6.0-0.22","FL","f00qbt8xgh","1536","864","en","NE07SE16","null","","","","","","","","learning/Slide23.JPG","null","","","","",""
"","html-keyboard-response","74","88373","0.0-6.0-1.22","FL","f00qbt8xgh","1536","864","en","NE07SE16","null","","","","learningBlock1","","","","That was a tob.","null","","","","",""
"","html-keyboard-response","75","89383","0.0-6.0-2.22","FL","f00qbt8xgh","1536","864","en","NE07SE16","null","","","","learningBlock1","","","","<div style=""font-size:60px;""> </div>","null","FL","learning/Slide23.JPG","That was a tob.","",""
"","image-keyboard-response","76","89570","0.0-6.0-0.23","FL","f00qbt8xgh","1536","864","en","NE07SE16","null","","","","","","","","learning/Slide24.JPG","null","","","","",""
"","html-keyboard-response","77","90747","0.0-6.0-1.23","FL","f00qbt8xgh","1536","864","en","NE07SE16","null","","","","learningBlock1","","","","That was a wug.","null","","","","",""
"","html-keyboard-response","78","91751","0.0-6.0-2.23","FL","f00qbt8xgh","1536","864","en","NE07SE16","null","","","","learningBlock1","","","","<div style=""font-size:60px;""> </div>","null","FL","learning/Slide24.JPG","That was a wug.","",""
"","image-keyboard-response","79","91934","0.0-6.0-0.24","FL","f00qbt8xgh","1536","864","en","NE07SE16","null","","","","","","","","learning/Slide25.JPG","null","","","","",""
"","html-keyboard-response","80","93097","0.0-6.0-1.24","FL","f00qbt8xgh","1536","864","en","NE07SE16","null","","","","learningBlock1","","","","That was a dep.","null","","","","",""
"","html-keyboard-response","81","94104","0.0-6.0-2.24","FL","f00qbt8xgh","1536","864","en","NE07SE16","null","","","","learningBlock1","","","","<div style=""font-size:60px;""> </div>","null","FL","learning/Slide25.JPG","That was a dep.","",""
"","image-keyboard-response","82","94293","0.0-6.0-0.25","FL","f00qbt8xgh","1536","864","en","NE07SE16","null","","","","","","","","learning/Slide26.JPG","null","","","","",""
"","html-keyboard-response","83","95454","0.0-6.0-1.25","FL","f00qbt8xgh","1536","864","en","NE07SE16","null","","","","learningBlock1","","","","That was a wug.","null","","","","",""
"","html-keyboard-response","84","96470","0.0-6.0-2.25","FL","f00qbt8xgh","1536","864","en","NE07SE16","null","","","","learningBlock1","","","","<div style=""font-size:60px;""> </div>","null","FL","learning/Slide26.JPG","That was a wug.","",""
"","image-keyboard-response","85","96660","0.0-6.0-0.26","FL","f00qbt8xgh","1536","864","en","NE07SE16","null","","","","","","","","learning/Slide27.JPG","null","","","","",""
"","html-keyboard-response","86","97828","0.0-6.0-1.26","FL","f00qbt8xgh","1536","864","en","NE07SE16","null","","","","learningBlock1","","","","That was a bim.","null","","","","",""
"","html-keyboard-response","87","98832","0.0-6.0-2.26","FL","f00qbt8xgh","1536","864","en","NE07SE16","null","","","","learningBlock1","","","","<div style=""font-size:60px;""> </div>","null","FL","learning/Slide27.JPG","That was a bim.","",""
"","image-keyboard-response","88","99025","0.0-6.0-0.27","FL","f00qbt8xgh","1536","864","en","NE07SE16","null","","","","","","","","learning/Slide28.JPG","null","","","","",""
"","html-keyboard-response","89","100199","0.0-6.0-1.27","FL","f00qbt8xgh","1536","864","en","NE07SE16","null","","","","learningBlock1","","","","That was a dep.","null","","","","",""
"","html-keyboard-response","90","101211","0.0-6.0-2.27","FL","f00qbt8xgh","1536","864","en","NE07SE16","null","","","","learningBlock1","","","","<div style=""font-size:60px;""> </div>","null","FL","learning/Slide28.JPG","That was a dep.","",""
"","image-keyboard-response","91","101389","0.0-6.0-0.28","FL","f00qbt8xgh","1536","864","en","NE07SE16","null","","","","","","","","learning/Slide29.JPG","null","","","","",""
"","html-keyboard-response","92","102561","0.0-6.0-1.28","FL","f00qbt8xgh","1536","864","en","NE07SE16","null","","","","learningBlock1","","","","That was a tob.","null","","","","",""
"","html-keyboard-response","93","103575","0.0-6.0-2.28","FL","f00qbt8xgh","1536","864","en","NE07SE16","null","","","","learningBlock1","","","","<div style=""font-size:60px;""> </div>","null","FL","learning/Slide29.JPG","That was a tob.","",""
"","image-keyboard-response","94","103756","0.0-6.0-0.29","FL","f00qbt8xgh","1536","864","en","NE07SE16","null","","","","","","","","learning/Slide30.JPG","null","","","","",""
"","html-keyboard-response","95","104929","0.0-6.0-1.29","FL","f00qbt8xgh","1536","864","en","NE07SE16","null","","","","learningBlock1","","","","That was a dep.","null","","","","",""
"","html-keyboard-response","96","105939","0.0-6.0-2.29","FL","f00qbt8xgh","1536","864","en","NE07SE16","null","","","","learningBlock1","","","","<div style=""font-size:60px;""> </div>","null","FL","learning/Slide30.JPG","That was a dep.","",""
"","image-keyboard-response","97","106117","0.0-6.0-0.30","FL","f00qbt8xgh","1536","864","en","NE07SE16","null","","","","","","","","learning/Slide31.JPG","null","","","","",""
"","html-keyboard-response","98","107294","0.0-6.0-1.30","FL","f00qbt8xgh","1536","864","en","NE07SE16","null","","","","learningBlock1","","","","That was a wug.","null","","","","",""
"","html-keyboard-response","99","108296","0.0-6.0-2.30","FL","f00qbt8xgh","1536","864","en","NE07SE16","null","","","","learningBlock1","","","","<div style=""font-size:60px;""> </div>","null","FL","learning/Slide31.JPG","That was a wug.","",""
"","image-keyboard-response","100","108477","0.0-6.0-0.31","FL","f00qbt8xgh","1536","864","en","NE07SE16","null","","","","","","","","learning/Slide32.JPG","null","","","","",""
"","html-keyboard-response","101","109636","0.0-6.0-1.31","FL","f00qbt8xgh","1536","864","en","NE07SE16","null","","","","learningBlock1","","","","That was a tob.","null","","","","",""
"","html-keyboard-response","102","110645","0.0-6.0-2.31","FL","f00qbt8xgh","1536","864","en","NE07SE16","null","","","","learningBlock1","","","","<div style=""font-size:60px;""> </div>","null","FL","learning/Slide32.JPG","That was a tob.","",""
"","image-keyboard-response","103","110827","0.0-6.0-0.32","FL","f00qbt8xgh","1536","864","en","NE07SE16","null","","","","","","","","learning/Slide33.JPG","null","","","","",""
"","html-keyboard-response","104","111995","0.0-6.0-1.32","FL","f00qbt8xgh","1536","864","en","NE07SE16","null","","","","learningBlock1","","","","That was a bim.","null","","","","",""
"","html-keyboard-response","105","112999","0.0-6.0-2.32","FL","f00qbt8xgh","1536","864","en","NE07SE16","null","","","","learningBlock1","","","","<div style=""font-size:60px;""> </div>","null","FL","learning/Slide33.JPG","That was a bim.","",""
"","image-keyboard-response","106","113187","0.0-6.0-0.33","FL","f00qbt8xgh","1536","864","en","NE07SE16","null","","","","","","","","learning/Slide34.JPG","null","","","","",""
"","html-keyboard-response","107","114353","0.0-6.0-1.33","FL","f00qbt8xgh","1536","864","en","NE07SE16","null","","","","learningBlock1","","","","That was a tob.","null","","","","",""
"","html-keyboard-response","108","115369","0.0-6.0-2.33","FL","f00qbt8xgh","1536","864","en","NE07SE16","null","","","","learningBlock1","","","","<div style=""font-size:60px;""> </div>","null","FL","learning/Slide34.JPG","That was a tob.","",""
"","image-keyboard-response","109","115547","0.0-6.0-0.34","FL","f00qbt8xgh","1536","864","en","NE07SE16","null","","","","","","","","learning/Slide35.JPG","null","","","","",""
"","html-keyboard-response","110","116722","0.0-6.0-1.34","FL","f00qbt8xgh","1536","864","en","NE07SE16","null","","","","learningBlock1","","","","That was a bim.","null","","","","",""
"","html-keyboard-response","111","117736","0.0-6.0-2.34","FL","f00qbt8xgh","1536","864","en","NE07SE16","null","","","","learningBlock1","","","","<div style=""font-size:60px;""> </div>","null","FL","learning/Slide35.JPG","That was a bim.","",""
"","image-keyboard-response","112","117917","0.0-6.0-0.35","FL","f00qbt8xgh","1536","864","en","NE07SE16","null","","","","","","","","learning/Slide36.JPG","null","","","","",""
"","html-keyboard-response","113","119082","0.0-6.0-1.35","FL","f00qbt8xgh","1536","864","en","NE07SE16","null","","","","learningBlock1","","","","That was a dep.","null","","","","",""
"","html-keyboard-response","114","120091","0.0-6.0-2.35","FL","f00qbt8xgh","1536","864","en","NE07SE16","null","","","","learningBlock1","","","","<div style=""font-size:60px;""> </div>","null","FL","learning/Slide36.JPG","That was a dep.","",""
"","image-keyboard-response","115","120269","0.0-6.0-0.36","FL","f00qbt8xgh","1536","864","en","NE07SE16","null","","","","","","","","learning/Slide37.JPG","null","","","","",""
"","html-keyboard-response","116","121439","0.0-6.0-1.36","FL","f00qbt8xgh","1536","864","en","NE07SE16","null","","","","learningBlock1","","","","That was a tob.","null","","","","",""
"","html-keyboard-response","117","122441","0.0-6.0-2.36","FL","f00qbt8xgh","1536","864","en","NE07SE16","null","","","","learningBlock1","","","","<div style=""font-size:60px;""> </div>","null","FL","learning/Slide37.JPG","That was a tob.","",""
"","image-keyboard-response","118","122633","0.0-6.0-0.37","FL","f00qbt8xgh","1536","864","en","NE07SE16","null","","","","","","","","learning/Slide38.JPG","null","","","","",""
"","html-keyboard-response","119","123802","0.0-6.0-1.37","FL","f00qbt8xgh","1536","864","en","NE07SE16","null","","","","learningBlock1","","","","That was a wug.","null","","","","",""
"","html-keyboard-response","120","124805","0.0-6.0-2.37","FL","f00qbt8xgh","1536","864","en","NE07SE16","null","","","","learningBlock1","","","","<div style=""font-size:60px;""> </div>","null","FL","learning/Slide38.JPG","That was a wug.","",""
"","image-keyboard-response","121","124984","0.0-6.0-0.38","FL","f00qbt8xgh","1536","864","en","NE07SE16","null","","","","","","","","learning/Slide39.JPG","null","","","","",""
"","html-keyboard-response","122","126157","0.0-6.0-1.38","FL","f00qbt8xgh","1536","864","en","NE07SE16","null","","","","learningBlock1","","","","That was a bim.","null","","","","",""
"","html-keyboard-response","123","127164","0.0-6.0-2.38","FL","f00qbt8xgh","1536","864","en","NE07SE16","null","","","","learningBlock1","","","","<div style=""font-size:60px;""> </div>","null","FL","learning/Slide39.JPG","That was a bim.","",""
"","image-keyboard-response","124","127348","0.0-6.0-0.39","FL","f00qbt8xgh","1536","864","en","NE07SE16","null","","","","","","","","learning/Slide40.JPG","null","","","","",""
"","html-keyboard-response","125","128519","0.0-6.0-1.39","FL","f00qbt8xgh","1536","864","en","NE07SE16","null","","","","learningBlock1","","","","That was a tob.","null","","","","",""
"","html-keyboard-response","126","129536","0.0-6.0-2.39","FL","f00qbt8xgh","1536","864","en","NE07SE16","null","","","","learningBlock1","","","","<div style=""font-size:60px;""> </div>","null","FL","learning/Slide40.JPG","That was a tob.","",""
"","image-keyboard-response","127","129713","0.0-6.0-0.40","FL","f00qbt8xgh","1536","864","en","NE07SE16","null","","","","","","","","learning/Slide41.JPG","null","","","","",""
"","html-keyboard-response","128","130878","0.0-6.0-1.40","FL","f00qbt8xgh","1536","864","en","NE07SE16","null","","","","learningBlock1","","","","That was a bim.","null","","","","",""
"","html-keyboard-response","129","131895","0.0-6.0-2.40","FL","f00qbt8xgh","1536","864","en","NE07SE16","null","","","","learningBlock1","","","","<div style=""font-size:60px;""> </div>","null","FL","learning/Slide41.JPG","That was a bim.","",""
"","image-keyboard-response","130","132078","0.0-6.0-0.41","FL","f00qbt8xgh","1536","864","en","NE07SE16","null","","","","","","","","learning/Slide42.JPG","null","","","","",""
"","html-keyboard-response","131","133249","0.0-6.0-1.41","FL","f00qbt8xgh","1536","864","en","NE07SE16","null","","","","learningBlock1","","","","That was a dep.","null","","","","",""
"","html-keyboard-response","132","134260","0.0-6.0-2.41","FL","f00qbt8xgh","1536","864","en","NE07SE16","null","","","","learningBlock1","","","","<div style=""font-size:60px;""> </div>","null","FL","learning/Slide42.JPG","That was a dep.","",""
"","image-keyboard-response","133","134443","0.0-6.0-0.42","FL","f00qbt8xgh","1536","864","en","NE07SE16","null","","","","","","","","learning/Slide43.JPG","null","","","","",""
"","html-keyboard-response","134","135610","0.0-6.0-1.42","FL","f00qbt8xgh","1536","864","en","NE07SE16","null","","","","learningBlock1","","","","That was a wug.","null","","","","",""
"","html-keyboard-response","135","136619","0.0-6.0-2.42","FL","f00qbt8xgh","1536","864","en","NE07SE16","null","","","","learningBlock1","","","","<div style=""font-size:60px;""> </div>","null","FL","learning/Slide43.JPG","That was a wug.","",""
"","image-keyboard-response","136","136797","0.0-6.0-0.43","FL","f00qbt8xgh","1536","864","en","NE07SE16","null","","","","","","","","learning/Slide44.JPG","null","","","","",""
"","html-keyboard-response","137","137960","0.0-6.0-1.43","FL","f00qbt8xgh","1536","864","en","NE07SE16","null","","","","learningBlock1","","","","That was a bim.","null","","","","",""
"","html-keyboard-response","138","138962","0.0-6.0-2.43","FL","f00qbt8xgh","1536","864","en","NE07SE16","null","","","","learningBlock1","","","","<div style=""font-size:60px;""> </div>","null","FL","learning/Slide44.JPG","That was a bim.","",""
"","image-keyboard-response","139","139146","0.0-6.0-0.44","FL","f00qbt8xgh","1536","864","en","NE07SE16","null","","","","","","","","learning/Slide45.JPG","null","","","","",""
"","html-keyboard-response","140","140309","0.0-6.0-1.44","FL","f00qbt8xgh","1536","864","en","NE07SE16","null","","","","learningBlock1","","","","That was a wug.","null","","","","",""
"","html-keyboard-response","141","141325","0.0-6.0-2.44","FL","f00qbt8xgh","1536","864","en","NE07SE16","null","","","","learningBlock1","","","","<div style=""font-size:60px;""> </div>","null","FL","learning/Slide45.JPG","That was a wug.","",""
"","image-keyboard-response","142","141508","0.0-6.0-0.45","FL","f00qbt8xgh","1536","864","en","NE07SE16","null","","","","","","","","learning/Slide46.JPG","null","","","","",""
"","html-keyboard-response","143","142670","0.0-6.0-1.45","FL","f00qbt8xgh","1536","864","en","NE07SE16","null","","","","learningBlock1","","","","That was a dep.","null","","","","",""
"","html-keyboard-response","144","143684","0.0-6.0-2.45","FL","f00qbt8xgh","1536","864","en","NE07SE16","null","","","","learningBlock1","","","","<div style=""font-size:60px;""> </div>","null","FL","learning/Slide46.JPG","That was a dep.","",""
"","image-keyboard-response","145","143865","0.0-6.0-0.46","FL","f00qbt8xgh","1536","864","en","NE07SE16","null","","","","","","","","learning/Slide47.JPG","null","","","","",""
"","html-keyboard-response","146","145020","0.0-6.0-1.46","FL","f00qbt8xgh","1536","864","en","NE07SE16","null","","","","learningBlock1","","","","That was a tob.","null","","","","",""
"","html-keyboard-response","147","146032","0.0-6.0-2.46","FL","f00qbt8xgh","1536","864","en","NE07SE16","null","","","","learningBlock1","","","","<div style=""font-size:60px;""> </div>","null","FL","learning/Slide47.JPG","That was a tob.","",""
"","image-keyboard-response","148","146209","0.0-6.0-0.47","FL","f00qbt8xgh","1536","864","en","NE07SE16","null","","","","","","","","learning/Slide48.JPG","null","","","","",""
"","html-keyboard-response","149","147373","0.0-6.0-1.47","FL","f00qbt8xgh","1536","864","en","NE07SE16","null","","","","learningBlock1","","","","That was a bim.","null","","","","",""
"","html-keyboard-response","150","148383","0.0-6.0-2.47","FL","f00qbt8xgh","1536","864","en","NE07SE16","null","","","","learningBlock1","","","","<div style=""font-size:60px;""> </div>","null","FL","learning/Slide48.JPG","That was a bim.","",""
"","image-keyboard-response","151","148562","0.0-6.0-0.48","FL","f00qbt8xgh","1536","864","en","NE07SE16","null","","","","","","","","learning/Slide49.JPG","null","","","","",""
"","html-keyboard-response","152","149738","0.0-6.0-1.48","FL","f00qbt8xgh","1536","864","en","NE07SE16","null","","","","learningBlock1","","","","That was a dep.","null","","","","",""
"","html-keyboard-response","153","150740","0.0-6.0-2.48","FL","f00qbt8xgh","1536","864","en","NE07SE16","null","","","","learningBlock1","","","","<div style=""font-size:60px;""> </div>","null","FL","learning/Slide49.JPG","That was a dep.","",""
"","image-keyboard-response","154","150926","0.0-6.0-0.49","FL","f00qbt8xgh","1536","864","en","NE07SE16","null","","","","","","","","learning/Slide50.JPG","null","","","","",""
"","html-keyboard-response","155","152103","0.0-6.0-1.49","FL","f00qbt8xgh","1536","864","en","NE07SE16","null","","","","learningBlock1","","","","That was a tob.","null","","","","",""
"","html-keyboard-response","156","153118","0.0-6.0-2.49","FL","f00qbt8xgh","1536","864","en","NE07SE16","null","","","","learningBlock1","","","","<div style=""font-size:60px;""> </div>","null","FL","learning/Slide50.JPG","That was a tob.","",""
"","image-keyboard-response","157","153305","0.0-6.0-0.50","FL","f00qbt8xgh","1536","864","en","NE07SE16","null","","","","","","","","learning/Slide51.JPG","null","","","","",""
"","html-keyboard-response","158","154463","0.0-6.0-1.50","FL","f00qbt8xgh","1536","864","en","NE07SE16","null","","","","learningBlock1","","","","That was a bim.","null","","","","",""
"","html-keyboard-response","159","155471","0.0-6.0-2.50","FL","f00qbt8xgh","1536","864","en","NE07SE16","null","","","","learningBlock1","","","","<div style=""font-size:60px;""> </div>","null","FL","learning/Slide51.JPG","That was a bim.","",""
"","image-keyboard-response","160","155656","0.0-6.0-0.51","FL","f00qbt8xgh","1536","864","en","NE07SE16","null","","","","","","","","learning/Slide52.JPG","null","","","","",""
"","html-keyboard-response","161","156826","0.0-6.0-1.51","FL","f00qbt8xgh","1536","864","en","NE07SE16","null","","","","learningBlock1","","","","That was a wug.","null","","","","",""
"","html-keyboard-response","162","157839","0.0-6.0-2.51","FL","f00qbt8xgh","1536","864","en","NE07SE16","null","","","","learningBlock1","","","","<div style=""font-size:60px;""> </div>","null","FL","learning/Slide52.JPG","That was a wug.","",""
"","image-keyboard-response","163","158018","0.0-6.0-0.52","FL","f00qbt8xgh","1536","864","en","NE07SE16","null","","","","","","","","learning/Slide53.JPG","null","","","","",""
"","html-keyboard-response","164","159184","0.0-6.0-1.52","FL","f00qbt8xgh","1536","864","en","NE07SE16","null","","","","learningBlock1","","","","That was a tob.","null","","","","",""
"","html-keyboard-response","165","160199","0.0-6.0-2.52","FL","f00qbt8xgh","1536","864","en","NE07SE16","null","","","","learningBlock1","","","","<div style=""font-size:60px;""> </div>","null","FL","learning/Slide53.JPG","That was a tob.","",""
"","image-keyboard-response","166","160384","0.0-6.0-0.53","FL","f00qbt8xgh","1536","864","en","NE07SE16","null","","","","","","","","learning/Slide54.JPG","null","","","","",""
"","html-keyboard-response","167","161552","0.0-6.0-1.53","FL","f00qbt8xgh","1536","864","en","NE07SE16","null","","","","learningBlock1","","","","That was a dep.","null","","","","",""
"","html-keyboard-response","168","162564","0.0-6.0-2.53","FL","f00qbt8xgh","1536","864","en","NE07SE16","null","","","","learningBlock1","","","","<div style=""font-size:60px;""> </div>","null","FL","learning/Slide54.JPG","That was a dep.","",""
"","image-keyboard-response","169","162748","0.0-6.0-0.54","FL","f00qbt8xgh","1536","864","en","NE07SE16","null","","","","","","","","learning/Slide55.JPG","null","","","","",""
"","html-keyboard-response","170","163918","0.0-6.0-1.54","FL","f00qbt8xgh","1536","864","en","NE07SE16","null","","","","learningBlock1","","","","That was a bim.","null","","","","",""
"","html-keyboard-response","171","164937","0.0-6.0-2.54","FL","f00qbt8xgh","1536","864","en","NE07SE16","null","","","","learningBlock1","","","","<div style=""font-size:60px;""> </div>","null","FL","learning/Slide55.JPG","That was a bim.","",""
"","image-keyboard-response","172","165128","0.0-6.0-0.55","FL","f00qbt8xgh","1536","864","en","NE07SE16","null","","","","","","","","learning/Slide56.JPG","null","","","","",""
"","html-keyboard-response","173","166297","0.0-6.0-1.55","FL","f00qbt8xgh","1536","864","en","NE07SE16","null","","","","learningBlock1","","","","That was a tob.","null","","","","",""
"","html-keyboard-response","174","167303","0.0-6.0-2.55","FL","f00qbt8xgh","1536","864","en","NE07SE16","null","","","","learningBlock1","","","","<div style=""font-size:60px;""> </div>","null","FL","learning/Slide56.JPG","That was a tob.","",""
"","image-keyboard-response","175","167481","0.0-6.0-0.56","FL","f00qbt8xgh","1536","864","en","NE07SE16","null","","","","","","","","learning/Slide57.JPG","null","","","","",""
"","html-keyboard-response","176","168652","0.0-6.0-1.56","FL","f00qbt8xgh","1536","864","en","NE07SE16","null","","","","learningBlock1","","","","That was a dep.","null","","","","",""
"","html-keyboard-response","177","169666","0.0-6.0-2.56","FL","f00qbt8xgh","1536","864","en","NE07SE16","null","","","","learningBlock1","","","","<div style=""font-size:60px;""> </div>","null","FL","learning/Slide57.JPG","That was a dep.","",""
"","image-keyboard-response","178","169844","0.0-6.0-0.57","FL","f00qbt8xgh","1536","864","en","NE07SE16","null","","","","","","","","learning/Slide58.JPG","null","","","","",""
"","html-keyboard-response","179","171021","0.0-6.0-1.57","FL","f00qbt8xgh","1536","864","en","NE07SE16","null","","","","learningBlock1","","","","That was a wug.","null","","","","",""
"","html-keyboard-response","180","172037","0.0-6.0-2.57","FL","f00qbt8xgh","1536","864","en","NE07SE16","null","","","","learningBlock1","","","","<div style=""font-size:60px;""> </div>","null","FL","learning/Slide58.JPG","That was a wug.","",""
"","image-keyboard-response","181","172223","0.0-6.0-0.58","FL","f00qbt8xgh","1536","864","en","NE07SE16","null","","","","","","","","learning/Slide59.JPG","null","","","","",""
"","html-keyboard-response","182","173386","0.0-6.0-1.58","FL","f00qbt8xgh","1536","864","en","NE07SE16","null","","","","learningBlock1","","","","That was a dep.","null","","","","",""
"","html-keyboard-response","183","174403","0.0-6.0-2.58","FL","f00qbt8xgh","1536","864","en","NE07SE16","null","","","","learningBlock1","","","","<div style=""font-size:60px;""> </div>","null","FL","learning/Slide59.JPG","That was a dep.","",""
"","image-keyboard-response","184","174591","0.0-6.0-0.59","FL","f00qbt8xgh","1536","864","en","NE07SE16","null","","","","","","","","learning/Slide60.JPG","null","","","","",""
"","html-keyboard-response","185","175755","0.0-6.0-1.59","FL","f00qbt8xgh","1536","864","en","NE07SE16","null","","","","learningBlock1","","","","That was a wug.","null","","","","",""
"","html-keyboard-response","186","176766","0.0-6.0-2.59","FL","f00qbt8xgh","1536","864","en","NE07SE16","null","","","","learningBlock1","","","","<div style=""font-size:60px;""> </div>","null","FL","learning/Slide60.JPG","That was a wug.","",""
"","image-keyboard-response","187","176943","0.0-6.0-0.60","FL","f00qbt8xgh","1536","864","en","NE07SE16","null","","","","","","","","learning/Slide61.JPG","null","","","","",""
"","html-keyboard-response","188","178109","0.0-6.0-1.60","FL","f00qbt8xgh","1536","864","en","NE07SE16","null","","","","learningBlock1","","","","That was a bim.","null","","","","",""
"","html-keyboard-response","189","179115","0.0-6.0-2.60","FL","f00qbt8xgh","1536","864","en","NE07SE16","null","","","","learningBlock1","","","","<div style=""font-size:60px;""> </div>","null","FL","learning/Slide61.JPG","That was a bim.","",""
"","image-keyboard-response","190","179304","0.0-6.0-0.61","FL","f00qbt8xgh","1536","864","en","NE07SE16","null","","","","","","","","learning/Slide62.JPG","null","","","","",""
"","html-keyboard-response","191","180474","0.0-6.0-1.61","FL","f00qbt8xgh","1536","864","en","NE07SE16","null","","","","learningBlock1","","","","That was a dep.","null","","","","",""
"","html-keyboard-response","192","181485","0.0-6.0-2.61","FL","f00qbt8xgh","1536","864","en","NE07SE16","null","","","","learningBlock1","","","","<div style=""font-size:60px;""> </div>","null","FL","learning/Slide62.JPG","That was a dep.","",""
"","image-keyboard-response","193","181663","0.0-6.0-0.62","FL","f00qbt8xgh","1536","864","en","NE07SE16","null","","","","","","","","learning/Slide63.JPG","null","","","","",""
"","html-keyboard-response","194","182834","0.0-6.0-1.62","FL","f00qbt8xgh","1536","864","en","NE07SE16","null","","","","learningBlock1","","","","That was a bim.","null","","","","",""
"","html-keyboard-response","195","183843","0.0-6.0-2.62","FL","f00qbt8xgh","1536","864","en","NE07SE16","null","","","","learningBlock1","","","","<div style=""font-size:60px;""> </div>","null","FL","learning/Slide63.JPG","That was a bim.","",""
"","image-keyboard-response","196","184020","0.0-6.0-0.63","FL","f00qbt8xgh","1536","864","en","NE07SE16","null","","","","","","","","learning/Slide64.JPG","null","","","","",""
"","html-keyboard-response","197","185192","0.0-6.0-1.63","FL","f00qbt8xgh","1536","864","en","NE07SE16","null","","","","learningBlock1","","","","That was a tob.","null","","","","",""
"","html-keyboard-response","198","186203","0.0-6.0-2.63","FL","f00qbt8xgh","1536","864","en","NE07SE16","null","","","","learningBlock1","","","","<div style=""font-size:60px;""> </div>","null","FL","learning/Slide64.JPG","That was a tob.","",""
"","image-keyboard-response","199","186391","0.0-6.0-0.64","FL","f00qbt8xgh","1536","864","en","NE07SE16","null","","","","","","","","learning/Slide65.JPG","null","","","","",""
"","html-keyboard-response","200","187566","0.0-6.0-1.64","FL","f00qbt8xgh","1536","864","en","NE07SE16","null","","","","learningBlock1","","","","That was a wug.","null","","","","",""
"","html-keyboard-response","201","188581","0.0-6.0-2.64","FL","f00qbt8xgh","1536","864","en","NE07SE16","null","","","","learningBlock1","","","","<div style=""font-size:60px;""> </div>","null","FL","learning/Slide65.JPG","That was a wug.","",""
"","image-keyboard-response","202","188773","0.0-6.0-0.65","FL","f00qbt8xgh","1536","864","en","NE07SE16","null","","","","","","","","learning/Slide66.JPG","null","","","","",""
"","html-keyboard-response","203","189938","0.0-6.0-1.65","FL","f00qbt8xgh","1536","864","en","NE07SE16","null","","","","learningBlock1","","","","That was a dep.","null","","","","",""
"","html-keyboard-response","204","190954","0.0-6.0-2.65","FL","f00qbt8xgh","1536","864","en","NE07SE16","null","","","","learningBlock1","","","","<div style=""font-size:60px;""> </div>","null","FL","learning/Slide66.JPG","That was a dep.","",""
"","image-keyboard-response","205","191145","0.0-6.0-0.66","FL","f00qbt8xgh","1536","864","en","NE07SE16","null","","","","","","","","learning/Slide67.JPG","null","","","","",""
"","html-keyboard-response","206","192311","0.0-6.0-1.66","FL","f00qbt8xgh","1536","864","en","NE07SE16","null","","","","learningBlock1","","","","That was a tob.","null","","","","",""
"","html-keyboard-response","207","193327","0.0-6.0-2.66","FL","f00qbt8xgh","1536","864","en","NE07SE16","null","","","","learningBlock1","","","","<div style=""font-size:60px;""> </div>","null","FL","learning/Slide67.JPG","That was a tob.","",""
"","image-keyboard-response","208","193518","0.0-6.0-0.67","FL","f00qbt8xgh","1536","864","en","NE07SE16","null","","","","","","","","learning/Slide68.JPG","null","","","","",""
"","html-keyboard-response","209","194695","0.0-6.0-1.67","FL","f00qbt8xgh","1536","864","en","NE07SE16","null","","","","learningBlock1","","","","That was a wug.","null","","","","",""
"","html-keyboard-response","210","195707","0.0-6.0-2.67","FL","f00qbt8xgh","1536","864","en","NE07SE16","null","","","","learningBlock1","","","","<div style=""font-size:60px;""> </div>","null","FL","learning/Slide68.JPG","That was a wug.","",""
"","image-keyboard-response","211","195890","0.0-6.0-0.68","FL","f00qbt8xgh","1536","864","en","NE07SE16","null","","","","","","","","learning/Slide69.JPG","null","","","","",""
"","html-keyboard-response","212","197045","0.0-6.0-1.68","FL","f00qbt8xgh","1536","864","en","NE07SE16","null","","","","learningBlock1","","","","That was a tob.","null","","","","",""
"","html-keyboard-response","213","198053","0.0-6.0-2.68","FL","f00qbt8xgh","1536","864","en","NE07SE16","null","","","","learningBlock1","","","","<div style=""font-size:60px;""> </div>","null","FL","learning/Slide69.JPG","That was a tob.","",""
"","image-keyboard-response","214","198231","0.0-6.0-0.69","FL","f00qbt8xgh","1536","864","en","NE07SE16","null","","","","","","","","learning/Slide70.JPG","null","","","","",""
"","html-keyboard-response","215","199415","0.0-6.0-1.69","FL","f00qbt8xgh","1536","864","en","NE07SE16","null","","","","learningBlock1","","","","That was a dep.","null","","","","",""
"","html-keyboard-response","216","200418","0.0-6.0-2.69","FL","f00qbt8xgh","1536","864","en","NE07SE16","null","","","","learningBlock1","","","","<div style=""font-size:60px;""> </div>","null","FL","learning/Slide70.JPG","That was a dep.","",""
"","image-keyboard-response","217","200610","0.0-6.0-0.70","FL","f00qbt8xgh","1536","864","en","NE07SE16","null","","","","","","","","learning/Slide71.JPG","null","","","","",""
"","html-keyboard-response","218","201788","0.0-6.0-1.70","FL","f00qbt8xgh","1536","864","en","NE07SE16","null","","","","learningBlock1","","","","That was a wug.","null","","","","",""
"","html-keyboard-response","219","202799","0.0-6.0-2.70","FL","f00qbt8xgh","1536","864","en","NE07SE16","null","","","","learningBlock1","","","","<div style=""font-size:60px;""> </div>","null","FL","learning/Slide71.JPG","That was a wug.","",""
"","image-keyboard-response","220","202991","0.0-6.0-0.71","FL","f00qbt8xgh","1536","864","en","NE07SE16","null","","","","","","","","learning/Slide72.JPG","null","","","","",""
"","html-keyboard-response","221","204163","0.0-6.0-1.71","FL","f00qbt8xgh","1536","864","en","NE07SE16","null","","","","learningBlock1","","","","That was a bim.","null","","","","",""
"","html-keyboard-response","222","205171","0.0-6.0-2.71","FL","f00qbt8xgh","1536","864","en","NE07SE16","null","","","","learningBlock1","","","","<div style=""font-size:60px;""> </div>","null","FL","learning/Slide72.JPG","That was a bim.","",""
"","image-keyboard-response","223","205362","0.0-6.0-0.72","FL","f00qbt8xgh","1536","864","en","NE07SE16","null","","","","","","","","learning/Slide73.JPG","null","","","","",""
"","html-keyboard-response","224","206552","0.0-6.0-1.72","FL","f00qbt8xgh","1536","864","en","NE07SE16","null","","","","learningBlock1","","","","That was a wug.","null","","","","",""
"","html-keyboard-response","225","207568","0.0-6.0-2.72","FL","f00qbt8xgh","1536","864","en","NE07SE16","null","","","","learningBlock1","","","","<div style=""font-size:60px;""> </div>","null","FL","learning/Slide73.JPG","That was a wug.","",""
"","image-keyboard-response","226","207754","0.0-6.0-0.73","FL","f00qbt8xgh","1536","864","en","NE07SE16","null","","","","","","","","learning/Slide74.JPG","null","","","","",""
"","html-keyboard-response","227","208907","0.0-6.0-1.73","FL","f00qbt8xgh","1536","864","en","NE07SE16","null","","","","learningBlock1","","","","That was a dep.","null","","","","",""
"","html-keyboard-response","228","209910","0.0-6.0-2.73","FL","f00qbt8xgh","1536","864","en","NE07SE16","null","","","","learningBlock1","","","","<div style=""font-size:60px;""> </div>","null","FL","learning/Slide74.JPG","That was a dep.","",""
"","image-keyboard-response","229","210088","0.0-6.0-0.74","FL","f00qbt8xgh","1536","864","en","NE07SE16","null","","","","","","","","learning/Slide75.JPG","null","","","","",""
"","html-keyboard-response","230","211256","0.0-6.0-1.74","FL","f00qbt8xgh","1536","864","en","NE07SE16","null","","","","learningBlock1","","","","That was a tob.","null","","","","",""
"","html-keyboard-response","231","212274","0.0-6.0-2.74","FL","f00qbt8xgh","1536","864","en","NE07SE16","null","","","","learningBlock1","","","","<div style=""font-size:60px;""> </div>","null","FL","learning/Slide75.JPG","That was a tob.","",""
"","image-keyboard-response","232","212452","0.0-6.0-0.75","FL","f00qbt8xgh","1536","864","en","NE07SE16","null","","","","","","","","learning/Slide76.JPG","null","","","","",""
"","html-keyboard-response","233","213627","0.0-6.0-1.75","FL","f00qbt8xgh","1536","864","en","NE07SE16","null","","","","learningBlock1","","","","That was a bim.","null","","","","",""
"","html-keyboard-response","234","214644","0.0-6.0-2.75","FL","f00qbt8xgh","1536","864","en","NE07SE16","null","","","","learningBlock1","","","","<div style=""font-size:60px;""> </div>","null","FL","learning/Slide76.JPG","That was a bim.","",""
"","image-keyboard-response","235","214820","0.0-6.0-0.76","FL","f00qbt8xgh","1536","864","en","NE07SE16","null","","","","","","","","learning/Slide77.JPG","null","","","","",""
"","html-keyboard-response","236","215991","0.0-6.0-1.76","FL","f00qbt8xgh","1536","864","en","NE07SE16","null","","","","learningBlock1","","","","That was a tob.","null","","","","",""
"","html-keyboard-response","237","217006","0.0-6.0-2.76","FL","f00qbt8xgh","1536","864","en","NE07SE16","null","","","","learningBlock1","","","","<div style=""font-size:60px;""> </div>","null","FL","learning/Slide77.JPG","That was a tob.","",""
"","image-keyboard-response","238","217193","0.0-6.0-0.77","FL","f00qbt8xgh","1536","864","en","NE07SE16","null","","","","","","","","learning/Slide78.JPG","null","","","","",""
"","html-keyboard-response","239","218353","0.0-6.0-1.77","FL","f00qbt8xgh","1536","864","en","NE07SE16","null","","","","learningBlock1","","","","That was a wug.","null","","","","",""
"","html-keyboard-response","240","219369","0.0-6.0-2.77","FL","f00qbt8xgh","1536","864","en","NE07SE16","null","","","","learningBlock1","","","","<div style=""font-size:60px;""> </div>","null","FL","learning/Slide78.JPG","That was a wug.","",""
"","image-keyboard-response","241","219547","0.0-6.0-0.78","FL","f00qbt8xgh","1536","864","en","NE07SE16","null","","","","","","","","learning/Slide79.JPG","null","","","","",""
"","html-keyboard-response","242","220717","0.0-6.0-1.78","FL","f00qbt8xgh","1536","864","en","NE07SE16","null","","","","learningBlock1","","","","That was a bim.","null","","","","",""
"","html-keyboard-response","243","221730","0.0-6.0-2.78","FL","f00qbt8xgh","1536","864","en","NE07SE16","null","","","","learningBlock1","","","","<div style=""font-size:60px;""> </div>","null","FL","learning/Slide79.JPG","That was a bim.","",""
"","image-keyboard-response","244","221915","0.0-6.0-0.79","FL","f00qbt8xgh","1536","864","en","NE07SE16","null","","","","","","","","learning/Slide80.JPG","null","","","","",""
"","html-keyboard-response","245","223082","0.0-6.0-1.79","FL","f00qbt8xgh","1536","864","en","NE07SE16","null","","","","learningBlock1","","","","That was a tob.","null","","","","",""
"","html-keyboard-response","246","224094","0.0-6.0-2.79","FL","f00qbt8xgh","1536","864","en","NE07SE16","null","","","","learningBlock1","","","","<div style=""font-size:60px;""> </div>","null","FL","learning/Slide80.JPG","That was a tob.","",""
"","instructions","247","231068","0.0-7.0","FL","f00qbt8xgh","1536","864","en","NE07SE16","NA","","","[{""page_index"":0,""viewing_time"":6971.554999938235}]","instructions","","","","","","","","","",""
"","image-keyboard-response","248","231254","0.0-8.0-0.0","FL","f00qbt8xgh","1536","864","en","NE07SE16","null","","","","","","","","learning/Slide81.JPG","null","","","","",""
"","html-keyboard-response","249","232423","0.0-8.0-1.0","FL","f00qbt8xgh","1536","864","en","NE07SE16","null","","","","learningBlock2","","","","That was a wug.","null","","","","",""
"","html-keyboard-response","250","233437","0.0-8.0-2.0","FL","f00qbt8xgh","1536","864","en","NE07SE16","null","","","","learningBlock2","","","","<div style=""font-size:60px;""> </div>","null","FL","learning/Slide81.JPG","That was a wug.","",""
"","image-keyboard-response","251","233616","0.0-8.0-0.1","FL","f00qbt8xgh","1536","864","en","NE07SE16","null","","","","","","","","learning/Slide82.JPG","null","","","","",""
"","html-keyboard-response","252","234774","0.0-8.0-1.1","FL","f00qbt8xgh","1536","864","en","NE07SE16","null","","","","learningBlock2","","","","That was a bim.","null","","","","",""
"","html-keyboard-response","253","235783","0.0-8.0-2.1","FL","f00qbt8xgh","1536","864","en","NE07SE16","null","","","","learningBlock2","","","","<div style=""font-size:60px;""> </div>","null","FL","learning/Slide82.JPG","That was a bim.","",""
"","image-keyboard-response","254","235965","0.0-8.0-0.2","FL","f00qbt8xgh","1536","864","en","NE07SE16","null","","","","","","","","learning/Slide83.JPG","null","","","","",""
"","html-keyboard-response","255","237129","0.0-8.0-1.2","FL","f00qbt8xgh","1536","864","en","NE07SE16","null","","","","learningBlock2","","","","That was a wug.","null","","","","",""
"","html-keyboard-response","256","238146","0.0-8.0-2.2","FL","f00qbt8xgh","1536","864","en","NE07SE16","null","","","","learningBlock2","","","","<div style=""font-size:60px;""> </div>","null","FL","learning/Slide83.JPG","That was a wug.","",""
"","image-keyboard-response","257","238330","0.0-8.0-0.3","FL","f00qbt8xgh","1536","864","en","NE07SE16","null","","","","","","","","learning/Slide84.JPG","null","","","","",""
"","html-keyboard-response","258","239500","0.0-8.0-1.3","FL","f00qbt8xgh","1536","864","en","NE07SE16","null","","","","learningBlock2","","","","That was a dep.","null","","","","",""
"","html-keyboard-response","259","240509","0.0-8.0-2.3","FL","f00qbt8xgh","1536","864","en","NE07SE16","null","","","","learningBlock2","","","","<div style=""font-size:60px;""> </div>","null","FL","learning/Slide84.JPG","That was a dep.","",""
"","image-keyboard-response","260","240692","0.0-8.0-0.4","FL","f00qbt8xgh","1536","864","en","NE07SE16","null","","","","","","","","learning/Slide85.JPG","null","","","","",""
"","html-keyboard-response","261","241860","0.0-8.0-1.4","FL","f00qbt8xgh","1536","864","en","NE07SE16","null","","","","learningBlock2","","","","That was a bim.","null","","","","",""
"","html-keyboard-response","262","242871","0.0-8.0-2.4","FL","f00qbt8xgh","1536","864","en","NE07SE16","null","","","","learningBlock2","","","","<div style=""font-size:60px;""> </div>","null","FL","learning/Slide85.JPG","That was a bim.","",""
"","image-keyboard-response","263","243056","0.0-8.0-0.5","FL","f00qbt8xgh","1536","864","en","NE07SE16","null","","","","","","","","learning/Slide86.JPG","null","","","","",""
"","html-keyboard-response","264","244220","0.0-8.0-1.5","FL","f00qbt8xgh","1536","864","en","NE07SE16","null","","","","learningBlock2","","","","That was a tob.","null","","","","",""
"","html-keyboard-response","265","245238","0.0-8.0-2.5","FL","f00qbt8xgh","1536","864","en","NE07SE16","null","","","","learningBlock2","","","","<div style=""font-size:60px;""> </div>","null","FL","learning/Slide86.JPG","That was a tob.","",""
"","image-keyboard-response","266","245426","0.0-8.0-0.6","FL","f00qbt8xgh","1536","864","en","NE07SE16","null","","","","","","","","learning/Slide87.JPG","null","","","","",""
"","html-keyboard-response","267","246602","0.0-8.0-1.6","FL","f00qbt8xgh","1536","864","en","NE07SE16","null","","","","learningBlock2","","","","That was a wug.","null","","","","",""
"","html-keyboard-response","268","247616","0.0-8.0-2.6","FL","f00qbt8xgh","1536","864","en","NE07SE16","null","","","","learningBlock2","","","","<div style=""font-size:60px;""> </div>","null","FL","learning/Slide87.JPG","That was a wug.","",""
"","image-keyboard-response","269","247800","0.0-8.0-0.7","FL","f00qbt8xgh","1536","864","en","NE07SE16","null","","","","","","","","learning/Slide88.JPG","null","","","","",""
"","html-keyboard-response","270","248959","0.0-8.0-1.7","FL","f00qbt8xgh","1536","864","en","NE07SE16","null","","","","learningBlock2","","","","That was a tob.","null","","","","",""
"","html-keyboard-response","271","249964","0.0-8.0-2.7","FL","f00qbt8xgh","1536","864","en","NE07SE16","null","","","","learningBlock2","","","","<div style=""font-size:60px;""> </div>","null","FL","learning/Slide88.JPG","That was a tob.","",""
"","image-keyboard-response","272","250149","0.0-8.0-0.8","FL","f00qbt8xgh","1536","864","en","NE07SE16","null","","","","","","","","learning/Slide89.JPG","null","","","","",""
"","html-keyboard-response","273","251318","0.0-8.0-1.8","FL","f00qbt8xgh","1536","864","en","NE07SE16","null","","","","learningBlock2","","","","That was a bim.","null","","","","",""
"","html-keyboard-response","274","252322","0.0-8.0-2.8","FL","f00qbt8xgh","1536","864","en","NE07SE16","null","","","","learningBlock2","","","","<div style=""font-size:60px;""> </div>","null","FL","learning/Slide89.JPG","That was a bim.","",""
"","image-keyboard-response","275","252501","0.0-8.0-0.9","FL","f00qbt8xgh","1536","864","en","NE07SE16","null","","","","","","","","learning/Slide90.JPG","null","","","","",""
"","html-keyboard-response","276","253675","0.0-8.0-1.9","FL","f00qbt8xgh","1536","864","en","NE07SE16","null","","","","learningBlock2","","","","That was a dep.","null","","","","",""
"","html-keyboard-response","277","254686","0.0-8.0-2.9","FL","f00qbt8xgh","1536","864","en","NE07SE16","null","","","","learningBlock2","","","","<div style=""font-size:60px;""> </div>","null","FL","learning/Slide90.JPG","That was a dep.","",""
"","image-keyboard-response","278","254864","0.0-8.0-0.10","FL","f00qbt8xgh","1536","864","en","NE07SE16","null","","","","","","","","learning/Slide91.JPG","null","","","","",""
"","html-keyboard-response","279","256036","0.0-8.0-1.10","FL","f00qbt8xgh","1536","864","en","NE07SE16","null","","","","learningBlock2","","","","That was a wug.","null","","","","",""
"","html-keyboard-response","280","257043","0.0-8.0-2.10","FL","f00qbt8xgh","1536","864","en","NE07SE16","null","","","","learningBlock2","","","","<div style=""font-size:60px;""> </div>","null","FL","learning/Slide91.JPG","That was a wug.","",""
"","image-keyboard-response","281","257230","0.0-8.0-0.11","FL","f00qbt8xgh","1536","864","en","NE07SE16","null","","","","","","","","learning/Slide92.JPG","null","","","","",""
"","html-keyboard-response","282","258390","0.0-8.0-1.11","FL","f00qbt8xgh","1536","864","en","NE07SE16","null","","","","learningBlock2","","","","That was a tob.","null","","","","",""
"","html-keyboard-response","283","259396","0.0-8.0-2.11","FL","f00qbt8xgh","1536","864","en","NE07SE16","null","","","","learningBlock2","","","","<div style=""font-size:60px;""> </div>","null","FL","learning/Slide92.JPG","That was a tob.","",""
"","image-keyboard-response","284","259587","0.0-8.0-0.12","FL","f00qbt8xgh","1536","864","en","NE07SE16","null","","","","","","","","learning/Slide93.JPG","null","","","","",""
"","html-keyboard-response","285","260743","0.0-8.0-1.12","FL","f00qbt8xgh","1536","864","en","NE07SE16","null","","","","learningBlock2","","","","That was a bim.","null","","","","",""
"","html-keyboard-response","286","261759","0.0-8.0-2.12","FL","f00qbt8xgh","1536","864","en","NE07SE16","null","","","","learningBlock2","","","","<div style=""font-size:60px;""> </div>","null","FL","learning/Slide93.JPG","That was a bim.","",""
"","image-keyboard-response","287","261940","0.0-8.0-0.13","FL","f00qbt8xgh","1536","864","en","NE07SE16","null","","","","","","","","learning/Slide94.JPG","null","","","","",""
"","html-keyboard-response","288","263095","0.0-8.0-1.13","FL","f00qbt8xgh","1536","864","en","NE07SE16","null","","","","learningBlock2","","","","That was a tob.","null","","","","",""
"","html-keyboard-response","289","264107","0.0-8.0-2.13","FL","f00qbt8xgh","1536","864","en","NE07SE16","null","","","","learningBlock2","","","","<div style=""font-size:60px;""> </div>","null","FL","learning/Slide94.JPG","That was a tob.","",""
"","image-keyboard-response","290","264286","0.0-8.0-0.14","FL","f00qbt8xgh","1536","864","en","NE07SE16","null","","","","","","","","learning/Slide95.JPG","null","","","","",""
"","html-keyboard-response","291","265450","0.0-8.0-1.14","FL","f00qbt8xgh","1536","864","en","NE07SE16","null","","","","learningBlock2","","","","That was a wug.","null","","","","",""
"","html-keyboard-response","292","266460","0.0-8.0-2.14","FL","f00qbt8xgh","1536","864","en","NE07SE16","null","","","","learningBlock2","","","","<div style=""font-size:60px;""> </div>","null","FL","learning/Slide95.JPG","That was a wug.","",""
"","image-keyboard-response","293","266650","0.0-8.0-0.15","FL","f00qbt8xgh","1536","864","en","NE07SE16","null","","","","","","","","learning/Slide96.JPG","null","","","","",""
"","html-keyboard-response","294","267816","0.0-8.0-1.15","FL","f00qbt8xgh","1536","864","en","NE07SE16","null","","","","learningBlock2","","","","That was a tob.","null","","","","",""
"","html-keyboard-response","295","268828","0.0-8.0-2.15","FL","f00qbt8xgh","1536","864","en","NE07SE16","null","","","","learningBlock2","","","","<div style=""font-size:60px;""> </div>","null","FL","learning/Slide96.JPG","That was a tob.","",""
"","image-keyboard-response","296","269006","0.0-8.0-0.16","FL","f00qbt8xgh","1536","864","en","NE07SE16","null","","","","","","","","learning/Slide97.JPG","null","","","","",""
"","html-keyboard-response","297","270176","0.0-8.0-1.16","FL","f00qbt8xgh","1536","864","en","NE07SE16","null","","","","learningBlock2","","","","That was a dep.","null","","","","",""
"","html-keyboard-response","298","271179","0.0-8.0-2.16","FL","f00qbt8xgh","1536","864","en","NE07SE16","null","","","","learningBlock2","","","","<div style=""font-size:60px;""> </div>","null","FL","learning/Slide97.JPG","That was a dep.","",""
"","image-keyboard-response","299","271367","0.0-8.0-0.17","FL","f00qbt8xgh","1536","864","en","NE07SE16","null","","","","","","","","learning/Slide98.JPG","null","","","","",""
"","html-keyboard-response","300","272544","0.0-8.0-1.17","FL","f00qbt8xgh","1536","864","en","NE07SE16","null","","","","learningBlock2","","","","That was a bim.","null","","","","",""
"","html-keyboard-response","301","273553","0.0-8.0-2.17","FL","f00qbt8xgh","1536","864","en","NE07SE16","null","","","","learningBlock2","","","","<div style=""font-size:60px;""> </div>","null","FL","learning/Slide98.JPG","That was a bim.","",""
"","image-keyboard-response","302","273730","0.0-8.0-0.18","FL","f00qbt8xgh","1536","864","en","NE07SE16","null","","","","","","","","learning/Slide99.JPG","null","","","","",""
"","html-keyboard-response","303","274903","0.0-8.0-1.18","FL","f00qbt8xgh","1536","864","en","NE07SE16","null","","","","learningBlock2","","","","That was a dep.","null","","","","",""
"","html-keyboard-response","304","275918","0.0-8.0-2.18","FL","f00qbt8xgh","1536","864","en","NE07SE16","null","","","","learningBlock2","","","","<div style=""font-size:60px;""> </div>","null","FL","learning/Slide99.JPG","That was a dep.","",""
"","image-keyboard-response","305","276098","0.0-8.0-0.19","FL","f00qbt8xgh","1536","864","en","NE07SE16","null","","","","","","","","learning/Slide100.JPG","null","","","","",""
"","html-keyboard-response","306","277273","0.0-8.0-1.19","FL","f00qbt8xgh","1536","864","en","NE07SE16","null","","","","learningBlock2","","","","That was a bim.","null","","","","",""
"","html-keyboard-response","307","278292","0.0-8.0-2.19","FL","f00qbt8xgh","1536","864","en","NE07SE16","null","","","","learningBlock2","","","","<div style=""font-size:60px;""> </div>","null","FL","learning/Slide100.JPG","That was a bim.","",""
"","image-keyboard-response","308","278479","0.0-8.0-0.20","FL","f00qbt8xgh","1536","864","en","NE07SE16","null","","","","","","","","learning/Slide101.JPG","null","","","","",""
"","html-keyboard-response","309","279648","0.0-8.0-1.20","FL","f00qbt8xgh","1536","864","en","NE07SE16","null","","","","learningBlock2","","","","That was a tob.","null","","","","",""
"","html-keyboard-response","310","280665","0.0-8.0-2.20","FL","f00qbt8xgh","1536","864","en","NE07SE16","null","","","","learningBlock2","","","","<div style=""font-size:60px;""> </div>","null","FL","learning/Slide101.JPG","That was a tob.","",""
"","image-keyboard-response","311","280843","0.0-8.0-0.21","FL","f00qbt8xgh","1536","864","en","NE07SE16","null","","","","","","","","learning/Slide102.JPG","null","","","","",""
"","html-keyboard-response","312","282018","0.0-8.0-1.21","FL","f00qbt8xgh","1536","864","en","NE07SE16","null","","","","learningBlock2","","","","That was a bim.","null","","","","",""
"","html-keyboard-response","313","283032","0.0-8.0-2.21","FL","f00qbt8xgh","1536","864","en","NE07SE16","null","","","","learningBlock2","","","","<div style=""font-size:60px;""> </div>","null","FL","learning/Slide102.JPG","That was a bim.","",""
"","image-keyboard-response","314","283222","0.0-8.0-0.22","FL","f00qbt8xgh","1536","864","en","NE07SE16","null","","","","","","","","learning/Slide103.JPG","null","","","","",""
"","html-keyboard-response","315","284388","0.0-8.0-1.22","FL","f00qbt8xgh","1536","864","en","NE07SE16","null","","","","learningBlock2","","","","That was a dep.","null","","","","",""
"","html-keyboard-response","316","285404","0.0-8.0-2.22","FL","f00qbt8xgh","1536","864","en","NE07SE16","null","","","","learningBlock2","","","","<div style=""font-size:60px;""> </div>","null","FL","learning/Slide103.JPG","That was a dep.","",""
"","image-keyboard-response","317","285587","0.0-8.0-0.23","FL","f00qbt8xgh","1536","864","en","NE07SE16","null","","","","","","","","learning/Slide104.JPG","null","","","","",""
"","html-keyboard-response","318","286749","0.0-8.0-1.23","FL","f00qbt8xgh","1536","864","en","NE07SE16","null","","","","learningBlock2","","","","That was a tob.","null","","","","",""
"","html-keyboard-response","319","287751","0.0-8.0-2.23","FL","f00qbt8xgh","1536","864","en","NE07SE16","null","","","","learningBlock2","","","","<div style=""font-size:60px;""> </div>","null","FL","learning/Slide104.JPG","That was a tob.","",""
"","image-keyboard-response","320","287940","0.0-8.0-0.24","FL","f00qbt8xgh","1536","864","en","NE07SE16","null","","","","","","","","learning/Slide105.JPG","null","","","","",""
"","html-keyboard-response","321","289100","0.0-8.0-1.24","FL","f00qbt8xgh","1536","864","en","NE07SE16","null","","","","learningBlock2","","","","That was a dep.","null","","","","",""
"","html-keyboard-response","322","290111","0.0-8.0-2.24","FL","f00qbt8xgh","1536","864","en","NE07SE16","null","","","","learningBlock2","","","","<div style=""font-size:60px;""> </div>","null","FL","learning/Slide105.JPG","That was a dep.","",""
"","image-keyboard-response","323","290294","0.0-8.0-0.25","FL","f00qbt8xgh","1536","864","en","NE07SE16","null","","","","","","","","learning/Slide106.JPG","null","","","","",""
"","html-keyboard-response","324","291449","0.0-8.0-1.25","FL","f00qbt8xgh","1536","864","en","NE07SE16","null","","","","learningBlock2","","","","That was a wug.","null","","","","",""
"","html-keyboard-response","325","292466","0.0-8.0-2.25","FL","f00qbt8xgh","1536","864","en","NE07SE16","null","","","","learningBlock2","","","","<div style=""font-size:60px;""> </div>","null","FL","learning/Slide106.JPG","That was a wug.","",""
"","image-keyboard-response","326","292658","0.0-8.0-0.26","FL","f00qbt8xgh","1536","864","en","NE07SE16","null","","","","","","","","learning/Slide107.JPG","null","","","","",""
"","html-keyboard-response","327","293812","0.0-8.0-1.26","FL","f00qbt8xgh","1536","864","en","NE07SE16","null","","","","learningBlock2","","","","That was a bim.","null","","","","",""
"","html-keyboard-response","328","294826","0.0-8.0-2.26","FL","f00qbt8xgh","1536","864","en","NE07SE16","null","","","","learningBlock2","","","","<div style=""font-size:60px;""> </div>","null","FL","learning/Slide107.JPG","That was a bim.","",""
"","image-keyboard-response","329","295013","0.0-8.0-0.27","FL","f00qbt8xgh","1536","864","en","NE07SE16","null","","","","","","","","learning/Slide108.JPG","null","","","","",""
"","html-keyboard-response","330","296182","0.0-8.0-1.27","FL","f00qbt8xgh","1536","864","en","NE07SE16","null","","","","learningBlock2","","","","That was a dep.","null","","","","",""
"","html-keyboard-response","331","297198","0.0-8.0-2.27","FL","f00qbt8xgh","1536","864","en","NE07SE16","null","","","","learningBlock2","","","","<div style=""font-size:60px;""> </div>","null","FL","learning/Slide108.JPG","That was a dep.","",""
"","image-keyboard-response","332","297386","0.0-8.0-0.28","FL","f00qbt8xgh","1536","864","en","NE07SE16","null","","","","","","","","learning/Slide109.JPG","null","","","","",""
"","html-keyboard-response","333","298558","0.0-8.0-1.28","FL","f00qbt8xgh","1536","864","en","NE07SE16","null","","","","learningBlock2","","","","That was a wug.","null","","","","",""
"","html-keyboard-response","334","299568","0.0-8.0-2.28","FL","f00qbt8xgh","1536","864","en","NE07SE16","null","","","","learningBlock2","","","","<div style=""font-size:60px;""> </div>","null","FL","learning/Slide109.JPG","That was a wug.","",""
"","image-keyboard-response","335","299758","0.0-8.0-0.29","FL","f00qbt8xgh","1536","864","en","NE07SE16","null","","","","","","","","learning/Slide110.JPG","null","","","","",""
"","html-keyboard-response","336","300937","0.0-8.0-1.29","FL","f00qbt8xgh","1536","864","en","NE07SE16","null","","","","learningBlock2","","","","That was a bim.","null","","","","",""
"","html-keyboard-response","337","301941","0.0-8.0-2.29","FL","f00qbt8xgh","1536","864","en","NE07SE16","null","","","","learningBlock2","","","","<div style=""font-size:60px;""> </div>","null","FL","learning/Slide110.JPG","That was a bim.","",""
"","image-keyboard-response","338","302120","0.0-8.0-0.30","FL","f00qbt8xgh","1536","864","en","NE07SE16","null","","","","","","","","learning/Slide111.JPG","null","","","","",""
"","html-keyboard-response","339","303290","0.0-8.0-1.30","FL","f00qbt8xgh","1536","864","en","NE07SE16","null","","","","learningBlock2","","","","That was a tob.","null","","","","",""
"","html-keyboard-response","340","304306","0.0-8.0-2.30","FL","f00qbt8xgh","1536","864","en","NE07SE16","null","","","","learningBlock2","","","","<div style=""font-size:60px;""> </div>","null","FL","learning/Slide111.JPG","That was a tob.","",""
"","image-keyboard-response","341","304497","0.0-8.0-0.31","FL","f00qbt8xgh","1536","864","en","NE07SE16","null","","","","","","","","learning/Slide112.JPG","null","","","","",""
"","html-keyboard-response","342","305676","0.0-8.0-1.31","FL","f00qbt8xgh","1536","864","en","NE07SE16","null","","","","learningBlock2","","","","That was a wug.","null","","","","",""
"","html-keyboard-response","343","306680","0.0-8.0-2.31","FL","f00qbt8xgh","1536","864","en","NE07SE16","null","","","","learningBlock2","","","","<div style=""font-size:60px;""> </div>","null","FL","learning/Slide112.JPG","That was a wug.","",""
"","image-keyboard-response","344","306857","0.0-8.0-0.32","FL","f00qbt8xgh","1536","864","en","NE07SE16","null","","","","","","","","learning/Slide113.JPG","null","","","","",""
"","html-keyboard-response","345","308028","0.0-8.0-1.32","FL","f00qbt8xgh","1536","864","en","NE07SE16","null","","","","learningBlock2","","","","That was a tob.","null","","","","",""
"","html-keyboard-response","346","309036","0.0-8.0-2.32","FL","f00qbt8xgh","1536","864","en","NE07SE16","null","","","","learningBlock2","","","","<div style=""font-size:60px;""> </div>","null","FL","learning/Slide113.JPG","That was a tob.","",""
"","image-keyboard-response","347","309227","0.0-8.0-0.33","FL","f00qbt8xgh","1536","864","en","NE07SE16","null","","","","","","","","learning/Slide114.JPG","null","","","","",""
"","html-keyboard-response","348","310382","0.0-8.0-1.33","FL","f00qbt8xgh","1536","864","en","NE07SE16","null","","","","learningBlock2","","","","That was a wug.","null","","","","",""
"","html-keyboard-response","349","311392","0.0-8.0-2.33","FL","f00qbt8xgh","1536","864","en","NE07SE16","null","","","","learningBlock2","","","","<div style=""font-size:60px;""> </div>","null","FL","learning/Slide114.JPG","That was a wug.","",""
"","image-keyboard-response","350","311572","0.0-8.0-0.34","FL","f00qbt8xgh","1536","864","en","NE07SE16","null","","","","","","","","learning/Slide115.JPG","null","","","","",""
"","html-keyboard-response","351","312727","0.0-8.0-1.34","FL","f00qbt8xgh","1536","864","en","NE07SE16","null","","","","learningBlock2","","","","That was a bim.","null","","","","",""
"","html-keyboard-response","352","313732","0.0-8.0-2.34","FL","f00qbt8xgh","1536","864","en","NE07SE16","null","","","","learningBlock2","","","","<div style=""font-size:60px;""> </div>","null","FL","learning/Slide115.JPG","That was a bim.","",""
"","image-keyboard-response","353","313923","0.0-8.0-0.35","FL","f00qbt8xgh","1536","864","en","NE07SE16","null","","","","","","","","learning/Slide116.JPG","null","","","","",""
"","html-keyboard-response","354","315103","0.0-8.0-1.35","FL","f00qbt8xgh","1536","864","en","NE07SE16","null","","","","learningBlock2","","","","That was a dep.","null","","","","",""
"","html-keyboard-response","355","316116","0.0-8.0-2.35","FL","f00qbt8xgh","1536","864","en","NE07SE16","null","","","","learningBlock2","","","","<div style=""font-size:60px;""> </div>","null","FL","learning/Slide116.JPG","That was a dep.","",""
"","image-keyboard-response","356","316308","0.0-8.0-0.36","FL","f00qbt8xgh","1536","864","en","NE07SE16","null","","","","","","","","learning/Slide117.JPG","null","","","","",""
"","html-keyboard-response","357","317476","0.0-8.0-1.36","FL","f00qbt8xgh","1536","864","en","NE07SE16","null","","","","learningBlock2","","","","That was a tob.","null","","","","",""
"","html-keyboard-response","358","318493","0.0-8.0-2.36","FL","f00qbt8xgh","1536","864","en","NE07SE16","null","","","","learningBlock2","","","","<div style=""font-size:60px;""> </div>","null","FL","learning/Slide117.JPG","That was a tob.","",""
"","image-keyboard-response","359","318682","0.0-8.0-0.37","FL","f00qbt8xgh","1536","864","en","NE07SE16","null","","","","","","","","learning/Slide118.JPG","null","","","","",""
"","html-keyboard-response","360","319843","0.0-8.0-1.37","FL","f00qbt8xgh","1536","864","en","NE07SE16","null","","","","learningBlock2","","","","That was a dep.","null","","","","",""
"","html-keyboard-response","361","320852","0.0-8.0-2.37","FL","f00qbt8xgh","1536","864","en","NE07SE16","null","","","","learningBlock2","","","","<div style=""font-size:60px;""> </div>","null","FL","learning/Slide118.JPG","That was a dep.","",""
"","image-keyboard-response","362","321034","0.0-8.0-0.38","FL","f00qbt8xgh","1536","864","en","NE07SE16","null","","","","","","","","learning/Slide119.JPG","null","","","","",""
"","html-keyboard-response","363","322209","0.0-8.0-1.38","FL","f00qbt8xgh","1536","864","en","NE07SE16","null","","","","learningBlock2","","","","That was a wug.","null","","","","",""
"","html-keyboard-response","364","323226","0.0-8.0-2.38","FL","f00qbt8xgh","1536","864","en","NE07SE16","null","","","","learningBlock2","","","","<div style=""font-size:60px;""> </div>","null","FL","learning/Slide119.JPG","That was a wug.","",""
"","image-keyboard-response","365","323413","0.0-8.0-0.39","FL","f00qbt8xgh","1536","864","en","NE07SE16","null","","","","","","","","learning/Slide120.JPG","null","","","","",""
"","html-keyboard-response","366","324567","0.0-8.0-1.39","FL","f00qbt8xgh","1536","864","en","NE07SE16","null","","","","learningBlock2","","","","That was a dep.","null","","","","",""
"","html-keyboard-response","367","325580","0.0-8.0-2.39","FL","f00qbt8xgh","1536","864","en","NE07SE16","null","","","","learningBlock2","","","","<div style=""font-size:60px;""> </div>","null","FL","learning/Slide120.JPG","That was a dep.","",""
"","image-keyboard-response","368","325766","0.0-8.0-0.40","FL","f00qbt8xgh","1536","864","en","NE07SE16","null","","","","","","","","learning/Slide121.JPG","null","","","","",""
"","html-keyboard-response","369","326946","0.0-8.0-1.40","FL","f00qbt8xgh","1536","864","en","NE07SE16","null","","","","learningBlock2","","","","That was a bim.","null","","","","",""
"","html-keyboard-response","370","327963","0.0-8.0-2.40","FL","f00qbt8xgh","1536","864","en","NE07SE16","null","","","","learningBlock2","","","","<div style=""font-size:60px;""> </div>","null","FL","learning/Slide121.JPG","That was a bim.","",""
"","image-keyboard-response","371","328142","0.0-8.0-0.41","FL","f00qbt8xgh","1536","864","en","NE07SE16","null","","","","","","","","learning/Slide122.JPG","null","","","","",""
"","html-keyboard-response","372","329303","0.0-8.0-1.41","FL","f00qbt8xgh","1536","864","en","NE07SE16","null","","","","learningBlock2","","","","That was a wug.","null","","","","",""
"","html-keyboard-response","373","330316","0.0-8.0-2.41","FL","f00qbt8xgh","1536","864","en","NE07SE16","null","","","","learningBlock2","","","","<div style=""font-size:60px;""> </div>","null","FL","learning/Slide122.JPG","That was a wug.","",""
"","image-keyboard-response","374","330508","0.0-8.0-0.42","FL","f00qbt8xgh","1536","864","en","NE07SE16","null","","","","","","","","learning/Slide123.JPG","null","","","","",""
"","html-keyboard-response","375","331671","0.0-8.0-1.42","FL","f00qbt8xgh","1536","864","en","NE07SE16","null","","","","learningBlock2","","","","That was a bim.","null","","","","",""
"","html-keyboard-response","376","332674","0.0-8.0-2.42","FL","f00qbt8xgh","1536","864","en","NE07SE16","null","","","","learningBlock2","","","","<div style=""font-size:60px;""> </div>","null","FL","learning/Slide123.JPG","That was a bim.","",""
"","image-keyboard-response","377","332853","0.0-8.0-0.43","FL","f00qbt8xgh","1536","864","en","NE07SE16","null","","","","","","","","learning/Slide124.JPG","null","","","","",""
"","html-keyboard-response","378","334028","0.0-8.0-1.43","FL","f00qbt8xgh","1536","864","en","NE07SE16","null","","","","learningBlock2","","","","That was a tob.","null","","","","",""
"","html-keyboard-response","379","335044","0.0-8.0-2.43","FL","f00qbt8xgh","1536","864","en","NE07SE16","null","","","","learningBlock2","","","","<div style=""font-size:60px;""> </div>","null","FL","learning/Slide124.JPG","That was a tob.","",""
"","image-keyboard-response","380","335223","0.0-8.0-0.44","FL","f00qbt8xgh","1536","864","en","NE07SE16","null","","","","","","","","learning/Slide125.JPG","null","","","","",""
"","html-keyboard-response","381","336377","0.0-8.0-1.44","FL","f00qbt8xgh","1536","864","en","NE07SE16","null","","","","learningBlock2","","","","That was a bim.","null","","","","",""
"","html-keyboard-response","382","337380","0.0-8.0-2.44","FL","f00qbt8xgh","1536","864","en","NE07SE16","null","","","","learningBlock2","","","","<div style=""font-size:60px;""> </div>","null","FL","learning/Slide125.JPG","That was a bim.","",""
"","image-keyboard-response","383","337572","0.0-8.0-0.45","FL","f00qbt8xgh","1536","864","en","NE07SE16","null","","","","","","","","learning/Slide126.JPG","null","","","","",""
"","html-keyboard-response","384","338737","0.0-8.0-1.45","FL","f00qbt8xgh","1536","864","en","NE07SE16","null","","","","learningBlock2","","","","That was a tob.","null","","","","",""
"","html-keyboard-response","385","339744","0.0-8.0-2.45","FL","f00qbt8xgh","1536","864","en","NE07SE16","null","","","","learningBlock2","","","","<div style=""font-size:60px;""> </div>","null","FL","learning/Slide126.JPG","That was a tob.","",""
"","image-keyboard-response","386","339934","0.0-8.0-0.46","FL","f00qbt8xgh","1536","864","en","NE07SE16","null","","","","","","","","learning/Slide127.JPG","null","","","","",""
"","html-keyboard-response","387","341108","0.0-8.0-1.46","FL","f00qbt8xgh","1536","864","en","NE07SE16","null","","","","learningBlock2","","","","That was a dep.","null","","","","",""
"","html-keyboard-response","388","342116","0.0-8.0-2.46","FL","f00qbt8xgh","1536","864","en","NE07SE16","null","","","","learningBlock2","","","","<div style=""font-size:60px;""> </div>","null","FL","learning/Slide127.JPG","That was a dep.","",""
"","image-keyboard-response","389","342300","0.0-8.0-0.47","FL","f00qbt8xgh","1536","864","en","NE07SE16","null","","","","","","","","learning/Slide128.JPG","null","","","","",""
"","html-keyboard-response","390","343474","0.0-8.0-1.47","FL","f00qbt8xgh","1536","864","en","NE07SE16","null","","","","learningBlock2","","","","That was a wug.","null","","","","",""
"","html-keyboard-response","391","344492","0.0-8.0-2.47","FL","f00qbt8xgh","1536","864","en","NE07SE16","null","","","","learningBlock2","","","","<div style=""font-size:60px;""> </div>","null","FL","learning/Slide128.JPG","That was a wug.","",""
"","image-keyboard-response","392","344676","0.0-8.0-0.48","FL","f00qbt8xgh","1536","864","en","NE07SE16","null","","","","","","","","learning/Slide129.JPG","null","","","","",""
"","html-keyboard-response","393","345855","0.0-8.0-1.48","FL","f00qbt8xgh","1536","864","en","NE07SE16","null","","","","learningBlock2","","","","That was a tob.","null","","","","",""
"","html-keyboard-response","394","346859","0.0-8.0-2.48","FL","f00qbt8xgh","1536","864","en","NE07SE16","null","","","","learningBlock2","","","","<div style=""font-size:60px;""> </div>","null","FL","learning/Slide129.JPG","That was a tob.","",""
"","image-keyboard-response","395","347047","0.0-8.0-0.49","FL","f00qbt8xgh","1536","864","en","NE07SE16","null","","","","","","","","learning/Slide130.JPG","null","","","","",""
"","html-keyboard-response","396","348208","0.0-8.0-1.49","FL","f00qbt8xgh","1536","864","en","NE07SE16","null","","","","learningBlock2","","","","That was a wug.","null","","","","",""
"","html-keyboard-response","397","349215","0.0-8.0-2.49","FL","f00qbt8xgh","1536","864","en","NE07SE16","null","","","","learningBlock2","","","","<div style=""font-size:60px;""> </div>","null","FL","learning/Slide130.JPG","That was a wug.","",""
"","image-keyboard-response","398","349405","0.0-8.0-0.50","FL","f00qbt8xgh","1536","864","en","NE07SE16","null","","","","","","","","learning/Slide131.JPG","null","","","","",""
"","html-keyboard-response","399","350569","0.0-8.0-1.50","FL","f00qbt8xgh","1536","864","en","NE07SE16","null","","","","learningBlock2","","","","That was a bim.","null","","","","",""
"","html-keyboard-response","400","351576","0.0-8.0-2.50","FL","f00qbt8xgh","1536","864","en","NE07SE16","null","","","","learningBlock2","","","","<div style=""font-size:60px;""> </div>","null","FL","learning/Slide131.JPG","That was a bim.","",""
"","image-keyboard-response","401","351755","0.0-8.0-0.51","FL","f00qbt8xgh","1536","864","en","NE07SE16","null","","","","","","","","learning/Slide132.JPG","null","","","","",""
"","html-keyboard-response","402","352928","0.0-8.0-1.51","FL","f00qbt8xgh","1536","864","en","NE07SE16","null","","","","learningBlock2","","","","That was a dep.","null","","","","",""
"","html-keyboard-response","403","353945","0.0-8.0-2.51","FL","f00qbt8xgh","1536","864","en","NE07SE16","null","","","","learningBlock2","","","","<div style=""font-size:60px;""> </div>","null","FL","learning/Slide132.JPG","That was a dep.","",""
"","image-keyboard-response","404","354135","0.0-8.0-0.52","FL","f00qbt8xgh","1536","864","en","NE07SE16","null","","","","","","","","learning/Slide133.JPG","null","","","","",""
"","html-keyboard-response","405","355299","0.0-8.0-1.52","FL","f00qbt8xgh","1536","864","en","NE07SE16","null","","","","learningBlock2","","","","That was a tob.","null","","","","",""
"","html-keyboard-response","406","356310","0.0-8.0-2.52","FL","f00qbt8xgh","1536","864","en","NE07SE16","null","","","","learningBlock2","","","","<div style=""font-size:60px;""> </div>","null","FL","learning/Slide133.JPG","That was a tob.","",""
"","image-keyboard-response","407","356490","0.0-8.0-0.53","FL","f00qbt8xgh","1536","864","en","NE07SE16","null","","","","","","","","learning/Slide134.JPG","null","","","","",""
"","html-keyboard-response","408","357652","0.0-8.0-1.53","FL","f00qbt8xgh","1536","864","en","NE07SE16","null","","","","learningBlock2","","","","That was a dep.","null","","","","",""
"","html-keyboard-response","409","358654","0.0-8.0-2.53","FL","f00qbt8xgh","1536","864","en","NE07SE16","null","","","","learningBlock2","","","","<div style=""font-size:60px;""> </div>","null","FL","learning/Slide134.JPG","That was a dep.","",""
"","image-keyboard-response","410","358832","0.0-8.0-0.54","FL","f00qbt8xgh","1536","864","en","NE07SE16","null","","","","","","","","learning/Slide135.JPG","null","","","","",""
"","html-keyboard-response","411","360014","0.0-8.0-1.54","FL","f00qbt8xgh","1536","864","en","NE07SE16","null","","","","learningBlock2","","","","That was a tob.","null","","","","",""
"","html-keyboard-response","412","361017","0.0-8.0-2.54","FL","f00qbt8xgh","1536","864","en","NE07SE16","null","","","","learningBlock2","","","","<div style=""font-size:60px;""> </div>","null","FL","learning/Slide135.JPG","That was a tob.","",""
"","image-keyboard-response","413","361196","0.0-8.0-0.55","FL","f00qbt8xgh","1536","864","en","NE07SE16","null","","","","","","","","learning/Slide136.JPG","null","","","","",""
"","html-keyboard-response","414","362369","0.0-8.0-1.55","FL","f00qbt8xgh","1536","864","en","NE07SE16","null","","","","learningBlock2","","","","That was a wug.","null","","","","",""
"","html-keyboard-response","415","363381","0.0-8.0-2.55","FL","f00qbt8xgh","1536","864","en","NE07SE16","null","","","","learningBlock2","","","","<div style=""font-size:60px;""> </div>","null","FL","learning/Slide136.JPG","That was a wug.","",""
"","image-keyboard-response","416","363565","0.0-8.0-0.56","FL","f00qbt8xgh","1536","864","en","NE07SE16","null","","","","","","","","learning/Slide137.JPG","null","","","","",""
"","html-keyboard-response","417","364738","0.0-8.0-1.56","FL","f00qbt8xgh","1536","864","en","NE07SE16","null","","","","learningBlock2","","","","That was a tob.","null","","","","",""
"","html-keyboard-response","418","365749","0.0-8.0-2.56","FL","f00qbt8xgh","1536","864","en","NE07SE16","null","","","","learningBlock2","","","","<div style=""font-size:60px;""> </div>","null","FL","learning/Slide137.JPG","That was a tob.","",""
"","image-keyboard-response","419","365928","0.0-8.0-0.57","FL","f00qbt8xgh","1536","864","en","NE07SE16","null","","","","","","","","learning/Slide138.JPG","null","","","","",""
"","html-keyboard-response","420","367095","0.0-8.0-1.57","FL","f00qbt8xgh","1536","864","en","NE07SE16","null","","","","learningBlock2","","","","That was a bim.","null","","","","",""
"","html-keyboard-response","421","368112","0.0-8.0-2.57","FL","f00qbt8xgh","1536","864","en","NE07SE16","null","","","","learningBlock2","","","","<div style=""font-size:60px;""> </div>","null","FL","learning/Slide138.JPG","That was a bim.","",""
"","image-keyboard-response","422","368298","0.0-8.0-0.58","FL","f00qbt8xgh","1536","864","en","NE07SE16","null","","","","","","","","learning/Slide139.JPG","null","","","","",""
"","html-keyboard-response","423","369462","0.0-8.0-1.58","FL","f00qbt8xgh","1536","864","en","NE07SE16","null","","","","learningBlock2","","","","That was a wug.","null","","","","",""
"","html-keyboard-response","424","370475","0.0-8.0-2.58","FL","f00qbt8xgh","1536","864","en","NE07SE16","null","","","","learningBlock2","","","","<div style=""font-size:60px;""> </div>","null","FL","learning/Slide139.JPG","That was a wug.","",""
"","image-keyboard-response","425","370654","0.0-8.0-0.59","FL","f00qbt8xgh","1536","864","en","NE07SE16","null","","","","","","","","learning/Slide140.JPG","null","","","","",""
"","html-keyboard-response","426","371816","0.0-8.0-1.59","FL","f00qbt8xgh","1536","864","en","NE07SE16","null","","","","learningBlock2","","","","That was a dep.","null","","","","",""
"","html-keyboard-response","427","372819","0.0-8.0-2.59","FL","f00qbt8xgh","1536","864","en","NE07SE16","null","","","","learningBlock2","","","","<div style=""font-size:60px;""> </div>","null","FL","learning/Slide140.JPG","That was a dep.","",""
"","image-keyboard-response","428","373003","0.0-8.0-0.60","FL","f00qbt8xgh","1536","864","en","NE07SE16","null","","","","","","","","learning/Slide141.JPG","null","","","","",""
"","html-keyboard-response","429","374173","0.0-8.0-1.60","FL","f00qbt8xgh","1536","864","en","NE07SE16","null","","","","learningBlock2","","","","That was a tob.","null","","","","",""
"","html-keyboard-response","430","375184","0.0-8.0-2.60","FL","f00qbt8xgh","1536","864","en","NE07SE16","null","","","","learningBlock2","","","","<div style=""font-size:60px;""> </div>","null","FL","learning/Slide141.JPG","That was a tob.","",""
"","image-keyboard-response","431","375364","0.0-8.0-0.61","FL","f00qbt8xgh","1536","864","en","NE07SE16","null","","","","","","","","learning/Slide142.JPG","null","","","","",""
"","html-keyboard-response","432","376520","0.0-8.0-1.61","FL","f00qbt8xgh","1536","864","en","NE07SE16","null","","","","learningBlock2","","","","That was a wug.","null","","","","",""
"","html-keyboard-response","433","377525","0.0-8.0-2.61","FL","f00qbt8xgh","1536","864","en","NE07SE16","null","","","","learningBlock2","","","","<div style=""font-size:60px;""> </div>","null","FL","learning/Slide142.JPG","That was a wug.","",""
"","image-keyboard-response","434","377707","0.0-8.0-0.62","FL","f00qbt8xgh","1536","864","en","NE07SE16","null","","","","","","","","learning/Slide143.JPG","null","","","","",""
"","html-keyboard-response","435","378869","0.0-8.0-1.62","FL","f00qbt8xgh","1536","864","en","NE07SE16","null","","","","learningBlock2","","","","That was a bim.","null","","","","",""
"","html-keyboard-response","436","379877","0.0-8.0-2.62","FL","f00qbt8xgh","1536","864","en","NE07SE16","null","","","","learningBlock2","","","","<div style=""font-size:60px;""> </div>","null","FL","learning/Slide143.JPG","That was a bim.","",""
"","image-keyboard-response","437","380066","0.0-8.0-0.63","FL","f00qbt8xgh","1536","864","en","NE07SE16","null","","","","","","","","learning/Slide144.JPG","null","","","","",""
"","html-keyboard-response","438","381229","0.0-8.0-1.63","FL","f00qbt8xgh","1536","864","en","NE07SE16","null","","","","learningBlock2","","","","That was a dep.","null","","","","",""
"","html-keyboard-response","439","382232","0.0-8.0-2.63","FL","f00qbt8xgh","1536","864","en","NE07SE16","null","","","","learningBlock2","","","","<div style=""font-size:60px;""> </div>","null","FL","learning/Slide144.JPG","That was a dep.","",""
"","image-keyboard-response","440","382413","0.0-8.0-0.64","FL","f00qbt8xgh","1536","864","en","NE07SE16","null","","","","","","","","learning/Slide145.JPG","null","","","","",""
"","html-keyboard-response","441","383588","0.0-8.0-1.64","FL","f00qbt8xgh","1536","864","en","NE07SE16","null","","","","learningBlock2","","","","That was a bim.","null","","","","",""
"","html-keyboard-response","442","384602","0.0-8.0-2.64","FL","f00qbt8xgh","1536","864","en","NE07SE16","null","","","","learningBlock2","","","","<div style=""font-size:60px;""> </div>","null","FL","learning/Slide145.JPG","That was a bim.","",""
"","image-keyboard-response","443","384780","0.0-8.0-0.65","FL","f00qbt8xgh","1536","864","en","NE07SE16","null","","","","","","","","learning/Slide146.JPG","null","","","","",""
"","html-keyboard-response","444","385941","0.0-8.0-1.65","FL","f00qbt8xgh","1536","864","en","NE07SE16","null","","","","learningBlock2","","","","That was a tob.","null","","","","",""
"","html-keyboard-response","445","386949","0.0-8.0-2.65","FL","f00qbt8xgh","1536","864","en","NE07SE16","null","","","","learningBlock2","","","","<div style=""font-size:60px;""> </div>","null","FL","learning/Slide146.JPG","That was a tob.","",""
"","image-keyboard-response","446","387142","0.0-8.0-0.66","FL","f00qbt8xgh","1536","864","en","NE07SE16","null","","","","","","","","learning/Slide147.JPG","null","","","","",""
"","html-keyboard-response","447","388307","0.0-8.0-1.66","FL","f00qbt8xgh","1536","864","en","NE07SE16","null","","","","learningBlock2","","","","That was a wug.","null","","","","",""
"","html-keyboard-response","448","389317","0.0-8.0-2.66","FL","f00qbt8xgh","1536","864","en","NE07SE16","null","","","","learningBlock2","","","","<div style=""font-size:60px;""> </div>","null","FL","learning/Slide147.JPG","That was a wug.","",""
"","image-keyboard-response","449","389504","0.0-8.0-0.67","FL","f00qbt8xgh","1536","864","en","NE07SE16","null","","","","","","","","learning/Slide148.JPG","null","","","","",""
"","html-keyboard-response","450","390661","0.0-8.0-1.67","FL","f00qbt8xgh","1536","864","en","NE07SE16","null","","","","learningBlock2","","","","That was a bim.","null","","","","",""
"","html-keyboard-response","451","391669","0.0-8.0-2.67","FL","f00qbt8xgh","1536","864","en","NE07SE16","null","","","","learningBlock2","","","","<div style=""font-size:60px;""> </div>","null","FL","learning/Slide148.JPG","That was a bim.","",""
"","image-keyboard-response","452","391849","0.0-8.0-0.68","FL","f00qbt8xgh","1536","864","en","NE07SE16","null","","","","","","","","learning/Slide149.JPG","null","","","","",""
"","html-keyboard-response","453","393009","0.0-8.0-1.68","FL","f00qbt8xgh","1536","864","en","NE07SE16","null","","","","learningBlock2","","","","That was a dep.","null","","","","",""
"","html-keyboard-response","454","394013","0.0-8.0-2.68","FL","f00qbt8xgh","1536","864","en","NE07SE16","null","","","","learningBlock2","","","","<div style=""font-size:60px;""> </div>","null","FL","learning/Slide149.JPG","That was a dep.","",""
"","image-keyboard-response","455","394203","0.0-8.0-0.69","FL","f00qbt8xgh","1536","864","en","NE07SE16","null","","","","","","","","learning/Slide150.JPG","null","","","","",""
"","html-keyboard-response","456","395379","0.0-8.0-1.69","FL","f00qbt8xgh","1536","864","en","NE07SE16","null","","","","learningBlock2","","","","That was a wug.","null","","","","",""
"","html-keyboard-response","457","396386","0.0-8.0-2.69","FL","f00qbt8xgh","1536","864","en","NE07SE16","null","","","","learningBlock2","","","","<div style=""font-size:60px;""> </div>","null","FL","learning/Slide150.JPG","That was a wug.","",""
"","image-keyboard-response","458","396576","0.0-8.0-0.70","FL","f00qbt8xgh","1536","864","en","NE07SE16","null","","","","","","","","learning/Slide151.JPG","null","","","","",""
"","html-keyboard-response","459","397742","0.0-8.0-1.70","FL","f00qbt8xgh","1536","864","en","NE07SE16","null","","","","learningBlock2","","","","That was a dep.","null","","","","",""
"","html-keyboard-response","460","398757","0.0-8.0-2.70","FL","f00qbt8xgh","1536","864","en","NE07SE16","null","","","","learningBlock2","","","","<div style=""font-size:60px;""> </div>","null","FL","learning/Slide151.JPG","That was a dep.","",""
"","image-keyboard-response","461","398947","0.0-8.0-0.71","FL","f00qbt8xgh","1536","864","en","NE07SE16","null","","","","","","","","learning/Slide152.JPG","null","","","","",""
"","html-keyboard-response","462","400127","0.0-8.0-1.71","FL","f00qbt8xgh","1536","864","en","NE07SE16","null","","","","learningBlock2","","","","That was a wug.","null","","","","",""
"","html-keyboard-response","463","401129","0.0-8.0-2.71","FL","f00qbt8xgh","1536","864","en","NE07SE16","null","","","","learningBlock2","","","","<div style=""font-size:60px;""> </div>","null","FL","learning/Slide152.JPG","That was a wug.","",""
"","image-keyboard-response","464","401308","0.0-8.0-0.72","FL","f00qbt8xgh","1536","864","en","NE07SE16","null","","","","","","","","learning/Slide153.JPG","null","","","","",""
"","html-keyboard-response","465","402480","0.0-8.0-1.72","FL","f00qbt8xgh","1536","864","en","NE07SE16","null","","","","learningBlock2","","","","That was a bim.","null","","","","",""
"","html-keyboard-response","466","403496","0.0-8.0-2.72","FL","f00qbt8xgh","1536","864","en","NE07SE16","null","","","","learningBlock2","","","","<div style=""font-size:60px;""> </div>","null","FL","learning/Slide153.JPG","That was a bim.","",""
"","image-keyboard-response","467","403687","0.0-8.0-0.73","FL","f00qbt8xgh","1536","864","en","NE07SE16","null","","","","","","","","learning/Slide154.JPG","null","","","","",""
"","html-keyboard-response","468","404850","0.0-8.0-1.73","FL","f00qbt8xgh","1536","864","en","NE07SE16","null","","","","learningBlock2","","","","That was a tob.","null","","","","",""
"","html-keyboard-response","469","405861","0.0-8.0-2.73","FL","f00qbt8xgh","1536","864","en","NE07SE16","null","","","","learningBlock2","","","","<div style=""font-size:60px;""> </div>","null","FL","learning/Slide154.JPG","That was a tob.","",""
"","image-keyboard-response","470","406052","0.0-8.0-0.74","FL","f00qbt8xgh","1536","864","en","NE07SE16","null","","","","","","","","learning/Slide155.JPG","null","","","","",""
"","html-keyboard-response","471","407222","0.0-8.0-1.74","FL","f00qbt8xgh","1536","864","en","NE07SE16","null","","","","learningBlock2","","","","That was a dep.","null","","","","",""
"","html-keyboard-response","472","408227","0.0-8.0-2.74","FL","f00qbt8xgh","1536","864","en","NE07SE16","null","","","","learningBlock2","","","","<div style=""font-size:60px;""> </div>","null","FL","learning/Slide155.JPG","That was a dep.","",""
"","image-keyboard-response","473","408418","0.0-8.0-0.75","FL","f00qbt8xgh","1536","864","en","NE07SE16","null","","","","","","","","learning/Slide156.JPG","null","","","","",""
"","html-keyboard-response","474","409599","0.0-8.0-1.75","FL","f00qbt8xgh","1536","864","en","NE07SE16","null","","","","learningBlock2","","","","That was a bim.","null","","","","",""
"","html-keyboard-response","475","410609","0.0-8.0-2.75","FL","f00qbt8xgh","1536","864","en","NE07SE16","null","","","","learningBlock2","","","","<div style=""font-size:60px;""> </div>","null","FL","learning/Slide156.JPG","That was a bim.","",""
"","image-keyboard-response","476","410794","0.0-8.0-0.76","FL","f00qbt8xgh","1536","864","en","NE07SE16","null","","","","","","","","learning/Slide157.JPG","null","","","","",""
"","html-keyboard-response","477","411956","0.0-8.0-1.76","FL","f00qbt8xgh","1536","864","en","NE07SE16","null","","","","learningBlock2","","","","That was a dep.","null","","","","",""
"","html-keyboard-response","478","412969","0.0-8.0-2.76","FL","f00qbt8xgh","1536","864","en","NE07SE16","null","","","","learningBlock2","","","","<div style=""font-size:60px;""> </div>","null","FL","learning/Slide157.JPG","That was a dep.","",""
"","image-keyboard-response","479","413147","0.0-8.0-0.77","FL","f00qbt8xgh","1536","864","en","NE07SE16","null","","","","","","","","learning/Slide158.JPG","null","","","","",""
"","html-keyboard-response","480","414302","0.0-8.0-1.77","FL","f00qbt8xgh","1536","864","en","NE07SE16","null","","","","learningBlock2","","","","That was a tob.","null","","","","",""
"","html-keyboard-response","481","415310","0.0-8.0-2.77","FL","f00qbt8xgh","1536","864","en","NE07SE16","null","","","","learningBlock2","","","","<div style=""font-size:60px;""> </div>","null","FL","learning/Slide158.JPG","That was a tob.","",""
"","image-keyboard-response","482","415502","0.0-8.0-0.78","FL","f00qbt8xgh","1536","864","en","NE07SE16","null","","","","","","","","learning/Slide159.JPG","null","","","","",""
"","html-keyboard-response","483","416662","0.0-8.0-1.78","FL","f00qbt8xgh","1536","864","en","NE07SE16","null","","","","learningBlock2","","","","That was a dep.","null","","","","",""
"","html-keyboard-response","484","417669","0.0-8.0-2.78","FL","f00qbt8xgh","1536","864","en","NE07SE16","null","","","","learningBlock2","","","","<div style=""font-size:60px;""> </div>","null","FL","learning/Slide159.JPG","That was a dep.","",""
"","image-keyboard-response","485","417857","0.0-8.0-0.79","FL","f00qbt8xgh","1536","864","en","NE07SE16","null","","","","","","","","learning/Slide160.JPG","null","","","","",""
"","html-keyboard-response","486","419018","0.0-8.0-1.79","FL","f00qbt8xgh","1536","864","en","NE07SE16","null","","","","learningBlock2","","","","That was a wug.","null","","","","",""
"","html-keyboard-response","487","420022","0.0-8.0-2.79","FL","f00qbt8xgh","1536","864","en","NE07SE16","null","","","","learningBlock2","","","","<div style=""font-size:60px;""> </div>","null","FL","learning/Slide160.JPG","That was a wug.","",""
"","resize2","488","424715","0.0-9.0","FL","f00qbt8xgh","1536","864","en","NE07SE16","","","","","","","104","1.04","","","","","","",""
