"success","trial_type","trial_index","time_elapsed","internal_node_id","condition","subject","screen_width","screen_height","language","codeword","rt","responses","url","view_history","test_part","final_height_px","final_width_px","scale_factor","stimulus","key_press","learningType","presentedImage","presentedLabel","button_pressed","response"
"true","fullscreen","0","29699","0.0-0.0","LF","g8yr0b9yda","1366","768","en","er07im06","","","","","","","","","","","","","","",""
"","survey-html-form","1","35807","0.0-1.0","LF","g8yr0b9yda","1366","768","en","er07im06","6103.935000021011","{""language"":""en""}","","","","","","","","","","","","",""
"","external-html","2","137718","0.0-3.0-0.0","LF","g8yr0b9yda","1366","768","en","er07im06","101787.72999998182","","text/information_english.html","","","","","","","","","","","",""
"","external-html","3","161655","0.0-3.0-1.0","LF","g8yr0b9yda","1366","768","en","er07im06","23808.139999979176","","text/consent_english.html","","","","","","","","","","","",""
"","survey-html-form","4","255237","0.0-3.0-2.0","LF","g8yr0b9yda","1366","768","en","er07im06","93579.2299999157","{""codeword_enter"":""er07im06""}","","","","","","","","","","","","",""
"","instructions","5","270065","0.0-4.0","LF","g8yr0b9yda","1366","768","en","er07im06","NA","","","[{""page_index"":0,""viewing_time"":2840.0399999227375},{""page_index"":1,""viewing_time"":10484.315000008792}]","instructions","","","","","","","","","",""
"","resize","6","347525","0.0-5.0","LF","g8yr0b9yda","1366","768","en","er07im06","","","","","","","332","2.107936507936508","","","","","","",""
"","html-keyboard-response","7","348530","0.0-6.0-0.0","LF","g8yr0b9yda","1366","768","en","er07im06","null","","","","learningBlock1","","","","This is a tob:","null","","","","",""
"","image-keyboard-response","8","348859","0.0-6.0-1.0","LF","g8yr0b9yda","1366","768","en","er07im06","null","","","","","","","","learning/Slide1.JPG","null","","","","",""
"","html-keyboard-response","9","349866","0.0-6.0-2.0","LF","g8yr0b9yda","1366","768","en","er07im06","null","","","","learningBlock1","","","","<div style=""font-size:60px;""> </div>","null","LF","learning/Slide1.JPG","This is a tob:","",""
"","html-keyboard-response","10","350868","0.0-6.0-0.1","LF","g8yr0b9yda","1366","768","en","er07im06","null","","","","learningBlock1","","","","This is a wug:","null","","","","",""
"","image-keyboard-response","11","351196","0.0-6.0-1.1","LF","g8yr0b9yda","1366","768","en","er07im06","null","","","","","","","","learning/Slide2.JPG","null","","","","",""
"","html-keyboard-response","12","352199","0.0-6.0-2.1","LF","g8yr0b9yda","1366","768","en","er07im06","null","","","","learningBlock1","","","","<div style=""font-size:60px;""> </div>","null","LF","learning/Slide2.JPG","This is a wug:","",""
"","html-keyboard-response","13","353202","0.0-6.0-0.2","LF","g8yr0b9yda","1366","768","en","er07im06","null","","","","learningBlock1","","","","This is a bim:","null","","","","",""
"","image-keyboard-response","14","353529","0.0-6.0-1.2","LF","g8yr0b9yda","1366","768","en","er07im06","null","","","","","","","","learning/Slide3.JPG","null","","","","",""
"","html-keyboard-response","15","354531","0.0-6.0-2.2","LF","g8yr0b9yda","1366","768","en","er07im06","null","","","","learningBlock1","","","","<div style=""font-size:60px;""> </div>","null","LF","learning/Slide3.JPG","This is a bim:","",""
"","html-keyboard-response","16","355533","0.0-6.0-0.3","LF","g8yr0b9yda","1366","768","en","er07im06","null","","","","learningBlock1","","","","This is a dep:","null","","","","",""
"","image-keyboard-response","17","355861","0.0-6.0-1.3","LF","g8yr0b9yda","1366","768","en","er07im06","null","","","","","","","","learning/Slide4.JPG","null","","","","",""
"","html-keyboard-response","18","356863","0.0-6.0-2.3","LF","g8yr0b9yda","1366","768","en","er07im06","null","","","","learningBlock1","","","","<div style=""font-size:60px;""> </div>","null","LF","learning/Slide4.JPG","This is a dep:","",""
"","html-keyboard-response","19","357865","0.0-6.0-0.4","LF","g8yr0b9yda","1366","768","en","er07im06","null","","","","learningBlock1","","","","This is a wug:","null","","","","",""
"","image-keyboard-response","20","358192","0.0-6.0-1.4","LF","g8yr0b9yda","1366","768","en","er07im06","null","","","","","","","","learning/Slide5.JPG","null","","","","",""
"","html-keyboard-response","21","359207","0.0-6.0-2.4","LF","g8yr0b9yda","1366","768","en","er07im06","null","","","","learningBlock1","","","","<div style=""font-size:60px;""> </div>","null","LF","learning/Slide5.JPG","This is a wug:","",""
"","html-keyboard-response","22","360223","0.0-6.0-0.5","LF","g8yr0b9yda","1366","768","en","er07im06","null","","","","learningBlock1","","","","This is a dep:","null","","","","",""
"","image-keyboard-response","23","360551","0.0-6.0-1.5","LF","g8yr0b9yda","1366","768","en","er07im06","null","","","","","","","","learning/Slide6.JPG","null","","","","",""
"","html-keyboard-response","24","361553","0.0-6.0-2.5","LF","g8yr0b9yda","1366","768","en","er07im06","null","","","","learningBlock1","","","","<div style=""font-size:60px;""> </div>","null","LF","learning/Slide6.JPG","This is a dep:","",""
"","html-keyboard-response","25","362555","0.0-6.0-0.6","LF","g8yr0b9yda","1366","768","en","er07im06","null","","","","learningBlock1","","","","This is a wug:","null","","","","",""
"","image-keyboard-response","26","362883","0.0-6.0-1.6","LF","g8yr0b9yda","1366","768","en","er07im06","null","","","","","","","","learning/Slide7.JPG","null","","","","",""
"","html-keyboard-response","27","363885","0.0-6.0-2.6","LF","g8yr0b9yda","1366","768","en","er07im06","null","","","","learningBlock1","","","","<div style=""font-size:60px;""> </div>","null","LF","learning/Slide7.JPG","This is a wug:","",""
"","html-keyboard-response","28","364886","0.0-6.0-0.7","LF","g8yr0b9yda","1366","768","en","er07im06","null","","","","learningBlock1","","","","This is a bim:","null","","","","",""
"","image-keyboard-response","29","365213","0.0-6.0-1.7","LF","g8yr0b9yda","1366","768","en","er07im06","null","","","","","","","","learning/Slide8.JPG","null","","","","",""
"","html-keyboard-response","30","366216","0.0-6.0-2.7","LF","g8yr0b9yda","1366","768","en","er07im06","null","","","","learningBlock1","","","","<div style=""font-size:60px;""> </div>","null","LF","learning/Slide8.JPG","This is a bim:","",""
"","html-keyboard-response","31","367218","0.0-6.0-0.8","LF","g8yr0b9yda","1366","768","en","er07im06","null","","","","learningBlock1","","","","This is a wug:","null","","","","",""
"","image-keyboard-response","32","367546","0.0-6.0-1.8","LF","g8yr0b9yda","1366","768","en","er07im06","null","","","","","","","","learning/Slide9.JPG","null","","","","",""
"","html-keyboard-response","33","368548","0.0-6.0-2.8","LF","g8yr0b9yda","1366","768","en","er07im06","null","","","","learningBlock1","","","","<div style=""font-size:60px;""> </div>","null","LF","learning/Slide9.JPG","This is a wug:","",""
"","html-keyboard-response","34","369552","0.0-6.0-0.9","LF","g8yr0b9yda","1366","768","en","er07im06","null","","","","learningBlock1","","","","This is a dep:","null","","","","",""
"","image-keyboard-response","35","369880","0.0-6.0-1.9","LF","g8yr0b9yda","1366","768","en","er07im06","null","","","","","","","","learning/Slide10.JPG","null","","","","",""
"","html-keyboard-response","36","370891","0.0-6.0-2.9","LF","g8yr0b9yda","1366","768","en","er07im06","null","","","","learningBlock1","","","","<div style=""font-size:60px;""> </div>","null","LF","learning/Slide10.JPG","This is a dep:","",""
"","html-keyboard-response","37","371893","0.0-6.0-0.10","LF","g8yr0b9yda","1366","768","en","er07im06","null","","","","learningBlock1","","","","This is a tob:","null","","","","",""
"","image-keyboard-response","38","372221","0.0-6.0-1.10","LF","g8yr0b9yda","1366","768","en","er07im06","null","","","","","","","","learning/Slide11.JPG","null","","","","",""
"","html-keyboard-response","39","373223","0.0-6.0-2.10","LF","g8yr0b9yda","1366","768","en","er07im06","null","","","","learningBlock1","","","","<div style=""font-size:60px;""> </div>","null","LF","learning/Slide11.JPG","This is a tob:","",""
"","html-keyboard-response","40","374225","0.0-6.0-0.11","LF","g8yr0b9yda","1366","768","en","er07im06","null","","","","learningBlock1","","","","This is a dep:","null","","","","",""
"","image-keyboard-response","41","374553","0.0-6.0-1.11","LF","g8yr0b9yda","1366","768","en","er07im06","null","","","","","","","","learning/Slide12.JPG","null","","","","",""
"","html-keyboard-response","42","375555","0.0-6.0-2.11","LF","g8yr0b9yda","1366","768","en","er07im06","null","","","","learningBlock1","","","","<div style=""font-size:60px;""> </div>","null","LF","learning/Slide12.JPG","This is a dep:","",""
"","html-keyboard-response","43","376558","0.0-6.0-0.12","LF","g8yr0b9yda","1366","768","en","er07im06","null","","","","learningBlock1","","","","This is a bim:","null","","","","",""
"","image-keyboard-response","44","376886","0.0-6.0-1.12","LF","g8yr0b9yda","1366","768","en","er07im06","null","","","","","","","","learning/Slide13.JPG","null","","","","",""
"","html-keyboard-response","45","377889","0.0-6.0-2.12","LF","g8yr0b9yda","1366","768","en","er07im06","null","","","","learningBlock1","","","","<div style=""font-size:60px;""> </div>","null","LF","learning/Slide13.JPG","This is a bim:","",""
"","html-keyboard-response","46","378891","0.0-6.0-0.13","LF","g8yr0b9yda","1366","768","en","er07im06","null","","","","learningBlock1","","","","This is a wug:","null","","","","",""
"","image-keyboard-response","47","379219","0.0-6.0-1.13","LF","g8yr0b9yda","1366","768","en","er07im06","null","","","","","","","","learning/Slide14.JPG","null","","","","",""
"","html-keyboard-response","48","380221","0.0-6.0-2.13","LF","g8yr0b9yda","1366","768","en","er07im06","null","","","","learningBlock1","","","","<div style=""font-size:60px;""> </div>","null","LF","learning/Slide14.JPG","This is a wug:","",""
"","html-keyboard-response","49","381239","0.0-6.0-0.14","LF","g8yr0b9yda","1366","768","en","er07im06","null","","","","learningBlock1","","","","This is a tob:","null","","","","",""
"","image-keyboard-response","50","381566","0.0-6.0-1.14","LF","g8yr0b9yda","1366","768","en","er07im06","null","","","","","","","","learning/Slide15.JPG","null","","","","",""
"","html-keyboard-response","51","382569","0.0-6.0-2.14","LF","g8yr0b9yda","1366","768","en","er07im06","null","","","","learningBlock1","","","","<div style=""font-size:60px;""> </div>","null","LF","learning/Slide15.JPG","This is a tob:","",""
"","html-keyboard-response","52","383571","0.0-6.0-0.15","LF","g8yr0b9yda","1366","768","en","er07im06","null","","","","learningBlock1","","","","This is a dep:","null","","","","",""
"","image-keyboard-response","53","383899","0.0-6.0-1.15","LF","g8yr0b9yda","1366","768","en","er07im06","null","","","","","","","","learning/Slide16.JPG","null","","","","",""
"","html-keyboard-response","54","384901","0.0-6.0-2.15","LF","g8yr0b9yda","1366","768","en","er07im06","null","","","","learningBlock1","","","","<div style=""font-size:60px;""> </div>","null","LF","learning/Slide16.JPG","This is a dep:","",""
"","html-keyboard-response","55","385904","0.0-6.0-0.16","LF","g8yr0b9yda","1366","768","en","er07im06","null","","","","learningBlock1","","","","This is a bim:","null","","","","",""
"","image-keyboard-response","56","386231","0.0-6.0-1.16","LF","g8yr0b9yda","1366","768","en","er07im06","null","","","","","","","","learning/Slide17.JPG","null","","","","",""
"","html-keyboard-response","57","387234","0.0-6.0-2.16","LF","g8yr0b9yda","1366","768","en","er07im06","null","","","","learningBlock1","","","","<div style=""font-size:60px;""> </div>","null","LF","learning/Slide17.JPG","This is a bim:","",""
"","html-keyboard-response","58","388236","0.0-6.0-0.17","LF","g8yr0b9yda","1366","768","en","er07im06","null","","","","learningBlock1","","","","This is a tob:","null","","","","",""
"","image-keyboard-response","59","388565","0.0-6.0-1.17","LF","g8yr0b9yda","1366","768","en","er07im06","null","","","","","","","","learning/Slide18.JPG","null","","","","",""
"","html-keyboard-response","60","389567","0.0-6.0-2.17","LF","g8yr0b9yda","1366","768","en","er07im06","null","","","","learningBlock1","","","","<div style=""font-size:60px;""> </div>","null","LF","learning/Slide18.JPG","This is a tob:","",""
"","html-keyboard-response","61","390570","0.0-6.0-0.18","LF","g8yr0b9yda","1366","768","en","er07im06","null","","","","learningBlock1","","","","This is a wug:","null","","","","",""
"","image-keyboard-response","62","390910","0.0-6.0-1.18","LF","g8yr0b9yda","1366","768","en","er07im06","null","","","","","","","","learning/Slide19.JPG","null","","","","",""
"","html-keyboard-response","63","391917","0.0-6.0-2.18","LF","g8yr0b9yda","1366","768","en","er07im06","null","","","","learningBlock1","","","","<div style=""font-size:60px;""> </div>","null","LF","learning/Slide19.JPG","This is a wug:","",""
"","html-keyboard-response","64","392931","0.0-6.0-0.19","LF","g8yr0b9yda","1366","768","en","er07im06","null","","","","learningBlock1","","","","This is a bim:","null","","","","",""
"","image-keyboard-response","65","393259","0.0-6.0-1.19","LF","g8yr0b9yda","1366","768","en","er07im06","null","","","","","","","","learning/Slide20.JPG","null","","","","",""
"","html-keyboard-response","66","394261","0.0-6.0-2.19","LF","g8yr0b9yda","1366","768","en","er07im06","null","","","","learningBlock1","","","","<div style=""font-size:60px;""> </div>","null","LF","learning/Slide20.JPG","This is a bim:","",""
"","html-keyboard-response","67","395264","0.0-6.0-0.20","LF","g8yr0b9yda","1366","768","en","er07im06","null","","","","learningBlock1","","","","This is a dep:","null","","","","",""
"","image-keyboard-response","68","395592","0.0-6.0-1.20","LF","g8yr0b9yda","1366","768","en","er07im06","null","","","","","","","","learning/Slide21.JPG","null","","","","",""
"","html-keyboard-response","69","396595","0.0-6.0-2.20","LF","g8yr0b9yda","1366","768","en","er07im06","null","","","","learningBlock1","","","","<div style=""font-size:60px;""> </div>","null","LF","learning/Slide21.JPG","This is a dep:","",""
"","html-keyboard-response","70","397597","0.0-6.0-0.21","LF","g8yr0b9yda","1366","768","en","er07im06","null","","","","learningBlock1","","","","This is a bim:","null","","","","",""
"","image-keyboard-response","71","397926","0.0-6.0-1.21","LF","g8yr0b9yda","1366","768","en","er07im06","null","","","","","","","","learning/Slide22.JPG","null","","","","",""
"","html-keyboard-response","72","398928","0.0-6.0-2.21","LF","g8yr0b9yda","1366","768","en","er07im06","null","","","","learningBlock1","","","","<div style=""font-size:60px;""> </div>","null","LF","learning/Slide22.JPG","This is a bim:","",""
"","html-keyboard-response","73","399930","0.0-6.0-0.22","LF","g8yr0b9yda","1366","768","en","er07im06","null","","","","learningBlock1","","","","This is a tob:","null","","","","",""
"","image-keyboard-response","74","400258","0.0-6.0-1.22","LF","g8yr0b9yda","1366","768","en","er07im06","null","","","","","","","","learning/Slide23.JPG","null","","","","",""
"","html-keyboard-response","75","401261","0.0-6.0-2.22","LF","g8yr0b9yda","1366","768","en","er07im06","null","","","","learningBlock1","","","","<div style=""font-size:60px;""> </div>","null","LF","learning/Slide23.JPG","This is a tob:","",""
"","html-keyboard-response","76","402263","0.0-6.0-0.23","LF","g8yr0b9yda","1366","768","en","er07im06","null","","","","learningBlock1","","","","This is a wug:","null","","","","",""
"","image-keyboard-response","77","402590","0.0-6.0-1.23","LF","g8yr0b9yda","1366","768","en","er07im06","null","","","","","","","","learning/Slide24.JPG","null","","","","",""
"","html-keyboard-response","78","403592","0.0-6.0-2.23","LF","g8yr0b9yda","1366","768","en","er07im06","null","","","","learningBlock1","","","","<div style=""font-size:60px;""> </div>","null","LF","learning/Slide24.JPG","This is a wug:","",""
"","html-keyboard-response","79","404595","0.0-6.0-0.24","LF","g8yr0b9yda","1366","768","en","er07im06","null","","","","learningBlock1","","","","This is a dep:","null","","","","",""
"","image-keyboard-response","80","404924","0.0-6.0-1.24","LF","g8yr0b9yda","1366","768","en","er07im06","null","","","","","","","","learning/Slide25.JPG","null","","","","",""
"","html-keyboard-response","81","405926","0.0-6.0-2.24","LF","g8yr0b9yda","1366","768","en","er07im06","null","","","","learningBlock1","","","","<div style=""font-size:60px;""> </div>","null","LF","learning/Slide25.JPG","This is a dep:","",""
"","html-keyboard-response","82","406928","0.0-6.0-0.25","LF","g8yr0b9yda","1366","768","en","er07im06","null","","","","learningBlock1","","","","This is a wug:","null","","","","",""
"","image-keyboard-response","83","407255","0.0-6.0-1.25","LF","g8yr0b9yda","1366","768","en","er07im06","null","","","","","","","","learning/Slide26.JPG","null","","","","",""
"","html-keyboard-response","84","408257","0.0-6.0-2.25","LF","g8yr0b9yda","1366","768","en","er07im06","null","","","","learningBlock1","","","","<div style=""font-size:60px;""> </div>","null","LF","learning/Slide26.JPG","This is a wug:","",""
"","html-keyboard-response","85","409260","0.0-6.0-0.26","LF","g8yr0b9yda","1366","768","en","er07im06","null","","","","learningBlock1","","","","This is a bim:","null","","","","",""
"","image-keyboard-response","86","409587","0.0-6.0-1.26","LF","g8yr0b9yda","1366","768","en","er07im06","null","","","","","","","","learning/Slide27.JPG","null","","","","",""
"","html-keyboard-response","87","410590","0.0-6.0-2.26","LF","g8yr0b9yda","1366","768","en","er07im06","null","","","","learningBlock1","","","","<div style=""font-size:60px;""> </div>","null","LF","learning/Slide27.JPG","This is a bim:","",""
"","html-keyboard-response","88","411592","0.0-6.0-0.27","LF","g8yr0b9yda","1366","768","en","er07im06","null","","","","learningBlock1","","","","This is a dep:","null","","","","",""
"","image-keyboard-response","89","411920","0.0-6.0-1.27","LF","g8yr0b9yda","1366","768","en","er07im06","null","","","","","","","","learning/Slide28.JPG","null","","","","",""
"","html-keyboard-response","90","412923","0.0-6.0-2.27","LF","g8yr0b9yda","1366","768","en","er07im06","null","","","","learningBlock1","","","","<div style=""font-size:60px;""> </div>","null","LF","learning/Slide28.JPG","This is a dep:","",""
"","html-keyboard-response","91","413925","0.0-6.0-0.28","LF","g8yr0b9yda","1366","768","en","er07im06","null","","","","learningBlock1","","","","This is a tob:","null","","","","",""
"","image-keyboard-response","92","414252","0.0-6.0-1.28","LF","g8yr0b9yda","1366","768","en","er07im06","null","","","","","","","","learning/Slide29.JPG","null","","","","",""
"","html-keyboard-response","93","415254","0.0-6.0-2.28","LF","g8yr0b9yda","1366","768","en","er07im06","null","","","","learningBlock1","","","","<div style=""font-size:60px;""> </div>","null","LF","learning/Slide29.JPG","This is a tob:","",""
"","html-keyboard-response","94","416255","0.0-6.0-0.29","LF","g8yr0b9yda","1366","768","en","er07im06","null","","","","learningBlock1","","","","This is a dep:","null","","","","",""
"","image-keyboard-response","95","416583","0.0-6.0-1.29","LF","g8yr0b9yda","1366","768","en","er07im06","null","","","","","","","","learning/Slide30.JPG","null","","","","",""
"","html-keyboard-response","96","417585","0.0-6.0-2.29","LF","g8yr0b9yda","1366","768","en","er07im06","null","","","","learningBlock1","","","","<div style=""font-size:60px;""> </div>","null","LF","learning/Slide30.JPG","This is a dep:","",""
"","html-keyboard-response","97","418588","0.0-6.0-0.30","LF","g8yr0b9yda","1366","768","en","er07im06","null","","","","learningBlock1","","","","This is a wug:","null","","","","",""
"","image-keyboard-response","98","418916","0.0-6.0-1.30","LF","g8yr0b9yda","1366","768","en","er07im06","null","","","","","","","","learning/Slide31.JPG","null","","","","",""
"","html-keyboard-response","99","419925","0.0-6.0-2.30","LF","g8yr0b9yda","1366","768","en","er07im06","null","","","","learningBlock1","","","","<div style=""font-size:60px;""> </div>","null","LF","learning/Slide31.JPG","This is a wug:","",""
"","html-keyboard-response","100","420927","0.0-6.0-0.31","LF","g8yr0b9yda","1366","768","en","er07im06","null","","","","learningBlock1","","","","This is a tob:","null","","","","",""
"","image-keyboard-response","101","421254","0.0-6.0-1.31","LF","g8yr0b9yda","1366","768","en","er07im06","null","","","","","","","","learning/Slide32.JPG","null","","","","",""
"","html-keyboard-response","102","422256","0.0-6.0-2.31","LF","g8yr0b9yda","1366","768","en","er07im06","null","","","","learningBlock1","","","","<div style=""font-size:60px;""> </div>","null","LF","learning/Slide32.JPG","This is a tob:","",""
"","html-keyboard-response","103","423258","0.0-6.0-0.32","LF","g8yr0b9yda","1366","768","en","er07im06","null","","","","learningBlock1","","","","This is a bim:","null","","","","",""
"","image-keyboard-response","104","423586","0.0-6.0-1.32","LF","g8yr0b9yda","1366","768","en","er07im06","null","","","","","","","","learning/Slide33.JPG","null","","","","",""
"","html-keyboard-response","105","424590","0.0-6.0-2.32","LF","g8yr0b9yda","1366","768","en","er07im06","null","","","","learningBlock1","","","","<div style=""font-size:60px;""> </div>","null","LF","learning/Slide33.JPG","This is a bim:","",""
"","html-keyboard-response","106","425592","0.0-6.0-0.33","LF","g8yr0b9yda","1366","768","en","er07im06","null","","","","learningBlock1","","","","This is a tob:","null","","","","",""
"","image-keyboard-response","107","425920","0.0-6.0-1.33","LF","g8yr0b9yda","1366","768","en","er07im06","null","","","","","","","","learning/Slide34.JPG","null","","","","",""
"","html-keyboard-response","108","426923","0.0-6.0-2.33","LF","g8yr0b9yda","1366","768","en","er07im06","null","","","","learningBlock1","","","","<div style=""font-size:60px;""> </div>","null","LF","learning/Slide34.JPG","This is a tob:","",""
"","html-keyboard-response","109","427925","0.0-6.0-0.34","LF","g8yr0b9yda","1366","768","en","er07im06","null","","","","learningBlock1","","","","This is a bim:","null","","","","",""
"","image-keyboard-response","110","428252","0.0-6.0-1.34","LF","g8yr0b9yda","1366","768","en","er07im06","null","","","","","","","","learning/Slide35.JPG","null","","","","",""
"","html-keyboard-response","111","429254","0.0-6.0-2.34","LF","g8yr0b9yda","1366","768","en","er07im06","null","","","","learningBlock1","","","","<div style=""font-size:60px;""> </div>","null","LF","learning/Slide35.JPG","This is a bim:","",""
"","html-keyboard-response","112","430256","0.0-6.0-0.35","LF","g8yr0b9yda","1366","768","en","er07im06","null","","","","learningBlock1","","","","This is a dep:","null","","","","",""
"","image-keyboard-response","113","430584","0.0-6.0-1.35","LF","g8yr0b9yda","1366","768","en","er07im06","null","","","","","","","","learning/Slide36.JPG","null","","","","",""
"","html-keyboard-response","114","431587","0.0-6.0-2.35","LF","g8yr0b9yda","1366","768","en","er07im06","null","","","","learningBlock1","","","","<div style=""font-size:60px;""> </div>","null","LF","learning/Slide36.JPG","This is a dep:","",""
"","html-keyboard-response","115","432589","0.0-6.0-0.36","LF","g8yr0b9yda","1366","768","en","er07im06","null","","","","learningBlock1","","","","This is a tob:","null","","","","",""
"","image-keyboard-response","116","432916","0.0-6.0-1.36","LF","g8yr0b9yda","1366","768","en","er07im06","null","","","","","","","","learning/Slide37.JPG","null","","","","",""
"","html-keyboard-response","117","433919","0.0-6.0-2.36","LF","g8yr0b9yda","1366","768","en","er07im06","null","","","","learningBlock1","","","","<div style=""font-size:60px;""> </div>","null","LF","learning/Slide37.JPG","This is a tob:","",""
"","html-keyboard-response","118","434921","0.0-6.0-0.37","LF","g8yr0b9yda","1366","768","en","er07im06","null","","","","learningBlock1","","","","This is a wug:","null","","","","",""
"","image-keyboard-response","119","435250","0.0-6.0-1.37","LF","g8yr0b9yda","1366","768","en","er07im06","null","","","","","","","","learning/Slide38.JPG","null","","","","",""
"","html-keyboard-response","120","436264","0.0-6.0-2.37","LF","g8yr0b9yda","1366","768","en","er07im06","null","","","","learningBlock1","","","","<div style=""font-size:60px;""> </div>","null","LF","learning/Slide38.JPG","This is a wug:","",""
"","html-keyboard-response","121","437266","0.0-6.0-0.38","LF","g8yr0b9yda","1366","768","en","er07im06","null","","","","learningBlock1","","","","This is a bim:","null","","","","",""
"","image-keyboard-response","122","437593","0.0-6.0-1.38","LF","g8yr0b9yda","1366","768","en","er07im06","null","","","","","","","","learning/Slide39.JPG","null","","","","",""
"","html-keyboard-response","123","438595","0.0-6.0-2.38","LF","g8yr0b9yda","1366","768","en","er07im06","null","","","","learningBlock1","","","","<div style=""font-size:60px;""> </div>","null","LF","learning/Slide39.JPG","This is a bim:","",""
"","html-keyboard-response","124","439597","0.0-6.0-0.39","LF","g8yr0b9yda","1366","768","en","er07im06","null","","","","learningBlock1","","","","This is a tob:","null","","","","",""
"","image-keyboard-response","125","439924","0.0-6.0-1.39","LF","g8yr0b9yda","1366","768","en","er07im06","null","","","","","","","","learning/Slide40.JPG","null","","","","",""
"","html-keyboard-response","126","440926","0.0-6.0-2.39","LF","g8yr0b9yda","1366","768","en","er07im06","null","","","","learningBlock1","","","","<div style=""font-size:60px;""> </div>","null","LF","learning/Slide40.JPG","This is a tob:","",""
"","html-keyboard-response","127","441928","0.0-6.0-0.40","LF","g8yr0b9yda","1366","768","en","er07im06","null","","","","learningBlock1","","","","This is a bim:","null","","","","",""
"","image-keyboard-response","128","442256","0.0-6.0-1.40","LF","g8yr0b9yda","1366","768","en","er07im06","null","","","","","","","","learning/Slide41.JPG","null","","","","",""
"","html-keyboard-response","129","443258","0.0-6.0-2.40","LF","g8yr0b9yda","1366","768","en","er07im06","null","","","","learningBlock1","","","","<div style=""font-size:60px;""> </div>","null","LF","learning/Slide41.JPG","This is a bim:","",""
"","html-keyboard-response","130","444260","0.0-6.0-0.41","LF","g8yr0b9yda","1366","768","en","er07im06","null","","","","learningBlock1","","","","This is a dep:","null","","","","",""
"","image-keyboard-response","131","444588","0.0-6.0-1.41","LF","g8yr0b9yda","1366","768","en","er07im06","null","","","","","","","","learning/Slide42.JPG","null","","","","",""
"","html-keyboard-response","132","445590","0.0-6.0-2.41","LF","g8yr0b9yda","1366","768","en","er07im06","null","","","","learningBlock1","","","","<div style=""font-size:60px;""> </div>","null","LF","learning/Slide42.JPG","This is a dep:","",""
"","html-keyboard-response","133","446592","0.0-6.0-0.42","LF","g8yr0b9yda","1366","768","en","er07im06","null","","","","learningBlock1","","","","This is a wug:","null","","","","",""
"","image-keyboard-response","134","446920","0.0-6.0-1.42","LF","g8yr0b9yda","1366","768","en","er07im06","null","","","","","","","","learning/Slide43.JPG","null","","","","",""
"","html-keyboard-response","135","447922","0.0-6.0-2.42","LF","g8yr0b9yda","1366","768","en","er07im06","null","","","","learningBlock1","","","","<div style=""font-size:60px;""> </div>","null","LF","learning/Slide43.JPG","This is a wug:","",""
"","html-keyboard-response","136","448925","0.0-6.0-0.43","LF","g8yr0b9yda","1366","768","en","er07im06","null","","","","learningBlock1","","","","This is a bim:","null","","","","",""
"","image-keyboard-response","137","449252","0.0-6.0-1.43","LF","g8yr0b9yda","1366","768","en","er07im06","null","","","","","","","","learning/Slide44.JPG","null","","","","",""
"","html-keyboard-response","138","450255","0.0-6.0-2.43","LF","g8yr0b9yda","1366","768","en","er07im06","null","","","","learningBlock1","","","","<div style=""font-size:60px;""> </div>","null","LF","learning/Slide44.JPG","This is a bim:","",""
"","html-keyboard-response","139","451257","0.0-6.0-0.44","LF","g8yr0b9yda","1366","768","en","er07im06","null","","","","learningBlock1","","","","This is a wug:","null","","","","",""
"","image-keyboard-response","140","451585","0.0-6.0-1.44","LF","g8yr0b9yda","1366","768","en","er07im06","null","","","","","","","","learning/Slide45.JPG","null","","","","",""
"","html-keyboard-response","141","452587","0.0-6.0-2.44","LF","g8yr0b9yda","1366","768","en","er07im06","null","","","","learningBlock1","","","","<div style=""font-size:60px;""> </div>","null","LF","learning/Slide45.JPG","This is a wug:","",""
"","html-keyboard-response","142","453589","0.0-6.0-0.45","LF","g8yr0b9yda","1366","768","en","er07im06","null","","","","learningBlock1","","","","This is a dep:","null","","","","",""
"","image-keyboard-response","143","453917","0.0-6.0-1.45","LF","g8yr0b9yda","1366","768","en","er07im06","null","","","","","","","","learning/Slide46.JPG","null","","","","",""
"","html-keyboard-response","144","454919","0.0-6.0-2.45","LF","g8yr0b9yda","1366","768","en","er07im06","null","","","","learningBlock1","","","","<div style=""font-size:60px;""> </div>","null","LF","learning/Slide46.JPG","This is a dep:","",""
"","html-keyboard-response","145","455921","0.0-6.0-0.46","LF","g8yr0b9yda","1366","768","en","er07im06","null","","","","learningBlock1","","","","This is a tob:","null","","","","",""
"","image-keyboard-response","146","456249","0.0-6.0-1.46","LF","g8yr0b9yda","1366","768","en","er07im06","null","","","","","","","","learning/Slide47.JPG","null","","","","",""
"","html-keyboard-response","147","457251","0.0-6.0-2.46","LF","g8yr0b9yda","1366","768","en","er07im06","null","","","","learningBlock1","","","","<div style=""font-size:60px;""> </div>","null","LF","learning/Slide47.JPG","This is a tob:","",""
"","html-keyboard-response","148","458253","0.0-6.0-0.47","LF","g8yr0b9yda","1366","768","en","er07im06","null","","","","learningBlock1","","","","This is a bim:","null","","","","",""
"","image-keyboard-response","149","458581","0.0-6.0-1.47","LF","g8yr0b9yda","1366","768","en","er07im06","null","","","","","","","","learning/Slide48.JPG","null","","","","",""
"","html-keyboard-response","150","459582","0.0-6.0-2.47","LF","g8yr0b9yda","1366","768","en","er07im06","null","","","","learningBlock1","","","","<div style=""font-size:60px;""> </div>","null","LF","learning/Slide48.JPG","This is a bim:","",""
"","html-keyboard-response","151","460585","0.0-6.0-0.48","LF","g8yr0b9yda","1366","768","en","er07im06","null","","","","learningBlock1","","","","This is a dep:","null","","","","",""
"","image-keyboard-response","152","460913","0.0-6.0-1.48","LF","g8yr0b9yda","1366","768","en","er07im06","null","","","","","","","","learning/Slide49.JPG","null","","","","",""
"","html-keyboard-response","153","461916","0.0-6.0-2.48","LF","g8yr0b9yda","1366","768","en","er07im06","null","","","","learningBlock1","","","","<div style=""font-size:60px;""> </div>","null","LF","learning/Slide49.JPG","This is a dep:","",""
"","html-keyboard-response","154","462917","0.0-6.0-0.49","LF","g8yr0b9yda","1366","768","en","er07im06","null","","","","learningBlock1","","","","This is a tob:","null","","","","",""
"","image-keyboard-response","155","463245","0.0-6.0-1.49","LF","g8yr0b9yda","1366","768","en","er07im06","null","","","","","","","","learning/Slide50.JPG","null","","","","",""
"","html-keyboard-response","156","464247","0.0-6.0-2.49","LF","g8yr0b9yda","1366","768","en","er07im06","null","","","","learningBlock1","","","","<div style=""font-size:60px;""> </div>","null","LF","learning/Slide50.JPG","This is a tob:","",""
"","html-keyboard-response","157","465249","0.0-6.0-0.50","LF","g8yr0b9yda","1366","768","en","er07im06","null","","","","learningBlock1","","","","This is a bim:","null","","","","",""
"","image-keyboard-response","158","465576","0.0-6.0-1.50","LF","g8yr0b9yda","1366","768","en","er07im06","null","","","","","","","","learning/Slide51.JPG","null","","","","",""
"","html-keyboard-response","159","466578","0.0-6.0-2.50","LF","g8yr0b9yda","1366","768","en","er07im06","null","","","","learningBlock1","","","","<div style=""font-size:60px;""> </div>","null","LF","learning/Slide51.JPG","This is a bim:","",""
"","html-keyboard-response","160","467581","0.0-6.0-0.51","LF","g8yr0b9yda","1366","768","en","er07im06","null","","","","learningBlock1","","","","This is a wug:","null","","","","",""
"","image-keyboard-response","161","467908","0.0-6.0-1.51","LF","g8yr0b9yda","1366","768","en","er07im06","null","","","","","","","","learning/Slide52.JPG","null","","","","",""
"","html-keyboard-response","162","468910","0.0-6.0-2.51","LF","g8yr0b9yda","1366","768","en","er07im06","null","","","","learningBlock1","","","","<div style=""font-size:60px;""> </div>","null","LF","learning/Slide52.JPG","This is a wug:","",""
"","html-keyboard-response","163","469913","0.0-6.0-0.52","LF","g8yr0b9yda","1366","768","en","er07im06","null","","","","learningBlock1","","","","This is a tob:","null","","","","",""
"","image-keyboard-response","164","470240","0.0-6.0-1.52","LF","g8yr0b9yda","1366","768","en","er07im06","null","","","","","","","","learning/Slide53.JPG","null","","","","",""
"","html-keyboard-response","165","471243","0.0-6.0-2.52","LF","g8yr0b9yda","1366","768","en","er07im06","null","","","","learningBlock1","","","","<div style=""font-size:60px;""> </div>","null","LF","learning/Slide53.JPG","This is a tob:","",""
"","html-keyboard-response","166","472246","0.0-6.0-0.53","LF","g8yr0b9yda","1366","768","en","er07im06","null","","","","learningBlock1","","","","This is a dep:","null","","","","",""
"","image-keyboard-response","167","472573","0.0-6.0-1.53","LF","g8yr0b9yda","1366","768","en","er07im06","null","","","","","","","","learning/Slide54.JPG","null","","","","",""
"","html-keyboard-response","168","473576","0.0-6.0-2.53","LF","g8yr0b9yda","1366","768","en","er07im06","null","","","","learningBlock1","","","","<div style=""font-size:60px;""> </div>","null","LF","learning/Slide54.JPG","This is a dep:","",""
"","html-keyboard-response","169","474577","0.0-6.0-0.54","LF","g8yr0b9yda","1366","768","en","er07im06","null","","","","learningBlock1","","","","This is a bim:","null","","","","",""
"","image-keyboard-response","170","474905","0.0-6.0-1.54","LF","g8yr0b9yda","1366","768","en","er07im06","null","","","","","","","","learning/Slide55.JPG","null","","","","",""
"","html-keyboard-response","171","475907","0.0-6.0-2.54","LF","g8yr0b9yda","1366","768","en","er07im06","null","","","","learningBlock1","","","","<div style=""font-size:60px;""> </div>","null","LF","learning/Slide55.JPG","This is a bim:","",""
"","html-keyboard-response","172","476908","0.0-6.0-0.55","LF","g8yr0b9yda","1366","768","en","er07im06","null","","","","learningBlock1","","","","This is a tob:","null","","","","",""
"","image-keyboard-response","173","477237","0.0-6.0-1.55","LF","g8yr0b9yda","1366","768","en","er07im06","null","","","","","","","","learning/Slide56.JPG","null","","","","",""
"","html-keyboard-response","174","478238","0.0-6.0-2.55","LF","g8yr0b9yda","1366","768","en","er07im06","null","","","","learningBlock1","","","","<div style=""font-size:60px;""> </div>","null","LF","learning/Slide56.JPG","This is a tob:","",""
"","html-keyboard-response","175","479240","0.0-6.0-0.56","LF","g8yr0b9yda","1366","768","en","er07im06","null","","","","learningBlock1","","","","This is a dep:","null","","","","",""
"","image-keyboard-response","176","479567","0.0-6.0-1.56","LF","g8yr0b9yda","1366","768","en","er07im06","null","","","","","","","","learning/Slide57.JPG","null","","","","",""
"","html-keyboard-response","177","480570","0.0-6.0-2.56","LF","g8yr0b9yda","1366","768","en","er07im06","null","","","","learningBlock1","","","","<div style=""font-size:60px;""> </div>","null","LF","learning/Slide57.JPG","This is a dep:","",""
"","html-keyboard-response","178","481573","0.0-6.0-0.57","LF","g8yr0b9yda","1366","768","en","er07im06","null","","","","learningBlock1","","","","This is a wug:","null","","","","",""
"","image-keyboard-response","179","481899","0.0-6.0-1.57","LF","g8yr0b9yda","1366","768","en","er07im06","null","","","","","","","","learning/Slide58.JPG","null","","","","",""
"","html-keyboard-response","180","482900","0.0-6.0-2.57","LF","g8yr0b9yda","1366","768","en","er07im06","null","","","","learningBlock1","","","","<div style=""font-size:60px;""> </div>","null","LF","learning/Slide58.JPG","This is a wug:","",""
"","html-keyboard-response","181","483903","0.0-6.0-0.58","LF","g8yr0b9yda","1366","768","en","er07im06","null","","","","learningBlock1","","","","This is a dep:","null","","","","",""
"","image-keyboard-response","182","484231","0.0-6.0-1.58","LF","g8yr0b9yda","1366","768","en","er07im06","null","","","","","","","","learning/Slide59.JPG","null","","","","",""
"","html-keyboard-response","183","485234","0.0-6.0-2.58","LF","g8yr0b9yda","1366","768","en","er07im06","null","","","","learningBlock1","","","","<div style=""font-size:60px;""> </div>","null","LF","learning/Slide59.JPG","This is a dep:","",""
"","html-keyboard-response","184","486236","0.0-6.0-0.59","LF","g8yr0b9yda","1366","768","en","er07im06","null","","","","learningBlock1","","","","This is a wug:","null","","","","",""
"","image-keyboard-response","185","486565","0.0-6.0-1.59","LF","g8yr0b9yda","1366","768","en","er07im06","null","","","","","","","","learning/Slide60.JPG","null","","","","",""
"","html-keyboard-response","186","487566","0.0-6.0-2.59","LF","g8yr0b9yda","1366","768","en","er07im06","null","","","","learningBlock1","","","","<div style=""font-size:60px;""> </div>","null","LF","learning/Slide60.JPG","This is a wug:","",""
"","html-keyboard-response","187","488567","0.0-6.0-0.60","LF","g8yr0b9yda","1366","768","en","er07im06","null","","","","learningBlock1","","","","This is a bim:","null","","","","",""
"","image-keyboard-response","188","488894","0.0-6.0-1.60","LF","g8yr0b9yda","1366","768","en","er07im06","null","","","","","","","","learning/Slide61.JPG","null","","","","",""
"","html-keyboard-response","189","489896","0.0-6.0-2.60","LF","g8yr0b9yda","1366","768","en","er07im06","null","","","","learningBlock1","","","","<div style=""font-size:60px;""> </div>","null","LF","learning/Slide61.JPG","This is a bim:","",""
"","html-keyboard-response","190","490898","0.0-6.0-0.61","LF","g8yr0b9yda","1366","768","en","er07im06","null","","","","learningBlock1","","","","This is a dep:","null","","","","",""
"","image-keyboard-response","191","491227","0.0-6.0-1.61","LF","g8yr0b9yda","1366","768","en","er07im06","null","","","","","","","","learning/Slide62.JPG","null","","","","",""
"","html-keyboard-response","192","492229","0.0-6.0-2.61","LF","g8yr0b9yda","1366","768","en","er07im06","null","","","","learningBlock1","","","","<div style=""font-size:60px;""> </div>","null","LF","learning/Slide62.JPG","This is a dep:","",""
"","html-keyboard-response","193","493231","0.0-6.0-0.62","LF","g8yr0b9yda","1366","768","en","er07im06","null","","","","learningBlock1","","","","This is a bim:","null","","","","",""
"","image-keyboard-response","194","493559","0.0-6.0-1.62","LF","g8yr0b9yda","1366","768","en","er07im06","null","","","","","","","","learning/Slide63.JPG","null","","","","",""
"","html-keyboard-response","195","494561","0.0-6.0-2.62","LF","g8yr0b9yda","1366","768","en","er07im06","null","","","","learningBlock1","","","","<div style=""font-size:60px;""> </div>","null","LF","learning/Slide63.JPG","This is a bim:","",""
"","html-keyboard-response","196","495563","0.0-6.0-0.63","LF","g8yr0b9yda","1366","768","en","er07im06","null","","","","learningBlock1","","","","This is a tob:","null","","","","",""
"","image-keyboard-response","197","495892","0.0-6.0-1.63","LF","g8yr0b9yda","1366","768","en","er07im06","null","","","","","","","","learning/Slide64.JPG","null","","","","",""
"","html-keyboard-response","198","496894","0.0-6.0-2.63","LF","g8yr0b9yda","1366","768","en","er07im06","null","","","","learningBlock1","","","","<div style=""font-size:60px;""> </div>","null","LF","learning/Slide64.JPG","This is a tob:","",""
"","html-keyboard-response","199","497896","0.0-6.0-0.64","LF","g8yr0b9yda","1366","768","en","er07im06","null","","","","learningBlock1","","","","This is a wug:","null","","","","",""
"","image-keyboard-response","200","498224","0.0-6.0-1.64","LF","g8yr0b9yda","1366","768","en","er07im06","null","","","","","","","","learning/Slide65.JPG","null","","","","",""
"","html-keyboard-response","201","499227","0.0-6.0-2.64","LF","g8yr0b9yda","1366","768","en","er07im06","null","","","","learningBlock1","","","","<div style=""font-size:60px;""> </div>","null","LF","learning/Slide65.JPG","This is a wug:","",""
"","html-keyboard-response","202","500229","0.0-6.0-0.65","LF","g8yr0b9yda","1366","768","en","er07im06","null","","","","learningBlock1","","","","This is a dep:","null","","","","",""
"","image-keyboard-response","203","500557","0.0-6.0-1.65","LF","g8yr0b9yda","1366","768","en","er07im06","null","","","","","","","","learning/Slide66.JPG","null","","","","",""
"","html-keyboard-response","204","501560","0.0-6.0-2.65","LF","g8yr0b9yda","1366","768","en","er07im06","null","","","","learningBlock1","","","","<div style=""font-size:60px;""> </div>","null","LF","learning/Slide66.JPG","This is a dep:","",""
"","html-keyboard-response","205","502561","0.0-6.0-0.66","LF","g8yr0b9yda","1366","768","en","er07im06","null","","","","learningBlock1","","","","This is a tob:","null","","","","",""
"","image-keyboard-response","206","502890","0.0-6.0-1.66","LF","g8yr0b9yda","1366","768","en","er07im06","null","","","","","","","","learning/Slide67.JPG","null","","","","",""
"","html-keyboard-response","207","503892","0.0-6.0-2.66","LF","g8yr0b9yda","1366","768","en","er07im06","null","","","","learningBlock1","","","","<div style=""font-size:60px;""> </div>","null","LF","learning/Slide67.JPG","This is a tob:","",""
"","html-keyboard-response","208","504894","0.0-6.0-0.67","LF","g8yr0b9yda","1366","768","en","er07im06","null","","","","learningBlock1","","","","This is a wug:","null","","","","",""
"","image-keyboard-response","209","505221","0.0-6.0-1.67","LF","g8yr0b9yda","1366","768","en","er07im06","null","","","","","","","","learning/Slide68.JPG","null","","","","",""
"","html-keyboard-response","210","506223","0.0-6.0-2.67","LF","g8yr0b9yda","1366","768","en","er07im06","null","","","","learningBlock1","","","","<div style=""font-size:60px;""> </div>","null","LF","learning/Slide68.JPG","This is a wug:","",""
"","html-keyboard-response","211","507225","0.0-6.0-0.68","LF","g8yr0b9yda","1366","768","en","er07im06","null","","","","learningBlock1","","","","This is a tob:","null","","","","",""
"","image-keyboard-response","212","507554","0.0-6.0-1.68","LF","g8yr0b9yda","1366","768","en","er07im06","null","","","","","","","","learning/Slide69.JPG","null","","","","",""
"","html-keyboard-response","213","508556","0.0-6.0-2.68","LF","g8yr0b9yda","1366","768","en","er07im06","null","","","","learningBlock1","","","","<div style=""font-size:60px;""> </div>","null","LF","learning/Slide69.JPG","This is a tob:","",""
"","html-keyboard-response","214","509559","0.0-6.0-0.69","LF","g8yr0b9yda","1366","768","en","er07im06","null","","","","learningBlock1","","","","This is a dep:","null","","","","",""
"","image-keyboard-response","215","509886","0.0-6.0-1.69","LF","g8yr0b9yda","1366","768","en","er07im06","null","","","","","","","","learning/Slide70.JPG","null","","","","",""
"","html-keyboard-response","216","510888","0.0-6.0-2.69","LF","g8yr0b9yda","1366","768","en","er07im06","null","","","","learningBlock1","","","","<div style=""font-size:60px;""> </div>","null","LF","learning/Slide70.JPG","This is a dep:","",""
"","html-keyboard-response","217","511890","0.0-6.0-0.70","LF","g8yr0b9yda","1366","768","en","er07im06","null","","","","learningBlock1","","","","This is a wug:","null","","","","",""
"","image-keyboard-response","218","512218","0.0-6.0-1.70","LF","g8yr0b9yda","1366","768","en","er07im06","null","","","","","","","","learning/Slide71.JPG","null","","","","",""
"","html-keyboard-response","219","513220","0.0-6.0-2.70","LF","g8yr0b9yda","1366","768","en","er07im06","null","","","","learningBlock1","","","","<div style=""font-size:60px;""> </div>","null","LF","learning/Slide71.JPG","This is a wug:","",""
"","html-keyboard-response","220","514231","0.0-6.0-0.71","LF","g8yr0b9yda","1366","768","en","er07im06","null","","","","learningBlock1","","","","This is a bim:","null","","","","",""
"","image-keyboard-response","221","514559","0.0-6.0-1.71","LF","g8yr0b9yda","1366","768","en","er07im06","null","","","","","","","","learning/Slide72.JPG","null","","","","",""
"","html-keyboard-response","222","515561","0.0-6.0-2.71","LF","g8yr0b9yda","1366","768","en","er07im06","null","","","","learningBlock1","","","","<div style=""font-size:60px;""> </div>","null","LF","learning/Slide72.JPG","This is a bim:","",""
"","html-keyboard-response","223","516562","0.0-6.0-0.72","LF","g8yr0b9yda","1366","768","en","er07im06","null","","","","learningBlock1","","","","This is a wug:","null","","","","",""
"","image-keyboard-response","224","516890","0.0-6.0-1.72","LF","g8yr0b9yda","1366","768","en","er07im06","null","","","","","","","","learning/Slide73.JPG","null","","","","",""
"","html-keyboard-response","225","517892","0.0-6.0-2.72","LF","g8yr0b9yda","1366","768","en","er07im06","null","","","","learningBlock1","","","","<div style=""font-size:60px;""> </div>","null","LF","learning/Slide73.JPG","This is a wug:","",""
"","html-keyboard-response","226","518894","0.0-6.0-0.73","LF","g8yr0b9yda","1366","768","en","er07im06","null","","","","learningBlock1","","","","This is a dep:","null","","","","",""
"","image-keyboard-response","227","519223","0.0-6.0-1.73","LF","g8yr0b9yda","1366","768","en","er07im06","null","","","","","","","","learning/Slide74.JPG","null","","","","",""
"","html-keyboard-response","228","520225","0.0-6.0-2.73","LF","g8yr0b9yda","1366","768","en","er07im06","null","","","","learningBlock1","","","","<div style=""font-size:60px;""> </div>","null","LF","learning/Slide74.JPG","This is a dep:","",""
"","html-keyboard-response","229","521228","0.0-6.0-0.74","LF","g8yr0b9yda","1366","768","en","er07im06","null","","","","learningBlock1","","","","This is a tob:","null","","","","",""
"","image-keyboard-response","230","521557","0.0-6.0-1.74","LF","g8yr0b9yda","1366","768","en","er07im06","null","","","","","","","","learning/Slide75.JPG","null","","","","",""
"","html-keyboard-response","231","522559","0.0-6.0-2.74","LF","g8yr0b9yda","1366","768","en","er07im06","null","","","","learningBlock1","","","","<div style=""font-size:60px;""> </div>","null","LF","learning/Slide75.JPG","This is a tob:","",""
"","html-keyboard-response","232","523561","0.0-6.0-0.75","LF","g8yr0b9yda","1366","768","en","er07im06","null","","","","learningBlock1","","","","This is a bim:","null","","","","",""
"","image-keyboard-response","233","523889","0.0-6.0-1.75","LF","g8yr0b9yda","1366","768","en","er07im06","null","","","","","","","","learning/Slide76.JPG","null","","","","",""
"","html-keyboard-response","234","524891","0.0-6.0-2.75","LF","g8yr0b9yda","1366","768","en","er07im06","null","","","","learningBlock1","","","","<div style=""font-size:60px;""> </div>","null","LF","learning/Slide76.JPG","This is a bim:","",""
"","html-keyboard-response","235","525893","0.0-6.0-0.76","LF","g8yr0b9yda","1366","768","en","er07im06","null","","","","learningBlock1","","","","This is a tob:","null","","","","",""
"","image-keyboard-response","236","526220","0.0-6.0-1.76","LF","g8yr0b9yda","1366","768","en","er07im06","null","","","","","","","","learning/Slide77.JPG","null","","","","",""
"","html-keyboard-response","237","527228","0.0-6.0-2.76","LF","g8yr0b9yda","1366","768","en","er07im06","null","","","","learningBlock1","","","","<div style=""font-size:60px;""> </div>","null","LF","learning/Slide77.JPG","This is a tob:","",""
"","html-keyboard-response","238","528245","0.0-6.0-0.77","LF","g8yr0b9yda","1366","768","en","er07im06","null","","","","learningBlock1","","","","This is a wug:","null","","","","",""
"","image-keyboard-response","239","528573","0.0-6.0-1.77","LF","g8yr0b9yda","1366","768","en","er07im06","null","","","","","","","","learning/Slide78.JPG","null","","","","",""
"","html-keyboard-response","240","529575","0.0-6.0-2.77","LF","g8yr0b9yda","1366","768","en","er07im06","null","","","","learningBlock1","","","","<div style=""font-size:60px;""> </div>","null","LF","learning/Slide78.JPG","This is a wug:","",""
"","html-keyboard-response","241","530578","0.0-6.0-0.78","LF","g8yr0b9yda","1366","768","en","er07im06","null","","","","learningBlock1","","","","This is a bim:","null","","","","",""
"","image-keyboard-response","242","530907","0.0-6.0-1.78","LF","g8yr0b9yda","1366","768","en","er07im06","null","","","","","","","","learning/Slide79.JPG","null","","","","",""
"","html-keyboard-response","243","531910","0.0-6.0-2.78","LF","g8yr0b9yda","1366","768","en","er07im06","null","","","","learningBlock1","","","","<div style=""font-size:60px;""> </div>","null","LF","learning/Slide79.JPG","This is a bim:","",""
"","html-keyboard-response","244","532912","0.0-6.0-0.79","LF","g8yr0b9yda","1366","768","en","er07im06","null","","","","learningBlock1","","","","This is a tob:","null","","","","",""
"","image-keyboard-response","245","533240","0.0-6.0-1.79","LF","g8yr0b9yda","1366","768","en","er07im06","null","","","","","","","","learning/Slide80.JPG","null","","","","",""
"","html-keyboard-response","246","534242","0.0-6.0-2.79","LF","g8yr0b9yda","1366","768","en","er07im06","null","","","","learningBlock1","","","","<div style=""font-size:60px;""> </div>","null","LF","learning/Slide80.JPG","This is a tob:","",""
"","instructions","247","550596","0.0-7.0","LF","g8yr0b9yda","1366","768","en","er07im06","NA","","","[{""page_index"":0,""viewing_time"":16352.010000031441}]","instructions","","","","","","","","","",""
"","html-keyboard-response","248","551599","0.0-8.0-0.0","LF","g8yr0b9yda","1366","768","en","er07im06","null","","","","learningBlock2","","","","This is a wug:","null","","","","",""
"","image-keyboard-response","249","551927","0.0-8.0-1.0","LF","g8yr0b9yda","1366","768","en","er07im06","null","","","","","","","","learning/Slide81.JPG","null","","","","",""
"","html-keyboard-response","250","552929","0.0-8.0-2.0","LF","g8yr0b9yda","1366","768","en","er07im06","null","","","","learningBlock2","","","","<div style=""font-size:60px;""> </div>","null","LF","learning/Slide81.JPG","This is a wug:","",""
"","html-keyboard-response","251","553936","0.0-8.0-0.1","LF","g8yr0b9yda","1366","768","en","er07im06","null","","","","learningBlock2","","","","This is a bim:","null","","","","",""
"","image-keyboard-response","252","554264","0.0-8.0-1.1","LF","g8yr0b9yda","1366","768","en","er07im06","null","","","","","","","","learning/Slide82.JPG","null","","","","",""
"","html-keyboard-response","253","555265","0.0-8.0-2.1","LF","g8yr0b9yda","1366","768","en","er07im06","null","","","","learningBlock2","","","","<div style=""font-size:60px;""> </div>","null","LF","learning/Slide82.JPG","This is a bim:","",""
"","html-keyboard-response","254","556268","0.0-8.0-0.2","LF","g8yr0b9yda","1366","768","en","er07im06","null","","","","learningBlock2","","","","This is a wug:","null","","","","",""
"","image-keyboard-response","255","556595","0.0-8.0-1.2","LF","g8yr0b9yda","1366","768","en","er07im06","null","","","","","","","","learning/Slide83.JPG","null","","","","",""
"","html-keyboard-response","256","557598","0.0-8.0-2.2","LF","g8yr0b9yda","1366","768","en","er07im06","null","","","","learningBlock2","","","","<div style=""font-size:60px;""> </div>","null","LF","learning/Slide83.JPG","This is a wug:","",""
"","html-keyboard-response","257","558601","0.0-8.0-0.3","LF","g8yr0b9yda","1366","768","en","er07im06","null","","","","learningBlock2","","","","This is a dep:","null","","","","",""
"","image-keyboard-response","258","558928","0.0-8.0-1.3","LF","g8yr0b9yda","1366","768","en","er07im06","null","","","","","","","","learning/Slide84.JPG","null","","","","",""
"","html-keyboard-response","259","559931","0.0-8.0-2.3","LF","g8yr0b9yda","1366","768","en","er07im06","null","","","","learningBlock2","","","","<div style=""font-size:60px;""> </div>","null","LF","learning/Slide84.JPG","This is a dep:","",""
"","html-keyboard-response","260","560933","0.0-8.0-0.4","LF","g8yr0b9yda","1366","768","en","er07im06","null","","","","learningBlock2","","","","This is a bim:","null","","","","",""
"","image-keyboard-response","261","561261","0.0-8.0-1.4","LF","g8yr0b9yda","1366","768","en","er07im06","null","","","","","","","","learning/Slide85.JPG","null","","","","",""
"","html-keyboard-response","262","562263","0.0-8.0-2.4","LF","g8yr0b9yda","1366","768","en","er07im06","null","","","","learningBlock2","","","","<div style=""font-size:60px;""> </div>","null","LF","learning/Slide85.JPG","This is a bim:","",""
"","html-keyboard-response","263","563265","0.0-8.0-0.5","LF","g8yr0b9yda","1366","768","en","er07im06","null","","","","learningBlock2","","","","This is a tob:","null","","","","",""
"","image-keyboard-response","264","563594","0.0-8.0-1.5","LF","g8yr0b9yda","1366","768","en","er07im06","null","","","","","","","","learning/Slide86.JPG","null","","","","",""
"","html-keyboard-response","265","564607","0.0-8.0-2.5","LF","g8yr0b9yda","1366","768","en","er07im06","null","","","","learningBlock2","","","","<div style=""font-size:60px;""> </div>","null","LF","learning/Slide86.JPG","This is a tob:","",""
"","html-keyboard-response","266","565609","0.0-8.0-0.6","LF","g8yr0b9yda","1366","768","en","er07im06","null","","","","learningBlock2","","","","This is a wug:","null","","","","",""
"","image-keyboard-response","267","565937","0.0-8.0-1.6","LF","g8yr0b9yda","1366","768","en","er07im06","null","","","","","","","","learning/Slide87.JPG","null","","","","",""
"","html-keyboard-response","268","566939","0.0-8.0-2.6","LF","g8yr0b9yda","1366","768","en","er07im06","null","","","","learningBlock2","","","","<div style=""font-size:60px;""> </div>","null","LF","learning/Slide87.JPG","This is a wug:","",""
"","html-keyboard-response","269","567941","0.0-8.0-0.7","LF","g8yr0b9yda","1366","768","en","er07im06","null","","","","learningBlock2","","","","This is a tob:","null","","","","",""
"","image-keyboard-response","270","568269","0.0-8.0-1.7","LF","g8yr0b9yda","1366","768","en","er07im06","null","","","","","","","","learning/Slide88.JPG","null","","","","",""
"","html-keyboard-response","271","569270","0.0-8.0-2.7","LF","g8yr0b9yda","1366","768","en","er07im06","null","","","","learningBlock2","","","","<div style=""font-size:60px;""> </div>","null","LF","learning/Slide88.JPG","This is a tob:","",""
"","html-keyboard-response","272","570273","0.0-8.0-0.8","LF","g8yr0b9yda","1366","768","en","er07im06","null","","","","learningBlock2","","","","This is a bim:","null","","","","",""
"","image-keyboard-response","273","570601","0.0-8.0-1.8","LF","g8yr0b9yda","1366","768","en","er07im06","null","","","","","","","","learning/Slide89.JPG","null","","","","",""
"","html-keyboard-response","274","571604","0.0-8.0-2.8","LF","g8yr0b9yda","1366","768","en","er07im06","null","","","","learningBlock2","","","","<div style=""font-size:60px;""> </div>","null","LF","learning/Slide89.JPG","This is a bim:","",""
"","html-keyboard-response","275","572606","0.0-8.0-0.9","LF","g8yr0b9yda","1366","768","en","er07im06","null","","","","learningBlock2","","","","This is a dep:","null","","","","",""
"","image-keyboard-response","276","572933","0.0-8.0-1.9","LF","g8yr0b9yda","1366","768","en","er07im06","null","","","","","","","","learning/Slide90.JPG","null","","","","",""
"","html-keyboard-response","277","573937","0.0-8.0-2.9","LF","g8yr0b9yda","1366","768","en","er07im06","null","","","","learningBlock2","","","","<div style=""font-size:60px;""> </div>","null","LF","learning/Slide90.JPG","This is a dep:","",""
"","html-keyboard-response","278","574940","0.0-8.0-0.10","LF","g8yr0b9yda","1366","768","en","er07im06","null","","","","learningBlock2","","","","This is a wug:","null","","","","",""
"","image-keyboard-response","279","575268","0.0-8.0-1.10","LF","g8yr0b9yda","1366","768","en","er07im06","null","","","","","","","","learning/Slide91.JPG","null","","","","",""
"","html-keyboard-response","280","576270","0.0-8.0-2.10","LF","g8yr0b9yda","1366","768","en","er07im06","null","","","","learningBlock2","","","","<div style=""font-size:60px;""> </div>","null","LF","learning/Slide91.JPG","This is a wug:","",""
"","html-keyboard-response","281","577272","0.0-8.0-0.11","LF","g8yr0b9yda","1366","768","en","er07im06","null","","","","learningBlock2","","","","This is a tob:","null","","","","",""
"","image-keyboard-response","282","577600","0.0-8.0-1.11","LF","g8yr0b9yda","1366","768","en","er07im06","null","","","","","","","","learning/Slide92.JPG","null","","","","",""
"","html-keyboard-response","283","578602","0.0-8.0-2.11","LF","g8yr0b9yda","1366","768","en","er07im06","null","","","","learningBlock2","","","","<div style=""font-size:60px;""> </div>","null","LF","learning/Slide92.JPG","This is a tob:","",""
"","html-keyboard-response","284","579604","0.0-8.0-0.12","LF","g8yr0b9yda","1366","768","en","er07im06","null","","","","learningBlock2","","","","This is a bim:","null","","","","",""
"","image-keyboard-response","285","579932","0.0-8.0-1.12","LF","g8yr0b9yda","1366","768","en","er07im06","null","","","","","","","","learning/Slide93.JPG","null","","","","",""
"","html-keyboard-response","286","580935","0.0-8.0-2.12","LF","g8yr0b9yda","1366","768","en","er07im06","null","","","","learningBlock2","","","","<div style=""font-size:60px;""> </div>","null","LF","learning/Slide93.JPG","This is a bim:","",""
"","html-keyboard-response","287","581937","0.0-8.0-0.13","LF","g8yr0b9yda","1366","768","en","er07im06","null","","","","learningBlock2","","","","This is a tob:","null","","","","",""
"","image-keyboard-response","288","582264","0.0-8.0-1.13","LF","g8yr0b9yda","1366","768","en","er07im06","null","","","","","","","","learning/Slide94.JPG","null","","","","",""
"","html-keyboard-response","289","583266","0.0-8.0-2.13","LF","g8yr0b9yda","1366","768","en","er07im06","null","","","","learningBlock2","","","","<div style=""font-size:60px;""> </div>","null","LF","learning/Slide94.JPG","This is a tob:","",""
"","html-keyboard-response","290","584269","0.0-8.0-0.14","LF","g8yr0b9yda","1366","768","en","er07im06","null","","","","learningBlock2","","","","This is a wug:","null","","","","",""
"","image-keyboard-response","291","584596","0.0-8.0-1.14","LF","g8yr0b9yda","1366","768","en","er07im06","null","","","","","","","","learning/Slide95.JPG","null","","","","",""
"","html-keyboard-response","292","585598","0.0-8.0-2.14","LF","g8yr0b9yda","1366","768","en","er07im06","null","","","","learningBlock2","","","","<div style=""font-size:60px;""> </div>","null","LF","learning/Slide95.JPG","This is a wug:","",""
"","html-keyboard-response","293","586609","0.0-8.0-0.15","LF","g8yr0b9yda","1366","768","en","er07im06","null","","","","learningBlock2","","","","This is a tob:","null","","","","",""
"","image-keyboard-response","294","586937","0.0-8.0-1.15","LF","g8yr0b9yda","1366","768","en","er07im06","null","","","","","","","","learning/Slide96.JPG","null","","","","",""
"","html-keyboard-response","295","587939","0.0-8.0-2.15","LF","g8yr0b9yda","1366","768","en","er07im06","null","","","","learningBlock2","","","","<div style=""font-size:60px;""> </div>","null","LF","learning/Slide96.JPG","This is a tob:","",""
"","html-keyboard-response","296","588941","0.0-8.0-0.16","LF","g8yr0b9yda","1366","768","en","er07im06","null","","","","learningBlock2","","","","This is a dep:","null","","","","",""
"","image-keyboard-response","297","589267","0.0-8.0-1.16","LF","g8yr0b9yda","1366","768","en","er07im06","null","","","","","","","","learning/Slide97.JPG","null","","","","",""
"","html-keyboard-response","298","590270","0.0-8.0-2.16","LF","g8yr0b9yda","1366","768","en","er07im06","null","","","","learningBlock2","","","","<div style=""font-size:60px;""> </div>","null","LF","learning/Slide97.JPG","This is a dep:","",""
"","html-keyboard-response","299","591285","0.0-8.0-0.17","LF","g8yr0b9yda","1366","768","en","er07im06","null","","","","learningBlock2","","","","This is a bim:","null","","","","",""
"","image-keyboard-response","300","591613","0.0-8.0-1.17","LF","g8yr0b9yda","1366","768","en","er07im06","null","","","","","","","","learning/Slide98.JPG","null","","","","",""
"","html-keyboard-response","301","592616","0.0-8.0-2.17","LF","g8yr0b9yda","1366","768","en","er07im06","null","","","","learningBlock2","","","","<div style=""font-size:60px;""> </div>","null","LF","learning/Slide98.JPG","This is a bim:","",""
"","html-keyboard-response","302","593618","0.0-8.0-0.18","LF","g8yr0b9yda","1366","768","en","er07im06","null","","","","learningBlock2","","","","This is a dep:","null","","","","",""
"","image-keyboard-response","303","593946","0.0-8.0-1.18","LF","g8yr0b9yda","1366","768","en","er07im06","null","","","","","","","","learning/Slide99.JPG","null","","","","",""
"","html-keyboard-response","304","594948","0.0-8.0-2.18","LF","g8yr0b9yda","1366","768","en","er07im06","null","","","","learningBlock2","","","","<div style=""font-size:60px;""> </div>","null","LF","learning/Slide99.JPG","This is a dep:","",""
"","html-keyboard-response","305","595950","0.0-8.0-0.19","LF","g8yr0b9yda","1366","768","en","er07im06","null","","","","learningBlock2","","","","This is a bim:","null","","","","",""
"","image-keyboard-response","306","596278","0.0-8.0-1.19","LF","g8yr0b9yda","1366","768","en","er07im06","null","","","","","","","","learning/Slide100.JPG","null","","","","",""
"","html-keyboard-response","307","597280","0.0-8.0-2.19","LF","g8yr0b9yda","1366","768","en","er07im06","null","","","","learningBlock2","","","","<div style=""font-size:60px;""> </div>","null","LF","learning/Slide100.JPG","This is a bim:","",""
"","html-keyboard-response","308","598283","0.0-8.0-0.20","LF","g8yr0b9yda","1366","768","en","er07im06","null","","","","learningBlock2","","","","This is a tob:","null","","","","",""
"","image-keyboard-response","309","598610","0.0-8.0-1.20","LF","g8yr0b9yda","1366","768","en","er07im06","null","","","","","","","","learning/Slide101.JPG","null","","","","",""
"","html-keyboard-response","310","599612","0.0-8.0-2.20","LF","g8yr0b9yda","1366","768","en","er07im06","null","","","","learningBlock2","","","","<div style=""font-size:60px;""> </div>","null","LF","learning/Slide101.JPG","This is a tob:","",""
"","html-keyboard-response","311","600615","0.0-8.0-0.21","LF","g8yr0b9yda","1366","768","en","er07im06","null","","","","learningBlock2","","","","This is a bim:","null","","","","",""
"","image-keyboard-response","312","600943","0.0-8.0-1.21","LF","g8yr0b9yda","1366","768","en","er07im06","null","","","","","","","","learning/Slide102.JPG","null","","","","",""
"","html-keyboard-response","313","601945","0.0-8.0-2.21","LF","g8yr0b9yda","1366","768","en","er07im06","null","","","","learningBlock2","","","","<div style=""font-size:60px;""> </div>","null","LF","learning/Slide102.JPG","This is a bim:","",""
"","html-keyboard-response","314","602947","0.0-8.0-0.22","LF","g8yr0b9yda","1366","768","en","er07im06","null","","","","learningBlock2","","","","This is a dep:","null","","","","",""
"","image-keyboard-response","315","603274","0.0-8.0-1.22","LF","g8yr0b9yda","1366","768","en","er07im06","null","","","","","","","","learning/Slide103.JPG","null","","","","",""
"","html-keyboard-response","316","604276","0.0-8.0-2.22","LF","g8yr0b9yda","1366","768","en","er07im06","null","","","","learningBlock2","","","","<div style=""font-size:60px;""> </div>","null","LF","learning/Slide103.JPG","This is a dep:","",""
"","html-keyboard-response","317","605278","0.0-8.0-0.23","LF","g8yr0b9yda","1366","768","en","er07im06","null","","","","learningBlock2","","","","This is a tob:","null","","","","",""
"","image-keyboard-response","318","605606","0.0-8.0-1.23","LF","g8yr0b9yda","1366","768","en","er07im06","null","","","","","","","","learning/Slide104.JPG","null","","","","",""
"","html-keyboard-response","319","606608","0.0-8.0-2.23","LF","g8yr0b9yda","1366","768","en","er07im06","null","","","","learningBlock2","","","","<div style=""font-size:60px;""> </div>","null","LF","learning/Slide104.JPG","This is a tob:","",""
"","html-keyboard-response","320","607610","0.0-8.0-0.24","LF","g8yr0b9yda","1366","768","en","er07im06","null","","","","learningBlock2","","","","This is a dep:","null","","","","",""
"","image-keyboard-response","321","607937","0.0-8.0-1.24","LF","g8yr0b9yda","1366","768","en","er07im06","null","","","","","","","","learning/Slide105.JPG","null","","","","",""
"","html-keyboard-response","322","608940","0.0-8.0-2.24","LF","g8yr0b9yda","1366","768","en","er07im06","null","","","","learningBlock2","","","","<div style=""font-size:60px;""> </div>","null","LF","learning/Slide105.JPG","This is a dep:","",""
"","html-keyboard-response","323","609942","0.0-8.0-0.25","LF","g8yr0b9yda","1366","768","en","er07im06","null","","","","learningBlock2","","","","This is a wug:","null","","","","",""
"","image-keyboard-response","324","610270","0.0-8.0-1.25","LF","g8yr0b9yda","1366","768","en","er07im06","null","","","","","","","","learning/Slide106.JPG","null","","","","",""
"","html-keyboard-response","325","611272","0.0-8.0-2.25","LF","g8yr0b9yda","1366","768","en","er07im06","null","","","","learningBlock2","","","","<div style=""font-size:60px;""> </div>","null","LF","learning/Slide106.JPG","This is a wug:","",""
"","html-keyboard-response","326","612274","0.0-8.0-0.26","LF","g8yr0b9yda","1366","768","en","er07im06","null","","","","learningBlock2","","","","This is a bim:","null","","","","",""
"","image-keyboard-response","327","612602","0.0-8.0-1.26","LF","g8yr0b9yda","1366","768","en","er07im06","null","","","","","","","","learning/Slide107.JPG","null","","","","",""
"","html-keyboard-response","328","613603","0.0-8.0-2.26","LF","g8yr0b9yda","1366","768","en","er07im06","null","","","","learningBlock2","","","","<div style=""font-size:60px;""> </div>","null","LF","learning/Slide107.JPG","This is a bim:","",""
"","html-keyboard-response","329","614607","0.0-8.0-0.27","LF","g8yr0b9yda","1366","768","en","er07im06","null","","","","learningBlock2","","","","This is a dep:","null","","","","",""
"","image-keyboard-response","330","614935","0.0-8.0-1.27","LF","g8yr0b9yda","1366","768","en","er07im06","null","","","","","","","","learning/Slide108.JPG","null","","","","",""
"","html-keyboard-response","331","615937","0.0-8.0-2.27","LF","g8yr0b9yda","1366","768","en","er07im06","null","","","","learningBlock2","","","","<div style=""font-size:60px;""> </div>","null","LF","learning/Slide108.JPG","This is a dep:","",""
"","html-keyboard-response","332","616951","0.0-8.0-0.28","LF","g8yr0b9yda","1366","768","en","er07im06","null","","","","learningBlock2","","","","This is a wug:","null","","","","",""
"","image-keyboard-response","333","617279","0.0-8.0-1.28","LF","g8yr0b9yda","1366","768","en","er07im06","null","","","","","","","","learning/Slide109.JPG","null","","","","",""
"","html-keyboard-response","334","618281","0.0-8.0-2.28","LF","g8yr0b9yda","1366","768","en","er07im06","null","","","","learningBlock2","","","","<div style=""font-size:60px;""> </div>","null","LF","learning/Slide109.JPG","This is a wug:","",""
"","html-keyboard-response","335","619283","0.0-8.0-0.29","LF","g8yr0b9yda","1366","768","en","er07im06","null","","","","learningBlock2","","","","This is a bim:","null","","","","",""
"","image-keyboard-response","336","619612","0.0-8.0-1.29","LF","g8yr0b9yda","1366","768","en","er07im06","null","","","","","","","","learning/Slide110.JPG","null","","","","",""
"","html-keyboard-response","337","620614","0.0-8.0-2.29","LF","g8yr0b9yda","1366","768","en","er07im06","null","","","","learningBlock2","","","","<div style=""font-size:60px;""> </div>","null","LF","learning/Slide110.JPG","This is a bim:","",""
"","html-keyboard-response","338","621616","0.0-8.0-0.30","LF","g8yr0b9yda","1366","768","en","er07im06","null","","","","learningBlock2","","","","This is a tob:","null","","","","",""
"","image-keyboard-response","339","621944","0.0-8.0-1.30","LF","g8yr0b9yda","1366","768","en","er07im06","null","","","","","","","","learning/Slide111.JPG","null","","","","",""
"","html-keyboard-response","340","622946","0.0-8.0-2.30","LF","g8yr0b9yda","1366","768","en","er07im06","null","","","","learningBlock2","","","","<div style=""font-size:60px;""> </div>","null","LF","learning/Slide111.JPG","This is a tob:","",""
"","html-keyboard-response","341","623949","0.0-8.0-0.31","LF","g8yr0b9yda","1366","768","en","er07im06","null","","","","learningBlock2","","","","This is a wug:","null","","","","",""
"","image-keyboard-response","342","624276","0.0-8.0-1.31","LF","g8yr0b9yda","1366","768","en","er07im06","null","","","","","","","","learning/Slide112.JPG","null","","","","",""
"","html-keyboard-response","343","625279","0.0-8.0-2.31","LF","g8yr0b9yda","1366","768","en","er07im06","null","","","","learningBlock2","","","","<div style=""font-size:60px;""> </div>","null","LF","learning/Slide112.JPG","This is a wug:","",""
"","html-keyboard-response","344","626281","0.0-8.0-0.32","LF","g8yr0b9yda","1366","768","en","er07im06","null","","","","learningBlock2","","","","This is a tob:","null","","","","",""
"","image-keyboard-response","345","626609","0.0-8.0-1.32","LF","g8yr0b9yda","1366","768","en","er07im06","null","","","","","","","","learning/Slide113.JPG","null","","","","",""
"","html-keyboard-response","346","627625","0.0-8.0-2.32","LF","g8yr0b9yda","1366","768","en","er07im06","null","","","","learningBlock2","","","","<div style=""font-size:60px;""> </div>","null","LF","learning/Slide113.JPG","This is a tob:","",""
"","html-keyboard-response","347","628628","0.0-8.0-0.33","LF","g8yr0b9yda","1366","768","en","er07im06","null","","","","learningBlock2","","","","This is a wug:","null","","","","",""
"","image-keyboard-response","348","628957","0.0-8.0-1.33","LF","g8yr0b9yda","1366","768","en","er07im06","null","","","","","","","","learning/Slide114.JPG","null","","","","",""
"","html-keyboard-response","349","629959","0.0-8.0-2.33","LF","g8yr0b9yda","1366","768","en","er07im06","null","","","","learningBlock2","","","","<div style=""font-size:60px;""> </div>","null","LF","learning/Slide114.JPG","This is a wug:","",""
"","html-keyboard-response","350","630961","0.0-8.0-0.34","LF","g8yr0b9yda","1366","768","en","er07im06","null","","","","learningBlock2","","","","This is a bim:","null","","","","",""
"","image-keyboard-response","351","631289","0.0-8.0-1.34","LF","g8yr0b9yda","1366","768","en","er07im06","null","","","","","","","","learning/Slide115.JPG","null","","","","",""
"","html-keyboard-response","352","632290","0.0-8.0-2.34","LF","g8yr0b9yda","1366","768","en","er07im06","null","","","","learningBlock2","","","","<div style=""font-size:60px;""> </div>","null","LF","learning/Slide115.JPG","This is a bim:","",""
"","html-keyboard-response","353","633293","0.0-8.0-0.35","LF","g8yr0b9yda","1366","768","en","er07im06","null","","","","learningBlock2","","","","This is a dep:","null","","","","",""
"","image-keyboard-response","354","633621","0.0-8.0-1.35","LF","g8yr0b9yda","1366","768","en","er07im06","null","","","","","","","","learning/Slide116.JPG","null","","","","",""
"","html-keyboard-response","355","634623","0.0-8.0-2.35","LF","g8yr0b9yda","1366","768","en","er07im06","null","","","","learningBlock2","","","","<div style=""font-size:60px;""> </div>","null","LF","learning/Slide116.JPG","This is a dep:","",""
"","html-keyboard-response","356","635625","0.0-8.0-0.36","LF","g8yr0b9yda","1366","768","en","er07im06","null","","","","learningBlock2","","","","This is a tob:","null","","","","",""
"","image-keyboard-response","357","635954","0.0-8.0-1.36","LF","g8yr0b9yda","1366","768","en","er07im06","null","","","","","","","","learning/Slide117.JPG","null","","","","",""
"","html-keyboard-response","358","636965","0.0-8.0-2.36","LF","g8yr0b9yda","1366","768","en","er07im06","null","","","","learningBlock2","","","","<div style=""font-size:60px;""> </div>","null","LF","learning/Slide117.JPG","This is a tob:","",""
"","html-keyboard-response","359","637980","0.0-8.0-0.37","LF","g8yr0b9yda","1366","768","en","er07im06","null","","","","learningBlock2","","","","This is a dep:","null","","","","",""
"","image-keyboard-response","360","638308","0.0-8.0-1.37","LF","g8yr0b9yda","1366","768","en","er07im06","null","","","","","","","","learning/Slide118.JPG","null","","","","",""
"","html-keyboard-response","361","639311","0.0-8.0-2.37","LF","g8yr0b9yda","1366","768","en","er07im06","null","","","","learningBlock2","","","","<div style=""font-size:60px;""> </div>","null","LF","learning/Slide118.JPG","This is a dep:","",""
"","html-keyboard-response","362","640313","0.0-8.0-0.38","LF","g8yr0b9yda","1366","768","en","er07im06","null","","","","learningBlock2","","","","This is a wug:","null","","","","",""
"","image-keyboard-response","363","640641","0.0-8.0-1.38","LF","g8yr0b9yda","1366","768","en","er07im06","null","","","","","","","","learning/Slide119.JPG","null","","","","",""
"","html-keyboard-response","364","641643","0.0-8.0-2.38","LF","g8yr0b9yda","1366","768","en","er07im06","null","","","","learningBlock2","","","","<div style=""font-size:60px;""> </div>","null","LF","learning/Slide119.JPG","This is a wug:","",""
"","html-keyboard-response","365","642645","0.0-8.0-0.39","LF","g8yr0b9yda","1366","768","en","er07im06","null","","","","learningBlock2","","","","This is a dep:","null","","","","",""
"","image-keyboard-response","366","642973","0.0-8.0-1.39","LF","g8yr0b9yda","1366","768","en","er07im06","null","","","","","","","","learning/Slide120.JPG","null","","","","",""
"","html-keyboard-response","367","643976","0.0-8.0-2.39","LF","g8yr0b9yda","1366","768","en","er07im06","null","","","","learningBlock2","","","","<div style=""font-size:60px;""> </div>","null","LF","learning/Slide120.JPG","This is a dep:","",""
"","html-keyboard-response","368","644977","0.0-8.0-0.40","LF","g8yr0b9yda","1366","768","en","er07im06","null","","","","learningBlock2","","","","This is a bim:","null","","","","",""
"","image-keyboard-response","369","645305","0.0-8.0-1.40","LF","g8yr0b9yda","1366","768","en","er07im06","null","","","","","","","","learning/Slide121.JPG","null","","","","",""
"","html-keyboard-response","370","646307","0.0-8.0-2.40","LF","g8yr0b9yda","1366","768","en","er07im06","null","","","","learningBlock2","","","","<div style=""font-size:60px;""> </div>","null","LF","learning/Slide121.JPG","This is a bim:","",""
"","html-keyboard-response","371","647311","0.0-8.0-0.41","LF","g8yr0b9yda","1366","768","en","er07im06","null","","","","learningBlock2","","","","This is a wug:","null","","","","",""
"","image-keyboard-response","372","647639","0.0-8.0-1.41","LF","g8yr0b9yda","1366","768","en","er07im06","null","","","","","","","","learning/Slide122.JPG","null","","","","",""
"","html-keyboard-response","373","648647","0.0-8.0-2.41","LF","g8yr0b9yda","1366","768","en","er07im06","null","","","","learningBlock2","","","","<div style=""font-size:60px;""> </div>","null","LF","learning/Slide122.JPG","This is a wug:","",""
"","html-keyboard-response","374","649659","0.0-8.0-0.42","LF","g8yr0b9yda","1366","768","en","er07im06","null","","","","learningBlock2","","","","This is a bim:","null","","","","",""
"","image-keyboard-response","375","649987","0.0-8.0-1.42","LF","g8yr0b9yda","1366","768","en","er07im06","null","","","","","","","","learning/Slide123.JPG","null","","","","",""
"","html-keyboard-response","376","650990","0.0-8.0-2.42","LF","g8yr0b9yda","1366","768","en","er07im06","null","","","","learningBlock2","","","","<div style=""font-size:60px;""> </div>","null","LF","learning/Slide123.JPG","This is a bim:","",""
"","html-keyboard-response","377","651992","0.0-8.0-0.43","LF","g8yr0b9yda","1366","768","en","er07im06","null","","","","learningBlock2","","","","This is a tob:","null","","","","",""
"","image-keyboard-response","378","652319","0.0-8.0-1.43","LF","g8yr0b9yda","1366","768","en","er07im06","null","","","","","","","","learning/Slide124.JPG","null","","","","",""
"","html-keyboard-response","379","653321","0.0-8.0-2.43","LF","g8yr0b9yda","1366","768","en","er07im06","null","","","","learningBlock2","","","","<div style=""font-size:60px;""> </div>","null","LF","learning/Slide124.JPG","This is a tob:","",""
"","html-keyboard-response","380","654323","0.0-8.0-0.44","LF","g8yr0b9yda","1366","768","en","er07im06","null","","","","learningBlock2","","","","This is a bim:","null","","","","",""
"","image-keyboard-response","381","654650","0.0-8.0-1.44","LF","g8yr0b9yda","1366","768","en","er07im06","null","","","","","","","","learning/Slide125.JPG","null","","","","",""
"","html-keyboard-response","382","655653","0.0-8.0-2.44","LF","g8yr0b9yda","1366","768","en","er07im06","null","","","","learningBlock2","","","","<div style=""font-size:60px;""> </div>","null","LF","learning/Slide125.JPG","This is a bim:","",""
"","html-keyboard-response","383","656655","0.0-8.0-0.45","LF","g8yr0b9yda","1366","768","en","er07im06","null","","","","learningBlock2","","","","This is a tob:","null","","","","",""
"","image-keyboard-response","384","656983","0.0-8.0-1.45","LF","g8yr0b9yda","1366","768","en","er07im06","null","","","","","","","","learning/Slide126.JPG","null","","","","",""
"","html-keyboard-response","385","657985","0.0-8.0-2.45","LF","g8yr0b9yda","1366","768","en","er07im06","null","","","","learningBlock2","","","","<div style=""font-size:60px;""> </div>","null","LF","learning/Slide126.JPG","This is a tob:","",""
"","html-keyboard-response","386","658994","0.0-8.0-0.46","LF","g8yr0b9yda","1366","768","en","er07im06","null","","","","learningBlock2","","","","This is a dep:","null","","","","",""
"","image-keyboard-response","387","659321","0.0-8.0-1.46","LF","g8yr0b9yda","1366","768","en","er07im06","null","","","","","","","","learning/Slide127.JPG","null","","","","",""
"","html-keyboard-response","388","660324","0.0-8.0-2.46","LF","g8yr0b9yda","1366","768","en","er07im06","null","","","","learningBlock2","","","","<div style=""font-size:60px;""> </div>","null","LF","learning/Slide127.JPG","This is a dep:","",""
"","html-keyboard-response","389","661326","0.0-8.0-0.47","LF","g8yr0b9yda","1366","768","en","er07im06","null","","","","learningBlock2","","","","This is a wug:","null","","","","",""
"","image-keyboard-response","390","661654","0.0-8.0-1.47","LF","g8yr0b9yda","1366","768","en","er07im06","null","","","","","","","","learning/Slide128.JPG","null","","","","",""
"","html-keyboard-response","391","662657","0.0-8.0-2.47","LF","g8yr0b9yda","1366","768","en","er07im06","null","","","","learningBlock2","","","","<div style=""font-size:60px;""> </div>","null","LF","learning/Slide128.JPG","This is a wug:","",""
"","html-keyboard-response","392","663659","0.0-8.0-0.48","LF","g8yr0b9yda","1366","768","en","er07im06","null","","","","learningBlock2","","","","This is a tob:","null","","","","",""
"","image-keyboard-response","393","663986","0.0-8.0-1.48","LF","g8yr0b9yda","1366","768","en","er07im06","null","","","","","","","","learning/Slide129.JPG","null","","","","",""
"","html-keyboard-response","394","664990","0.0-8.0-2.48","LF","g8yr0b9yda","1366","768","en","er07im06","null","","","","learningBlock2","","","","<div style=""font-size:60px;""> </div>","null","LF","learning/Slide129.JPG","This is a tob:","",""
"","html-keyboard-response","395","665992","0.0-8.0-0.49","LF","g8yr0b9yda","1366","768","en","er07im06","null","","","","learningBlock2","","","","This is a wug:","null","","","","",""
"","image-keyboard-response","396","666321","0.0-8.0-1.49","LF","g8yr0b9yda","1366","768","en","er07im06","null","","","","","","","","learning/Slide130.JPG","null","","","","",""
"","html-keyboard-response","397","667323","0.0-8.0-2.49","LF","g8yr0b9yda","1366","768","en","er07im06","null","","","","learningBlock2","","","","<div style=""font-size:60px;""> </div>","null","LF","learning/Slide130.JPG","This is a wug:","",""
"","html-keyboard-response","398","668325","0.0-8.0-0.50","LF","g8yr0b9yda","1366","768","en","er07im06","null","","","","learningBlock2","","","","This is a bim:","null","","","","",""
"","image-keyboard-response","399","668652","0.0-8.0-1.50","LF","g8yr0b9yda","1366","768","en","er07im06","null","","","","","","","","learning/Slide131.JPG","null","","","","",""
"","html-keyboard-response","400","669654","0.0-8.0-2.50","LF","g8yr0b9yda","1366","768","en","er07im06","null","","","","learningBlock2","","","","<div style=""font-size:60px;""> </div>","null","LF","learning/Slide131.JPG","This is a bim:","",""
"","html-keyboard-response","401","670656","0.0-8.0-0.51","LF","g8yr0b9yda","1366","768","en","er07im06","null","","","","learningBlock2","","","","This is a dep:","null","","","","",""
"","image-keyboard-response","402","670983","0.0-8.0-1.51","LF","g8yr0b9yda","1366","768","en","er07im06","null","","","","","","","","learning/Slide132.JPG","null","","","","",""
"","html-keyboard-response","403","671989","0.0-8.0-2.51","LF","g8yr0b9yda","1366","768","en","er07im06","null","","","","learningBlock2","","","","<div style=""font-size:60px;""> </div>","null","LF","learning/Slide132.JPG","This is a dep:","",""
"","html-keyboard-response","404","672993","0.0-8.0-0.52","LF","g8yr0b9yda","1366","768","en","er07im06","null","","","","learningBlock2","","","","This is a tob:","null","","","","",""
"","image-keyboard-response","405","673321","0.0-8.0-1.52","LF","g8yr0b9yda","1366","768","en","er07im06","null","","","","","","","","learning/Slide133.JPG","null","","","","",""
"","html-keyboard-response","406","674323","0.0-8.0-2.52","LF","g8yr0b9yda","1366","768","en","er07im06","null","","","","learningBlock2","","","","<div style=""font-size:60px;""> </div>","null","LF","learning/Slide133.JPG","This is a tob:","",""
"","html-keyboard-response","407","675325","0.0-8.0-0.53","LF","g8yr0b9yda","1366","768","en","er07im06","null","","","","learningBlock2","","","","This is a dep:","null","","","","",""
"","image-keyboard-response","408","675652","0.0-8.0-1.53","LF","g8yr0b9yda","1366","768","en","er07im06","null","","","","","","","","learning/Slide134.JPG","null","","","","",""
"","html-keyboard-response","409","676655","0.0-8.0-2.53","LF","g8yr0b9yda","1366","768","en","er07im06","null","","","","learningBlock2","","","","<div style=""font-size:60px;""> </div>","null","LF","learning/Slide134.JPG","This is a dep:","",""
"","html-keyboard-response","410","677656","0.0-8.0-0.54","LF","g8yr0b9yda","1366","768","en","er07im06","null","","","","learningBlock2","","","","This is a tob:","null","","","","",""
"","image-keyboard-response","411","677985","0.0-8.0-1.54","LF","g8yr0b9yda","1366","768","en","er07im06","null","","","","","","","","learning/Slide135.JPG","null","","","","",""
"","html-keyboard-response","412","678986","0.0-8.0-2.54","LF","g8yr0b9yda","1366","768","en","er07im06","null","","","","learningBlock2","","","","<div style=""font-size:60px;""> </div>","null","LF","learning/Slide135.JPG","This is a tob:","",""
"","html-keyboard-response","413","679989","0.0-8.0-0.55","LF","g8yr0b9yda","1366","768","en","er07im06","null","","","","learningBlock2","","","","This is a wug:","null","","","","",""
"","image-keyboard-response","414","680316","0.0-8.0-1.55","LF","g8yr0b9yda","1366","768","en","er07im06","null","","","","","","","","learning/Slide136.JPG","null","","","","",""
"","html-keyboard-response","415","681319","0.0-8.0-2.55","LF","g8yr0b9yda","1366","768","en","er07im06","null","","","","learningBlock2","","","","<div style=""font-size:60px;""> </div>","null","LF","learning/Slide136.JPG","This is a wug:","",""
"","html-keyboard-response","416","682321","0.0-8.0-0.56","LF","g8yr0b9yda","1366","768","en","er07im06","null","","","","learningBlock2","","","","This is a tob:","null","","","","",""
"","image-keyboard-response","417","682648","0.0-8.0-1.56","LF","g8yr0b9yda","1366","768","en","er07im06","null","","","","","","","","learning/Slide137.JPG","null","","","","",""
"","html-keyboard-response","418","683650","0.0-8.0-2.56","LF","g8yr0b9yda","1366","768","en","er07im06","null","","","","learningBlock2","","","","<div style=""font-size:60px;""> </div>","null","LF","learning/Slide137.JPG","This is a tob:","",""
"","html-keyboard-response","419","684652","0.0-8.0-0.57","LF","g8yr0b9yda","1366","768","en","er07im06","null","","","","learningBlock2","","","","This is a bim:","null","","","","",""
"","image-keyboard-response","420","684980","0.0-8.0-1.57","LF","g8yr0b9yda","1366","768","en","er07im06","null","","","","","","","","learning/Slide138.JPG","null","","","","",""
"","html-keyboard-response","421","685982","0.0-8.0-2.57","LF","g8yr0b9yda","1366","768","en","er07im06","null","","","","learningBlock2","","","","<div style=""font-size:60px;""> </div>","null","LF","learning/Slide138.JPG","This is a bim:","",""
"","html-keyboard-response","422","686984","0.0-8.0-0.58","LF","g8yr0b9yda","1366","768","en","er07im06","null","","","","learningBlock2","","","","This is a wug:","null","","","","",""
"","image-keyboard-response","423","687312","0.0-8.0-1.58","LF","g8yr0b9yda","1366","768","en","er07im06","null","","","","","","","","learning/Slide139.JPG","null","","","","",""
"","html-keyboard-response","424","688315","0.0-8.0-2.58","LF","g8yr0b9yda","1366","768","en","er07im06","null","","","","learningBlock2","","","","<div style=""font-size:60px;""> </div>","null","LF","learning/Slide139.JPG","This is a wug:","",""
"","html-keyboard-response","425","689317","0.0-8.0-0.59","LF","g8yr0b9yda","1366","768","en","er07im06","null","","","","learningBlock2","","","","This is a dep:","null","","","","",""
"","image-keyboard-response","426","689644","0.0-8.0-1.59","LF","g8yr0b9yda","1366","768","en","er07im06","null","","","","","","","","learning/Slide140.JPG","null","","","","",""
"","html-keyboard-response","427","690646","0.0-8.0-2.59","LF","g8yr0b9yda","1366","768","en","er07im06","null","","","","learningBlock2","","","","<div style=""font-size:60px;""> </div>","null","LF","learning/Slide140.JPG","This is a dep:","",""
"","html-keyboard-response","428","691649","0.0-8.0-0.60","LF","g8yr0b9yda","1366","768","en","er07im06","null","","","","learningBlock2","","","","This is a tob:","null","","","","",""
"","image-keyboard-response","429","691976","0.0-8.0-1.60","LF","g8yr0b9yda","1366","768","en","er07im06","null","","","","","","","","learning/Slide141.JPG","null","","","","",""
"","html-keyboard-response","430","692979","0.0-8.0-2.60","LF","g8yr0b9yda","1366","768","en","er07im06","null","","","","learningBlock2","","","","<div style=""font-size:60px;""> </div>","null","LF","learning/Slide141.JPG","This is a tob:","",""
"","html-keyboard-response","431","693981","0.0-8.0-0.61","LF","g8yr0b9yda","1366","768","en","er07im06","null","","","","learningBlock2","","","","This is a wug:","null","","","","",""
"","image-keyboard-response","432","694309","0.0-8.0-1.61","LF","g8yr0b9yda","1366","768","en","er07im06","null","","","","","","","","learning/Slide142.JPG","null","","","","",""
"","html-keyboard-response","433","695311","0.0-8.0-2.61","LF","g8yr0b9yda","1366","768","en","er07im06","null","","","","learningBlock2","","","","<div style=""font-size:60px;""> </div>","null","LF","learning/Slide142.JPG","This is a wug:","",""
"","html-keyboard-response","434","696313","0.0-8.0-0.62","LF","g8yr0b9yda","1366","768","en","er07im06","null","","","","learningBlock2","","","","This is a bim:","null","","","","",""
"","image-keyboard-response","435","696641","0.0-8.0-1.62","LF","g8yr0b9yda","1366","768","en","er07im06","null","","","","","","","","learning/Slide143.JPG","null","","","","",""
"","html-keyboard-response","436","697643","0.0-8.0-2.62","LF","g8yr0b9yda","1366","768","en","er07im06","null","","","","learningBlock2","","","","<div style=""font-size:60px;""> </div>","null","LF","learning/Slide143.JPG","This is a bim:","",""
"","html-keyboard-response","437","698645","0.0-8.0-0.63","LF","g8yr0b9yda","1366","768","en","er07im06","null","","","","learningBlock2","","","","This is a dep:","null","","","","",""
"","image-keyboard-response","438","698973","0.0-8.0-1.63","LF","g8yr0b9yda","1366","768","en","er07im06","null","","","","","","","","learning/Slide144.JPG","null","","","","",""
"","html-keyboard-response","439","699976","0.0-8.0-2.63","LF","g8yr0b9yda","1366","768","en","er07im06","null","","","","learningBlock2","","","","<div style=""font-size:60px;""> </div>","null","LF","learning/Slide144.JPG","This is a dep:","",""
"","html-keyboard-response","440","700988","0.0-8.0-0.64","LF","g8yr0b9yda","1366","768","en","er07im06","null","","","","learningBlock2","","","","This is a bim:","null","","","","",""
"","image-keyboard-response","441","701315","0.0-8.0-1.64","LF","g8yr0b9yda","1366","768","en","er07im06","null","","","","","","","","learning/Slide145.JPG","null","","","","",""
"","html-keyboard-response","442","702318","0.0-8.0-2.64","LF","g8yr0b9yda","1366","768","en","er07im06","null","","","","learningBlock2","","","","<div style=""font-size:60px;""> </div>","null","LF","learning/Slide145.JPG","This is a bim:","",""
"","html-keyboard-response","443","703320","0.0-8.0-0.65","LF","g8yr0b9yda","1366","768","en","er07im06","null","","","","learningBlock2","","","","This is a tob:","null","","","","",""
"","image-keyboard-response","444","703649","0.0-8.0-1.65","LF","g8yr0b9yda","1366","768","en","er07im06","null","","","","","","","","learning/Slide146.JPG","null","","","","",""
"","html-keyboard-response","445","704652","0.0-8.0-2.65","LF","g8yr0b9yda","1366","768","en","er07im06","null","","","","learningBlock2","","","","<div style=""font-size:60px;""> </div>","null","LF","learning/Slide146.JPG","This is a tob:","",""
"","html-keyboard-response","446","705654","0.0-8.0-0.66","LF","g8yr0b9yda","1366","768","en","er07im06","null","","","","learningBlock2","","","","This is a wug:","null","","","","",""
"","image-keyboard-response","447","705981","0.0-8.0-1.66","LF","g8yr0b9yda","1366","768","en","er07im06","null","","","","","","","","learning/Slide147.JPG","null","","","","",""
"","html-keyboard-response","448","706983","0.0-8.0-2.66","LF","g8yr0b9yda","1366","768","en","er07im06","null","","","","learningBlock2","","","","<div style=""font-size:60px;""> </div>","null","LF","learning/Slide147.JPG","This is a wug:","",""
"","html-keyboard-response","449","707989","0.0-8.0-0.67","LF","g8yr0b9yda","1366","768","en","er07im06","null","","","","learningBlock2","","","","This is a bim:","null","","","","",""
"","image-keyboard-response","450","708317","0.0-8.0-1.67","LF","g8yr0b9yda","1366","768","en","er07im06","null","","","","","","","","learning/Slide148.JPG","null","","","","",""
"","html-keyboard-response","451","709320","0.0-8.0-2.67","LF","g8yr0b9yda","1366","768","en","er07im06","null","","","","learningBlock2","","","","<div style=""font-size:60px;""> </div>","null","LF","learning/Slide148.JPG","This is a bim:","",""
"","html-keyboard-response","452","710322","0.0-8.0-0.68","LF","g8yr0b9yda","1366","768","en","er07im06","null","","","","learningBlock2","","","","This is a dep:","null","","","","",""
"","image-keyboard-response","453","710651","0.0-8.0-1.68","LF","g8yr0b9yda","1366","768","en","er07im06","null","","","","","","","","learning/Slide149.JPG","null","","","","",""
"","html-keyboard-response","454","711654","0.0-8.0-2.68","LF","g8yr0b9yda","1366","768","en","er07im06","null","","","","learningBlock2","","","","<div style=""font-size:60px;""> </div>","null","LF","learning/Slide149.JPG","This is a dep:","",""
"","html-keyboard-response","455","712656","0.0-8.0-0.69","LF","g8yr0b9yda","1366","768","en","er07im06","null","","","","learningBlock2","","","","This is a wug:","null","","","","",""
"","image-keyboard-response","456","712983","0.0-8.0-1.69","LF","g8yr0b9yda","1366","768","en","er07im06","null","","","","","","","","learning/Slide150.JPG","null","","","","",""
"","html-keyboard-response","457","714000","0.0-8.0-2.69","LF","g8yr0b9yda","1366","768","en","er07im06","null","","","","learningBlock2","","","","<div style=""font-size:60px;""> </div>","null","LF","learning/Slide150.JPG","This is a wug:","",""
"","html-keyboard-response","458","715003","0.0-8.0-0.70","LF","g8yr0b9yda","1366","768","en","er07im06","null","","","","learningBlock2","","","","This is a dep:","null","","","","",""
"","image-keyboard-response","459","715330","0.0-8.0-1.70","LF","g8yr0b9yda","1366","768","en","er07im06","null","","","","","","","","learning/Slide151.JPG","null","","","","",""
"","html-keyboard-response","460","716332","0.0-8.0-2.70","LF","g8yr0b9yda","1366","768","en","er07im06","null","","","","learningBlock2","","","","<div style=""font-size:60px;""> </div>","null","LF","learning/Slide151.JPG","This is a dep:","",""
"","html-keyboard-response","461","717335","0.0-8.0-0.71","LF","g8yr0b9yda","1366","768","en","er07im06","null","","","","learningBlock2","","","","This is a wug:","null","","","","",""
"","image-keyboard-response","462","717664","0.0-8.0-1.71","LF","g8yr0b9yda","1366","768","en","er07im06","null","","","","","","","","learning/Slide152.JPG","null","","","","",""
"","html-keyboard-response","463","718666","0.0-8.0-2.71","LF","g8yr0b9yda","1366","768","en","er07im06","null","","","","learningBlock2","","","","<div style=""font-size:60px;""> </div>","null","LF","learning/Slide152.JPG","This is a wug:","",""
"","html-keyboard-response","464","719668","0.0-8.0-0.72","LF","g8yr0b9yda","1366","768","en","er07im06","null","","","","learningBlock2","","","","This is a bim:","null","","","","",""
"","image-keyboard-response","465","719996","0.0-8.0-1.72","LF","g8yr0b9yda","1366","768","en","er07im06","null","","","","","","","","learning/Slide153.JPG","null","","","","",""
"","html-keyboard-response","466","720999","0.0-8.0-2.72","LF","g8yr0b9yda","1366","768","en","er07im06","null","","","","learningBlock2","","","","<div style=""font-size:60px;""> </div>","null","LF","learning/Slide153.JPG","This is a bim:","",""
"","html-keyboard-response","467","722001","0.0-8.0-0.73","LF","g8yr0b9yda","1366","768","en","er07im06","null","","","","learningBlock2","","","","This is a tob:","null","","","","",""
"","image-keyboard-response","468","722328","0.0-8.0-1.73","LF","g8yr0b9yda","1366","768","en","er07im06","null","","","","","","","","learning/Slide154.JPG","null","","","","",""
"","html-keyboard-response","469","723330","0.0-8.0-2.73","LF","g8yr0b9yda","1366","768","en","er07im06","null","","","","learningBlock2","","","","<div style=""font-size:60px;""> </div>","null","LF","learning/Slide154.JPG","This is a tob:","",""
"","html-keyboard-response","470","724332","0.0-8.0-0.74","LF","g8yr0b9yda","1366","768","en","er07im06","null","","","","learningBlock2","","","","This is a dep:","null","","","","",""
"","image-keyboard-response","471","724659","0.0-8.0-1.74","LF","g8yr0b9yda","1366","768","en","er07im06","null","","","","","","","","learning/Slide155.JPG","null","","","","",""
"","html-keyboard-response","472","725660","0.0-8.0-2.74","LF","g8yr0b9yda","1366","768","en","er07im06","null","","","","learningBlock2","","","","<div style=""font-size:60px;""> </div>","null","LF","learning/Slide155.JPG","This is a dep:","",""
"","html-keyboard-response","473","726662","0.0-8.0-0.75","LF","g8yr0b9yda","1366","768","en","er07im06","null","","","","learningBlock2","","","","This is a bim:","null","","","","",""
"","image-keyboard-response","474","726990","0.0-8.0-1.75","LF","g8yr0b9yda","1366","768","en","er07im06","null","","","","","","","","learning/Slide156.JPG","null","","","","",""
"","html-keyboard-response","475","727993","0.0-8.0-2.75","LF","g8yr0b9yda","1366","768","en","er07im06","null","","","","learningBlock2","","","","<div style=""font-size:60px;""> </div>","null","LF","learning/Slide156.JPG","This is a bim:","",""
"","html-keyboard-response","476","728995","0.0-8.0-0.76","LF","g8yr0b9yda","1366","768","en","er07im06","null","","","","learningBlock2","","","","This is a dep:","null","","","","",""
"","image-keyboard-response","477","729323","0.0-8.0-1.76","LF","g8yr0b9yda","1366","768","en","er07im06","null","","","","","","","","learning/Slide157.JPG","null","","","","",""
"","html-keyboard-response","478","730325","0.0-8.0-2.76","LF","g8yr0b9yda","1366","768","en","er07im06","null","","","","learningBlock2","","","","<div style=""font-size:60px;""> </div>","null","LF","learning/Slide157.JPG","This is a dep:","",""
"","html-keyboard-response","479","731327","0.0-8.0-0.77","LF","g8yr0b9yda","1366","768","en","er07im06","null","","","","learningBlock2","","","","This is a tob:","null","","","","",""
"","image-keyboard-response","480","731656","0.0-8.0-1.77","LF","g8yr0b9yda","1366","768","en","er07im06","null","","","","","","","","learning/Slide158.JPG","null","","","","",""
"","html-keyboard-response","481","732660","0.0-8.0-2.77","LF","g8yr0b9yda","1366","768","en","er07im06","null","","","","learningBlock2","","","","<div style=""font-size:60px;""> </div>","null","LF","learning/Slide158.JPG","This is a tob:","",""
"","html-keyboard-response","482","733662","0.0-8.0-0.78","LF","g8yr0b9yda","1366","768","en","er07im06","null","","","","learningBlock2","","","","This is a dep:","null","","","","",""
"","image-keyboard-response","483","733990","0.0-8.0-1.78","LF","g8yr0b9yda","1366","768","en","er07im06","null","","","","","","","","learning/Slide159.JPG","null","","","","",""
"","html-keyboard-response","484","734992","0.0-8.0-2.78","LF","g8yr0b9yda","1366","768","en","er07im06","null","","","","learningBlock2","","","","<div style=""font-size:60px;""> </div>","null","LF","learning/Slide159.JPG","This is a dep:","",""
"","html-keyboard-response","485","735994","0.0-8.0-0.79","LF","g8yr0b9yda","1366","768","en","er07im06","null","","","","learningBlock2","","","","This is a wug:","null","","","","",""
"","image-keyboard-response","486","736323","0.0-8.0-1.79","LF","g8yr0b9yda","1366","768","en","er07im06","null","","","","","","","","learning/Slide160.JPG","null","","","","",""
"","html-keyboard-response","487","737325","0.0-8.0-2.79","LF","g8yr0b9yda","1366","768","en","er07im06","null","","","","learningBlock2","","","","<div style=""font-size:60px;""> </div>","null","LF","learning/Slide160.JPG","This is a wug:","",""
"","resize2","488","784281","0.0-9.0","LF","g8yr0b9yda","1366","768","en","er07im06","","","","","","","104","1.04","","","","","","",""
"","instructions","489","793136","0.0-10.0","LF","g8yr0b9yda","1366","768","en","er07im06","NA","","","[{""page_index"":0,""viewing_time"":8853.355000028387}]","instructions","","","","","","","","","",""
