"success","trial_type","trial_index","time_elapsed","internal_node_id","condition","subject","screen_width","screen_height","language","codeword","rt","responses","url","view_history","test_part","final_height_px","final_width_px","scale_factor","stimulus","key_press","learningType","presentedImage","presentedLabel","button_pressed","response"
"true","fullscreen","0","4375","0.0-0.0","LF","wg3u6jr0nh","1536","864","en","ic07ir25","","","","","","","","","","","","","","",""
"","survey-html-form","1","11333","0.0-1.0","LF","wg3u6jr0nh","1536","864","en","ic07ir25","6953","{""language"":""en""}","","","","","","","","","","","","",""
"","external-html","2","157262","0.0-3.0-0.0","LF","wg3u6jr0nh","1536","864","en","ic07ir25","145837","","text/information_english.html","","","","","","","","","","","",""
"","external-html","3","183349","0.0-3.0-1.0","LF","wg3u6jr0nh","1536","864","en","ic07ir25","26035","","text/consent_english.html","","","","","","","","","","","",""
"","survey-html-form","4","251475","0.0-3.0-2.0","LF","wg3u6jr0nh","1536","864","en","ic07ir25","68124","{""codeword_enter"":""ic07ir25""}","","","","","","","","","","","","",""
"","instructions","5","264585","0.0-4.0","LF","wg3u6jr0nh","1536","864","en","ic07ir25","NA","","","[{""page_index"":0,""viewing_time"":2521},{""page_index"":1,""viewing_time"":9086}]","instructions","","","","","","","","","",""
"","resize","6","351930","0.0-5.0","LF","wg3u6jr0nh","1536","864","en","ic07ir25","","","","","","","385","2.4444444444444446","","","","","","",""
"","html-keyboard-response","7","352933","0.0-6.0-0.0","LF","wg3u6jr0nh","1536","864","en","ic07ir25","null","","","","learningBlock1","","","","This is a tob:","null","","","","",""
"","image-keyboard-response","8","353260","0.0-6.0-1.0","LF","wg3u6jr0nh","1536","864","en","ic07ir25","null","","","","","","","","learning/Slide1.JPG","null","","","","",""
"","html-keyboard-response","9","354261","0.0-6.0-2.0","LF","wg3u6jr0nh","1536","864","en","ic07ir25","null","","","","learningBlock1","","","","<div style=""font-size:60px;""> </div>","null","LF","learning/Slide1.JPG","This is a tob:","",""
"","html-keyboard-response","10","355263","0.0-6.0-0.1","LF","wg3u6jr0nh","1536","864","en","ic07ir25","null","","","","learningBlock1","","","","This is a wug:","null","","","","",""
"","image-keyboard-response","11","355591","0.0-6.0-1.1","LF","wg3u6jr0nh","1536","864","en","ic07ir25","null","","","","","","","","learning/Slide2.JPG","null","","","","",""
"","html-keyboard-response","12","356592","0.0-6.0-2.1","LF","wg3u6jr0nh","1536","864","en","ic07ir25","null","","","","learningBlock1","","","","<div style=""font-size:60px;""> </div>","null","LF","learning/Slide2.JPG","This is a wug:","",""
"","html-keyboard-response","13","357594","0.0-6.0-0.2","LF","wg3u6jr0nh","1536","864","en","ic07ir25","null","","","","learningBlock1","","","","This is a bim:","null","","","","",""
"","image-keyboard-response","14","357921","0.0-6.0-1.2","LF","wg3u6jr0nh","1536","864","en","ic07ir25","null","","","","","","","","learning/Slide3.JPG","null","","","","",""
"","html-keyboard-response","15","358922","0.0-6.0-2.2","LF","wg3u6jr0nh","1536","864","en","ic07ir25","null","","","","learningBlock1","","","","<div style=""font-size:60px;""> </div>","null","LF","learning/Slide3.JPG","This is a bim:","",""
"","html-keyboard-response","16","359924","0.0-6.0-0.3","LF","wg3u6jr0nh","1536","864","en","ic07ir25","null","","","","learningBlock1","","","","This is a dep:","null","","","","",""
"","image-keyboard-response","17","360256","0.0-6.0-1.3","LF","wg3u6jr0nh","1536","864","en","ic07ir25","null","","","","","","","","learning/Slide4.JPG","null","","","","",""
"","html-keyboard-response","18","361257","0.0-6.0-2.3","LF","wg3u6jr0nh","1536","864","en","ic07ir25","null","","","","learningBlock1","","","","<div style=""font-size:60px;""> </div>","null","LF","learning/Slide4.JPG","This is a dep:","",""
"","html-keyboard-response","19","362259","0.0-6.0-0.4","LF","wg3u6jr0nh","1536","864","en","ic07ir25","null","","","","learningBlock1","","","","This is a wug:","null","","","","",""
"","image-keyboard-response","20","362588","0.0-6.0-1.4","LF","wg3u6jr0nh","1536","864","en","ic07ir25","null","","","","","","","","learning/Slide5.JPG","null","","","","",""
"","html-keyboard-response","21","363590","0.0-6.0-2.4","LF","wg3u6jr0nh","1536","864","en","ic07ir25","null","","","","learningBlock1","","","","<div style=""font-size:60px;""> </div>","null","LF","learning/Slide5.JPG","This is a wug:","",""
"","html-keyboard-response","22","364591","0.0-6.0-0.5","LF","wg3u6jr0nh","1536","864","en","ic07ir25","null","","","","learningBlock1","","","","This is a dep:","null","","","","",""
"","image-keyboard-response","23","364917","0.0-6.0-1.5","LF","wg3u6jr0nh","1536","864","en","ic07ir25","null","","","","","","","","learning/Slide6.JPG","null","","","","",""
"","html-keyboard-response","24","365919","0.0-6.0-2.5","LF","wg3u6jr0nh","1536","864","en","ic07ir25","null","","","","learningBlock1","","","","<div style=""font-size:60px;""> </div>","null","LF","learning/Slide6.JPG","This is a dep:","",""
"","html-keyboard-response","25","366920","0.0-6.0-0.6","LF","wg3u6jr0nh","1536","864","en","ic07ir25","null","","","","learningBlock1","","","","This is a wug:","null","","","","",""
"","image-keyboard-response","26","367246","0.0-6.0-1.6","LF","wg3u6jr0nh","1536","864","en","ic07ir25","null","","","","","","","","learning/Slide7.JPG","null","","","","",""
"","html-keyboard-response","27","368247","0.0-6.0-2.6","LF","wg3u6jr0nh","1536","864","en","ic07ir25","null","","","","learningBlock1","","","","<div style=""font-size:60px;""> </div>","null","LF","learning/Slide7.JPG","This is a wug:","",""
"","html-keyboard-response","28","369249","0.0-6.0-0.7","LF","wg3u6jr0nh","1536","864","en","ic07ir25","null","","","","learningBlock1","","","","This is a bim:","null","","","","",""
"","image-keyboard-response","29","369576","0.0-6.0-1.7","LF","wg3u6jr0nh","1536","864","en","ic07ir25","null","","","","","","","","learning/Slide8.JPG","null","","","","",""
"","html-keyboard-response","30","370578","0.0-6.0-2.7","LF","wg3u6jr0nh","1536","864","en","ic07ir25","null","","","","learningBlock1","","","","<div style=""font-size:60px;""> </div>","null","LF","learning/Slide8.JPG","This is a bim:","",""
"","html-keyboard-response","31","371578","0.0-6.0-0.8","LF","wg3u6jr0nh","1536","864","en","ic07ir25","null","","","","learningBlock1","","","","This is a wug:","null","","","","",""
"","image-keyboard-response","32","371905","0.0-6.0-1.8","LF","wg3u6jr0nh","1536","864","en","ic07ir25","null","","","","","","","","learning/Slide9.JPG","null","","","","",""
"","html-keyboard-response","33","372906","0.0-6.0-2.8","LF","wg3u6jr0nh","1536","864","en","ic07ir25","null","","","","learningBlock1","","","","<div style=""font-size:60px;""> </div>","null","LF","learning/Slide9.JPG","This is a wug:","",""
"","html-keyboard-response","34","373908","0.0-6.0-0.9","LF","wg3u6jr0nh","1536","864","en","ic07ir25","null","","","","learningBlock1","","","","This is a dep:","null","","","","",""
"","image-keyboard-response","35","374235","0.0-6.0-1.9","LF","wg3u6jr0nh","1536","864","en","ic07ir25","null","","","","","","","","learning/Slide10.JPG","null","","","","",""
"","html-keyboard-response","36","375237","0.0-6.0-2.9","LF","wg3u6jr0nh","1536","864","en","ic07ir25","null","","","","learningBlock1","","","","<div style=""font-size:60px;""> </div>","null","LF","learning/Slide10.JPG","This is a dep:","",""
"","html-keyboard-response","37","376237","0.0-6.0-0.10","LF","wg3u6jr0nh","1536","864","en","ic07ir25","null","","","","learningBlock1","","","","This is a tob:","null","","","","",""
"","image-keyboard-response","38","376563","0.0-6.0-1.10","LF","wg3u6jr0nh","1536","864","en","ic07ir25","null","","","","","","","","learning/Slide11.JPG","null","","","","",""
"","html-keyboard-response","39","377565","0.0-6.0-2.10","LF","wg3u6jr0nh","1536","864","en","ic07ir25","null","","","","learningBlock1","","","","<div style=""font-size:60px;""> </div>","null","LF","learning/Slide11.JPG","This is a tob:","",""
"","html-keyboard-response","40","378567","0.0-6.0-0.11","LF","wg3u6jr0nh","1536","864","en","ic07ir25","null","","","","learningBlock1","","","","This is a dep:","null","","","","",""
"","image-keyboard-response","41","378893","0.0-6.0-1.11","LF","wg3u6jr0nh","1536","864","en","ic07ir25","null","","","","","","","","learning/Slide12.JPG","null","","","","",""
"","html-keyboard-response","42","379894","0.0-6.0-2.11","LF","wg3u6jr0nh","1536","864","en","ic07ir25","null","","","","learningBlock1","","","","<div style=""font-size:60px;""> </div>","null","LF","learning/Slide12.JPG","This is a dep:","",""
"","html-keyboard-response","43","380895","0.0-6.0-0.12","LF","wg3u6jr0nh","1536","864","en","ic07ir25","null","","","","learningBlock1","","","","This is a bim:","null","","","","",""
"","image-keyboard-response","44","381221","0.0-6.0-1.12","LF","wg3u6jr0nh","1536","864","en","ic07ir25","null","","","","","","","","learning/Slide13.JPG","null","","","","",""
"","html-keyboard-response","45","382223","0.0-6.0-2.12","LF","wg3u6jr0nh","1536","864","en","ic07ir25","null","","","","learningBlock1","","","","<div style=""font-size:60px;""> </div>","null","LF","learning/Slide13.JPG","This is a bim:","",""
"","html-keyboard-response","46","383223","0.0-6.0-0.13","LF","wg3u6jr0nh","1536","864","en","ic07ir25","null","","","","learningBlock1","","","","This is a wug:","null","","","","",""
"","image-keyboard-response","47","383550","0.0-6.0-1.13","LF","wg3u6jr0nh","1536","864","en","ic07ir25","null","","","","","","","","learning/Slide14.JPG","null","","","","",""
"","html-keyboard-response","48","384551","0.0-6.0-2.13","LF","wg3u6jr0nh","1536","864","en","ic07ir25","null","","","","learningBlock1","","","","<div style=""font-size:60px;""> </div>","null","LF","learning/Slide14.JPG","This is a wug:","",""
"","html-keyboard-response","49","385552","0.0-6.0-0.14","LF","wg3u6jr0nh","1536","864","en","ic07ir25","null","","","","learningBlock1","","","","This is a tob:","null","","","","",""
"","image-keyboard-response","50","385880","0.0-6.0-1.14","LF","wg3u6jr0nh","1536","864","en","ic07ir25","null","","","","","","","","learning/Slide15.JPG","null","","","","",""
"","html-keyboard-response","51","386881","0.0-6.0-2.14","LF","wg3u6jr0nh","1536","864","en","ic07ir25","null","","","","learningBlock1","","","","<div style=""font-size:60px;""> </div>","null","LF","learning/Slide15.JPG","This is a tob:","",""
"","html-keyboard-response","52","387882","0.0-6.0-0.15","LF","wg3u6jr0nh","1536","864","en","ic07ir25","null","","","","learningBlock1","","","","This is a dep:","null","","","","",""
"","image-keyboard-response","53","388208","0.0-6.0-1.15","LF","wg3u6jr0nh","1536","864","en","ic07ir25","null","","","","","","","","learning/Slide16.JPG","null","","","","",""
"","html-keyboard-response","54","389209","0.0-6.0-2.15","LF","wg3u6jr0nh","1536","864","en","ic07ir25","null","","","","learningBlock1","","","","<div style=""font-size:60px;""> </div>","null","LF","learning/Slide16.JPG","This is a dep:","",""
"","html-keyboard-response","55","390210","0.0-6.0-0.16","LF","wg3u6jr0nh","1536","864","en","ic07ir25","null","","","","learningBlock1","","","","This is a bim:","null","","","","",""
"","image-keyboard-response","56","390536","0.0-6.0-1.16","LF","wg3u6jr0nh","1536","864","en","ic07ir25","null","","","","","","","","learning/Slide17.JPG","null","","","","",""
"","html-keyboard-response","57","391538","0.0-6.0-2.16","LF","wg3u6jr0nh","1536","864","en","ic07ir25","null","","","","learningBlock1","","","","<div style=""font-size:60px;""> </div>","null","LF","learning/Slide17.JPG","This is a bim:","",""
"","html-keyboard-response","58","392539","0.0-6.0-0.17","LF","wg3u6jr0nh","1536","864","en","ic07ir25","null","","","","learningBlock1","","","","This is a tob:","null","","","","",""
"","image-keyboard-response","59","392866","0.0-6.0-1.17","LF","wg3u6jr0nh","1536","864","en","ic07ir25","null","","","","","","","","learning/Slide18.JPG","null","","","","",""
"","html-keyboard-response","60","393867","0.0-6.0-2.17","LF","wg3u6jr0nh","1536","864","en","ic07ir25","null","","","","learningBlock1","","","","<div style=""font-size:60px;""> </div>","null","LF","learning/Slide18.JPG","This is a tob:","",""
"","html-keyboard-response","61","394868","0.0-6.0-0.18","LF","wg3u6jr0nh","1536","864","en","ic07ir25","null","","","","learningBlock1","","","","This is a wug:","null","","","","",""
"","image-keyboard-response","62","395194","0.0-6.0-1.18","LF","wg3u6jr0nh","1536","864","en","ic07ir25","null","","","","","","","","learning/Slide19.JPG","null","","","","",""
"","html-keyboard-response","63","396195","0.0-6.0-2.18","LF","wg3u6jr0nh","1536","864","en","ic07ir25","null","","","","learningBlock1","","","","<div style=""font-size:60px;""> </div>","null","LF","learning/Slide19.JPG","This is a wug:","",""
"","html-keyboard-response","64","397196","0.0-6.0-0.19","LF","wg3u6jr0nh","1536","864","en","ic07ir25","null","","","","learningBlock1","","","","This is a bim:","null","","","","",""
"","image-keyboard-response","65","397523","0.0-6.0-1.19","LF","wg3u6jr0nh","1536","864","en","ic07ir25","null","","","","","","","","learning/Slide20.JPG","null","","","","",""
"","html-keyboard-response","66","398525","0.0-6.0-2.19","LF","wg3u6jr0nh","1536","864","en","ic07ir25","null","","","","learningBlock1","","","","<div style=""font-size:60px;""> </div>","null","LF","learning/Slide20.JPG","This is a bim:","",""
"","html-keyboard-response","67","399527","0.0-6.0-0.20","LF","wg3u6jr0nh","1536","864","en","ic07ir25","null","","","","learningBlock1","","","","This is a dep:","null","","","","",""
"","image-keyboard-response","68","399857","0.0-6.0-1.20","LF","wg3u6jr0nh","1536","864","en","ic07ir25","null","","","","","","","","learning/Slide21.JPG","null","","","","",""
"","html-keyboard-response","69","400857","0.0-6.0-2.20","LF","wg3u6jr0nh","1536","864","en","ic07ir25","null","","","","learningBlock1","","","","<div style=""font-size:60px;""> </div>","null","LF","learning/Slide21.JPG","This is a dep:","",""
"","html-keyboard-response","70","401858","0.0-6.0-0.21","LF","wg3u6jr0nh","1536","864","en","ic07ir25","null","","","","learningBlock1","","","","This is a bim:","null","","","","",""
"","image-keyboard-response","71","402186","0.0-6.0-1.21","LF","wg3u6jr0nh","1536","864","en","ic07ir25","null","","","","","","","","learning/Slide22.JPG","null","","","","",""
"","html-keyboard-response","72","403186","0.0-6.0-2.21","LF","wg3u6jr0nh","1536","864","en","ic07ir25","null","","","","learningBlock1","","","","<div style=""font-size:60px;""> </div>","null","LF","learning/Slide22.JPG","This is a bim:","",""
"","html-keyboard-response","73","404187","0.0-6.0-0.22","LF","wg3u6jr0nh","1536","864","en","ic07ir25","null","","","","learningBlock1","","","","This is a tob:","null","","","","",""
"","image-keyboard-response","74","404514","0.0-6.0-1.22","LF","wg3u6jr0nh","1536","864","en","ic07ir25","null","","","","","","","","learning/Slide23.JPG","null","","","","",""
"","html-keyboard-response","75","405515","0.0-6.0-2.22","LF","wg3u6jr0nh","1536","864","en","ic07ir25","null","","","","learningBlock1","","","","<div style=""font-size:60px;""> </div>","null","LF","learning/Slide23.JPG","This is a tob:","",""
"","html-keyboard-response","76","406517","0.0-6.0-0.23","LF","wg3u6jr0nh","1536","864","en","ic07ir25","null","","","","learningBlock1","","","","This is a wug:","null","","","","",""
"","image-keyboard-response","77","406844","0.0-6.0-1.23","LF","wg3u6jr0nh","1536","864","en","ic07ir25","null","","","","","","","","learning/Slide24.JPG","null","","","","",""
"","html-keyboard-response","78","407845","0.0-6.0-2.23","LF","wg3u6jr0nh","1536","864","en","ic07ir25","null","","","","learningBlock1","","","","<div style=""font-size:60px;""> </div>","null","LF","learning/Slide24.JPG","This is a wug:","",""
"","html-keyboard-response","79","408846","0.0-6.0-0.24","LF","wg3u6jr0nh","1536","864","en","ic07ir25","null","","","","learningBlock1","","","","This is a dep:","null","","","","",""
"","image-keyboard-response","80","409172","0.0-6.0-1.24","LF","wg3u6jr0nh","1536","864","en","ic07ir25","null","","","","","","","","learning/Slide25.JPG","null","","","","",""
"","html-keyboard-response","81","410174","0.0-6.0-2.24","LF","wg3u6jr0nh","1536","864","en","ic07ir25","null","","","","learningBlock1","","","","<div style=""font-size:60px;""> </div>","null","LF","learning/Slide25.JPG","This is a dep:","",""
"","html-keyboard-response","82","411176","0.0-6.0-0.25","LF","wg3u6jr0nh","1536","864","en","ic07ir25","null","","","","learningBlock1","","","","This is a wug:","null","","","","",""
"","image-keyboard-response","83","411504","0.0-6.0-1.25","LF","wg3u6jr0nh","1536","864","en","ic07ir25","null","","","","","","","","learning/Slide26.JPG","null","","","","",""
"","html-keyboard-response","84","412506","0.0-6.0-2.25","LF","wg3u6jr0nh","1536","864","en","ic07ir25","null","","","","learningBlock1","","","","<div style=""font-size:60px;""> </div>","null","LF","learning/Slide26.JPG","This is a wug:","",""
"","html-keyboard-response","85","413506","0.0-6.0-0.26","LF","wg3u6jr0nh","1536","864","en","ic07ir25","null","","","","learningBlock1","","","","This is a bim:","null","","","","",""
"","image-keyboard-response","86","413835","0.0-6.0-1.26","LF","wg3u6jr0nh","1536","864","en","ic07ir25","null","","","","","","","","learning/Slide27.JPG","null","","","","",""
"","html-keyboard-response","87","414836","0.0-6.0-2.26","LF","wg3u6jr0nh","1536","864","en","ic07ir25","null","","","","learningBlock1","","","","<div style=""font-size:60px;""> </div>","null","LF","learning/Slide27.JPG","This is a bim:","",""
"","html-keyboard-response","88","415837","0.0-6.0-0.27","LF","wg3u6jr0nh","1536","864","en","ic07ir25","null","","","","learningBlock1","","","","This is a dep:","null","","","","",""
"","image-keyboard-response","89","416164","0.0-6.0-1.27","LF","wg3u6jr0nh","1536","864","en","ic07ir25","null","","","","","","","","learning/Slide28.JPG","null","","","","",""
"","html-keyboard-response","90","417165","0.0-6.0-2.27","LF","wg3u6jr0nh","1536","864","en","ic07ir25","null","","","","learningBlock1","","","","<div style=""font-size:60px;""> </div>","null","LF","learning/Slide28.JPG","This is a dep:","",""
"","html-keyboard-response","91","418166","0.0-6.0-0.28","LF","wg3u6jr0nh","1536","864","en","ic07ir25","null","","","","learningBlock1","","","","This is a tob:","null","","","","",""
"","image-keyboard-response","92","418493","0.0-6.0-1.28","LF","wg3u6jr0nh","1536","864","en","ic07ir25","null","","","","","","","","learning/Slide29.JPG","null","","","","",""
"","html-keyboard-response","93","419494","0.0-6.0-2.28","LF","wg3u6jr0nh","1536","864","en","ic07ir25","null","","","","learningBlock1","","","","<div style=""font-size:60px;""> </div>","null","LF","learning/Slide29.JPG","This is a tob:","",""
"","html-keyboard-response","94","420495","0.0-6.0-0.29","LF","wg3u6jr0nh","1536","864","en","ic07ir25","null","","","","learningBlock1","","","","This is a dep:","null","","","","",""
"","image-keyboard-response","95","420821","0.0-6.0-1.29","LF","wg3u6jr0nh","1536","864","en","ic07ir25","null","","","","","","","","learning/Slide30.JPG","null","","","","",""
"","html-keyboard-response","96","421822","0.0-6.0-2.29","LF","wg3u6jr0nh","1536","864","en","ic07ir25","null","","","","learningBlock1","","","","<div style=""font-size:60px;""> </div>","null","LF","learning/Slide30.JPG","This is a dep:","",""
"","html-keyboard-response","97","422823","0.0-6.0-0.30","LF","wg3u6jr0nh","1536","864","en","ic07ir25","null","","","","learningBlock1","","","","This is a wug:","null","","","","",""
"","image-keyboard-response","98","423150","0.0-6.0-1.30","LF","wg3u6jr0nh","1536","864","en","ic07ir25","null","","","","","","","","learning/Slide31.JPG","null","","","","",""
"","html-keyboard-response","99","424152","0.0-6.0-2.30","LF","wg3u6jr0nh","1536","864","en","ic07ir25","null","","","","learningBlock1","","","","<div style=""font-size:60px;""> </div>","null","LF","learning/Slide31.JPG","This is a wug:","",""
"","html-keyboard-response","100","425153","0.0-6.0-0.31","LF","wg3u6jr0nh","1536","864","en","ic07ir25","null","","","","learningBlock1","","","","This is a tob:","null","","","","",""
"","image-keyboard-response","101","425480","0.0-6.0-1.31","LF","wg3u6jr0nh","1536","864","en","ic07ir25","null","","","","","","","","learning/Slide32.JPG","null","","","","",""
"","html-keyboard-response","102","426480","0.0-6.0-2.31","LF","wg3u6jr0nh","1536","864","en","ic07ir25","null","","","","learningBlock1","","","","<div style=""font-size:60px;""> </div>","null","LF","learning/Slide32.JPG","This is a tob:","",""
"","html-keyboard-response","103","427482","0.0-6.0-0.32","LF","wg3u6jr0nh","1536","864","en","ic07ir25","null","","","","learningBlock1","","","","This is a bim:","null","","","","",""
"","image-keyboard-response","104","427809","0.0-6.0-1.32","LF","wg3u6jr0nh","1536","864","en","ic07ir25","null","","","","","","","","learning/Slide33.JPG","null","","","","",""
"","html-keyboard-response","105","428811","0.0-6.0-2.32","LF","wg3u6jr0nh","1536","864","en","ic07ir25","null","","","","learningBlock1","","","","<div style=""font-size:60px;""> </div>","null","LF","learning/Slide33.JPG","This is a bim:","",""
"","html-keyboard-response","106","429813","0.0-6.0-0.33","LF","wg3u6jr0nh","1536","864","en","ic07ir25","null","","","","learningBlock1","","","","This is a tob:","null","","","","",""
"","image-keyboard-response","107","430142","0.0-6.0-1.33","LF","wg3u6jr0nh","1536","864","en","ic07ir25","null","","","","","","","","learning/Slide34.JPG","null","","","","",""
"","html-keyboard-response","108","431144","0.0-6.0-2.33","LF","wg3u6jr0nh","1536","864","en","ic07ir25","null","","","","learningBlock1","","","","<div style=""font-size:60px;""> </div>","null","LF","learning/Slide34.JPG","This is a tob:","",""
"","html-keyboard-response","109","432144","0.0-6.0-0.34","LF","wg3u6jr0nh","1536","864","en","ic07ir25","null","","","","learningBlock1","","","","This is a bim:","null","","","","",""
"","image-keyboard-response","110","432471","0.0-6.0-1.34","LF","wg3u6jr0nh","1536","864","en","ic07ir25","null","","","","","","","","learning/Slide35.JPG","null","","","","",""
"","html-keyboard-response","111","433472","0.0-6.0-2.34","LF","wg3u6jr0nh","1536","864","en","ic07ir25","null","","","","learningBlock1","","","","<div style=""font-size:60px;""> </div>","null","LF","learning/Slide35.JPG","This is a bim:","",""
"","html-keyboard-response","112","434473","0.0-6.0-0.35","LF","wg3u6jr0nh","1536","864","en","ic07ir25","null","","","","learningBlock1","","","","This is a dep:","null","","","","",""
"","image-keyboard-response","113","434801","0.0-6.0-1.35","LF","wg3u6jr0nh","1536","864","en","ic07ir25","null","","","","","","","","learning/Slide36.JPG","null","","","","",""
"","html-keyboard-response","114","435801","0.0-6.0-2.35","LF","wg3u6jr0nh","1536","864","en","ic07ir25","null","","","","learningBlock1","","","","<div style=""font-size:60px;""> </div>","null","LF","learning/Slide36.JPG","This is a dep:","",""
"","html-keyboard-response","115","436803","0.0-6.0-0.36","LF","wg3u6jr0nh","1536","864","en","ic07ir25","null","","","","learningBlock1","","","","This is a tob:","null","","","","",""
"","image-keyboard-response","116","437132","0.0-6.0-1.36","LF","wg3u6jr0nh","1536","864","en","ic07ir25","null","","","","","","","","learning/Slide37.JPG","null","","","","",""
"","html-keyboard-response","117","438134","0.0-6.0-2.36","LF","wg3u6jr0nh","1536","864","en","ic07ir25","null","","","","learningBlock1","","","","<div style=""font-size:60px;""> </div>","null","LF","learning/Slide37.JPG","This is a tob:","",""
"","html-keyboard-response","118","439134","0.0-6.0-0.37","LF","wg3u6jr0nh","1536","864","en","ic07ir25","null","","","","learningBlock1","","","","This is a wug:","null","","","","",""
"","image-keyboard-response","119","439461","0.0-6.0-1.37","LF","wg3u6jr0nh","1536","864","en","ic07ir25","null","","","","","","","","learning/Slide38.JPG","null","","","","",""
"","html-keyboard-response","120","440463","0.0-6.0-2.37","LF","wg3u6jr0nh","1536","864","en","ic07ir25","null","","","","learningBlock1","","","","<div style=""font-size:60px;""> </div>","null","LF","learning/Slide38.JPG","This is a wug:","",""
"","html-keyboard-response","121","441464","0.0-6.0-0.38","LF","wg3u6jr0nh","1536","864","en","ic07ir25","null","","","","learningBlock1","","","","This is a bim:","null","","","","",""
"","image-keyboard-response","122","441792","0.0-6.0-1.38","LF","wg3u6jr0nh","1536","864","en","ic07ir25","null","","","","","","","","learning/Slide39.JPG","null","","","","",""
"","html-keyboard-response","123","442792","0.0-6.0-2.38","LF","wg3u6jr0nh","1536","864","en","ic07ir25","null","","","","learningBlock1","","","","<div style=""font-size:60px;""> </div>","null","LF","learning/Slide39.JPG","This is a bim:","",""
"","html-keyboard-response","124","443793","0.0-6.0-0.39","LF","wg3u6jr0nh","1536","864","en","ic07ir25","null","","","","learningBlock1","","","","This is a tob:","null","","","","",""
"","image-keyboard-response","125","444120","0.0-6.0-1.39","LF","wg3u6jr0nh","1536","864","en","ic07ir25","null","","","","","","","","learning/Slide40.JPG","null","","","","",""
"","html-keyboard-response","126","445122","0.0-6.0-2.39","LF","wg3u6jr0nh","1536","864","en","ic07ir25","null","","","","learningBlock1","","","","<div style=""font-size:60px;""> </div>","null","LF","learning/Slide40.JPG","This is a tob:","",""
"","html-keyboard-response","127","446123","0.0-6.0-0.40","LF","wg3u6jr0nh","1536","864","en","ic07ir25","null","","","","learningBlock1","","","","This is a bim:","null","","","","",""
"","image-keyboard-response","128","446449","0.0-6.0-1.40","LF","wg3u6jr0nh","1536","864","en","ic07ir25","null","","","","","","","","learning/Slide41.JPG","null","","","","",""
"","html-keyboard-response","129","447451","0.0-6.0-2.40","LF","wg3u6jr0nh","1536","864","en","ic07ir25","null","","","","learningBlock1","","","","<div style=""font-size:60px;""> </div>","null","LF","learning/Slide41.JPG","This is a bim:","",""
"","html-keyboard-response","130","448453","0.0-6.0-0.41","LF","wg3u6jr0nh","1536","864","en","ic07ir25","null","","","","learningBlock1","","","","This is a dep:","null","","","","",""
"","image-keyboard-response","131","448780","0.0-6.0-1.41","LF","wg3u6jr0nh","1536","864","en","ic07ir25","null","","","","","","","","learning/Slide42.JPG","null","","","","",""
"","html-keyboard-response","132","449780","0.0-6.0-2.41","LF","wg3u6jr0nh","1536","864","en","ic07ir25","null","","","","learningBlock1","","","","<div style=""font-size:60px;""> </div>","null","LF","learning/Slide42.JPG","This is a dep:","",""
"","html-keyboard-response","133","450782","0.0-6.0-0.42","LF","wg3u6jr0nh","1536","864","en","ic07ir25","null","","","","learningBlock1","","","","This is a wug:","null","","","","",""
"","image-keyboard-response","134","451108","0.0-6.0-1.42","LF","wg3u6jr0nh","1536","864","en","ic07ir25","null","","","","","","","","learning/Slide43.JPG","null","","","","",""
"","html-keyboard-response","135","452110","0.0-6.0-2.42","LF","wg3u6jr0nh","1536","864","en","ic07ir25","null","","","","learningBlock1","","","","<div style=""font-size:60px;""> </div>","null","LF","learning/Slide43.JPG","This is a wug:","",""
"","html-keyboard-response","136","453112","0.0-6.0-0.43","LF","wg3u6jr0nh","1536","864","en","ic07ir25","null","","","","learningBlock1","","","","This is a bim:","null","","","","",""
"","image-keyboard-response","137","453438","0.0-6.0-1.43","LF","wg3u6jr0nh","1536","864","en","ic07ir25","null","","","","","","","","learning/Slide44.JPG","null","","","","",""
"","html-keyboard-response","138","454439","0.0-6.0-2.43","LF","wg3u6jr0nh","1536","864","en","ic07ir25","null","","","","learningBlock1","","","","<div style=""font-size:60px;""> </div>","null","LF","learning/Slide44.JPG","This is a bim:","",""
"","html-keyboard-response","139","455440","0.0-6.0-0.44","LF","wg3u6jr0nh","1536","864","en","ic07ir25","null","","","","learningBlock1","","","","This is a wug:","null","","","","",""
"","image-keyboard-response","140","455767","0.0-6.0-1.44","LF","wg3u6jr0nh","1536","864","en","ic07ir25","null","","","","","","","","learning/Slide45.JPG","null","","","","",""
"","html-keyboard-response","141","456767","0.0-6.0-2.44","LF","wg3u6jr0nh","1536","864","en","ic07ir25","null","","","","learningBlock1","","","","<div style=""font-size:60px;""> </div>","null","LF","learning/Slide45.JPG","This is a wug:","",""
"","html-keyboard-response","142","457769","0.0-6.0-0.45","LF","wg3u6jr0nh","1536","864","en","ic07ir25","null","","","","learningBlock1","","","","This is a dep:","null","","","","",""
"","image-keyboard-response","143","458095","0.0-6.0-1.45","LF","wg3u6jr0nh","1536","864","en","ic07ir25","null","","","","","","","","learning/Slide46.JPG","null","","","","",""
"","html-keyboard-response","144","459098","0.0-6.0-2.45","LF","wg3u6jr0nh","1536","864","en","ic07ir25","null","","","","learningBlock1","","","","<div style=""font-size:60px;""> </div>","null","LF","learning/Slide46.JPG","This is a dep:","",""
"","html-keyboard-response","145","460099","0.0-6.0-0.46","LF","wg3u6jr0nh","1536","864","en","ic07ir25","null","","","","learningBlock1","","","","This is a tob:","null","","","","",""
"","image-keyboard-response","146","460426","0.0-6.0-1.46","LF","wg3u6jr0nh","1536","864","en","ic07ir25","null","","","","","","","","learning/Slide47.JPG","null","","","","",""
"","html-keyboard-response","147","461426","0.0-6.0-2.46","LF","wg3u6jr0nh","1536","864","en","ic07ir25","null","","","","learningBlock1","","","","<div style=""font-size:60px;""> </div>","null","LF","learning/Slide47.JPG","This is a tob:","",""
"","html-keyboard-response","148","462427","0.0-6.0-0.47","LF","wg3u6jr0nh","1536","864","en","ic07ir25","null","","","","learningBlock1","","","","This is a bim:","null","","","","",""
"","image-keyboard-response","149","462756","0.0-6.0-1.47","LF","wg3u6jr0nh","1536","864","en","ic07ir25","null","","","","","","","","learning/Slide48.JPG","null","","","","",""
"","html-keyboard-response","150","463757","0.0-6.0-2.47","LF","wg3u6jr0nh","1536","864","en","ic07ir25","null","","","","learningBlock1","","","","<div style=""font-size:60px;""> </div>","null","LF","learning/Slide48.JPG","This is a bim:","",""
"","html-keyboard-response","151","464758","0.0-6.0-0.48","LF","wg3u6jr0nh","1536","864","en","ic07ir25","null","","","","learningBlock1","","","","This is a dep:","null","","","","",""
"","image-keyboard-response","152","465085","0.0-6.0-1.48","LF","wg3u6jr0nh","1536","864","en","ic07ir25","null","","","","","","","","learning/Slide49.JPG","null","","","","",""
"","html-keyboard-response","153","466088","0.0-6.0-2.48","LF","wg3u6jr0nh","1536","864","en","ic07ir25","null","","","","learningBlock1","","","","<div style=""font-size:60px;""> </div>","null","LF","learning/Slide49.JPG","This is a dep:","",""
"","html-keyboard-response","154","467090","0.0-6.0-0.49","LF","wg3u6jr0nh","1536","864","en","ic07ir25","null","","","","learningBlock1","","","","This is a tob:","null","","","","",""
"","image-keyboard-response","155","467416","0.0-6.0-1.49","LF","wg3u6jr0nh","1536","864","en","ic07ir25","null","","","","","","","","learning/Slide50.JPG","null","","","","",""
"","html-keyboard-response","156","468416","0.0-6.0-2.49","LF","wg3u6jr0nh","1536","864","en","ic07ir25","null","","","","learningBlock1","","","","<div style=""font-size:60px;""> </div>","null","LF","learning/Slide50.JPG","This is a tob:","",""
"","html-keyboard-response","157","469417","0.0-6.0-0.50","LF","wg3u6jr0nh","1536","864","en","ic07ir25","null","","","","learningBlock1","","","","This is a bim:","null","","","","",""
"","image-keyboard-response","158","469744","0.0-6.0-1.50","LF","wg3u6jr0nh","1536","864","en","ic07ir25","null","","","","","","","","learning/Slide51.JPG","null","","","","",""
"","html-keyboard-response","159","470746","0.0-6.0-2.50","LF","wg3u6jr0nh","1536","864","en","ic07ir25","null","","","","learningBlock1","","","","<div style=""font-size:60px;""> </div>","null","LF","learning/Slide51.JPG","This is a bim:","",""
"","html-keyboard-response","160","471747","0.0-6.0-0.51","LF","wg3u6jr0nh","1536","864","en","ic07ir25","null","","","","learningBlock1","","","","This is a wug:","null","","","","",""
"","image-keyboard-response","161","472072","0.0-6.0-1.51","LF","wg3u6jr0nh","1536","864","en","ic07ir25","null","","","","","","","","learning/Slide52.JPG","null","","","","",""
"","html-keyboard-response","162","473074","0.0-6.0-2.51","LF","wg3u6jr0nh","1536","864","en","ic07ir25","null","","","","learningBlock1","","","","<div style=""font-size:60px;""> </div>","null","LF","learning/Slide52.JPG","This is a wug:","",""
"","html-keyboard-response","163","474075","0.0-6.0-0.52","LF","wg3u6jr0nh","1536","864","en","ic07ir25","null","","","","learningBlock1","","","","This is a tob:","null","","","","",""
"","image-keyboard-response","164","474403","0.0-6.0-1.52","LF","wg3u6jr0nh","1536","864","en","ic07ir25","null","","","","","","","","learning/Slide53.JPG","null","","","","",""
"","html-keyboard-response","165","475403","0.0-6.0-2.52","LF","wg3u6jr0nh","1536","864","en","ic07ir25","null","","","","learningBlock1","","","","<div style=""font-size:60px;""> </div>","null","LF","learning/Slide53.JPG","This is a tob:","",""
"","html-keyboard-response","166","476404","0.0-6.0-0.53","LF","wg3u6jr0nh","1536","864","en","ic07ir25","null","","","","learningBlock1","","","","This is a dep:","null","","","","",""
"","image-keyboard-response","167","476731","0.0-6.0-1.53","LF","wg3u6jr0nh","1536","864","en","ic07ir25","null","","","","","","","","learning/Slide54.JPG","null","","","","",""
"","html-keyboard-response","168","477732","0.0-6.0-2.53","LF","wg3u6jr0nh","1536","864","en","ic07ir25","null","","","","learningBlock1","","","","<div style=""font-size:60px;""> </div>","null","LF","learning/Slide54.JPG","This is a dep:","",""
"","html-keyboard-response","169","478733","0.0-6.0-0.54","LF","wg3u6jr0nh","1536","864","en","ic07ir25","null","","","","learningBlock1","","","","This is a bim:","null","","","","",""
"","image-keyboard-response","170","479062","0.0-6.0-1.54","LF","wg3u6jr0nh","1536","864","en","ic07ir25","null","","","","","","","","learning/Slide55.JPG","null","","","","",""
"","html-keyboard-response","171","480063","0.0-6.0-2.54","LF","wg3u6jr0nh","1536","864","en","ic07ir25","null","","","","learningBlock1","","","","<div style=""font-size:60px;""> </div>","null","LF","learning/Slide55.JPG","This is a bim:","",""
"","html-keyboard-response","172","481064","0.0-6.0-0.55","LF","wg3u6jr0nh","1536","864","en","ic07ir25","null","","","","learningBlock1","","","","This is a tob:","null","","","","",""
"","image-keyboard-response","173","481390","0.0-6.0-1.55","LF","wg3u6jr0nh","1536","864","en","ic07ir25","null","","","","","","","","learning/Slide56.JPG","null","","","","",""
"","html-keyboard-response","174","482391","0.0-6.0-2.55","LF","wg3u6jr0nh","1536","864","en","ic07ir25","null","","","","learningBlock1","","","","<div style=""font-size:60px;""> </div>","null","LF","learning/Slide56.JPG","This is a tob:","",""
"","html-keyboard-response","175","483391","0.0-6.0-0.56","LF","wg3u6jr0nh","1536","864","en","ic07ir25","null","","","","learningBlock1","","","","This is a dep:","null","","","","",""
"","image-keyboard-response","176","483720","0.0-6.0-1.56","LF","wg3u6jr0nh","1536","864","en","ic07ir25","null","","","","","","","","learning/Slide57.JPG","null","","","","",""
"","html-keyboard-response","177","484721","0.0-6.0-2.56","LF","wg3u6jr0nh","1536","864","en","ic07ir25","null","","","","learningBlock1","","","","<div style=""font-size:60px;""> </div>","null","LF","learning/Slide57.JPG","This is a dep:","",""
"","html-keyboard-response","178","485721","0.0-6.0-0.57","LF","wg3u6jr0nh","1536","864","en","ic07ir25","null","","","","learningBlock1","","","","This is a wug:","null","","","","",""
"","image-keyboard-response","179","486049","0.0-6.0-1.57","LF","wg3u6jr0nh","1536","864","en","ic07ir25","null","","","","","","","","learning/Slide58.JPG","null","","","","",""
"","html-keyboard-response","180","487050","0.0-6.0-2.57","LF","wg3u6jr0nh","1536","864","en","ic07ir25","null","","","","learningBlock1","","","","<div style=""font-size:60px;""> </div>","null","LF","learning/Slide58.JPG","This is a wug:","",""
"","html-keyboard-response","181","488052","0.0-6.0-0.58","LF","wg3u6jr0nh","1536","864","en","ic07ir25","null","","","","learningBlock1","","","","This is a dep:","null","","","","",""
"","image-keyboard-response","182","488377","0.0-6.0-1.58","LF","wg3u6jr0nh","1536","864","en","ic07ir25","null","","","","","","","","learning/Slide59.JPG","null","","","","",""
"","html-keyboard-response","183","489380","0.0-6.0-2.58","LF","wg3u6jr0nh","1536","864","en","ic07ir25","null","","","","learningBlock1","","","","<div style=""font-size:60px;""> </div>","null","LF","learning/Slide59.JPG","This is a dep:","",""
"","html-keyboard-response","184","490382","0.0-6.0-0.59","LF","wg3u6jr0nh","1536","864","en","ic07ir25","null","","","","learningBlock1","","","","This is a wug:","null","","","","",""
"","image-keyboard-response","185","490708","0.0-6.0-1.59","LF","wg3u6jr0nh","1536","864","en","ic07ir25","null","","","","","","","","learning/Slide60.JPG","null","","","","",""
"","html-keyboard-response","186","491710","0.0-6.0-2.59","LF","wg3u6jr0nh","1536","864","en","ic07ir25","null","","","","learningBlock1","","","","<div style=""font-size:60px;""> </div>","null","LF","learning/Slide60.JPG","This is a wug:","",""
"","html-keyboard-response","187","492711","0.0-6.0-0.60","LF","wg3u6jr0nh","1536","864","en","ic07ir25","null","","","","learningBlock1","","","","This is a bim:","null","","","","",""
"","image-keyboard-response","188","493037","0.0-6.0-1.60","LF","wg3u6jr0nh","1536","864","en","ic07ir25","null","","","","","","","","learning/Slide61.JPG","null","","","","",""
"","html-keyboard-response","189","494039","0.0-6.0-2.60","LF","wg3u6jr0nh","1536","864","en","ic07ir25","null","","","","learningBlock1","","","","<div style=""font-size:60px;""> </div>","null","LF","learning/Slide61.JPG","This is a bim:","",""
"","html-keyboard-response","190","495039","0.0-6.0-0.61","LF","wg3u6jr0nh","1536","864","en","ic07ir25","null","","","","learningBlock1","","","","This is a dep:","null","","","","",""
"","image-keyboard-response","191","495365","0.0-6.0-1.61","LF","wg3u6jr0nh","1536","864","en","ic07ir25","null","","","","","","","","learning/Slide62.JPG","null","","","","",""
"","html-keyboard-response","192","496366","0.0-6.0-2.61","LF","wg3u6jr0nh","1536","864","en","ic07ir25","null","","","","learningBlock1","","","","<div style=""font-size:60px;""> </div>","null","LF","learning/Slide62.JPG","This is a dep:","",""
"","html-keyboard-response","193","497367","0.0-6.0-0.62","LF","wg3u6jr0nh","1536","864","en","ic07ir25","null","","","","learningBlock1","","","","This is a bim:","null","","","","",""
"","image-keyboard-response","194","497694","0.0-6.0-1.62","LF","wg3u6jr0nh","1536","864","en","ic07ir25","null","","","","","","","","learning/Slide63.JPG","null","","","","",""
"","html-keyboard-response","195","498695","0.0-6.0-2.62","LF","wg3u6jr0nh","1536","864","en","ic07ir25","null","","","","learningBlock1","","","","<div style=""font-size:60px;""> </div>","null","LF","learning/Slide63.JPG","This is a bim:","",""
"","html-keyboard-response","196","499696","0.0-6.0-0.63","LF","wg3u6jr0nh","1536","864","en","ic07ir25","null","","","","learningBlock1","","","","This is a tob:","null","","","","",""
"","image-keyboard-response","197","500022","0.0-6.0-1.63","LF","wg3u6jr0nh","1536","864","en","ic07ir25","null","","","","","","","","learning/Slide64.JPG","null","","","","",""
"","html-keyboard-response","198","501023","0.0-6.0-2.63","LF","wg3u6jr0nh","1536","864","en","ic07ir25","null","","","","learningBlock1","","","","<div style=""font-size:60px;""> </div>","null","LF","learning/Slide64.JPG","This is a tob:","",""
"","html-keyboard-response","199","502024","0.0-6.0-0.64","LF","wg3u6jr0nh","1536","864","en","ic07ir25","null","","","","learningBlock1","","","","This is a wug:","null","","","","",""
"","image-keyboard-response","200","502352","0.0-6.0-1.64","LF","wg3u6jr0nh","1536","864","en","ic07ir25","null","","","","","","","","learning/Slide65.JPG","null","","","","",""
"","html-keyboard-response","201","503353","0.0-6.0-2.64","LF","wg3u6jr0nh","1536","864","en","ic07ir25","null","","","","learningBlock1","","","","<div style=""font-size:60px;""> </div>","null","LF","learning/Slide65.JPG","This is a wug:","",""
"","html-keyboard-response","202","504354","0.0-6.0-0.65","LF","wg3u6jr0nh","1536","864","en","ic07ir25","null","","","","learningBlock1","","","","This is a dep:","null","","","","",""
"","image-keyboard-response","203","504682","0.0-6.0-1.65","LF","wg3u6jr0nh","1536","864","en","ic07ir25","null","","","","","","","","learning/Slide66.JPG","null","","","","",""
"","html-keyboard-response","204","505684","0.0-6.0-2.65","LF","wg3u6jr0nh","1536","864","en","ic07ir25","null","","","","learningBlock1","","","","<div style=""font-size:60px;""> </div>","null","LF","learning/Slide66.JPG","This is a dep:","",""
"","html-keyboard-response","205","506686","0.0-6.0-0.66","LF","wg3u6jr0nh","1536","864","en","ic07ir25","null","","","","learningBlock1","","","","This is a tob:","null","","","","",""
"","image-keyboard-response","206","507013","0.0-6.0-1.66","LF","wg3u6jr0nh","1536","864","en","ic07ir25","null","","","","","","","","learning/Slide67.JPG","null","","","","",""
"","html-keyboard-response","207","508014","0.0-6.0-2.66","LF","wg3u6jr0nh","1536","864","en","ic07ir25","null","","","","learningBlock1","","","","<div style=""font-size:60px;""> </div>","null","LF","learning/Slide67.JPG","This is a tob:","",""
"","html-keyboard-response","208","509014","0.0-6.0-0.67","LF","wg3u6jr0nh","1536","864","en","ic07ir25","null","","","","learningBlock1","","","","This is a wug:","null","","","","",""
"","image-keyboard-response","209","509341","0.0-6.0-1.67","LF","wg3u6jr0nh","1536","864","en","ic07ir25","null","","","","","","","","learning/Slide68.JPG","null","","","","",""
"","html-keyboard-response","210","510343","0.0-6.0-2.67","LF","wg3u6jr0nh","1536","864","en","ic07ir25","null","","","","learningBlock1","","","","<div style=""font-size:60px;""> </div>","null","LF","learning/Slide68.JPG","This is a wug:","",""
"","html-keyboard-response","211","511343","0.0-6.0-0.68","LF","wg3u6jr0nh","1536","864","en","ic07ir25","null","","","","learningBlock1","","","","This is a tob:","null","","","","",""
"","image-keyboard-response","212","511670","0.0-6.0-1.68","LF","wg3u6jr0nh","1536","864","en","ic07ir25","null","","","","","","","","learning/Slide69.JPG","null","","","","",""
"","html-keyboard-response","213","512671","0.0-6.0-2.68","LF","wg3u6jr0nh","1536","864","en","ic07ir25","null","","","","learningBlock1","","","","<div style=""font-size:60px;""> </div>","null","LF","learning/Slide69.JPG","This is a tob:","",""
"","html-keyboard-response","214","513672","0.0-6.0-0.69","LF","wg3u6jr0nh","1536","864","en","ic07ir25","null","","","","learningBlock1","","","","This is a dep:","null","","","","",""
"","image-keyboard-response","215","514000","0.0-6.0-1.69","LF","wg3u6jr0nh","1536","864","en","ic07ir25","null","","","","","","","","learning/Slide70.JPG","null","","","","",""
"","html-keyboard-response","216","515000","0.0-6.0-2.69","LF","wg3u6jr0nh","1536","864","en","ic07ir25","null","","","","learningBlock1","","","","<div style=""font-size:60px;""> </div>","null","LF","learning/Slide70.JPG","This is a dep:","",""
"","html-keyboard-response","217","516000","0.0-6.0-0.70","LF","wg3u6jr0nh","1536","864","en","ic07ir25","null","","","","learningBlock1","","","","This is a wug:","null","","","","",""
"","image-keyboard-response","218","516328","0.0-6.0-1.70","LF","wg3u6jr0nh","1536","864","en","ic07ir25","null","","","","","","","","learning/Slide71.JPG","null","","","","",""
"","html-keyboard-response","219","517329","0.0-6.0-2.70","LF","wg3u6jr0nh","1536","864","en","ic07ir25","null","","","","learningBlock1","","","","<div style=""font-size:60px;""> </div>","null","LF","learning/Slide71.JPG","This is a wug:","",""
"","html-keyboard-response","220","518329","0.0-6.0-0.71","LF","wg3u6jr0nh","1536","864","en","ic07ir25","null","","","","learningBlock1","","","","This is a bim:","null","","","","",""
"","image-keyboard-response","221","518656","0.0-6.0-1.71","LF","wg3u6jr0nh","1536","864","en","ic07ir25","null","","","","","","","","learning/Slide72.JPG","null","","","","",""
"","html-keyboard-response","222","519659","0.0-6.0-2.71","LF","wg3u6jr0nh","1536","864","en","ic07ir25","null","","","","learningBlock1","","","","<div style=""font-size:60px;""> </div>","null","LF","learning/Slide72.JPG","This is a bim:","",""
"","html-keyboard-response","223","520661","0.0-6.0-0.72","LF","wg3u6jr0nh","1536","864","en","ic07ir25","null","","","","learningBlock1","","","","This is a wug:","null","","","","",""
"","image-keyboard-response","224","520988","0.0-6.0-1.72","LF","wg3u6jr0nh","1536","864","en","ic07ir25","null","","","","","","","","learning/Slide73.JPG","null","","","","",""
"","html-keyboard-response","225","521989","0.0-6.0-2.72","LF","wg3u6jr0nh","1536","864","en","ic07ir25","null","","","","learningBlock1","","","","<div style=""font-size:60px;""> </div>","null","LF","learning/Slide73.JPG","This is a wug:","",""
"","html-keyboard-response","226","522989","0.0-6.0-0.73","LF","wg3u6jr0nh","1536","864","en","ic07ir25","null","","","","learningBlock1","","","","This is a dep:","null","","","","",""
"","image-keyboard-response","227","523316","0.0-6.0-1.73","LF","wg3u6jr0nh","1536","864","en","ic07ir25","null","","","","","","","","learning/Slide74.JPG","null","","","","",""
"","html-keyboard-response","228","524317","0.0-6.0-2.73","LF","wg3u6jr0nh","1536","864","en","ic07ir25","null","","","","learningBlock1","","","","<div style=""font-size:60px;""> </div>","null","LF","learning/Slide74.JPG","This is a dep:","",""
"","html-keyboard-response","229","525319","0.0-6.0-0.74","LF","wg3u6jr0nh","1536","864","en","ic07ir25","null","","","","learningBlock1","","","","This is a tob:","null","","","","",""
"","image-keyboard-response","230","525646","0.0-6.0-1.74","LF","wg3u6jr0nh","1536","864","en","ic07ir25","null","","","","","","","","learning/Slide75.JPG","null","","","","",""
"","html-keyboard-response","231","526647","0.0-6.0-2.74","LF","wg3u6jr0nh","1536","864","en","ic07ir25","null","","","","learningBlock1","","","","<div style=""font-size:60px;""> </div>","null","LF","learning/Slide75.JPG","This is a tob:","",""
"","html-keyboard-response","232","527647","0.0-6.0-0.75","LF","wg3u6jr0nh","1536","864","en","ic07ir25","null","","","","learningBlock1","","","","This is a bim:","null","","","","",""
"","image-keyboard-response","233","527973","0.0-6.0-1.75","LF","wg3u6jr0nh","1536","864","en","ic07ir25","null","","","","","","","","learning/Slide76.JPG","null","","","","",""
"","html-keyboard-response","234","528975","0.0-6.0-2.75","LF","wg3u6jr0nh","1536","864","en","ic07ir25","null","","","","learningBlock1","","","","<div style=""font-size:60px;""> </div>","null","LF","learning/Slide76.JPG","This is a bim:","",""
"","html-keyboard-response","235","529976","0.0-6.0-0.76","LF","wg3u6jr0nh","1536","864","en","ic07ir25","null","","","","learningBlock1","","","","This is a tob:","null","","","","",""
"","image-keyboard-response","236","530303","0.0-6.0-1.76","LF","wg3u6jr0nh","1536","864","en","ic07ir25","null","","","","","","","","learning/Slide77.JPG","null","","","","",""
"","html-keyboard-response","237","531305","0.0-6.0-2.76","LF","wg3u6jr0nh","1536","864","en","ic07ir25","null","","","","learningBlock1","","","","<div style=""font-size:60px;""> </div>","null","LF","learning/Slide77.JPG","This is a tob:","",""
"","html-keyboard-response","238","532305","0.0-6.0-0.77","LF","wg3u6jr0nh","1536","864","en","ic07ir25","null","","","","learningBlock1","","","","This is a wug:","null","","","","",""
"","image-keyboard-response","239","532632","0.0-6.0-1.77","LF","wg3u6jr0nh","1536","864","en","ic07ir25","null","","","","","","","","learning/Slide78.JPG","null","","","","",""
"","html-keyboard-response","240","533633","0.0-6.0-2.77","LF","wg3u6jr0nh","1536","864","en","ic07ir25","null","","","","learningBlock1","","","","<div style=""font-size:60px;""> </div>","null","LF","learning/Slide78.JPG","This is a wug:","",""
"","html-keyboard-response","241","534634","0.0-6.0-0.78","LF","wg3u6jr0nh","1536","864","en","ic07ir25","null","","","","learningBlock1","","","","This is a bim:","null","","","","",""
"","image-keyboard-response","242","534961","0.0-6.0-1.78","LF","wg3u6jr0nh","1536","864","en","ic07ir25","null","","","","","","","","learning/Slide79.JPG","null","","","","",""
"","html-keyboard-response","243","535963","0.0-6.0-2.78","LF","wg3u6jr0nh","1536","864","en","ic07ir25","null","","","","learningBlock1","","","","<div style=""font-size:60px;""> </div>","null","LF","learning/Slide79.JPG","This is a bim:","",""
"","html-keyboard-response","244","536964","0.0-6.0-0.79","LF","wg3u6jr0nh","1536","864","en","ic07ir25","null","","","","learningBlock1","","","","This is a tob:","null","","","","",""
"","image-keyboard-response","245","537291","0.0-6.0-1.79","LF","wg3u6jr0nh","1536","864","en","ic07ir25","null","","","","","","","","learning/Slide80.JPG","null","","","","",""
"","html-keyboard-response","246","538292","0.0-6.0-2.79","LF","wg3u6jr0nh","1536","864","en","ic07ir25","null","","","","learningBlock1","","","","<div style=""font-size:60px;""> </div>","null","LF","learning/Slide80.JPG","This is a tob:","",""
"","instructions","247","815539","0.0-7.0","LF","wg3u6jr0nh","1536","864","en","ic07ir25","NA","","","[{""page_index"":0,""viewing_time"":277245}]","instructions","","","","","","","","","",""
"","html-keyboard-response","248","816540","0.0-8.0-0.0","LF","wg3u6jr0nh","1536","864","en","ic07ir25","null","","","","learningBlock2","","","","This is a wug:","null","","","","",""
"","image-keyboard-response","249","816866","0.0-8.0-1.0","LF","wg3u6jr0nh","1536","864","en","ic07ir25","null","","","","","","","","learning/Slide81.JPG","null","","","","",""
"","html-keyboard-response","250","817868","0.0-8.0-2.0","LF","wg3u6jr0nh","1536","864","en","ic07ir25","null","","","","learningBlock2","","","","<div style=""font-size:60px;""> </div>","null","LF","learning/Slide81.JPG","This is a wug:","",""
"","html-keyboard-response","251","818869","0.0-8.0-0.1","LF","wg3u6jr0nh","1536","864","en","ic07ir25","null","","","","learningBlock2","","","","This is a bim:","null","","","","",""
"","image-keyboard-response","252","819195","0.0-8.0-1.1","LF","wg3u6jr0nh","1536","864","en","ic07ir25","null","","","","","","","","learning/Slide82.JPG","null","","","","",""
"","html-keyboard-response","253","820197","0.0-8.0-2.1","LF","wg3u6jr0nh","1536","864","en","ic07ir25","null","","","","learningBlock2","","","","<div style=""font-size:60px;""> </div>","null","LF","learning/Slide82.JPG","This is a bim:","",""
"","html-keyboard-response","254","821198","0.0-8.0-0.2","LF","wg3u6jr0nh","1536","864","en","ic07ir25","null","","","","learningBlock2","","","","This is a wug:","null","","","","",""
"","image-keyboard-response","255","821525","0.0-8.0-1.2","LF","wg3u6jr0nh","1536","864","en","ic07ir25","null","","","","","","","","learning/Slide83.JPG","null","","","","",""
"","html-keyboard-response","256","822526","0.0-8.0-2.2","LF","wg3u6jr0nh","1536","864","en","ic07ir25","null","","","","learningBlock2","","","","<div style=""font-size:60px;""> </div>","null","LF","learning/Slide83.JPG","This is a wug:","",""
"","html-keyboard-response","257","823528","0.0-8.0-0.3","LF","wg3u6jr0nh","1536","864","en","ic07ir25","null","","","","learningBlock2","","","","This is a dep:","null","","","","",""
"","image-keyboard-response","258","823854","0.0-8.0-1.3","LF","wg3u6jr0nh","1536","864","en","ic07ir25","null","","","","","","","","learning/Slide84.JPG","null","","","","",""
"","html-keyboard-response","259","824855","0.0-8.0-2.3","LF","wg3u6jr0nh","1536","864","en","ic07ir25","null","","","","learningBlock2","","","","<div style=""font-size:60px;""> </div>","null","LF","learning/Slide84.JPG","This is a dep:","",""
"","html-keyboard-response","260","825856","0.0-8.0-0.4","LF","wg3u6jr0nh","1536","864","en","ic07ir25","null","","","","learningBlock2","","","","This is a bim:","null","","","","",""
"","image-keyboard-response","261","826184","0.0-8.0-1.4","LF","wg3u6jr0nh","1536","864","en","ic07ir25","null","","","","","","","","learning/Slide85.JPG","null","","","","",""
"","html-keyboard-response","262","827186","0.0-8.0-2.4","LF","wg3u6jr0nh","1536","864","en","ic07ir25","null","","","","learningBlock2","","","","<div style=""font-size:60px;""> </div>","null","LF","learning/Slide85.JPG","This is a bim:","",""
"","html-keyboard-response","263","828187","0.0-8.0-0.5","LF","wg3u6jr0nh","1536","864","en","ic07ir25","null","","","","learningBlock2","","","","This is a tob:","null","","","","",""
"","image-keyboard-response","264","828515","0.0-8.0-1.5","LF","wg3u6jr0nh","1536","864","en","ic07ir25","null","","","","","","","","learning/Slide86.JPG","null","","","","",""
"","html-keyboard-response","265","829517","0.0-8.0-2.5","LF","wg3u6jr0nh","1536","864","en","ic07ir25","null","","","","learningBlock2","","","","<div style=""font-size:60px;""> </div>","null","LF","learning/Slide86.JPG","This is a tob:","",""
"","html-keyboard-response","266","830519","0.0-8.0-0.6","LF","wg3u6jr0nh","1536","864","en","ic07ir25","null","","","","learningBlock2","","","","This is a wug:","null","","","","",""
"","image-keyboard-response","267","830845","0.0-8.0-1.6","LF","wg3u6jr0nh","1536","864","en","ic07ir25","null","","","","","","","","learning/Slide87.JPG","null","","","","",""
"","html-keyboard-response","268","831846","0.0-8.0-2.6","LF","wg3u6jr0nh","1536","864","en","ic07ir25","null","","","","learningBlock2","","","","<div style=""font-size:60px;""> </div>","null","LF","learning/Slide87.JPG","This is a wug:","",""
"","html-keyboard-response","269","832847","0.0-8.0-0.7","LF","wg3u6jr0nh","1536","864","en","ic07ir25","null","","","","learningBlock2","","","","This is a tob:","null","","","","",""
"","image-keyboard-response","270","833177","0.0-8.0-1.7","LF","wg3u6jr0nh","1536","864","en","ic07ir25","null","","","","","","","","learning/Slide88.JPG","null","","","","",""
"","html-keyboard-response","271","834178","0.0-8.0-2.7","LF","wg3u6jr0nh","1536","864","en","ic07ir25","null","","","","learningBlock2","","","","<div style=""font-size:60px;""> </div>","null","LF","learning/Slide88.JPG","This is a tob:","",""
"","html-keyboard-response","272","835178","0.0-8.0-0.8","LF","wg3u6jr0nh","1536","864","en","ic07ir25","null","","","","learningBlock2","","","","This is a bim:","null","","","","",""
"","image-keyboard-response","273","835506","0.0-8.0-1.8","LF","wg3u6jr0nh","1536","864","en","ic07ir25","null","","","","","","","","learning/Slide89.JPG","null","","","","",""
"","html-keyboard-response","274","836507","0.0-8.0-2.8","LF","wg3u6jr0nh","1536","864","en","ic07ir25","null","","","","learningBlock2","","","","<div style=""font-size:60px;""> </div>","null","LF","learning/Slide89.JPG","This is a bim:","",""
"","html-keyboard-response","275","837510","0.0-8.0-0.9","LF","wg3u6jr0nh","1536","864","en","ic07ir25","null","","","","learningBlock2","","","","This is a dep:","null","","","","",""
"","image-keyboard-response","276","837837","0.0-8.0-1.9","LF","wg3u6jr0nh","1536","864","en","ic07ir25","null","","","","","","","","learning/Slide90.JPG","null","","","","",""
"","html-keyboard-response","277","838838","0.0-8.0-2.9","LF","wg3u6jr0nh","1536","864","en","ic07ir25","null","","","","learningBlock2","","","","<div style=""font-size:60px;""> </div>","null","LF","learning/Slide90.JPG","This is a dep:","",""
"","html-keyboard-response","278","839839","0.0-8.0-0.10","LF","wg3u6jr0nh","1536","864","en","ic07ir25","null","","","","learningBlock2","","","","This is a wug:","null","","","","",""
"","image-keyboard-response","279","840167","0.0-8.0-1.10","LF","wg3u6jr0nh","1536","864","en","ic07ir25","null","","","","","","","","learning/Slide91.JPG","null","","","","",""
"","html-keyboard-response","280","841169","0.0-8.0-2.10","LF","wg3u6jr0nh","1536","864","en","ic07ir25","null","","","","learningBlock2","","","","<div style=""font-size:60px;""> </div>","null","LF","learning/Slide91.JPG","This is a wug:","",""
"","html-keyboard-response","281","842171","0.0-8.0-0.11","LF","wg3u6jr0nh","1536","864","en","ic07ir25","null","","","","learningBlock2","","","","This is a tob:","null","","","","",""
"","image-keyboard-response","282","842497","0.0-8.0-1.11","LF","wg3u6jr0nh","1536","864","en","ic07ir25","null","","","","","","","","learning/Slide92.JPG","null","","","","",""
"","html-keyboard-response","283","843500","0.0-8.0-2.11","LF","wg3u6jr0nh","1536","864","en","ic07ir25","null","","","","learningBlock2","","","","<div style=""font-size:60px;""> </div>","null","LF","learning/Slide92.JPG","This is a tob:","",""
"","html-keyboard-response","284","844500","0.0-8.0-0.12","LF","wg3u6jr0nh","1536","864","en","ic07ir25","null","","","","learningBlock2","","","","This is a bim:","null","","","","",""
"","image-keyboard-response","285","844826","0.0-8.0-1.12","LF","wg3u6jr0nh","1536","864","en","ic07ir25","null","","","","","","","","learning/Slide93.JPG","null","","","","",""
"","html-keyboard-response","286","845828","0.0-8.0-2.12","LF","wg3u6jr0nh","1536","864","en","ic07ir25","null","","","","learningBlock2","","","","<div style=""font-size:60px;""> </div>","null","LF","learning/Slide93.JPG","This is a bim:","",""
"","html-keyboard-response","287","846831","0.0-8.0-0.13","LF","wg3u6jr0nh","1536","864","en","ic07ir25","null","","","","learningBlock2","","","","This is a tob:","null","","","","",""
"","image-keyboard-response","288","847159","0.0-8.0-1.13","LF","wg3u6jr0nh","1536","864","en","ic07ir25","null","","","","","","","","learning/Slide94.JPG","null","","","","",""
"","html-keyboard-response","289","848160","0.0-8.0-2.13","LF","wg3u6jr0nh","1536","864","en","ic07ir25","null","","","","learningBlock2","","","","<div style=""font-size:60px;""> </div>","null","LF","learning/Slide94.JPG","This is a tob:","",""
"","html-keyboard-response","290","849161","0.0-8.0-0.14","LF","wg3u6jr0nh","1536","864","en","ic07ir25","null","","","","learningBlock2","","","","This is a wug:","null","","","","",""
"","image-keyboard-response","291","849491","0.0-8.0-1.14","LF","wg3u6jr0nh","1536","864","en","ic07ir25","null","","","","","","","","learning/Slide95.JPG","null","","","","",""
"","html-keyboard-response","292","850492","0.0-8.0-2.14","LF","wg3u6jr0nh","1536","864","en","ic07ir25","null","","","","learningBlock2","","","","<div style=""font-size:60px;""> </div>","null","LF","learning/Slide95.JPG","This is a wug:","",""
"","html-keyboard-response","293","851492","0.0-8.0-0.15","LF","wg3u6jr0nh","1536","864","en","ic07ir25","null","","","","learningBlock2","","","","This is a tob:","null","","","","",""
"","image-keyboard-response","294","851819","0.0-8.0-1.15","LF","wg3u6jr0nh","1536","864","en","ic07ir25","null","","","","","","","","learning/Slide96.JPG","null","","","","",""
"","html-keyboard-response","295","852820","0.0-8.0-2.15","LF","wg3u6jr0nh","1536","864","en","ic07ir25","null","","","","learningBlock2","","","","<div style=""font-size:60px;""> </div>","null","LF","learning/Slide96.JPG","This is a tob:","",""
"","html-keyboard-response","296","853823","0.0-8.0-0.16","LF","wg3u6jr0nh","1536","864","en","ic07ir25","null","","","","learningBlock2","","","","This is a dep:","null","","","","",""
"","image-keyboard-response","297","854150","0.0-8.0-1.16","LF","wg3u6jr0nh","1536","864","en","ic07ir25","null","","","","","","","","learning/Slide97.JPG","null","","","","",""
"","html-keyboard-response","298","855151","0.0-8.0-2.16","LF","wg3u6jr0nh","1536","864","en","ic07ir25","null","","","","learningBlock2","","","","<div style=""font-size:60px;""> </div>","null","LF","learning/Slide97.JPG","This is a dep:","",""
"","html-keyboard-response","299","856152","0.0-8.0-0.17","LF","wg3u6jr0nh","1536","864","en","ic07ir25","null","","","","learningBlock2","","","","This is a bim:","null","","","","",""
"","image-keyboard-response","300","856479","0.0-8.0-1.17","LF","wg3u6jr0nh","1536","864","en","ic07ir25","null","","","","","","","","learning/Slide98.JPG","null","","","","",""
"","html-keyboard-response","301","857482","0.0-8.0-2.17","LF","wg3u6jr0nh","1536","864","en","ic07ir25","null","","","","learningBlock2","","","","<div style=""font-size:60px;""> </div>","null","LF","learning/Slide98.JPG","This is a bim:","",""
"","html-keyboard-response","302","858483","0.0-8.0-0.18","LF","wg3u6jr0nh","1536","864","en","ic07ir25","null","","","","learningBlock2","","","","This is a dep:","null","","","","",""
"","image-keyboard-response","303","858810","0.0-8.0-1.18","LF","wg3u6jr0nh","1536","864","en","ic07ir25","null","","","","","","","","learning/Slide99.JPG","null","","","","",""
"","html-keyboard-response","304","859810","0.0-8.0-2.18","LF","wg3u6jr0nh","1536","864","en","ic07ir25","null","","","","learningBlock2","","","","<div style=""font-size:60px;""> </div>","null","LF","learning/Slide99.JPG","This is a dep:","",""
"","html-keyboard-response","305","860811","0.0-8.0-0.19","LF","wg3u6jr0nh","1536","864","en","ic07ir25","null","","","","learningBlock2","","","","This is a bim:","null","","","","",""
"","image-keyboard-response","306","861138","0.0-8.0-1.19","LF","wg3u6jr0nh","1536","864","en","ic07ir25","null","","","","","","","","learning/Slide100.JPG","null","","","","",""
"","html-keyboard-response","307","862141","0.0-8.0-2.19","LF","wg3u6jr0nh","1536","864","en","ic07ir25","null","","","","learningBlock2","","","","<div style=""font-size:60px;""> </div>","null","LF","learning/Slide100.JPG","This is a bim:","",""
"","html-keyboard-response","308","863142","0.0-8.0-0.20","LF","wg3u6jr0nh","1536","864","en","ic07ir25","null","","","","learningBlock2","","","","This is a tob:","null","","","","",""
"","image-keyboard-response","309","863469","0.0-8.0-1.20","LF","wg3u6jr0nh","1536","864","en","ic07ir25","null","","","","","","","","learning/Slide101.JPG","null","","","","",""
"","html-keyboard-response","310","864470","0.0-8.0-2.20","LF","wg3u6jr0nh","1536","864","en","ic07ir25","null","","","","learningBlock2","","","","<div style=""font-size:60px;""> </div>","null","LF","learning/Slide101.JPG","This is a tob:","",""
"","html-keyboard-response","311","865471","0.0-8.0-0.21","LF","wg3u6jr0nh","1536","864","en","ic07ir25","null","","","","learningBlock2","","","","This is a bim:","null","","","","",""
"","image-keyboard-response","312","865798","0.0-8.0-1.21","LF","wg3u6jr0nh","1536","864","en","ic07ir25","null","","","","","","","","learning/Slide102.JPG","null","","","","",""
"","html-keyboard-response","313","866799","0.0-8.0-2.21","LF","wg3u6jr0nh","1536","864","en","ic07ir25","null","","","","learningBlock2","","","","<div style=""font-size:60px;""> </div>","null","LF","learning/Slide102.JPG","This is a bim:","",""
"","html-keyboard-response","314","867800","0.0-8.0-0.22","LF","wg3u6jr0nh","1536","864","en","ic07ir25","null","","","","learningBlock2","","","","This is a dep:","null","","","","",""
"","image-keyboard-response","315","868128","0.0-8.0-1.22","LF","wg3u6jr0nh","1536","864","en","ic07ir25","null","","","","","","","","learning/Slide103.JPG","null","","","","",""
"","html-keyboard-response","316","869129","0.0-8.0-2.22","LF","wg3u6jr0nh","1536","864","en","ic07ir25","null","","","","learningBlock2","","","","<div style=""font-size:60px;""> </div>","null","LF","learning/Slide103.JPG","This is a dep:","",""
"","html-keyboard-response","317","870130","0.0-8.0-0.23","LF","wg3u6jr0nh","1536","864","en","ic07ir25","null","","","","learningBlock2","","","","This is a tob:","null","","","","",""
"","image-keyboard-response","318","870458","0.0-8.0-1.23","LF","wg3u6jr0nh","1536","864","en","ic07ir25","null","","","","","","","","learning/Slide104.JPG","null","","","","",""
"","html-keyboard-response","319","871459","0.0-8.0-2.23","LF","wg3u6jr0nh","1536","864","en","ic07ir25","null","","","","learningBlock2","","","","<div style=""font-size:60px;""> </div>","null","LF","learning/Slide104.JPG","This is a tob:","",""
"","html-keyboard-response","320","872462","0.0-8.0-0.24","LF","wg3u6jr0nh","1536","864","en","ic07ir25","null","","","","learningBlock2","","","","This is a dep:","null","","","","",""
"","image-keyboard-response","321","872789","0.0-8.0-1.24","LF","wg3u6jr0nh","1536","864","en","ic07ir25","null","","","","","","","","learning/Slide105.JPG","null","","","","",""
"","html-keyboard-response","322","873792","0.0-8.0-2.24","LF","wg3u6jr0nh","1536","864","en","ic07ir25","null","","","","learningBlock2","","","","<div style=""font-size:60px;""> </div>","null","LF","learning/Slide105.JPG","This is a dep:","",""
"","html-keyboard-response","323","874792","0.0-8.0-0.25","LF","wg3u6jr0nh","1536","864","en","ic07ir25","null","","","","learningBlock2","","","","This is a wug:","null","","","","",""
"","image-keyboard-response","324","875120","0.0-8.0-1.25","LF","wg3u6jr0nh","1536","864","en","ic07ir25","null","","","","","","","","learning/Slide106.JPG","null","","","","",""
"","html-keyboard-response","325","876121","0.0-8.0-2.25","LF","wg3u6jr0nh","1536","864","en","ic07ir25","null","","","","learningBlock2","","","","<div style=""font-size:60px;""> </div>","null","LF","learning/Slide106.JPG","This is a wug:","",""
"","html-keyboard-response","326","877121","0.0-8.0-0.26","LF","wg3u6jr0nh","1536","864","en","ic07ir25","null","","","","learningBlock2","","","","This is a bim:","null","","","","",""
"","image-keyboard-response","327","877448","0.0-8.0-1.26","LF","wg3u6jr0nh","1536","864","en","ic07ir25","null","","","","","","","","learning/Slide107.JPG","null","","","","",""
"","html-keyboard-response","328","878449","0.0-8.0-2.26","LF","wg3u6jr0nh","1536","864","en","ic07ir25","null","","","","learningBlock2","","","","<div style=""font-size:60px;""> </div>","null","LF","learning/Slide107.JPG","This is a bim:","",""
"","html-keyboard-response","329","879449","0.0-8.0-0.27","LF","wg3u6jr0nh","1536","864","en","ic07ir25","null","","","","learningBlock2","","","","This is a dep:","null","","","","",""
"","image-keyboard-response","330","879775","0.0-8.0-1.27","LF","wg3u6jr0nh","1536","864","en","ic07ir25","null","","","","","","","","learning/Slide108.JPG","null","","","","",""
"","html-keyboard-response","331","880777","0.0-8.0-2.27","LF","wg3u6jr0nh","1536","864","en","ic07ir25","null","","","","learningBlock2","","","","<div style=""font-size:60px;""> </div>","null","LF","learning/Slide108.JPG","This is a dep:","",""
"","html-keyboard-response","332","881777","0.0-8.0-0.28","LF","wg3u6jr0nh","1536","864","en","ic07ir25","null","","","","learningBlock2","","","","This is a wug:","null","","","","",""
"","image-keyboard-response","333","882106","0.0-8.0-1.28","LF","wg3u6jr0nh","1536","864","en","ic07ir25","null","","","","","","","","learning/Slide109.JPG","null","","","","",""
"","html-keyboard-response","334","883106","0.0-8.0-2.28","LF","wg3u6jr0nh","1536","864","en","ic07ir25","null","","","","learningBlock2","","","","<div style=""font-size:60px;""> </div>","null","LF","learning/Slide109.JPG","This is a wug:","",""
"","html-keyboard-response","335","884107","0.0-8.0-0.29","LF","wg3u6jr0nh","1536","864","en","ic07ir25","null","","","","learningBlock2","","","","This is a bim:","null","","","","",""
"","image-keyboard-response","336","884435","0.0-8.0-1.29","LF","wg3u6jr0nh","1536","864","en","ic07ir25","null","","","","","","","","learning/Slide110.JPG","null","","","","",""
"","html-keyboard-response","337","885436","0.0-8.0-2.29","LF","wg3u6jr0nh","1536","864","en","ic07ir25","null","","","","learningBlock2","","","","<div style=""font-size:60px;""> </div>","null","LF","learning/Slide110.JPG","This is a bim:","",""
"","html-keyboard-response","338","886437","0.0-8.0-0.30","LF","wg3u6jr0nh","1536","864","en","ic07ir25","null","","","","learningBlock2","","","","This is a tob:","null","","","","",""
"","image-keyboard-response","339","886763","0.0-8.0-1.30","LF","wg3u6jr0nh","1536","864","en","ic07ir25","null","","","","","","","","learning/Slide111.JPG","null","","","","",""
"","html-keyboard-response","340","887765","0.0-8.0-2.30","LF","wg3u6jr0nh","1536","864","en","ic07ir25","null","","","","learningBlock2","","","","<div style=""font-size:60px;""> </div>","null","LF","learning/Slide111.JPG","This is a tob:","",""
"","html-keyboard-response","341","888766","0.0-8.0-0.31","LF","wg3u6jr0nh","1536","864","en","ic07ir25","null","","","","learningBlock2","","","","This is a wug:","null","","","","",""
"","image-keyboard-response","342","889093","0.0-8.0-1.31","LF","wg3u6jr0nh","1536","864","en","ic07ir25","null","","","","","","","","learning/Slide112.JPG","null","","","","",""
"","html-keyboard-response","343","890094","0.0-8.0-2.31","LF","wg3u6jr0nh","1536","864","en","ic07ir25","null","","","","learningBlock2","","","","<div style=""font-size:60px;""> </div>","null","LF","learning/Slide112.JPG","This is a wug:","",""
"","html-keyboard-response","344","891096","0.0-8.0-0.32","LF","wg3u6jr0nh","1536","864","en","ic07ir25","null","","","","learningBlock2","","","","This is a tob:","null","","","","",""
"","image-keyboard-response","345","891423","0.0-8.0-1.32","LF","wg3u6jr0nh","1536","864","en","ic07ir25","null","","","","","","","","learning/Slide113.JPG","null","","","","",""
"","html-keyboard-response","346","892424","0.0-8.0-2.32","LF","wg3u6jr0nh","1536","864","en","ic07ir25","null","","","","learningBlock2","","","","<div style=""font-size:60px;""> </div>","null","LF","learning/Slide113.JPG","This is a tob:","",""
"","html-keyboard-response","347","893424","0.0-8.0-0.33","LF","wg3u6jr0nh","1536","864","en","ic07ir25","null","","","","learningBlock2","","","","This is a wug:","null","","","","",""
"","image-keyboard-response","348","893751","0.0-8.0-1.33","LF","wg3u6jr0nh","1536","864","en","ic07ir25","null","","","","","","","","learning/Slide114.JPG","null","","","","",""
"","html-keyboard-response","349","894754","0.0-8.0-2.33","LF","wg3u6jr0nh","1536","864","en","ic07ir25","null","","","","learningBlock2","","","","<div style=""font-size:60px;""> </div>","null","LF","learning/Slide114.JPG","This is a wug:","",""
"","html-keyboard-response","350","895756","0.0-8.0-0.34","LF","wg3u6jr0nh","1536","864","en","ic07ir25","null","","","","learningBlock2","","","","This is a bim:","null","","","","",""
"","image-keyboard-response","351","896083","0.0-8.0-1.34","LF","wg3u6jr0nh","1536","864","en","ic07ir25","null","","","","","","","","learning/Slide115.JPG","null","","","","",""
"","html-keyboard-response","352","897085","0.0-8.0-2.34","LF","wg3u6jr0nh","1536","864","en","ic07ir25","null","","","","learningBlock2","","","","<div style=""font-size:60px;""> </div>","null","LF","learning/Slide115.JPG","This is a bim:","",""
"","html-keyboard-response","353","898086","0.0-8.0-0.35","LF","wg3u6jr0nh","1536","864","en","ic07ir25","null","","","","learningBlock2","","","","This is a dep:","null","","","","",""
"","image-keyboard-response","354","898413","0.0-8.0-1.35","LF","wg3u6jr0nh","1536","864","en","ic07ir25","null","","","","","","","","learning/Slide116.JPG","null","","","","",""
"","html-keyboard-response","355","899415","0.0-8.0-2.35","LF","wg3u6jr0nh","1536","864","en","ic07ir25","null","","","","learningBlock2","","","","<div style=""font-size:60px;""> </div>","null","LF","learning/Slide116.JPG","This is a dep:","",""
"","html-keyboard-response","356","900417","0.0-8.0-0.36","LF","wg3u6jr0nh","1536","864","en","ic07ir25","null","","","","learningBlock2","","","","This is a tob:","null","","","","",""
"","image-keyboard-response","357","900745","0.0-8.0-1.36","LF","wg3u6jr0nh","1536","864","en","ic07ir25","null","","","","","","","","learning/Slide117.JPG","null","","","","",""
"","html-keyboard-response","358","901747","0.0-8.0-2.36","LF","wg3u6jr0nh","1536","864","en","ic07ir25","null","","","","learningBlock2","","","","<div style=""font-size:60px;""> </div>","null","LF","learning/Slide117.JPG","This is a tob:","",""
"","html-keyboard-response","359","902748","0.0-8.0-0.37","LF","wg3u6jr0nh","1536","864","en","ic07ir25","null","","","","learningBlock2","","","","This is a dep:","null","","","","",""
"","image-keyboard-response","360","903075","0.0-8.0-1.37","LF","wg3u6jr0nh","1536","864","en","ic07ir25","null","","","","","","","","learning/Slide118.JPG","null","","","","",""
"","html-keyboard-response","361","904077","0.0-8.0-2.37","LF","wg3u6jr0nh","1536","864","en","ic07ir25","null","","","","learningBlock2","","","","<div style=""font-size:60px;""> </div>","null","LF","learning/Slide118.JPG","This is a dep:","",""
"","html-keyboard-response","362","905078","0.0-8.0-0.38","LF","wg3u6jr0nh","1536","864","en","ic07ir25","null","","","","learningBlock2","","","","This is a wug:","null","","","","",""
"","image-keyboard-response","363","905406","0.0-8.0-1.38","LF","wg3u6jr0nh","1536","864","en","ic07ir25","null","","","","","","","","learning/Slide119.JPG","null","","","","",""
"","html-keyboard-response","364","906406","0.0-8.0-2.38","LF","wg3u6jr0nh","1536","864","en","ic07ir25","null","","","","learningBlock2","","","","<div style=""font-size:60px;""> </div>","null","LF","learning/Slide119.JPG","This is a wug:","",""
"","html-keyboard-response","365","907406","0.0-8.0-0.39","LF","wg3u6jr0nh","1536","864","en","ic07ir25","null","","","","learningBlock2","","","","This is a dep:","null","","","","",""
"","image-keyboard-response","366","907736","0.0-8.0-1.39","LF","wg3u6jr0nh","1536","864","en","ic07ir25","null","","","","","","","","learning/Slide120.JPG","null","","","","",""
"","html-keyboard-response","367","908736","0.0-8.0-2.39","LF","wg3u6jr0nh","1536","864","en","ic07ir25","null","","","","learningBlock2","","","","<div style=""font-size:60px;""> </div>","null","LF","learning/Slide120.JPG","This is a dep:","",""
"","html-keyboard-response","368","909738","0.0-8.0-0.40","LF","wg3u6jr0nh","1536","864","en","ic07ir25","null","","","","learningBlock2","","","","This is a bim:","null","","","","",""
"","image-keyboard-response","369","910065","0.0-8.0-1.40","LF","wg3u6jr0nh","1536","864","en","ic07ir25","null","","","","","","","","learning/Slide121.JPG","null","","","","",""
"","html-keyboard-response","370","911066","0.0-8.0-2.40","LF","wg3u6jr0nh","1536","864","en","ic07ir25","null","","","","learningBlock2","","","","<div style=""font-size:60px;""> </div>","null","LF","learning/Slide121.JPG","This is a bim:","",""
"","html-keyboard-response","371","912067","0.0-8.0-0.41","LF","wg3u6jr0nh","1536","864","en","ic07ir25","null","","","","learningBlock2","","","","This is a wug:","null","","","","",""
"","image-keyboard-response","372","912393","0.0-8.0-1.41","LF","wg3u6jr0nh","1536","864","en","ic07ir25","null","","","","","","","","learning/Slide122.JPG","null","","","","",""
"","html-keyboard-response","373","913394","0.0-8.0-2.41","LF","wg3u6jr0nh","1536","864","en","ic07ir25","null","","","","learningBlock2","","","","<div style=""font-size:60px;""> </div>","null","LF","learning/Slide122.JPG","This is a wug:","",""
"","html-keyboard-response","374","914395","0.0-8.0-0.42","LF","wg3u6jr0nh","1536","864","en","ic07ir25","null","","","","learningBlock2","","","","This is a bim:","null","","","","",""
"","image-keyboard-response","375","914723","0.0-8.0-1.42","LF","wg3u6jr0nh","1536","864","en","ic07ir25","null","","","","","","","","learning/Slide123.JPG","null","","","","",""
"","html-keyboard-response","376","915723","0.0-8.0-2.42","LF","wg3u6jr0nh","1536","864","en","ic07ir25","null","","","","learningBlock2","","","","<div style=""font-size:60px;""> </div>","null","LF","learning/Slide123.JPG","This is a bim:","",""
"","html-keyboard-response","377","916725","0.0-8.0-0.43","LF","wg3u6jr0nh","1536","864","en","ic07ir25","null","","","","learningBlock2","","","","This is a tob:","null","","","","",""
"","image-keyboard-response","378","917051","0.0-8.0-1.43","LF","wg3u6jr0nh","1536","864","en","ic07ir25","null","","","","","","","","learning/Slide124.JPG","null","","","","",""
"","html-keyboard-response","379","918053","0.0-8.0-2.43","LF","wg3u6jr0nh","1536","864","en","ic07ir25","null","","","","learningBlock2","","","","<div style=""font-size:60px;""> </div>","null","LF","learning/Slide124.JPG","This is a tob:","",""
"","html-keyboard-response","380","919054","0.0-8.0-0.44","LF","wg3u6jr0nh","1536","864","en","ic07ir25","null","","","","learningBlock2","","","","This is a bim:","null","","","","",""
"","image-keyboard-response","381","919382","0.0-8.0-1.44","LF","wg3u6jr0nh","1536","864","en","ic07ir25","null","","","","","","","","learning/Slide125.JPG","null","","","","",""
"","html-keyboard-response","382","920384","0.0-8.0-2.44","LF","wg3u6jr0nh","1536","864","en","ic07ir25","null","","","","learningBlock2","","","","<div style=""font-size:60px;""> </div>","null","LF","learning/Slide125.JPG","This is a bim:","",""
"","html-keyboard-response","383","921384","0.0-8.0-0.45","LF","wg3u6jr0nh","1536","864","en","ic07ir25","null","","","","learningBlock2","","","","This is a tob:","null","","","","",""
"","image-keyboard-response","384","921712","0.0-8.0-1.45","LF","wg3u6jr0nh","1536","864","en","ic07ir25","null","","","","","","","","learning/Slide126.JPG","null","","","","",""
"","html-keyboard-response","385","922713","0.0-8.0-2.45","LF","wg3u6jr0nh","1536","864","en","ic07ir25","null","","","","learningBlock2","","","","<div style=""font-size:60px;""> </div>","null","LF","learning/Slide126.JPG","This is a tob:","",""
"","html-keyboard-response","386","923715","0.0-8.0-0.46","LF","wg3u6jr0nh","1536","864","en","ic07ir25","null","","","","learningBlock2","","","","This is a dep:","null","","","","",""
"","image-keyboard-response","387","924042","0.0-8.0-1.46","LF","wg3u6jr0nh","1536","864","en","ic07ir25","null","","","","","","","","learning/Slide127.JPG","null","","","","",""
"","html-keyboard-response","388","925044","0.0-8.0-2.46","LF","wg3u6jr0nh","1536","864","en","ic07ir25","null","","","","learningBlock2","","","","<div style=""font-size:60px;""> </div>","null","LF","learning/Slide127.JPG","This is a dep:","",""
"","html-keyboard-response","389","926045","0.0-8.0-0.47","LF","wg3u6jr0nh","1536","864","en","ic07ir25","null","","","","learningBlock2","","","","This is a wug:","null","","","","",""
"","image-keyboard-response","390","926372","0.0-8.0-1.47","LF","wg3u6jr0nh","1536","864","en","ic07ir25","null","","","","","","","","learning/Slide128.JPG","null","","","","",""
"","html-keyboard-response","391","927374","0.0-8.0-2.47","LF","wg3u6jr0nh","1536","864","en","ic07ir25","null","","","","learningBlock2","","","","<div style=""font-size:60px;""> </div>","null","LF","learning/Slide128.JPG","This is a wug:","",""
"","html-keyboard-response","392","928376","0.0-8.0-0.48","LF","wg3u6jr0nh","1536","864","en","ic07ir25","null","","","","learningBlock2","","","","This is a tob:","null","","","","",""
"","image-keyboard-response","393","928702","0.0-8.0-1.48","LF","wg3u6jr0nh","1536","864","en","ic07ir25","null","","","","","","","","learning/Slide129.JPG","null","","","","",""
"","html-keyboard-response","394","929703","0.0-8.0-2.48","LF","wg3u6jr0nh","1536","864","en","ic07ir25","null","","","","learningBlock2","","","","<div style=""font-size:60px;""> </div>","null","LF","learning/Slide129.JPG","This is a tob:","",""
"","html-keyboard-response","395","930705","0.0-8.0-0.49","LF","wg3u6jr0nh","1536","864","en","ic07ir25","null","","","","learningBlock2","","","","This is a wug:","null","","","","",""
"","image-keyboard-response","396","931031","0.0-8.0-1.49","LF","wg3u6jr0nh","1536","864","en","ic07ir25","null","","","","","","","","learning/Slide130.JPG","null","","","","",""
"","html-keyboard-response","397","932033","0.0-8.0-2.49","LF","wg3u6jr0nh","1536","864","en","ic07ir25","null","","","","learningBlock2","","","","<div style=""font-size:60px;""> </div>","null","LF","learning/Slide130.JPG","This is a wug:","",""
"","html-keyboard-response","398","933034","0.0-8.0-0.50","LF","wg3u6jr0nh","1536","864","en","ic07ir25","null","","","","learningBlock2","","","","This is a bim:","null","","","","",""
"","image-keyboard-response","399","933361","0.0-8.0-1.50","LF","wg3u6jr0nh","1536","864","en","ic07ir25","null","","","","","","","","learning/Slide131.JPG","null","","","","",""
"","html-keyboard-response","400","934362","0.0-8.0-2.50","LF","wg3u6jr0nh","1536","864","en","ic07ir25","null","","","","learningBlock2","","","","<div style=""font-size:60px;""> </div>","null","LF","learning/Slide131.JPG","This is a bim:","",""
"","html-keyboard-response","401","935363","0.0-8.0-0.51","LF","wg3u6jr0nh","1536","864","en","ic07ir25","null","","","","learningBlock2","","","","This is a dep:","null","","","","",""
"","image-keyboard-response","402","935689","0.0-8.0-1.51","LF","wg3u6jr0nh","1536","864","en","ic07ir25","null","","","","","","","","learning/Slide132.JPG","null","","","","",""
"","html-keyboard-response","403","936691","0.0-8.0-2.51","LF","wg3u6jr0nh","1536","864","en","ic07ir25","null","","","","learningBlock2","","","","<div style=""font-size:60px;""> </div>","null","LF","learning/Slide132.JPG","This is a dep:","",""
"","html-keyboard-response","404","937691","0.0-8.0-0.52","LF","wg3u6jr0nh","1536","864","en","ic07ir25","null","","","","learningBlock2","","","","This is a tob:","null","","","","",""
"","image-keyboard-response","405","938018","0.0-8.0-1.52","LF","wg3u6jr0nh","1536","864","en","ic07ir25","null","","","","","","","","learning/Slide133.JPG","null","","","","",""
"","html-keyboard-response","406","939020","0.0-8.0-2.52","LF","wg3u6jr0nh","1536","864","en","ic07ir25","null","","","","learningBlock2","","","","<div style=""font-size:60px;""> </div>","null","LF","learning/Slide133.JPG","This is a tob:","",""
"","html-keyboard-response","407","940020","0.0-8.0-0.53","LF","wg3u6jr0nh","1536","864","en","ic07ir25","null","","","","learningBlock2","","","","This is a dep:","null","","","","",""
"","image-keyboard-response","408","940349","0.0-8.0-1.53","LF","wg3u6jr0nh","1536","864","en","ic07ir25","null","","","","","","","","learning/Slide134.JPG","null","","","","",""
"","html-keyboard-response","409","941351","0.0-8.0-2.53","LF","wg3u6jr0nh","1536","864","en","ic07ir25","null","","","","learningBlock2","","","","<div style=""font-size:60px;""> </div>","null","LF","learning/Slide134.JPG","This is a dep:","",""
"","html-keyboard-response","410","942352","0.0-8.0-0.54","LF","wg3u6jr0nh","1536","864","en","ic07ir25","null","","","","learningBlock2","","","","This is a tob:","null","","","","",""
"","image-keyboard-response","411","942679","0.0-8.0-1.54","LF","wg3u6jr0nh","1536","864","en","ic07ir25","null","","","","","","","","learning/Slide135.JPG","null","","","","",""
"","html-keyboard-response","412","943680","0.0-8.0-2.54","LF","wg3u6jr0nh","1536","864","en","ic07ir25","null","","","","learningBlock2","","","","<div style=""font-size:60px;""> </div>","null","LF","learning/Slide135.JPG","This is a tob:","",""
"","html-keyboard-response","413","944683","0.0-8.0-0.55","LF","wg3u6jr0nh","1536","864","en","ic07ir25","null","","","","learningBlock2","","","","This is a wug:","null","","","","",""
"","image-keyboard-response","414","945010","0.0-8.0-1.55","LF","wg3u6jr0nh","1536","864","en","ic07ir25","null","","","","","","","","learning/Slide136.JPG","null","","","","",""
"","html-keyboard-response","415","946011","0.0-8.0-2.55","LF","wg3u6jr0nh","1536","864","en","ic07ir25","null","","","","learningBlock2","","","","<div style=""font-size:60px;""> </div>","null","LF","learning/Slide136.JPG","This is a wug:","",""
"","html-keyboard-response","416","947014","0.0-8.0-0.56","LF","wg3u6jr0nh","1536","864","en","ic07ir25","null","","","","learningBlock2","","","","This is a tob:","null","","","","",""
"","image-keyboard-response","417","947340","0.0-8.0-1.56","LF","wg3u6jr0nh","1536","864","en","ic07ir25","null","","","","","","","","learning/Slide137.JPG","null","","","","",""
"","html-keyboard-response","418","948343","0.0-8.0-2.56","LF","wg3u6jr0nh","1536","864","en","ic07ir25","null","","","","learningBlock2","","","","<div style=""font-size:60px;""> </div>","null","LF","learning/Slide137.JPG","This is a tob:","",""
"","html-keyboard-response","419","949344","0.0-8.0-0.57","LF","wg3u6jr0nh","1536","864","en","ic07ir25","null","","","","learningBlock2","","","","This is a bim:","null","","","","",""
"","image-keyboard-response","420","949672","0.0-8.0-1.57","LF","wg3u6jr0nh","1536","864","en","ic07ir25","null","","","","","","","","learning/Slide138.JPG","null","","","","",""
"","html-keyboard-response","421","950673","0.0-8.0-2.57","LF","wg3u6jr0nh","1536","864","en","ic07ir25","null","","","","learningBlock2","","","","<div style=""font-size:60px;""> </div>","null","LF","learning/Slide138.JPG","This is a bim:","",""
"","html-keyboard-response","422","951676","0.0-8.0-0.58","LF","wg3u6jr0nh","1536","864","en","ic07ir25","null","","","","learningBlock2","","","","This is a wug:","null","","","","",""
"","image-keyboard-response","423","952001","0.0-8.0-1.58","LF","wg3u6jr0nh","1536","864","en","ic07ir25","null","","","","","","","","learning/Slide139.JPG","null","","","","",""
"","html-keyboard-response","424","953002","0.0-8.0-2.58","LF","wg3u6jr0nh","1536","864","en","ic07ir25","null","","","","learningBlock2","","","","<div style=""font-size:60px;""> </div>","null","LF","learning/Slide139.JPG","This is a wug:","",""
"","html-keyboard-response","425","954005","0.0-8.0-0.59","LF","wg3u6jr0nh","1536","864","en","ic07ir25","null","","","","learningBlock2","","","","This is a dep:","null","","","","",""
"","image-keyboard-response","426","954332","0.0-8.0-1.59","LF","wg3u6jr0nh","1536","864","en","ic07ir25","null","","","","","","","","learning/Slide140.JPG","null","","","","",""
"","html-keyboard-response","427","955332","0.0-8.0-2.59","LF","wg3u6jr0nh","1536","864","en","ic07ir25","null","","","","learningBlock2","","","","<div style=""font-size:60px;""> </div>","null","LF","learning/Slide140.JPG","This is a dep:","",""
"","html-keyboard-response","428","956334","0.0-8.0-0.60","LF","wg3u6jr0nh","1536","864","en","ic07ir25","null","","","","learningBlock2","","","","This is a tob:","null","","","","",""
"","image-keyboard-response","429","956662","0.0-8.0-1.60","LF","wg3u6jr0nh","1536","864","en","ic07ir25","null","","","","","","","","learning/Slide141.JPG","null","","","","",""
"","html-keyboard-response","430","957662","0.0-8.0-2.60","LF","wg3u6jr0nh","1536","864","en","ic07ir25","null","","","","learningBlock2","","","","<div style=""font-size:60px;""> </div>","null","LF","learning/Slide141.JPG","This is a tob:","",""
"","html-keyboard-response","431","958663","0.0-8.0-0.61","LF","wg3u6jr0nh","1536","864","en","ic07ir25","null","","","","learningBlock2","","","","This is a wug:","null","","","","",""
"","image-keyboard-response","432","958990","0.0-8.0-1.61","LF","wg3u6jr0nh","1536","864","en","ic07ir25","null","","","","","","","","learning/Slide142.JPG","null","","","","",""
"","html-keyboard-response","433","959991","0.0-8.0-2.61","LF","wg3u6jr0nh","1536","864","en","ic07ir25","null","","","","learningBlock2","","","","<div style=""font-size:60px;""> </div>","null","LF","learning/Slide142.JPG","This is a wug:","",""
"","html-keyboard-response","434","960992","0.0-8.0-0.62","LF","wg3u6jr0nh","1536","864","en","ic07ir25","null","","","","learningBlock2","","","","This is a bim:","null","","","","",""
"","image-keyboard-response","435","961319","0.0-8.0-1.62","LF","wg3u6jr0nh","1536","864","en","ic07ir25","null","","","","","","","","learning/Slide143.JPG","null","","","","",""
"","html-keyboard-response","436","962321","0.0-8.0-2.62","LF","wg3u6jr0nh","1536","864","en","ic07ir25","null","","","","learningBlock2","","","","<div style=""font-size:60px;""> </div>","null","LF","learning/Slide143.JPG","This is a bim:","",""
"","html-keyboard-response","437","963322","0.0-8.0-0.63","LF","wg3u6jr0nh","1536","864","en","ic07ir25","null","","","","learningBlock2","","","","This is a dep:","null","","","","",""
"","image-keyboard-response","438","963651","0.0-8.0-1.63","LF","wg3u6jr0nh","1536","864","en","ic07ir25","null","","","","","","","","learning/Slide144.JPG","null","","","","",""
"","html-keyboard-response","439","964651","0.0-8.0-2.63","LF","wg3u6jr0nh","1536","864","en","ic07ir25","null","","","","learningBlock2","","","","<div style=""font-size:60px;""> </div>","null","LF","learning/Slide144.JPG","This is a dep:","",""
"","html-keyboard-response","440","965654","0.0-8.0-0.64","LF","wg3u6jr0nh","1536","864","en","ic07ir25","null","","","","learningBlock2","","","","This is a bim:","null","","","","",""
"","image-keyboard-response","441","965981","0.0-8.0-1.64","LF","wg3u6jr0nh","1536","864","en","ic07ir25","null","","","","","","","","learning/Slide145.JPG","null","","","","",""
"","html-keyboard-response","442","966982","0.0-8.0-2.64","LF","wg3u6jr0nh","1536","864","en","ic07ir25","null","","","","learningBlock2","","","","<div style=""font-size:60px;""> </div>","null","LF","learning/Slide145.JPG","This is a bim:","",""
"","html-keyboard-response","443","967983","0.0-8.0-0.65","LF","wg3u6jr0nh","1536","864","en","ic07ir25","null","","","","learningBlock2","","","","This is a tob:","null","","","","",""
"","image-keyboard-response","444","968310","0.0-8.0-1.65","LF","wg3u6jr0nh","1536","864","en","ic07ir25","null","","","","","","","","learning/Slide146.JPG","null","","","","",""
"","html-keyboard-response","445","969312","0.0-8.0-2.65","LF","wg3u6jr0nh","1536","864","en","ic07ir25","null","","","","learningBlock2","","","","<div style=""font-size:60px;""> </div>","null","LF","learning/Slide146.JPG","This is a tob:","",""
"","html-keyboard-response","446","970313","0.0-8.0-0.66","LF","wg3u6jr0nh","1536","864","en","ic07ir25","null","","","","learningBlock2","","","","This is a wug:","null","","","","",""
"","image-keyboard-response","447","970640","0.0-8.0-1.66","LF","wg3u6jr0nh","1536","864","en","ic07ir25","null","","","","","","","","learning/Slide147.JPG","null","","","","",""
"","html-keyboard-response","448","971641","0.0-8.0-2.66","LF","wg3u6jr0nh","1536","864","en","ic07ir25","null","","","","learningBlock2","","","","<div style=""font-size:60px;""> </div>","null","LF","learning/Slide147.JPG","This is a wug:","",""
"","html-keyboard-response","449","972643","0.0-8.0-0.67","LF","wg3u6jr0nh","1536","864","en","ic07ir25","null","","","","learningBlock2","","","","This is a bim:","null","","","","",""
"","image-keyboard-response","450","972971","0.0-8.0-1.67","LF","wg3u6jr0nh","1536","864","en","ic07ir25","null","","","","","","","","learning/Slide148.JPG","null","","","","",""
"","html-keyboard-response","451","973972","0.0-8.0-2.67","LF","wg3u6jr0nh","1536","864","en","ic07ir25","null","","","","learningBlock2","","","","<div style=""font-size:60px;""> </div>","null","LF","learning/Slide148.JPG","This is a bim:","",""
"","html-keyboard-response","452","974973","0.0-8.0-0.68","LF","wg3u6jr0nh","1536","864","en","ic07ir25","null","","","","learningBlock2","","","","This is a dep:","null","","","","",""
"","image-keyboard-response","453","975300","0.0-8.0-1.68","LF","wg3u6jr0nh","1536","864","en","ic07ir25","null","","","","","","","","learning/Slide149.JPG","null","","","","",""
"","html-keyboard-response","454","976301","0.0-8.0-2.68","LF","wg3u6jr0nh","1536","864","en","ic07ir25","null","","","","learningBlock2","","","","<div style=""font-size:60px;""> </div>","null","LF","learning/Slide149.JPG","This is a dep:","",""
"","html-keyboard-response","455","977304","0.0-8.0-0.69","LF","wg3u6jr0nh","1536","864","en","ic07ir25","null","","","","learningBlock2","","","","This is a wug:","null","","","","",""
"","image-keyboard-response","456","977632","0.0-8.0-1.69","LF","wg3u6jr0nh","1536","864","en","ic07ir25","null","","","","","","","","learning/Slide150.JPG","null","","","","",""
"","html-keyboard-response","457","978632","0.0-8.0-2.69","LF","wg3u6jr0nh","1536","864","en","ic07ir25","null","","","","learningBlock2","","","","<div style=""font-size:60px;""> </div>","null","LF","learning/Slide150.JPG","This is a wug:","",""
"","html-keyboard-response","458","979634","0.0-8.0-0.70","LF","wg3u6jr0nh","1536","864","en","ic07ir25","null","","","","learningBlock2","","","","This is a dep:","null","","","","",""
"","image-keyboard-response","459","979962","0.0-8.0-1.70","LF","wg3u6jr0nh","1536","864","en","ic07ir25","null","","","","","","","","learning/Slide151.JPG","null","","","","",""
"","html-keyboard-response","460","980962","0.0-8.0-2.70","LF","wg3u6jr0nh","1536","864","en","ic07ir25","null","","","","learningBlock2","","","","<div style=""font-size:60px;""> </div>","null","LF","learning/Slide151.JPG","This is a dep:","",""
"","html-keyboard-response","461","981964","0.0-8.0-0.71","LF","wg3u6jr0nh","1536","864","en","ic07ir25","null","","","","learningBlock2","","","","This is a wug:","null","","","","",""
"","image-keyboard-response","462","982292","0.0-8.0-1.71","LF","wg3u6jr0nh","1536","864","en","ic07ir25","null","","","","","","","","learning/Slide152.JPG","null","","","","",""
"","html-keyboard-response","463","983293","0.0-8.0-2.71","LF","wg3u6jr0nh","1536","864","en","ic07ir25","null","","","","learningBlock2","","","","<div style=""font-size:60px;""> </div>","null","LF","learning/Slide152.JPG","This is a wug:","",""
"","html-keyboard-response","464","984294","0.0-8.0-0.72","LF","wg3u6jr0nh","1536","864","en","ic07ir25","null","","","","learningBlock2","","","","This is a bim:","null","","","","",""
"","image-keyboard-response","465","984620","0.0-8.0-1.72","LF","wg3u6jr0nh","1536","864","en","ic07ir25","null","","","","","","","","learning/Slide153.JPG","null","","","","",""
"","html-keyboard-response","466","985622","0.0-8.0-2.72","LF","wg3u6jr0nh","1536","864","en","ic07ir25","null","","","","learningBlock2","","","","<div style=""font-size:60px;""> </div>","null","LF","learning/Slide153.JPG","This is a bim:","",""
"","html-keyboard-response","467","986624","0.0-8.0-0.73","LF","wg3u6jr0nh","1536","864","en","ic07ir25","null","","","","learningBlock2","","","","This is a tob:","null","","","","",""
"","image-keyboard-response","468","986951","0.0-8.0-1.73","LF","wg3u6jr0nh","1536","864","en","ic07ir25","null","","","","","","","","learning/Slide154.JPG","null","","","","",""
"","html-keyboard-response","469","987953","0.0-8.0-2.73","LF","wg3u6jr0nh","1536","864","en","ic07ir25","null","","","","learningBlock2","","","","<div style=""font-size:60px;""> </div>","null","LF","learning/Slide154.JPG","This is a tob:","",""
"","html-keyboard-response","470","988954","0.0-8.0-0.74","LF","wg3u6jr0nh","1536","864","en","ic07ir25","null","","","","learningBlock2","","","","This is a dep:","null","","","","",""
"","image-keyboard-response","471","989280","0.0-8.0-1.74","LF","wg3u6jr0nh","1536","864","en","ic07ir25","null","","","","","","","","learning/Slide155.JPG","null","","","","",""
"","html-keyboard-response","472","990281","0.0-8.0-2.74","LF","wg3u6jr0nh","1536","864","en","ic07ir25","null","","","","learningBlock2","","","","<div style=""font-size:60px;""> </div>","null","LF","learning/Slide155.JPG","This is a dep:","",""
"","html-keyboard-response","473","991281","0.0-8.0-0.75","LF","wg3u6jr0nh","1536","864","en","ic07ir25","null","","","","learningBlock2","","","","This is a bim:","null","","","","",""
"","image-keyboard-response","474","991608","0.0-8.0-1.75","LF","wg3u6jr0nh","1536","864","en","ic07ir25","null","","","","","","","","learning/Slide156.JPG","null","","","","",""
"","html-keyboard-response","475","992610","0.0-8.0-2.75","LF","wg3u6jr0nh","1536","864","en","ic07ir25","null","","","","learningBlock2","","","","<div style=""font-size:60px;""> </div>","null","LF","learning/Slide156.JPG","This is a bim:","",""
"","html-keyboard-response","476","993611","0.0-8.0-0.76","LF","wg3u6jr0nh","1536","864","en","ic07ir25","null","","","","learningBlock2","","","","This is a dep:","null","","","","",""
"","image-keyboard-response","477","993939","0.0-8.0-1.76","LF","wg3u6jr0nh","1536","864","en","ic07ir25","null","","","","","","","","learning/Slide157.JPG","null","","","","",""
"","html-keyboard-response","478","994940","0.0-8.0-2.76","LF","wg3u6jr0nh","1536","864","en","ic07ir25","null","","","","learningBlock2","","","","<div style=""font-size:60px;""> </div>","null","LF","learning/Slide157.JPG","This is a dep:","",""
"","html-keyboard-response","479","995942","0.0-8.0-0.77","LF","wg3u6jr0nh","1536","864","en","ic07ir25","null","","","","learningBlock2","","","","This is a tob:","null","","","","",""
"","image-keyboard-response","480","996270","0.0-8.0-1.77","LF","wg3u6jr0nh","1536","864","en","ic07ir25","null","","","","","","","","learning/Slide158.JPG","null","","","","",""
"","html-keyboard-response","481","997271","0.0-8.0-2.77","LF","wg3u6jr0nh","1536","864","en","ic07ir25","null","","","","learningBlock2","","","","<div style=""font-size:60px;""> </div>","null","LF","learning/Slide158.JPG","This is a tob:","",""
"","html-keyboard-response","482","998273","0.0-8.0-0.78","LF","wg3u6jr0nh","1536","864","en","ic07ir25","null","","","","learningBlock2","","","","This is a dep:","null","","","","",""
"","image-keyboard-response","483","998600","0.0-8.0-1.78","LF","wg3u6jr0nh","1536","864","en","ic07ir25","null","","","","","","","","learning/Slide159.JPG","null","","","","",""
"","html-keyboard-response","484","999602","0.0-8.0-2.78","LF","wg3u6jr0nh","1536","864","en","ic07ir25","null","","","","learningBlock2","","","","<div style=""font-size:60px;""> </div>","null","LF","learning/Slide159.JPG","This is a dep:","",""
"","html-keyboard-response","485","1000602","0.0-8.0-0.79","LF","wg3u6jr0nh","1536","864","en","ic07ir25","null","","","","learningBlock2","","","","This is a wug:","null","","","","",""
"","image-keyboard-response","486","1000929","0.0-8.0-1.79","LF","wg3u6jr0nh","1536","864","en","ic07ir25","null","","","","","","","","learning/Slide160.JPG","null","","","","",""
"","html-keyboard-response","487","1001931","0.0-8.0-2.79","LF","wg3u6jr0nh","1536","864","en","ic07ir25","null","","","","learningBlock2","","","","<div style=""font-size:60px;""> </div>","null","LF","learning/Slide160.JPG","This is a wug:","",""
"","resize2","488","1042839","0.0-9.0","LF","wg3u6jr0nh","1536","864","en","ic07ir25","","","","","","","103","1.03","","","","","","",""
"","instructions","489","1050045","0.0-10.0","LF","wg3u6jr0nh","1536","864","en","ic07ir25","NA","","","[{""page_index"":0,""viewing_time"":7205}]","instructions","","","","","","","","","",""
"","html-keyboard-response","490","1051046","0.0-11.0-0.0","LF","wg3u6jr0nh","1536","864","en","ic07ir25","null","","","","","","","","<div style=""font-size:60px;"">+</div>","null","","","","",""
