"success","trial_type","trial_index","time_elapsed","internal_node_id","condition","subject","screen_width","screen_height","language","codeword","rt","responses","url","view_history","test_part","final_height_px","final_width_px","scale_factor","stimulus","key_press","learningType","presentedImage","presentedLabel","button_pressed","response"
"true","fullscreen","0","2730","0.0-0.0","LF","gjq6le86au","1536","864","en","NG09US28","","","","","","","","","","","","","","",""
"","survey-html-form","1","5144","0.0-1.0","LF","gjq6le86au","1536","864","en","NG09US28","2404.5949999708682","{""language"":""en""}","","","","","","","","","","","","",""
"","external-html","2","16173","0.0-3.0-0.0","LF","gjq6le86au","1536","864","en","NG09US28","10983.62499999348","","text/information_english.html","","","","","","","","","","","",""
"","external-html","3","30530","0.0-3.0-1.0","LF","gjq6le86au","1536","864","en","NG09US28","14278.860000020359","","text/consent_english.html","","","","","","","","","","","",""
"","survey-html-form","4","56680","0.0-3.0-2.0","LF","gjq6le86au","1536","864","en","NG09US28","26143.734999990556","{""codeword_enter"":""NG09US28""}","","","","","","","","","","","","",""
"","instructions","5","340992","0.0-4.0","LF","gjq6le86au","1536","864","en","NG09US28","NA","","","[{""page_index"":0,""viewing_time"":12319.510000001173},{""page_index"":1,""viewing_time"":270485.2550000069}]","instructions","","","","","","","","","",""
"","resize","6","411691","0.0-5.0","LF","gjq6le86au","1536","864","en","NG09US28","","","","","","","376","2.3873015873015873","","","","","","",""
"","html-keyboard-response","7","412703","0.0-6.0-0.0","LF","gjq6le86au","1536","864","en","NG09US28","null","","","","learningBlock1","","","","This is a tob:","null","","","","",""
"","image-keyboard-response","8","413046","0.0-6.0-1.0","LF","gjq6le86au","1536","864","en","NG09US28","null","","","","","","","","learning/Slide1.JPG","null","","","","",""
"","html-keyboard-response","9","414055","0.0-6.0-2.0","LF","gjq6le86au","1536","864","en","NG09US28","null","","","","learningBlock1","","","","<div style=""font-size:60px;""> </div>","null","LF","learning/Slide1.JPG","This is a tob:","",""
"","html-keyboard-response","10","415070","0.0-6.0-0.1","LF","gjq6le86au","1536","864","en","NG09US28","null","","","","learningBlock1","","","","This is a wug:","null","","","","",""
"","image-keyboard-response","11","415411","0.0-6.0-1.1","LF","gjq6le86au","1536","864","en","NG09US28","null","","","","","","","","learning/Slide2.JPG","null","","","","",""
"","html-keyboard-response","12","416422","0.0-6.0-2.1","LF","gjq6le86au","1536","864","en","NG09US28","null","","","","learningBlock1","","","","<div style=""font-size:60px;""> </div>","null","LF","learning/Slide2.JPG","This is a wug:","",""
"","html-keyboard-response","13","417432","0.0-6.0-0.2","LF","gjq6le86au","1536","864","en","NG09US28","null","","","","learningBlock1","","","","This is a bim:","null","","","","",""
"","image-keyboard-response","14","417775","0.0-6.0-1.2","LF","gjq6le86au","1536","864","en","NG09US28","null","","","","","","","","learning/Slide3.JPG","null","","","","",""
"","html-keyboard-response","15","418790","0.0-6.0-2.2","LF","gjq6le86au","1536","864","en","NG09US28","null","","","","learningBlock1","","","","<div style=""font-size:60px;""> </div>","null","LF","learning/Slide3.JPG","This is a bim:","",""
"","html-keyboard-response","16","419808","0.0-6.0-0.3","LF","gjq6le86au","1536","864","en","NG09US28","null","","","","learningBlock1","","","","This is a dep:","null","","","","",""
"","image-keyboard-response","17","420148","0.0-6.0-1.3","LF","gjq6le86au","1536","864","en","NG09US28","null","","","","","","","","learning/Slide4.JPG","null","","","","",""
"","html-keyboard-response","18","421164","0.0-6.0-2.3","LF","gjq6le86au","1536","864","en","NG09US28","null","","","","learningBlock1","","","","<div style=""font-size:60px;""> </div>","null","LF","learning/Slide4.JPG","This is a dep:","",""
"","html-keyboard-response","19","422177","0.0-6.0-0.4","LF","gjq6le86au","1536","864","en","NG09US28","null","","","","learningBlock1","","","","This is a wug:","null","","","","",""
"","image-keyboard-response","20","422518","0.0-6.0-1.4","LF","gjq6le86au","1536","864","en","NG09US28","null","","","","","","","","learning/Slide5.JPG","null","","","","",""
"","html-keyboard-response","21","423530","0.0-6.0-2.4","LF","gjq6le86au","1536","864","en","NG09US28","null","","","","learningBlock1","","","","<div style=""font-size:60px;""> </div>","null","LF","learning/Slide5.JPG","This is a wug:","",""
"","html-keyboard-response","22","424540","0.0-6.0-0.5","LF","gjq6le86au","1536","864","en","NG09US28","null","","","","learningBlock1","","","","This is a dep:","null","","","","",""
"","image-keyboard-response","23","424872","0.0-6.0-1.5","LF","gjq6le86au","1536","864","en","NG09US28","null","","","","","","","","learning/Slide6.JPG","null","","","","",""
"","html-keyboard-response","24","425880","0.0-6.0-2.5","LF","gjq6le86au","1536","864","en","NG09US28","null","","","","learningBlock1","","","","<div style=""font-size:60px;""> </div>","null","LF","learning/Slide6.JPG","This is a dep:","",""
"","html-keyboard-response","25","426890","0.0-6.0-0.6","LF","gjq6le86au","1536","864","en","NG09US28","null","","","","learningBlock1","","","","This is a wug:","null","","","","",""
"","image-keyboard-response","26","427236","0.0-6.0-1.6","LF","gjq6le86au","1536","864","en","NG09US28","null","","","","","","","","learning/Slide7.JPG","null","","","","",""
"","html-keyboard-response","27","428247","0.0-6.0-2.6","LF","gjq6le86au","1536","864","en","NG09US28","null","","","","learningBlock1","","","","<div style=""font-size:60px;""> </div>","null","LF","learning/Slide7.JPG","This is a wug:","",""
"","html-keyboard-response","28","429258","0.0-6.0-0.7","LF","gjq6le86au","1536","864","en","NG09US28","null","","","","learningBlock1","","","","This is a bim:","null","","","","",""
"","image-keyboard-response","29","429586","0.0-6.0-1.7","LF","gjq6le86au","1536","864","en","NG09US28","null","","","","","","","","learning/Slide8.JPG","null","","","","",""
"","html-keyboard-response","30","430599","0.0-6.0-2.7","LF","gjq6le86au","1536","864","en","NG09US28","null","","","","learningBlock1","","","","<div style=""font-size:60px;""> </div>","null","LF","learning/Slide8.JPG","This is a bim:","",""
"","html-keyboard-response","31","431613","0.0-6.0-0.8","LF","gjq6le86au","1536","864","en","NG09US28","null","","","","learningBlock1","","","","This is a wug:","null","","","","",""
"","image-keyboard-response","32","431943","0.0-6.0-1.8","LF","gjq6le86au","1536","864","en","NG09US28","null","","","","","","","","learning/Slide9.JPG","null","","","","",""
"","html-keyboard-response","33","432953","0.0-6.0-2.8","LF","gjq6le86au","1536","864","en","NG09US28","null","","","","learningBlock1","","","","<div style=""font-size:60px;""> </div>","null","LF","learning/Slide9.JPG","This is a wug:","",""
"","html-keyboard-response","34","433966","0.0-6.0-0.9","LF","gjq6le86au","1536","864","en","NG09US28","null","","","","learningBlock1","","","","This is a dep:","null","","","","",""
"","image-keyboard-response","35","434309","0.0-6.0-1.9","LF","gjq6le86au","1536","864","en","NG09US28","null","","","","","","","","learning/Slide10.JPG","null","","","","",""
"","html-keyboard-response","36","435319","0.0-6.0-2.9","LF","gjq6le86au","1536","864","en","NG09US28","null","","","","learningBlock1","","","","<div style=""font-size:60px;""> </div>","null","LF","learning/Slide10.JPG","This is a dep:","",""
"","html-keyboard-response","37","436331","0.0-6.0-0.10","LF","gjq6le86au","1536","864","en","NG09US28","null","","","","learningBlock1","","","","This is a tob:","null","","","","",""
"","image-keyboard-response","38","436663","0.0-6.0-1.10","LF","gjq6le86au","1536","864","en","NG09US28","null","","","","","","","","learning/Slide11.JPG","null","","","","",""
"","html-keyboard-response","39","437669","0.0-6.0-2.10","LF","gjq6le86au","1536","864","en","NG09US28","null","","","","learningBlock1","","","","<div style=""font-size:60px;""> </div>","null","LF","learning/Slide11.JPG","This is a tob:","",""
"","html-keyboard-response","40","438682","0.0-6.0-0.11","LF","gjq6le86au","1536","864","en","NG09US28","null","","","","learningBlock1","","","","This is a dep:","null","","","","",""
"","image-keyboard-response","41","439011","0.0-6.0-1.11","LF","gjq6le86au","1536","864","en","NG09US28","null","","","","","","","","learning/Slide12.JPG","null","","","","",""
"","html-keyboard-response","42","440024","0.0-6.0-2.11","LF","gjq6le86au","1536","864","en","NG09US28","null","","","","learningBlock1","","","","<div style=""font-size:60px;""> </div>","null","LF","learning/Slide12.JPG","This is a dep:","",""
"","html-keyboard-response","43","441039","0.0-6.0-0.12","LF","gjq6le86au","1536","864","en","NG09US28","null","","","","learningBlock1","","","","This is a bim:","null","","","","",""
"","image-keyboard-response","44","441381","0.0-6.0-1.12","LF","gjq6le86au","1536","864","en","NG09US28","null","","","","","","","","learning/Slide13.JPG","null","","","","",""
"","html-keyboard-response","45","442391","0.0-6.0-2.12","LF","gjq6le86au","1536","864","en","NG09US28","null","","","","learningBlock1","","","","<div style=""font-size:60px;""> </div>","null","LF","learning/Slide13.JPG","This is a bim:","",""
"","html-keyboard-response","46","443409","0.0-6.0-0.13","LF","gjq6le86au","1536","864","en","NG09US28","null","","","","learningBlock1","","","","This is a wug:","null","","","","",""
"","image-keyboard-response","47","443736","0.0-6.0-1.13","LF","gjq6le86au","1536","864","en","NG09US28","null","","","","","","","","learning/Slide14.JPG","null","","","","",""
"","html-keyboard-response","48","444747","0.0-6.0-2.13","LF","gjq6le86au","1536","864","en","NG09US28","null","","","","learningBlock1","","","","<div style=""font-size:60px;""> </div>","null","LF","learning/Slide14.JPG","This is a wug:","",""
"","html-keyboard-response","49","445761","0.0-6.0-0.14","LF","gjq6le86au","1536","864","en","NG09US28","null","","","","learningBlock1","","","","This is a tob:","null","","","","",""
"","image-keyboard-response","50","446093","0.0-6.0-1.14","LF","gjq6le86au","1536","864","en","NG09US28","null","","","","","","","","learning/Slide15.JPG","null","","","","",""
"","html-keyboard-response","51","447103","0.0-6.0-2.14","LF","gjq6le86au","1536","864","en","NG09US28","null","","","","learningBlock1","","","","<div style=""font-size:60px;""> </div>","null","LF","learning/Slide15.JPG","This is a tob:","",""
"","html-keyboard-response","52","448119","0.0-6.0-0.15","LF","gjq6le86au","1536","864","en","NG09US28","null","","","","learningBlock1","","","","This is a dep:","null","","","","",""
"","image-keyboard-response","53","448451","0.0-6.0-1.15","LF","gjq6le86au","1536","864","en","NG09US28","null","","","","","","","","learning/Slide16.JPG","null","","","","",""
"","html-keyboard-response","54","449457","0.0-6.0-2.15","LF","gjq6le86au","1536","864","en","NG09US28","null","","","","learningBlock1","","","","<div style=""font-size:60px;""> </div>","null","LF","learning/Slide16.JPG","This is a dep:","",""
"","html-keyboard-response","55","450470","0.0-6.0-0.16","LF","gjq6le86au","1536","864","en","NG09US28","null","","","","learningBlock1","","","","This is a bim:","null","","","","",""
"","image-keyboard-response","56","450799","0.0-6.0-1.16","LF","gjq6le86au","1536","864","en","NG09US28","null","","","","","","","","learning/Slide17.JPG","null","","","","",""
"","html-keyboard-response","57","451810","0.0-6.0-2.16","LF","gjq6le86au","1536","864","en","NG09US28","null","","","","learningBlock1","","","","<div style=""font-size:60px;""> </div>","null","LF","learning/Slide17.JPG","This is a bim:","",""
"","html-keyboard-response","58","452823","0.0-6.0-0.17","LF","gjq6le86au","1536","864","en","NG09US28","null","","","","learningBlock1","","","","This is a tob:","null","","","","",""
"","image-keyboard-response","59","453165","0.0-6.0-1.17","LF","gjq6le86au","1536","864","en","NG09US28","null","","","","","","","","learning/Slide18.JPG","null","","","","",""
"","html-keyboard-response","60","454174","0.0-6.0-2.17","LF","gjq6le86au","1536","864","en","NG09US28","null","","","","learningBlock1","","","","<div style=""font-size:60px;""> </div>","null","LF","learning/Slide18.JPG","This is a tob:","",""
"","html-keyboard-response","61","455190","0.0-6.0-0.18","LF","gjq6le86au","1536","864","en","NG09US28","null","","","","learningBlock1","","","","This is a wug:","null","","","","",""
"","image-keyboard-response","62","455524","0.0-6.0-1.18","LF","gjq6le86au","1536","864","en","NG09US28","null","","","","","","","","learning/Slide19.JPG","null","","","","",""
"","html-keyboard-response","63","456539","0.0-6.0-2.18","LF","gjq6le86au","1536","864","en","NG09US28","null","","","","learningBlock1","","","","<div style=""font-size:60px;""> </div>","null","LF","learning/Slide19.JPG","This is a wug:","",""
"","html-keyboard-response","64","457556","0.0-6.0-0.19","LF","gjq6le86au","1536","864","en","NG09US28","null","","","","learningBlock1","","","","This is a bim:","null","","","","",""
"","image-keyboard-response","65","457899","0.0-6.0-1.19","LF","gjq6le86au","1536","864","en","NG09US28","null","","","","","","","","learning/Slide20.JPG","null","","","","",""
"","html-keyboard-response","66","458912","0.0-6.0-2.19","LF","gjq6le86au","1536","864","en","NG09US28","null","","","","learningBlock1","","","","<div style=""font-size:60px;""> </div>","null","LF","learning/Slide20.JPG","This is a bim:","",""
"","html-keyboard-response","67","459926","0.0-6.0-0.20","LF","gjq6le86au","1536","864","en","NG09US28","null","","","","learningBlock1","","","","This is a dep:","null","","","","",""
"","image-keyboard-response","68","460268","0.0-6.0-1.20","LF","gjq6le86au","1536","864","en","NG09US28","null","","","","","","","","learning/Slide21.JPG","null","","","","",""
"","html-keyboard-response","69","461283","0.0-6.0-2.20","LF","gjq6le86au","1536","864","en","NG09US28","null","","","","learningBlock1","","","","<div style=""font-size:60px;""> </div>","null","LF","learning/Slide21.JPG","This is a dep:","",""
"","html-keyboard-response","70","462294","0.0-6.0-0.21","LF","gjq6le86au","1536","864","en","NG09US28","null","","","","learningBlock1","","","","This is a bim:","null","","","","",""
"","image-keyboard-response","71","462638","0.0-6.0-1.21","LF","gjq6le86au","1536","864","en","NG09US28","null","","","","","","","","learning/Slide22.JPG","null","","","","",""
"","html-keyboard-response","72","463652","0.0-6.0-2.21","LF","gjq6le86au","1536","864","en","NG09US28","null","","","","learningBlock1","","","","<div style=""font-size:60px;""> </div>","null","LF","learning/Slide22.JPG","This is a bim:","",""
"","html-keyboard-response","73","464667","0.0-6.0-0.22","LF","gjq6le86au","1536","864","en","NG09US28","null","","","","learningBlock1","","","","This is a tob:","null","","","","",""
"","image-keyboard-response","74","465009","0.0-6.0-1.22","LF","gjq6le86au","1536","864","en","NG09US28","null","","","","","","","","learning/Slide23.JPG","null","","","","",""
"","html-keyboard-response","75","466027","0.0-6.0-2.22","LF","gjq6le86au","1536","864","en","NG09US28","null","","","","learningBlock1","","","","<div style=""font-size:60px;""> </div>","null","LF","learning/Slide23.JPG","This is a tob:","",""
"","html-keyboard-response","76","467037","0.0-6.0-0.23","LF","gjq6le86au","1536","864","en","NG09US28","null","","","","learningBlock1","","","","This is a wug:","null","","","","",""
"","image-keyboard-response","77","467369","0.0-6.0-1.23","LF","gjq6le86au","1536","864","en","NG09US28","null","","","","","","","","learning/Slide24.JPG","null","","","","",""
"","html-keyboard-response","78","468376","0.0-6.0-2.23","LF","gjq6le86au","1536","864","en","NG09US28","null","","","","learningBlock1","","","","<div style=""font-size:60px;""> </div>","null","LF","learning/Slide24.JPG","This is a wug:","",""
"","html-keyboard-response","79","469389","0.0-6.0-0.24","LF","gjq6le86au","1536","864","en","NG09US28","null","","","","learningBlock1","","","","This is a dep:","null","","","","",""
"","image-keyboard-response","80","469720","0.0-6.0-1.24","LF","gjq6le86au","1536","864","en","NG09US28","null","","","","","","","","learning/Slide25.JPG","null","","","","",""
"","html-keyboard-response","81","470728","0.0-6.0-2.24","LF","gjq6le86au","1536","864","en","NG09US28","null","","","","learningBlock1","","","","<div style=""font-size:60px;""> </div>","null","LF","learning/Slide25.JPG","This is a dep:","",""
"","html-keyboard-response","82","471739","0.0-6.0-0.25","LF","gjq6le86au","1536","864","en","NG09US28","null","","","","learningBlock1","","","","This is a wug:","null","","","","",""
"","image-keyboard-response","83","472069","0.0-6.0-1.25","LF","gjq6le86au","1536","864","en","NG09US28","null","","","","","","","","learning/Slide26.JPG","null","","","","",""
"","html-keyboard-response","84","473075","0.0-6.0-2.25","LF","gjq6le86au","1536","864","en","NG09US28","null","","","","learningBlock1","","","","<div style=""font-size:60px;""> </div>","null","LF","learning/Slide26.JPG","This is a wug:","",""
"","html-keyboard-response","85","474088","0.0-6.0-0.26","LF","gjq6le86au","1536","864","en","NG09US28","null","","","","learningBlock1","","","","This is a bim:","null","","","","",""
"","image-keyboard-response","86","474419","0.0-6.0-1.26","LF","gjq6le86au","1536","864","en","NG09US28","null","","","","","","","","learning/Slide27.JPG","null","","","","",""
"","html-keyboard-response","87","475428","0.0-6.0-2.26","LF","gjq6le86au","1536","864","en","NG09US28","null","","","","learningBlock1","","","","<div style=""font-size:60px;""> </div>","null","LF","learning/Slide27.JPG","This is a bim:","",""
"","html-keyboard-response","88","476438","0.0-6.0-0.27","LF","gjq6le86au","1536","864","en","NG09US28","null","","","","learningBlock1","","","","This is a dep:","null","","","","",""
"","image-keyboard-response","89","476782","0.0-6.0-1.27","LF","gjq6le86au","1536","864","en","NG09US28","null","","","","","","","","learning/Slide28.JPG","null","","","","",""
"","html-keyboard-response","90","477796","0.0-6.0-2.27","LF","gjq6le86au","1536","864","en","NG09US28","null","","","","learningBlock1","","","","<div style=""font-size:60px;""> </div>","null","LF","learning/Slide28.JPG","This is a dep:","",""
"","html-keyboard-response","91","478808","0.0-6.0-0.28","LF","gjq6le86au","1536","864","en","NG09US28","null","","","","learningBlock1","","","","This is a tob:","null","","","","",""
"","image-keyboard-response","92","479136","0.0-6.0-1.28","LF","gjq6le86au","1536","864","en","NG09US28","null","","","","","","","","learning/Slide29.JPG","null","","","","",""
"","html-keyboard-response","93","480147","0.0-6.0-2.28","LF","gjq6le86au","1536","864","en","NG09US28","null","","","","learningBlock1","","","","<div style=""font-size:60px;""> </div>","null","LF","learning/Slide29.JPG","This is a tob:","",""
"","html-keyboard-response","94","481158","0.0-6.0-0.29","LF","gjq6le86au","1536","864","en","NG09US28","null","","","","learningBlock1","","","","This is a dep:","null","","","","",""
"","image-keyboard-response","95","481486","0.0-6.0-1.29","LF","gjq6le86au","1536","864","en","NG09US28","null","","","","","","","","learning/Slide30.JPG","null","","","","",""
"","html-keyboard-response","96","482497","0.0-6.0-2.29","LF","gjq6le86au","1536","864","en","NG09US28","null","","","","learningBlock1","","","","<div style=""font-size:60px;""> </div>","null","LF","learning/Slide30.JPG","This is a dep:","",""
"","html-keyboard-response","97","483513","0.0-6.0-0.30","LF","gjq6le86au","1536","864","en","NG09US28","null","","","","learningBlock1","","","","This is a wug:","null","","","","",""
"","image-keyboard-response","98","483847","0.0-6.0-1.30","LF","gjq6le86au","1536","864","en","NG09US28","null","","","","","","","","learning/Slide31.JPG","null","","","","",""
"","html-keyboard-response","99","484854","0.0-6.0-2.30","LF","gjq6le86au","1536","864","en","NG09US28","null","","","","learningBlock1","","","","<div style=""font-size:60px;""> </div>","null","LF","learning/Slide31.JPG","This is a wug:","",""
"","html-keyboard-response","100","485869","0.0-6.0-0.31","LF","gjq6le86au","1536","864","en","NG09US28","null","","","","learningBlock1","","","","This is a tob:","null","","","","",""
"","image-keyboard-response","101","486203","0.0-6.0-1.31","LF","gjq6le86au","1536","864","en","NG09US28","null","","","","","","","","learning/Slide32.JPG","null","","","","",""
"","html-keyboard-response","102","487207","0.0-6.0-2.31","LF","gjq6le86au","1536","864","en","NG09US28","null","","","","learningBlock1","","","","<div style=""font-size:60px;""> </div>","null","LF","learning/Slide32.JPG","This is a tob:","",""
"","html-keyboard-response","103","488225","0.0-6.0-0.32","LF","gjq6le86au","1536","864","en","NG09US28","null","","","","learningBlock1","","","","This is a bim:","null","","","","",""
"","image-keyboard-response","104","488553","0.0-6.0-1.32","LF","gjq6le86au","1536","864","en","NG09US28","null","","","","","","","","learning/Slide33.JPG","null","","","","",""
"","html-keyboard-response","105","489564","0.0-6.0-2.32","LF","gjq6le86au","1536","864","en","NG09US28","null","","","","learningBlock1","","","","<div style=""font-size:60px;""> </div>","null","LF","learning/Slide33.JPG","This is a bim:","",""
"","html-keyboard-response","106","490575","0.0-6.0-0.33","LF","gjq6le86au","1536","864","en","NG09US28","null","","","","learningBlock1","","","","This is a tob:","null","","","","",""
"","image-keyboard-response","107","490908","0.0-6.0-1.33","LF","gjq6le86au","1536","864","en","NG09US28","null","","","","","","","","learning/Slide34.JPG","null","","","","",""
"","html-keyboard-response","108","491920","0.0-6.0-2.33","LF","gjq6le86au","1536","864","en","NG09US28","null","","","","learningBlock1","","","","<div style=""font-size:60px;""> </div>","null","LF","learning/Slide34.JPG","This is a tob:","",""
"","html-keyboard-response","109","492932","0.0-6.0-0.34","LF","gjq6le86au","1536","864","en","NG09US28","null","","","","learningBlock1","","","","This is a bim:","null","","","","",""
"","image-keyboard-response","110","493274","0.0-6.0-1.34","LF","gjq6le86au","1536","864","en","NG09US28","null","","","","","","","","learning/Slide35.JPG","null","","","","",""
"","html-keyboard-response","111","494289","0.0-6.0-2.34","LF","gjq6le86au","1536","864","en","NG09US28","null","","","","learningBlock1","","","","<div style=""font-size:60px;""> </div>","null","LF","learning/Slide35.JPG","This is a bim:","",""
"","html-keyboard-response","112","495301","0.0-6.0-0.35","LF","gjq6le86au","1536","864","en","NG09US28","null","","","","learningBlock1","","","","This is a dep:","null","","","","",""
"","image-keyboard-response","113","495629","0.0-6.0-1.35","LF","gjq6le86au","1536","864","en","NG09US28","null","","","","","","","","learning/Slide36.JPG","null","","","","",""
"","html-keyboard-response","114","496639","0.0-6.0-2.35","LF","gjq6le86au","1536","864","en","NG09US28","null","","","","learningBlock1","","","","<div style=""font-size:60px;""> </div>","null","LF","learning/Slide36.JPG","This is a dep:","",""
"","html-keyboard-response","115","497647","0.0-6.0-0.36","LF","gjq6le86au","1536","864","en","NG09US28","null","","","","learningBlock1","","","","This is a tob:","null","","","","",""
"","image-keyboard-response","116","497987","0.0-6.0-1.36","LF","gjq6le86au","1536","864","en","NG09US28","null","","","","","","","","learning/Slide37.JPG","null","","","","",""
"","html-keyboard-response","117","498997","0.0-6.0-2.36","LF","gjq6le86au","1536","864","en","NG09US28","null","","","","learningBlock1","","","","<div style=""font-size:60px;""> </div>","null","LF","learning/Slide37.JPG","This is a tob:","",""
"","html-keyboard-response","118","500010","0.0-6.0-0.37","LF","gjq6le86au","1536","864","en","NG09US28","null","","","","learningBlock1","","","","This is a wug:","null","","","","",""
"","image-keyboard-response","119","500339","0.0-6.0-1.37","LF","gjq6le86au","1536","864","en","NG09US28","null","","","","","","","","learning/Slide38.JPG","null","","","","",""
"","html-keyboard-response","120","501356","0.0-6.0-2.37","LF","gjq6le86au","1536","864","en","NG09US28","null","","","","learningBlock1","","","","<div style=""font-size:60px;""> </div>","null","LF","learning/Slide38.JPG","This is a wug:","",""
"","html-keyboard-response","121","502368","0.0-6.0-0.38","LF","gjq6le86au","1536","864","en","NG09US28","null","","","","learningBlock1","","","","This is a bim:","null","","","","",""
"","image-keyboard-response","122","502696","0.0-6.0-1.38","LF","gjq6le86au","1536","864","en","NG09US28","null","","","","","","","","learning/Slide39.JPG","null","","","","",""
"","html-keyboard-response","123","503704","0.0-6.0-2.38","LF","gjq6le86au","1536","864","en","NG09US28","null","","","","learningBlock1","","","","<div style=""font-size:60px;""> </div>","null","LF","learning/Slide39.JPG","This is a bim:","",""
"","html-keyboard-response","124","504716","0.0-6.0-0.39","LF","gjq6le86au","1536","864","en","NG09US28","null","","","","learningBlock1","","","","This is a tob:","null","","","","",""
"","image-keyboard-response","125","505059","0.0-6.0-1.39","LF","gjq6le86au","1536","864","en","NG09US28","null","","","","","","","","learning/Slide40.JPG","null","","","","",""
"","html-keyboard-response","126","506070","0.0-6.0-2.39","LF","gjq6le86au","1536","864","en","NG09US28","null","","","","learningBlock1","","","","<div style=""font-size:60px;""> </div>","null","LF","learning/Slide40.JPG","This is a tob:","",""
"","html-keyboard-response","127","507079","0.0-6.0-0.40","LF","gjq6le86au","1536","864","en","NG09US28","null","","","","learningBlock1","","","","This is a bim:","null","","","","",""
"","image-keyboard-response","128","507421","0.0-6.0-1.40","LF","gjq6le86au","1536","864","en","NG09US28","null","","","","","","","","learning/Slide41.JPG","null","","","","",""
"","html-keyboard-response","129","508434","0.0-6.0-2.40","LF","gjq6le86au","1536","864","en","NG09US28","null","","","","learningBlock1","","","","<div style=""font-size:60px;""> </div>","null","LF","learning/Slide41.JPG","This is a bim:","",""
"","html-keyboard-response","130","509445","0.0-6.0-0.41","LF","gjq6le86au","1536","864","en","NG09US28","null","","","","learningBlock1","","","","This is a dep:","null","","","","",""
"","image-keyboard-response","131","509773","0.0-6.0-1.41","LF","gjq6le86au","1536","864","en","NG09US28","null","","","","","","","","learning/Slide42.JPG","null","","","","",""
"","html-keyboard-response","132","510788","0.0-6.0-2.41","LF","gjq6le86au","1536","864","en","NG09US28","null","","","","learningBlock1","","","","<div style=""font-size:60px;""> </div>","null","LF","learning/Slide42.JPG","This is a dep:","",""
"","html-keyboard-response","133","511804","0.0-6.0-0.42","LF","gjq6le86au","1536","864","en","NG09US28","null","","","","learningBlock1","","","","This is a wug:","null","","","","",""
"","image-keyboard-response","134","512147","0.0-6.0-1.42","LF","gjq6le86au","1536","864","en","NG09US28","null","","","","","","","","learning/Slide43.JPG","null","","","","",""
"","html-keyboard-response","135","513158","0.0-6.0-2.42","LF","gjq6le86au","1536","864","en","NG09US28","null","","","","learningBlock1","","","","<div style=""font-size:60px;""> </div>","null","LF","learning/Slide43.JPG","This is a wug:","",""
"","html-keyboard-response","136","514174","0.0-6.0-0.43","LF","gjq6le86au","1536","864","en","NG09US28","null","","","","learningBlock1","","","","This is a bim:","null","","","","",""
"","image-keyboard-response","137","514502","0.0-6.0-1.43","LF","gjq6le86au","1536","864","en","NG09US28","null","","","","","","","","learning/Slide44.JPG","null","","","","",""
"","html-keyboard-response","138","515514","0.0-6.0-2.43","LF","gjq6le86au","1536","864","en","NG09US28","null","","","","learningBlock1","","","","<div style=""font-size:60px;""> </div>","null","LF","learning/Slide44.JPG","This is a bim:","",""
"","html-keyboard-response","139","516527","0.0-6.0-0.44","LF","gjq6le86au","1536","864","en","NG09US28","null","","","","learningBlock1","","","","This is a wug:","null","","","","",""
"","image-keyboard-response","140","516855","0.0-6.0-1.44","LF","gjq6le86au","1536","864","en","NG09US28","null","","","","","","","","learning/Slide45.JPG","null","","","","",""
"","html-keyboard-response","141","517870","0.0-6.0-2.44","LF","gjq6le86au","1536","864","en","NG09US28","null","","","","learningBlock1","","","","<div style=""font-size:60px;""> </div>","null","LF","learning/Slide45.JPG","This is a wug:","",""
"","html-keyboard-response","142","518882","0.0-6.0-0.45","LF","gjq6le86au","1536","864","en","NG09US28","null","","","","learningBlock1","","","","This is a dep:","null","","","","",""
"","image-keyboard-response","143","519226","0.0-6.0-1.45","LF","gjq6le86au","1536","864","en","NG09US28","null","","","","","","","","learning/Slide46.JPG","null","","","","",""
"","html-keyboard-response","144","520238","0.0-6.0-2.45","LF","gjq6le86au","1536","864","en","NG09US28","null","","","","learningBlock1","","","","<div style=""font-size:60px;""> </div>","null","LF","learning/Slide46.JPG","This is a dep:","",""
"","html-keyboard-response","145","521251","0.0-6.0-0.46","LF","gjq6le86au","1536","864","en","NG09US28","null","","","","learningBlock1","","","","This is a tob:","null","","","","",""
"","image-keyboard-response","146","521579","0.0-6.0-1.46","LF","gjq6le86au","1536","864","en","NG09US28","null","","","","","","","","learning/Slide47.JPG","null","","","","",""
"","html-keyboard-response","147","522592","0.0-6.0-2.46","LF","gjq6le86au","1536","864","en","NG09US28","null","","","","learningBlock1","","","","<div style=""font-size:60px;""> </div>","null","LF","learning/Slide47.JPG","This is a tob:","",""
"","html-keyboard-response","148","523605","0.0-6.0-0.47","LF","gjq6le86au","1536","864","en","NG09US28","null","","","","learningBlock1","","","","This is a bim:","null","","","","",""
"","image-keyboard-response","149","523947","0.0-6.0-1.47","LF","gjq6le86au","1536","864","en","NG09US28","null","","","","","","","","learning/Slide48.JPG","null","","","","",""
"","html-keyboard-response","150","524955","0.0-6.0-2.47","LF","gjq6le86au","1536","864","en","NG09US28","null","","","","learningBlock1","","","","<div style=""font-size:60px;""> </div>","null","LF","learning/Slide48.JPG","This is a bim:","",""
"","html-keyboard-response","151","525969","0.0-6.0-0.48","LF","gjq6le86au","1536","864","en","NG09US28","null","","","","learningBlock1","","","","This is a dep:","null","","","","",""
"","image-keyboard-response","152","526312","0.0-6.0-1.48","LF","gjq6le86au","1536","864","en","NG09US28","null","","","","","","","","learning/Slide49.JPG","null","","","","",""
"","html-keyboard-response","153","527328","0.0-6.0-2.48","LF","gjq6le86au","1536","864","en","NG09US28","null","","","","learningBlock1","","","","<div style=""font-size:60px;""> </div>","null","LF","learning/Slide49.JPG","This is a dep:","",""
"","html-keyboard-response","154","528338","0.0-6.0-0.49","LF","gjq6le86au","1536","864","en","NG09US28","null","","","","learningBlock1","","","","This is a tob:","null","","","","",""
"","image-keyboard-response","155","528670","0.0-6.0-1.49","LF","gjq6le86au","1536","864","en","NG09US28","null","","","","","","","","learning/Slide50.JPG","null","","","","",""
"","html-keyboard-response","156","529679","0.0-6.0-2.49","LF","gjq6le86au","1536","864","en","NG09US28","null","","","","learningBlock1","","","","<div style=""font-size:60px;""> </div>","null","LF","learning/Slide50.JPG","This is a tob:","",""
"","html-keyboard-response","157","530690","0.0-6.0-0.50","LF","gjq6le86au","1536","864","en","NG09US28","null","","","","learningBlock1","","","","This is a bim:","null","","","","",""
"","image-keyboard-response","158","531022","0.0-6.0-1.50","LF","gjq6le86au","1536","864","en","NG09US28","null","","","","","","","","learning/Slide51.JPG","null","","","","",""
"","html-keyboard-response","159","532026","0.0-6.0-2.50","LF","gjq6le86au","1536","864","en","NG09US28","null","","","","learningBlock1","","","","<div style=""font-size:60px;""> </div>","null","LF","learning/Slide51.JPG","This is a bim:","",""
"","html-keyboard-response","160","533040","0.0-6.0-0.51","LF","gjq6le86au","1536","864","en","NG09US28","null","","","","learningBlock1","","","","This is a wug:","null","","","","",""
"","image-keyboard-response","161","533382","0.0-6.0-1.51","LF","gjq6le86au","1536","864","en","NG09US28","null","","","","","","","","learning/Slide52.JPG","null","","","","",""
"","html-keyboard-response","162","534396","0.0-6.0-2.51","LF","gjq6le86au","1536","864","en","NG09US28","null","","","","learningBlock1","","","","<div style=""font-size:60px;""> </div>","null","LF","learning/Slide52.JPG","This is a wug:","",""
"","html-keyboard-response","163","535410","0.0-6.0-0.52","LF","gjq6le86au","1536","864","en","NG09US28","null","","","","learningBlock1","","","","This is a tob:","null","","","","",""
"","image-keyboard-response","164","535738","0.0-6.0-1.52","LF","gjq6le86au","1536","864","en","NG09US28","null","","","","","","","","learning/Slide53.JPG","null","","","","",""
"","html-keyboard-response","165","536750","0.0-6.0-2.52","LF","gjq6le86au","1536","864","en","NG09US28","null","","","","learningBlock1","","","","<div style=""font-size:60px;""> </div>","null","LF","learning/Slide53.JPG","This is a tob:","",""
"","html-keyboard-response","166","537765","0.0-6.0-0.53","LF","gjq6le86au","1536","864","en","NG09US28","null","","","","learningBlock1","","","","This is a dep:","null","","","","",""
"","image-keyboard-response","167","538094","0.0-6.0-1.53","LF","gjq6le86au","1536","864","en","NG09US28","null","","","","","","","","learning/Slide54.JPG","null","","","","",""
"","html-keyboard-response","168","539103","0.0-6.0-2.53","LF","gjq6le86au","1536","864","en","NG09US28","null","","","","learningBlock1","","","","<div style=""font-size:60px;""> </div>","null","LF","learning/Slide54.JPG","This is a dep:","",""
"","html-keyboard-response","169","540116","0.0-6.0-0.54","LF","gjq6le86au","1536","864","en","NG09US28","null","","","","learningBlock1","","","","This is a bim:","null","","","","",""
"","image-keyboard-response","170","540460","0.0-6.0-1.54","LF","gjq6le86au","1536","864","en","NG09US28","null","","","","","","","","learning/Slide55.JPG","null","","","","",""
"","html-keyboard-response","171","541474","0.0-6.0-2.54","LF","gjq6le86au","1536","864","en","NG09US28","null","","","","learningBlock1","","","","<div style=""font-size:60px;""> </div>","null","LF","learning/Slide55.JPG","This is a bim:","",""
"","html-keyboard-response","172","542485","0.0-6.0-0.55","LF","gjq6le86au","1536","864","en","NG09US28","null","","","","learningBlock1","","","","This is a tob:","null","","","","",""
"","image-keyboard-response","173","542813","0.0-6.0-1.55","LF","gjq6le86au","1536","864","en","NG09US28","null","","","","","","","","learning/Slide56.JPG","null","","","","",""
"","html-keyboard-response","174","543824","0.0-6.0-2.55","LF","gjq6le86au","1536","864","en","NG09US28","null","","","","learningBlock1","","","","<div style=""font-size:60px;""> </div>","null","LF","learning/Slide56.JPG","This is a tob:","",""
"","html-keyboard-response","175","544840","0.0-6.0-0.56","LF","gjq6le86au","1536","864","en","NG09US28","null","","","","learningBlock1","","","","This is a dep:","null","","","","",""
"","image-keyboard-response","176","545182","0.0-6.0-1.56","LF","gjq6le86au","1536","864","en","NG09US28","null","","","","","","","","learning/Slide57.JPG","null","","","","",""
"","html-keyboard-response","177","546197","0.0-6.0-2.56","LF","gjq6le86au","1536","864","en","NG09US28","null","","","","learningBlock1","","","","<div style=""font-size:60px;""> </div>","null","LF","learning/Slide57.JPG","This is a dep:","",""
"","html-keyboard-response","178","547212","0.0-6.0-0.57","LF","gjq6le86au","1536","864","en","NG09US28","null","","","","learningBlock1","","","","This is a wug:","null","","","","",""
"","image-keyboard-response","179","547544","0.0-6.0-1.57","LF","gjq6le86au","1536","864","en","NG09US28","null","","","","","","","","learning/Slide58.JPG","null","","","","",""
"","html-keyboard-response","180","548553","0.0-6.0-2.57","LF","gjq6le86au","1536","864","en","NG09US28","null","","","","learningBlock1","","","","<div style=""font-size:60px;""> </div>","null","LF","learning/Slide58.JPG","This is a wug:","",""
"","html-keyboard-response","181","549565","0.0-6.0-0.58","LF","gjq6le86au","1536","864","en","NG09US28","null","","","","learningBlock1","","","","This is a dep:","null","","","","",""
"","image-keyboard-response","182","549908","0.0-6.0-1.58","LF","gjq6le86au","1536","864","en","NG09US28","null","","","","","","","","learning/Slide59.JPG","null","","","","",""
"","html-keyboard-response","183","550919","0.0-6.0-2.58","LF","gjq6le86au","1536","864","en","NG09US28","null","","","","learningBlock1","","","","<div style=""font-size:60px;""> </div>","null","LF","learning/Slide59.JPG","This is a dep:","",""
"","html-keyboard-response","184","551932","0.0-6.0-0.59","LF","gjq6le86au","1536","864","en","NG09US28","null","","","","learningBlock1","","","","This is a wug:","null","","","","",""
"","image-keyboard-response","185","552274","0.0-6.0-1.59","LF","gjq6le86au","1536","864","en","NG09US28","null","","","","","","","","learning/Slide60.JPG","null","","","","",""
"","html-keyboard-response","186","553288","0.0-6.0-2.59","LF","gjq6le86au","1536","864","en","NG09US28","null","","","","learningBlock1","","","","<div style=""font-size:60px;""> </div>","null","LF","learning/Slide60.JPG","This is a wug:","",""
"","html-keyboard-response","187","554302","0.0-6.0-0.60","LF","gjq6le86au","1536","864","en","NG09US28","null","","","","learningBlock1","","","","This is a bim:","null","","","","",""
"","image-keyboard-response","188","554645","0.0-6.0-1.60","LF","gjq6le86au","1536","864","en","NG09US28","null","","","","","","","","learning/Slide61.JPG","null","","","","",""
"","html-keyboard-response","189","555661","0.0-6.0-2.60","LF","gjq6le86au","1536","864","en","NG09US28","null","","","","learningBlock1","","","","<div style=""font-size:60px;""> </div>","null","LF","learning/Slide61.JPG","This is a bim:","",""
"","html-keyboard-response","190","556675","0.0-6.0-0.61","LF","gjq6le86au","1536","864","en","NG09US28","null","","","","learningBlock1","","","","This is a dep:","null","","","","",""
"","image-keyboard-response","191","557007","0.0-6.0-1.61","LF","gjq6le86au","1536","864","en","NG09US28","null","","","","","","","","learning/Slide62.JPG","null","","","","",""
"","html-keyboard-response","192","558012","0.0-6.0-2.61","LF","gjq6le86au","1536","864","en","NG09US28","null","","","","learningBlock1","","","","<div style=""font-size:60px;""> </div>","null","LF","learning/Slide62.JPG","This is a dep:","",""
"","html-keyboard-response","193","559026","0.0-6.0-0.62","LF","gjq6le86au","1536","864","en","NG09US28","null","","","","learningBlock1","","","","This is a bim:","null","","","","",""
"","image-keyboard-response","194","559356","0.0-6.0-1.62","LF","gjq6le86au","1536","864","en","NG09US28","null","","","","","","","","learning/Slide63.JPG","null","","","","",""
"","html-keyboard-response","195","560367","0.0-6.0-2.62","LF","gjq6le86au","1536","864","en","NG09US28","null","","","","learningBlock1","","","","<div style=""font-size:60px;""> </div>","null","LF","learning/Slide63.JPG","This is a bim:","",""
"","html-keyboard-response","196","561376","0.0-6.0-0.63","LF","gjq6le86au","1536","864","en","NG09US28","null","","","","learningBlock1","","","","This is a tob:","null","","","","",""
"","image-keyboard-response","197","561718","0.0-6.0-1.63","LF","gjq6le86au","1536","864","en","NG09US28","null","","","","","","","","learning/Slide64.JPG","null","","","","",""
"","html-keyboard-response","198","562733","0.0-6.0-2.63","LF","gjq6le86au","1536","864","en","NG09US28","null","","","","learningBlock1","","","","<div style=""font-size:60px;""> </div>","null","LF","learning/Slide64.JPG","This is a tob:","",""
"","html-keyboard-response","199","563748","0.0-6.0-0.64","LF","gjq6le86au","1536","864","en","NG09US28","null","","","","learningBlock1","","","","This is a wug:","null","","","","",""
"","image-keyboard-response","200","564077","0.0-6.0-1.64","LF","gjq6le86au","1536","864","en","NG09US28","null","","","","","","","","learning/Slide65.JPG","null","","","","",""
"","html-keyboard-response","201","565090","0.0-6.0-2.64","LF","gjq6le86au","1536","864","en","NG09US28","null","","","","learningBlock1","","","","<div style=""font-size:60px;""> </div>","null","LF","learning/Slide65.JPG","This is a wug:","",""
"","html-keyboard-response","202","566104","0.0-6.0-0.65","LF","gjq6le86au","1536","864","en","NG09US28","null","","","","learningBlock1","","","","This is a dep:","null","","","","",""
"","image-keyboard-response","203","566447","0.0-6.0-1.65","LF","gjq6le86au","1536","864","en","NG09US28","null","","","","","","","","learning/Slide66.JPG","null","","","","",""
"","html-keyboard-response","204","567460","0.0-6.0-2.65","LF","gjq6le86au","1536","864","en","NG09US28","null","","","","learningBlock1","","","","<div style=""font-size:60px;""> </div>","null","LF","learning/Slide66.JPG","This is a dep:","",""
"","html-keyboard-response","205","568472","0.0-6.0-0.66","LF","gjq6le86au","1536","864","en","NG09US28","null","","","","learningBlock1","","","","This is a tob:","null","","","","",""
"","image-keyboard-response","206","568815","0.0-6.0-1.66","LF","gjq6le86au","1536","864","en","NG09US28","null","","","","","","","","learning/Slide67.JPG","null","","","","",""
"","html-keyboard-response","207","569827","0.0-6.0-2.66","LF","gjq6le86au","1536","864","en","NG09US28","null","","","","learningBlock1","","","","<div style=""font-size:60px;""> </div>","null","LF","learning/Slide67.JPG","This is a tob:","",""
"","html-keyboard-response","208","570837","0.0-6.0-0.67","LF","gjq6le86au","1536","864","en","NG09US28","null","","","","learningBlock1","","","","This is a wug:","null","","","","",""
"","image-keyboard-response","209","571169","0.0-6.0-1.67","LF","gjq6le86au","1536","864","en","NG09US28","null","","","","","","","","learning/Slide68.JPG","null","","","","",""
"","html-keyboard-response","210","572177","0.0-6.0-2.67","LF","gjq6le86au","1536","864","en","NG09US28","null","","","","learningBlock1","","","","<div style=""font-size:60px;""> </div>","null","LF","learning/Slide68.JPG","This is a wug:","",""
"","html-keyboard-response","211","573191","0.0-6.0-0.68","LF","gjq6le86au","1536","864","en","NG09US28","null","","","","learningBlock1","","","","This is a tob:","null","","","","",""
"","image-keyboard-response","212","573518","0.0-6.0-1.68","LF","gjq6le86au","1536","864","en","NG09US28","null","","","","","","","","learning/Slide69.JPG","null","","","","",""
"","html-keyboard-response","213","574533","0.0-6.0-2.68","LF","gjq6le86au","1536","864","en","NG09US28","null","","","","learningBlock1","","","","<div style=""font-size:60px;""> </div>","null","LF","learning/Slide69.JPG","This is a tob:","",""
"","html-keyboard-response","214","575546","0.0-6.0-0.69","LF","gjq6le86au","1536","864","en","NG09US28","null","","","","learningBlock1","","","","This is a dep:","null","","","","",""
"","image-keyboard-response","215","575878","0.0-6.0-1.69","LF","gjq6le86au","1536","864","en","NG09US28","null","","","","","","","","learning/Slide70.JPG","null","","","","",""
"","html-keyboard-response","216","576883","0.0-6.0-2.69","LF","gjq6le86au","1536","864","en","NG09US28","null","","","","learningBlock1","","","","<div style=""font-size:60px;""> </div>","null","LF","learning/Slide70.JPG","This is a dep:","",""
"","html-keyboard-response","217","577895","0.0-6.0-0.70","LF","gjq6le86au","1536","864","en","NG09US28","null","","","","learningBlock1","","","","This is a wug:","null","","","","",""
"","image-keyboard-response","218","578238","0.0-6.0-1.70","LF","gjq6le86au","1536","864","en","NG09US28","null","","","","","","","","learning/Slide71.JPG","null","","","","",""
"","html-keyboard-response","219","579249","0.0-6.0-2.70","LF","gjq6le86au","1536","864","en","NG09US28","null","","","","learningBlock1","","","","<div style=""font-size:60px;""> </div>","null","LF","learning/Slide71.JPG","This is a wug:","",""
"","html-keyboard-response","220","580260","0.0-6.0-0.71","LF","gjq6le86au","1536","864","en","NG09US28","null","","","","learningBlock1","","","","This is a bim:","null","","","","",""
"","image-keyboard-response","221","580588","0.0-6.0-1.71","LF","gjq6le86au","1536","864","en","NG09US28","null","","","","","","","","learning/Slide72.JPG","null","","","","",""
"","html-keyboard-response","222","581600","0.0-6.0-2.71","LF","gjq6le86au","1536","864","en","NG09US28","null","","","","learningBlock1","","","","<div style=""font-size:60px;""> </div>","null","LF","learning/Slide72.JPG","This is a bim:","",""
"","html-keyboard-response","223","582614","0.0-6.0-0.72","LF","gjq6le86au","1536","864","en","NG09US28","null","","","","learningBlock1","","","","This is a wug:","null","","","","",""
"","image-keyboard-response","224","582943","0.0-6.0-1.72","LF","gjq6le86au","1536","864","en","NG09US28","null","","","","","","","","learning/Slide73.JPG","null","","","","",""
"","html-keyboard-response","225","583953","0.0-6.0-2.72","LF","gjq6le86au","1536","864","en","NG09US28","null","","","","learningBlock1","","","","<div style=""font-size:60px;""> </div>","null","LF","learning/Slide73.JPG","This is a wug:","",""
"","html-keyboard-response","226","584967","0.0-6.0-0.73","LF","gjq6le86au","1536","864","en","NG09US28","null","","","","learningBlock1","","","","This is a dep:","null","","","","",""
"","image-keyboard-response","227","585295","0.0-6.0-1.73","LF","gjq6le86au","1536","864","en","NG09US28","null","","","","","","","","learning/Slide74.JPG","null","","","","",""
"","html-keyboard-response","228","586303","0.0-6.0-2.73","LF","gjq6le86au","1536","864","en","NG09US28","null","","","","learningBlock1","","","","<div style=""font-size:60px;""> </div>","null","LF","learning/Slide74.JPG","This is a dep:","",""
"","html-keyboard-response","229","587315","0.0-6.0-0.74","LF","gjq6le86au","1536","864","en","NG09US28","null","","","","learningBlock1","","","","This is a tob:","null","","","","",""
"","image-keyboard-response","230","587643","0.0-6.0-1.74","LF","gjq6le86au","1536","864","en","NG09US28","null","","","","","","","","learning/Slide75.JPG","null","","","","",""
"","html-keyboard-response","231","588653","0.0-6.0-2.74","LF","gjq6le86au","1536","864","en","NG09US28","null","","","","learningBlock1","","","","<div style=""font-size:60px;""> </div>","null","LF","learning/Slide75.JPG","This is a tob:","",""
"","html-keyboard-response","232","589667","0.0-6.0-0.75","LF","gjq6le86au","1536","864","en","NG09US28","null","","","","learningBlock1","","","","This is a bim:","null","","","","",""
"","image-keyboard-response","233","590012","0.0-6.0-1.75","LF","gjq6le86au","1536","864","en","NG09US28","null","","","","","","","","learning/Slide76.JPG","null","","","","",""
"","html-keyboard-response","234","591026","0.0-6.0-2.75","LF","gjq6le86au","1536","864","en","NG09US28","null","","","","learningBlock1","","","","<div style=""font-size:60px;""> </div>","null","LF","learning/Slide76.JPG","This is a bim:","",""
"","html-keyboard-response","235","592041","0.0-6.0-0.76","LF","gjq6le86au","1536","864","en","NG09US28","null","","","","learningBlock1","","","","This is a tob:","null","","","","",""
"","image-keyboard-response","236","592383","0.0-6.0-1.76","LF","gjq6le86au","1536","864","en","NG09US28","null","","","","","","","","learning/Slide77.JPG","null","","","","",""
"","html-keyboard-response","237","593398","0.0-6.0-2.76","LF","gjq6le86au","1536","864","en","NG09US28","null","","","","learningBlock1","","","","<div style=""font-size:60px;""> </div>","null","LF","learning/Slide77.JPG","This is a tob:","",""
"","html-keyboard-response","238","594412","0.0-6.0-0.77","LF","gjq6le86au","1536","864","en","NG09US28","null","","","","learningBlock1","","","","This is a wug:","null","","","","",""
"","image-keyboard-response","239","594753","0.0-6.0-1.77","LF","gjq6le86au","1536","864","en","NG09US28","null","","","","","","","","learning/Slide78.JPG","null","","","","",""
"","html-keyboard-response","240","595770","0.0-6.0-2.77","LF","gjq6le86au","1536","864","en","NG09US28","null","","","","learningBlock1","","","","<div style=""font-size:60px;""> </div>","null","LF","learning/Slide78.JPG","This is a wug:","",""
"","html-keyboard-response","241","596780","0.0-6.0-0.78","LF","gjq6le86au","1536","864","en","NG09US28","null","","","","learningBlock1","","","","This is a bim:","null","","","","",""
"","image-keyboard-response","242","597112","0.0-6.0-1.78","LF","gjq6le86au","1536","864","en","NG09US28","null","","","","","","","","learning/Slide79.JPG","null","","","","",""
"","html-keyboard-response","243","598120","0.0-6.0-2.78","LF","gjq6le86au","1536","864","en","NG09US28","null","","","","learningBlock1","","","","<div style=""font-size:60px;""> </div>","null","LF","learning/Slide79.JPG","This is a bim:","",""
"","html-keyboard-response","244","599134","0.0-6.0-0.79","LF","gjq6le86au","1536","864","en","NG09US28","null","","","","learningBlock1","","","","This is a tob:","null","","","","",""
"","image-keyboard-response","245","599477","0.0-6.0-1.79","LF","gjq6le86au","1536","864","en","NG09US28","null","","","","","","","","learning/Slide80.JPG","null","","","","",""
"","html-keyboard-response","246","600489","0.0-6.0-2.79","LF","gjq6le86au","1536","864","en","NG09US28","null","","","","learningBlock1","","","","<div style=""font-size:60px;""> </div>","null","LF","learning/Slide80.JPG","This is a tob:","",""
"","instructions","247","759669","0.0-7.0","LF","gjq6le86au","1536","864","en","NG09US28","NA","","","[{""page_index"":0,""viewing_time"":159177.73500003386}]","instructions","","","","","","","","","",""
"","html-keyboard-response","248","760683","0.0-8.0-0.0","LF","gjq6le86au","1536","864","en","NG09US28","null","","","","learningBlock2","","","","This is a wug:","null","","","","",""
"","image-keyboard-response","249","761028","0.0-8.0-1.0","LF","gjq6le86au","1536","864","en","NG09US28","null","","","","","","","","learning/Slide81.JPG","null","","","","",""
"","html-keyboard-response","250","762040","0.0-8.0-2.0","LF","gjq6le86au","1536","864","en","NG09US28","null","","","","learningBlock2","","","","<div style=""font-size:60px;""> </div>","null","LF","learning/Slide81.JPG","This is a wug:","",""
"","html-keyboard-response","251","763052","0.0-8.0-0.1","LF","gjq6le86au","1536","864","en","NG09US28","null","","","","learningBlock2","","","","This is a bim:","null","","","","",""
"","image-keyboard-response","252","763394","0.0-8.0-1.1","LF","gjq6le86au","1536","864","en","NG09US28","null","","","","","","","","learning/Slide82.JPG","null","","","","",""
"","html-keyboard-response","253","764405","0.0-8.0-2.1","LF","gjq6le86au","1536","864","en","NG09US28","null","","","","learningBlock2","","","","<div style=""font-size:60px;""> </div>","null","LF","learning/Slide82.JPG","This is a bim:","",""
"","html-keyboard-response","254","765421","0.0-8.0-0.2","LF","gjq6le86au","1536","864","en","NG09US28","null","","","","learningBlock2","","","","This is a wug:","null","","","","",""
"","image-keyboard-response","255","765762","0.0-8.0-1.2","LF","gjq6le86au","1536","864","en","NG09US28","null","","","","","","","","learning/Slide83.JPG","null","","","","",""
"","html-keyboard-response","256","766775","0.0-8.0-2.2","LF","gjq6le86au","1536","864","en","NG09US28","null","","","","learningBlock2","","","","<div style=""font-size:60px;""> </div>","null","LF","learning/Slide83.JPG","This is a wug:","",""
"","html-keyboard-response","257","767788","0.0-8.0-0.3","LF","gjq6le86au","1536","864","en","NG09US28","null","","","","learningBlock2","","","","This is a dep:","null","","","","",""
"","image-keyboard-response","258","768118","0.0-8.0-1.3","LF","gjq6le86au","1536","864","en","NG09US28","null","","","","","","","","learning/Slide84.JPG","null","","","","",""
"","html-keyboard-response","259","769131","0.0-8.0-2.3","LF","gjq6le86au","1536","864","en","NG09US28","null","","","","learningBlock2","","","","<div style=""font-size:60px;""> </div>","null","LF","learning/Slide84.JPG","This is a dep:","",""
"","html-keyboard-response","260","770141","0.0-8.0-0.4","LF","gjq6le86au","1536","864","en","NG09US28","null","","","","learningBlock2","","","","This is a bim:","null","","","","",""
"","image-keyboard-response","261","770483","0.0-8.0-1.4","LF","gjq6le86au","1536","864","en","NG09US28","null","","","","","","","","learning/Slide85.JPG","null","","","","",""
"","html-keyboard-response","262","771497","0.0-8.0-2.4","LF","gjq6le86au","1536","864","en","NG09US28","null","","","","learningBlock2","","","","<div style=""font-size:60px;""> </div>","null","LF","learning/Slide85.JPG","This is a bim:","",""
"","html-keyboard-response","263","772511","0.0-8.0-0.5","LF","gjq6le86au","1536","864","en","NG09US28","null","","","","learningBlock2","","","","This is a tob:","null","","","","",""
"","image-keyboard-response","264","772853","0.0-8.0-1.5","LF","gjq6le86au","1536","864","en","NG09US28","null","","","","","","","","learning/Slide86.JPG","null","","","","",""
"","html-keyboard-response","265","773866","0.0-8.0-2.5","LF","gjq6le86au","1536","864","en","NG09US28","null","","","","learningBlock2","","","","<div style=""font-size:60px;""> </div>","null","LF","learning/Slide86.JPG","This is a tob:","",""
"","html-keyboard-response","266","774879","0.0-8.0-0.6","LF","gjq6le86au","1536","864","en","NG09US28","null","","","","learningBlock2","","","","This is a wug:","null","","","","",""
"","image-keyboard-response","267","775210","0.0-8.0-1.6","LF","gjq6le86au","1536","864","en","NG09US28","null","","","","","","","","learning/Slide87.JPG","null","","","","",""
"","html-keyboard-response","268","776221","0.0-8.0-2.6","LF","gjq6le86au","1536","864","en","NG09US28","null","","","","learningBlock2","","","","<div style=""font-size:60px;""> </div>","null","LF","learning/Slide87.JPG","This is a wug:","",""
"","html-keyboard-response","269","777235","0.0-8.0-0.7","LF","gjq6le86au","1536","864","en","NG09US28","null","","","","learningBlock2","","","","This is a tob:","null","","","","",""
"","image-keyboard-response","270","777562","0.0-8.0-1.7","LF","gjq6le86au","1536","864","en","NG09US28","null","","","","","","","","learning/Slide88.JPG","null","","","","",""
"","html-keyboard-response","271","778573","0.0-8.0-2.7","LF","gjq6le86au","1536","864","en","NG09US28","null","","","","learningBlock2","","","","<div style=""font-size:60px;""> </div>","null","LF","learning/Slide88.JPG","This is a tob:","",""
"","html-keyboard-response","272","779577","0.0-8.0-0.8","LF","gjq6le86au","1536","864","en","NG09US28","null","","","","learningBlock2","","","","This is a bim:","null","","","","",""
"","image-keyboard-response","273","779909","0.0-8.0-1.8","LF","gjq6le86au","1536","864","en","NG09US28","null","","","","","","","","learning/Slide89.JPG","null","","","","",""
"","html-keyboard-response","274","780917","0.0-8.0-2.8","LF","gjq6le86au","1536","864","en","NG09US28","null","","","","learningBlock2","","","","<div style=""font-size:60px;""> </div>","null","LF","learning/Slide89.JPG","This is a bim:","",""
"","html-keyboard-response","275","781927","0.0-8.0-0.9","LF","gjq6le86au","1536","864","en","NG09US28","null","","","","learningBlock2","","","","This is a dep:","null","","","","",""
"","image-keyboard-response","276","782270","0.0-8.0-1.9","LF","gjq6le86au","1536","864","en","NG09US28","null","","","","","","","","learning/Slide90.JPG","null","","","","",""
"","html-keyboard-response","277","783281","0.0-8.0-2.9","LF","gjq6le86au","1536","864","en","NG09US28","null","","","","learningBlock2","","","","<div style=""font-size:60px;""> </div>","null","LF","learning/Slide90.JPG","This is a dep:","",""
"","html-keyboard-response","278","784297","0.0-8.0-0.10","LF","gjq6le86au","1536","864","en","NG09US28","null","","","","learningBlock2","","","","This is a wug:","null","","","","",""
"","image-keyboard-response","279","784625","0.0-8.0-1.10","LF","gjq6le86au","1536","864","en","NG09US28","null","","","","","","","","learning/Slide91.JPG","null","","","","",""
"","html-keyboard-response","280","785643","0.0-8.0-2.10","LF","gjq6le86au","1536","864","en","NG09US28","null","","","","learningBlock2","","","","<div style=""font-size:60px;""> </div>","null","LF","learning/Slide91.JPG","This is a wug:","",""
"","html-keyboard-response","281","786658","0.0-8.0-0.11","LF","gjq6le86au","1536","864","en","NG09US28","null","","","","learningBlock2","","","","This is a tob:","null","","","","",""
"","image-keyboard-response","282","786991","0.0-8.0-1.11","LF","gjq6le86au","1536","864","en","NG09US28","null","","","","","","","","learning/Slide92.JPG","null","","","","",""
"","html-keyboard-response","283","787999","0.0-8.0-2.11","LF","gjq6le86au","1536","864","en","NG09US28","null","","","","learningBlock2","","","","<div style=""font-size:60px;""> </div>","null","LF","learning/Slide92.JPG","This is a tob:","",""
"","html-keyboard-response","284","789009","0.0-8.0-0.12","LF","gjq6le86au","1536","864","en","NG09US28","null","","","","learningBlock2","","","","This is a bim:","null","","","","",""
"","image-keyboard-response","285","789343","0.0-8.0-1.12","LF","gjq6le86au","1536","864","en","NG09US28","null","","","","","","","","learning/Slide93.JPG","null","","","","",""
"","html-keyboard-response","286","790350","0.0-8.0-2.12","LF","gjq6le86au","1536","864","en","NG09US28","null","","","","learningBlock2","","","","<div style=""font-size:60px;""> </div>","null","LF","learning/Slide93.JPG","This is a bim:","",""
"","html-keyboard-response","287","791366","0.0-8.0-0.13","LF","gjq6le86au","1536","864","en","NG09US28","null","","","","learningBlock2","","","","This is a tob:","null","","","","",""
"","image-keyboard-response","288","791694","0.0-8.0-1.13","LF","gjq6le86au","1536","864","en","NG09US28","null","","","","","","","","learning/Slide94.JPG","null","","","","",""
"","html-keyboard-response","289","792705","0.0-8.0-2.13","LF","gjq6le86au","1536","864","en","NG09US28","null","","","","learningBlock2","","","","<div style=""font-size:60px;""> </div>","null","LF","learning/Slide94.JPG","This is a tob:","",""
"","html-keyboard-response","290","793720","0.0-8.0-0.14","LF","gjq6le86au","1536","864","en","NG09US28","null","","","","learningBlock2","","","","This is a wug:","null","","","","",""
"","image-keyboard-response","291","794047","0.0-8.0-1.14","LF","gjq6le86au","1536","864","en","NG09US28","null","","","","","","","","learning/Slide95.JPG","null","","","","",""
"","html-keyboard-response","292","795060","0.0-8.0-2.14","LF","gjq6le86au","1536","864","en","NG09US28","null","","","","learningBlock2","","","","<div style=""font-size:60px;""> </div>","null","LF","learning/Slide95.JPG","This is a wug:","",""
"","html-keyboard-response","293","796074","0.0-8.0-0.15","LF","gjq6le86au","1536","864","en","NG09US28","null","","","","learningBlock2","","","","This is a tob:","null","","","","",""
"","image-keyboard-response","294","796416","0.0-8.0-1.15","LF","gjq6le86au","1536","864","en","NG09US28","null","","","","","","","","learning/Slide96.JPG","null","","","","",""
"","html-keyboard-response","295","797429","0.0-8.0-2.15","LF","gjq6le86au","1536","864","en","NG09US28","null","","","","learningBlock2","","","","<div style=""font-size:60px;""> </div>","null","LF","learning/Slide96.JPG","This is a tob:","",""
"","html-keyboard-response","296","798438","0.0-8.0-0.16","LF","gjq6le86au","1536","864","en","NG09US28","null","","","","learningBlock2","","","","This is a dep:","null","","","","",""
"","image-keyboard-response","297","798772","0.0-8.0-1.16","LF","gjq6le86au","1536","864","en","NG09US28","null","","","","","","","","learning/Slide97.JPG","null","","","","",""
"","html-keyboard-response","298","799777","0.0-8.0-2.16","LF","gjq6le86au","1536","864","en","NG09US28","null","","","","learningBlock2","","","","<div style=""font-size:60px;""> </div>","null","LF","learning/Slide97.JPG","This is a dep:","",""
"","html-keyboard-response","299","800790","0.0-8.0-0.17","LF","gjq6le86au","1536","864","en","NG09US28","null","","","","learningBlock2","","","","This is a bim:","null","","","","",""
"","image-keyboard-response","300","801121","0.0-8.0-1.17","LF","gjq6le86au","1536","864","en","NG09US28","null","","","","","","","","learning/Slide98.JPG","null","","","","",""
"","html-keyboard-response","301","802132","0.0-8.0-2.17","LF","gjq6le86au","1536","864","en","NG09US28","null","","","","learningBlock2","","","","<div style=""font-size:60px;""> </div>","null","LF","learning/Slide98.JPG","This is a bim:","",""
"","html-keyboard-response","302","803145","0.0-8.0-0.18","LF","gjq6le86au","1536","864","en","NG09US28","null","","","","learningBlock2","","","","This is a dep:","null","","","","",""
"","image-keyboard-response","303","803475","0.0-8.0-1.18","LF","gjq6le86au","1536","864","en","NG09US28","null","","","","","","","","learning/Slide99.JPG","null","","","","",""
"","html-keyboard-response","304","804488","0.0-8.0-2.18","LF","gjq6le86au","1536","864","en","NG09US28","null","","","","learningBlock2","","","","<div style=""font-size:60px;""> </div>","null","LF","learning/Slide99.JPG","This is a dep:","",""
"","html-keyboard-response","305","805501","0.0-8.0-0.19","LF","gjq6le86au","1536","864","en","NG09US28","null","","","","learningBlock2","","","","This is a bim:","null","","","","",""
"","image-keyboard-response","306","805842","0.0-8.0-1.19","LF","gjq6le86au","1536","864","en","NG09US28","null","","","","","","","","learning/Slide100.JPG","null","","","","",""
"","html-keyboard-response","307","806857","0.0-8.0-2.19","LF","gjq6le86au","1536","864","en","NG09US28","null","","","","learningBlock2","","","","<div style=""font-size:60px;""> </div>","null","LF","learning/Slide100.JPG","This is a bim:","",""
"","html-keyboard-response","308","807869","0.0-8.0-0.20","LF","gjq6le86au","1536","864","en","NG09US28","null","","","","learningBlock2","","","","This is a tob:","null","","","","",""
"","image-keyboard-response","309","808211","0.0-8.0-1.20","LF","gjq6le86au","1536","864","en","NG09US28","null","","","","","","","","learning/Slide101.JPG","null","","","","",""
"","html-keyboard-response","310","809223","0.0-8.0-2.20","LF","gjq6le86au","1536","864","en","NG09US28","null","","","","learningBlock2","","","","<div style=""font-size:60px;""> </div>","null","LF","learning/Slide101.JPG","This is a tob:","",""
"","html-keyboard-response","311","810239","0.0-8.0-0.21","LF","gjq6le86au","1536","864","en","NG09US28","null","","","","learningBlock2","","","","This is a bim:","null","","","","",""
"","image-keyboard-response","312","810570","0.0-8.0-1.21","LF","gjq6le86au","1536","864","en","NG09US28","null","","","","","","","","learning/Slide102.JPG","null","","","","",""
"","html-keyboard-response","313","811579","0.0-8.0-2.21","LF","gjq6le86au","1536","864","en","NG09US28","null","","","","learningBlock2","","","","<div style=""font-size:60px;""> </div>","null","LF","learning/Slide102.JPG","This is a bim:","",""
"","html-keyboard-response","314","812594","0.0-8.0-0.22","LF","gjq6le86au","1536","864","en","NG09US28","null","","","","learningBlock2","","","","This is a dep:","null","","","","",""
"","image-keyboard-response","315","812936","0.0-8.0-1.22","LF","gjq6le86au","1536","864","en","NG09US28","null","","","","","","","","learning/Slide103.JPG","null","","","","",""
"","html-keyboard-response","316","813949","0.0-8.0-2.22","LF","gjq6le86au","1536","864","en","NG09US28","null","","","","learningBlock2","","","","<div style=""font-size:60px;""> </div>","null","LF","learning/Slide103.JPG","This is a dep:","",""
"","html-keyboard-response","317","814964","0.0-8.0-0.23","LF","gjq6le86au","1536","864","en","NG09US28","null","","","","learningBlock2","","","","This is a tob:","null","","","","",""
"","image-keyboard-response","318","815293","0.0-8.0-1.23","LF","gjq6le86au","1536","864","en","NG09US28","null","","","","","","","","learning/Slide104.JPG","null","","","","",""
"","html-keyboard-response","319","816305","0.0-8.0-2.23","LF","gjq6le86au","1536","864","en","NG09US28","null","","","","learningBlock2","","","","<div style=""font-size:60px;""> </div>","null","LF","learning/Slide104.JPG","This is a tob:","",""
"","html-keyboard-response","320","817320","0.0-8.0-0.24","LF","gjq6le86au","1536","864","en","NG09US28","null","","","","learningBlock2","","","","This is a dep:","null","","","","",""
"","image-keyboard-response","321","817652","0.0-8.0-1.24","LF","gjq6le86au","1536","864","en","NG09US28","null","","","","","","","","learning/Slide105.JPG","null","","","","",""
"","html-keyboard-response","322","818657","0.0-8.0-2.24","LF","gjq6le86au","1536","864","en","NG09US28","null","","","","learningBlock2","","","","<div style=""font-size:60px;""> </div>","null","LF","learning/Slide105.JPG","This is a dep:","",""
"","html-keyboard-response","323","819673","0.0-8.0-0.25","LF","gjq6le86au","1536","864","en","NG09US28","null","","","","learningBlock2","","","","This is a wug:","null","","","","",""
"","image-keyboard-response","324","820006","0.0-8.0-1.25","LF","gjq6le86au","1536","864","en","NG09US28","null","","","","","","","","learning/Slide106.JPG","null","","","","",""
"","html-keyboard-response","325","821016","0.0-8.0-2.25","LF","gjq6le86au","1536","864","en","NG09US28","null","","","","learningBlock2","","","","<div style=""font-size:60px;""> </div>","null","LF","learning/Slide106.JPG","This is a wug:","",""
"","html-keyboard-response","326","822031","0.0-8.0-0.26","LF","gjq6le86au","1536","864","en","NG09US28","null","","","","learningBlock2","","","","This is a bim:","null","","","","",""
"","image-keyboard-response","327","822373","0.0-8.0-1.26","LF","gjq6le86au","1536","864","en","NG09US28","null","","","","","","","","learning/Slide107.JPG","null","","","","",""
"","html-keyboard-response","328","823384","0.0-8.0-2.26","LF","gjq6le86au","1536","864","en","NG09US28","null","","","","learningBlock2","","","","<div style=""font-size:60px;""> </div>","null","LF","learning/Slide107.JPG","This is a bim:","",""
"","html-keyboard-response","329","824397","0.0-8.0-0.27","LF","gjq6le86au","1536","864","en","NG09US28","null","","","","learningBlock2","","","","This is a dep:","null","","","","",""
"","image-keyboard-response","330","824728","0.0-8.0-1.27","LF","gjq6le86au","1536","864","en","NG09US28","null","","","","","","","","learning/Slide108.JPG","null","","","","",""
"","html-keyboard-response","331","825737","0.0-8.0-2.27","LF","gjq6le86au","1536","864","en","NG09US28","null","","","","learningBlock2","","","","<div style=""font-size:60px;""> </div>","null","LF","learning/Slide108.JPG","This is a dep:","",""
"","html-keyboard-response","332","826747","0.0-8.0-0.28","LF","gjq6le86au","1536","864","en","NG09US28","null","","","","learningBlock2","","","","This is a wug:","null","","","","",""
"","image-keyboard-response","333","827087","0.0-8.0-1.28","LF","gjq6le86au","1536","864","en","NG09US28","null","","","","","","","","learning/Slide109.JPG","null","","","","",""
"","html-keyboard-response","334","828099","0.0-8.0-2.28","LF","gjq6le86au","1536","864","en","NG09US28","null","","","","learningBlock2","","","","<div style=""font-size:60px;""> </div>","null","LF","learning/Slide109.JPG","This is a wug:","",""
"","html-keyboard-response","335","829111","0.0-8.0-0.29","LF","gjq6le86au","1536","864","en","NG09US28","null","","","","learningBlock2","","","","This is a bim:","null","","","","",""
"","image-keyboard-response","336","829438","0.0-8.0-1.29","LF","gjq6le86au","1536","864","en","NG09US28","null","","","","","","","","learning/Slide110.JPG","null","","","","",""
"","html-keyboard-response","337","830455","0.0-8.0-2.29","LF","gjq6le86au","1536","864","en","NG09US28","null","","","","learningBlock2","","","","<div style=""font-size:60px;""> </div>","null","LF","learning/Slide110.JPG","This is a bim:","",""
"","html-keyboard-response","338","831468","0.0-8.0-0.30","LF","gjq6le86au","1536","864","en","NG09US28","null","","","","learningBlock2","","","","This is a tob:","null","","","","",""
"","image-keyboard-response","339","831811","0.0-8.0-1.30","LF","gjq6le86au","1536","864","en","NG09US28","null","","","","","","","","learning/Slide111.JPG","null","","","","",""
"","html-keyboard-response","340","832823","0.0-8.0-2.30","LF","gjq6le86au","1536","864","en","NG09US28","null","","","","learningBlock2","","","","<div style=""font-size:60px;""> </div>","null","LF","learning/Slide111.JPG","This is a tob:","",""
"","html-keyboard-response","341","833833","0.0-8.0-0.31","LF","gjq6le86au","1536","864","en","NG09US28","null","","","","learningBlock2","","","","This is a wug:","null","","","","",""
"","image-keyboard-response","342","834164","0.0-8.0-1.31","LF","gjq6le86au","1536","864","en","NG09US28","null","","","","","","","","learning/Slide112.JPG","null","","","","",""
"","html-keyboard-response","343","835176","0.0-8.0-2.31","LF","gjq6le86au","1536","864","en","NG09US28","null","","","","learningBlock2","","","","<div style=""font-size:60px;""> </div>","null","LF","learning/Slide112.JPG","This is a wug:","",""
"","html-keyboard-response","344","836190","0.0-8.0-0.32","LF","gjq6le86au","1536","864","en","NG09US28","null","","","","learningBlock2","","","","This is a tob:","null","","","","",""
"","image-keyboard-response","345","836531","0.0-8.0-1.32","LF","gjq6le86au","1536","864","en","NG09US28","null","","","","","","","","learning/Slide113.JPG","null","","","","",""
"","html-keyboard-response","346","837542","0.0-8.0-2.32","LF","gjq6le86au","1536","864","en","NG09US28","null","","","","learningBlock2","","","","<div style=""font-size:60px;""> </div>","null","LF","learning/Slide113.JPG","This is a tob:","",""
"","html-keyboard-response","347","838556","0.0-8.0-0.33","LF","gjq6le86au","1536","864","en","NG09US28","null","","","","learningBlock2","","","","This is a wug:","null","","","","",""
"","image-keyboard-response","348","838887","0.0-8.0-1.33","LF","gjq6le86au","1536","864","en","NG09US28","null","","","","","","","","learning/Slide114.JPG","null","","","","",""
"","html-keyboard-response","349","839891","0.0-8.0-2.33","LF","gjq6le86au","1536","864","en","NG09US28","null","","","","learningBlock2","","","","<div style=""font-size:60px;""> </div>","null","LF","learning/Slide114.JPG","This is a wug:","",""
"","html-keyboard-response","350","840906","0.0-8.0-0.34","LF","gjq6le86au","1536","864","en","NG09US28","null","","","","learningBlock2","","","","This is a bim:","null","","","","",""
"","image-keyboard-response","351","841238","0.0-8.0-1.34","LF","gjq6le86au","1536","864","en","NG09US28","null","","","","","","","","learning/Slide115.JPG","null","","","","",""
"","html-keyboard-response","352","842243","0.0-8.0-2.34","LF","gjq6le86au","1536","864","en","NG09US28","null","","","","learningBlock2","","","","<div style=""font-size:60px;""> </div>","null","LF","learning/Slide115.JPG","This is a bim:","",""
"","html-keyboard-response","353","843257","0.0-8.0-0.35","LF","gjq6le86au","1536","864","en","NG09US28","null","","","","learningBlock2","","","","This is a dep:","null","","","","",""
"","image-keyboard-response","354","843589","0.0-8.0-1.35","LF","gjq6le86au","1536","864","en","NG09US28","null","","","","","","","","learning/Slide116.JPG","null","","","","",""
"","html-keyboard-response","355","844594","0.0-8.0-2.35","LF","gjq6le86au","1536","864","en","NG09US28","null","","","","learningBlock2","","","","<div style=""font-size:60px;""> </div>","null","LF","learning/Slide116.JPG","This is a dep:","",""
"","html-keyboard-response","356","845604","0.0-8.0-0.36","LF","gjq6le86au","1536","864","en","NG09US28","null","","","","learningBlock2","","","","This is a tob:","null","","","","",""
"","image-keyboard-response","357","845947","0.0-8.0-1.36","LF","gjq6le86au","1536","864","en","NG09US28","null","","","","","","","","learning/Slide117.JPG","null","","","","",""
"","html-keyboard-response","358","846960","0.0-8.0-2.36","LF","gjq6le86au","1536","864","en","NG09US28","null","","","","learningBlock2","","","","<div style=""font-size:60px;""> </div>","null","LF","learning/Slide117.JPG","This is a tob:","",""
"","html-keyboard-response","359","847975","0.0-8.0-0.37","LF","gjq6le86au","1536","864","en","NG09US28","null","","","","learningBlock2","","","","This is a dep:","null","","","","",""
"","image-keyboard-response","360","848304","0.0-8.0-1.37","LF","gjq6le86au","1536","864","en","NG09US28","null","","","","","","","","learning/Slide118.JPG","null","","","","",""
"","html-keyboard-response","361","849315","0.0-8.0-2.37","LF","gjq6le86au","1536","864","en","NG09US28","null","","","","learningBlock2","","","","<div style=""font-size:60px;""> </div>","null","LF","learning/Slide118.JPG","This is a dep:","",""
"","html-keyboard-response","362","850330","0.0-8.0-0.38","LF","gjq6le86au","1536","864","en","NG09US28","null","","","","learningBlock2","","","","This is a wug:","null","","","","",""
"","image-keyboard-response","363","850658","0.0-8.0-1.38","LF","gjq6le86au","1536","864","en","NG09US28","null","","","","","","","","learning/Slide119.JPG","null","","","","",""
"","html-keyboard-response","364","851673","0.0-8.0-2.38","LF","gjq6le86au","1536","864","en","NG09US28","null","","","","learningBlock2","","","","<div style=""font-size:60px;""> </div>","null","LF","learning/Slide119.JPG","This is a wug:","",""
"","html-keyboard-response","365","852684","0.0-8.0-0.39","LF","gjq6le86au","1536","864","en","NG09US28","null","","","","learningBlock2","","","","This is a dep:","null","","","","",""
"","image-keyboard-response","366","853026","0.0-8.0-1.39","LF","gjq6le86au","1536","864","en","NG09US28","null","","","","","","","","learning/Slide120.JPG","null","","","","",""
"","html-keyboard-response","367","854037","0.0-8.0-2.39","LF","gjq6le86au","1536","864","en","NG09US28","null","","","","learningBlock2","","","","<div style=""font-size:60px;""> </div>","null","LF","learning/Slide120.JPG","This is a dep:","",""
"","html-keyboard-response","368","855051","0.0-8.0-0.40","LF","gjq6le86au","1536","864","en","NG09US28","null","","","","learningBlock2","","","","This is a bim:","null","","","","",""
"","image-keyboard-response","369","855392","0.0-8.0-1.40","LF","gjq6le86au","1536","864","en","NG09US28","null","","","","","","","","learning/Slide121.JPG","null","","","","",""
"","html-keyboard-response","370","856408","0.0-8.0-2.40","LF","gjq6le86au","1536","864","en","NG09US28","null","","","","learningBlock2","","","","<div style=""font-size:60px;""> </div>","null","LF","learning/Slide121.JPG","This is a bim:","",""
"","html-keyboard-response","371","857422","0.0-8.0-0.41","LF","gjq6le86au","1536","864","en","NG09US28","null","","","","learningBlock2","","","","This is a wug:","null","","","","",""
"","image-keyboard-response","372","857753","0.0-8.0-1.41","LF","gjq6le86au","1536","864","en","NG09US28","null","","","","","","","","learning/Slide122.JPG","null","","","","",""
"","html-keyboard-response","373","858759","0.0-8.0-2.41","LF","gjq6le86au","1536","864","en","NG09US28","null","","","","learningBlock2","","","","<div style=""font-size:60px;""> </div>","null","LF","learning/Slide122.JPG","This is a wug:","",""
"","html-keyboard-response","374","859773","0.0-8.0-0.42","LF","gjq6le86au","1536","864","en","NG09US28","null","","","","learningBlock2","","","","This is a bim:","null","","","","",""
"","image-keyboard-response","375","860116","0.0-8.0-1.42","LF","gjq6le86au","1536","864","en","NG09US28","null","","","","","","","","learning/Slide123.JPG","null","","","","",""
"","html-keyboard-response","376","861128","0.0-8.0-2.42","LF","gjq6le86au","1536","864","en","NG09US28","null","","","","learningBlock2","","","","<div style=""font-size:60px;""> </div>","null","LF","learning/Slide123.JPG","This is a bim:","",""
"","html-keyboard-response","377","862139","0.0-8.0-0.43","LF","gjq6le86au","1536","864","en","NG09US28","null","","","","learningBlock2","","","","This is a tob:","null","","","","",""
"","image-keyboard-response","378","862481","0.0-8.0-1.43","LF","gjq6le86au","1536","864","en","NG09US28","null","","","","","","","","learning/Slide124.JPG","null","","","","",""
"","html-keyboard-response","379","863494","0.0-8.0-2.43","LF","gjq6le86au","1536","864","en","NG09US28","null","","","","learningBlock2","","","","<div style=""font-size:60px;""> </div>","null","LF","learning/Slide124.JPG","This is a tob:","",""
"","html-keyboard-response","380","864503","0.0-8.0-0.44","LF","gjq6le86au","1536","864","en","NG09US28","null","","","","learningBlock2","","","","This is a bim:","null","","","","",""
"","image-keyboard-response","381","864831","0.0-8.0-1.44","LF","gjq6le86au","1536","864","en","NG09US28","null","","","","","","","","learning/Slide125.JPG","null","","","","",""
"","html-keyboard-response","382","865843","0.0-8.0-2.44","LF","gjq6le86au","1536","864","en","NG09US28","null","","","","learningBlock2","","","","<div style=""font-size:60px;""> </div>","null","LF","learning/Slide125.JPG","This is a bim:","",""
"","html-keyboard-response","383","866856","0.0-8.0-0.45","LF","gjq6le86au","1536","864","en","NG09US28","null","","","","learningBlock2","","","","This is a tob:","null","","","","",""
"","image-keyboard-response","384","867196","0.0-8.0-1.45","LF","gjq6le86au","1536","864","en","NG09US28","null","","","","","","","","learning/Slide126.JPG","null","","","","",""
"","html-keyboard-response","385","868210","0.0-8.0-2.45","LF","gjq6le86au","1536","864","en","NG09US28","null","","","","learningBlock2","","","","<div style=""font-size:60px;""> </div>","null","LF","learning/Slide126.JPG","This is a tob:","",""
"","html-keyboard-response","386","869222","0.0-8.0-0.46","LF","gjq6le86au","1536","864","en","NG09US28","null","","","","learningBlock2","","","","This is a dep:","null","","","","",""
"","image-keyboard-response","387","869564","0.0-8.0-1.46","LF","gjq6le86au","1536","864","en","NG09US28","null","","","","","","","","learning/Slide127.JPG","null","","","","",""
"","html-keyboard-response","388","870579","0.0-8.0-2.46","LF","gjq6le86au","1536","864","en","NG09US28","null","","","","learningBlock2","","","","<div style=""font-size:60px;""> </div>","null","LF","learning/Slide127.JPG","This is a dep:","",""
"","html-keyboard-response","389","871592","0.0-8.0-0.47","LF","gjq6le86au","1536","864","en","NG09US28","null","","","","learningBlock2","","","","This is a wug:","null","","","","",""
"","image-keyboard-response","390","871935","0.0-8.0-1.47","LF","gjq6le86au","1536","864","en","NG09US28","null","","","","","","","","learning/Slide128.JPG","null","","","","",""
"","html-keyboard-response","391","872945","0.0-8.0-2.47","LF","gjq6le86au","1536","864","en","NG09US28","null","","","","learningBlock2","","","","<div style=""font-size:60px;""> </div>","null","LF","learning/Slide128.JPG","This is a wug:","",""
"","html-keyboard-response","392","873961","0.0-8.0-0.48","LF","gjq6le86au","1536","864","en","NG09US28","null","","","","learningBlock2","","","","This is a tob:","null","","","","",""
"","image-keyboard-response","393","874295","0.0-8.0-1.48","LF","gjq6le86au","1536","864","en","NG09US28","null","","","","","","","","learning/Slide129.JPG","null","","","","",""
"","html-keyboard-response","394","875300","0.0-8.0-2.48","LF","gjq6le86au","1536","864","en","NG09US28","null","","","","learningBlock2","","","","<div style=""font-size:60px;""> </div>","null","LF","learning/Slide129.JPG","This is a tob:","",""
"","html-keyboard-response","395","876314","0.0-8.0-0.49","LF","gjq6le86au","1536","864","en","NG09US28","null","","","","learningBlock2","","","","This is a wug:","null","","","","",""
"","image-keyboard-response","396","876647","0.0-8.0-1.49","LF","gjq6le86au","1536","864","en","NG09US28","null","","","","","","","","learning/Slide130.JPG","null","","","","",""
"","html-keyboard-response","397","877656","0.0-8.0-2.49","LF","gjq6le86au","1536","864","en","NG09US28","null","","","","learningBlock2","","","","<div style=""font-size:60px;""> </div>","null","LF","learning/Slide130.JPG","This is a wug:","",""
"","html-keyboard-response","398","878670","0.0-8.0-0.50","LF","gjq6le86au","1536","864","en","NG09US28","null","","","","learningBlock2","","","","This is a bim:","null","","","","",""
"","image-keyboard-response","399","878998","0.0-8.0-1.50","LF","gjq6le86au","1536","864","en","NG09US28","null","","","","","","","","learning/Slide131.JPG","null","","","","",""
"","html-keyboard-response","400","880008","0.0-8.0-2.50","LF","gjq6le86au","1536","864","en","NG09US28","null","","","","learningBlock2","","","","<div style=""font-size:60px;""> </div>","null","LF","learning/Slide131.JPG","This is a bim:","",""
"","html-keyboard-response","401","881021","0.0-8.0-0.51","LF","gjq6le86au","1536","864","en","NG09US28","null","","","","learningBlock2","","","","This is a dep:","null","","","","",""
"","image-keyboard-response","402","881354","0.0-8.0-1.51","LF","gjq6le86au","1536","864","en","NG09US28","null","","","","","","","","learning/Slide132.JPG","null","","","","",""
"","html-keyboard-response","403","882357","0.0-8.0-2.51","LF","gjq6le86au","1536","864","en","NG09US28","null","","","","learningBlock2","","","","<div style=""font-size:60px;""> </div>","null","LF","learning/Slide132.JPG","This is a dep:","",""
"","html-keyboard-response","404","883374","0.0-8.0-0.52","LF","gjq6le86au","1536","864","en","NG09US28","null","","","","learningBlock2","","","","This is a tob:","null","","","","",""
"","image-keyboard-response","405","883714","0.0-8.0-1.52","LF","gjq6le86au","1536","864","en","NG09US28","null","","","","","","","","learning/Slide133.JPG","null","","","","",""
"","html-keyboard-response","406","884727","0.0-8.0-2.52","LF","gjq6le86au","1536","864","en","NG09US28","null","","","","learningBlock2","","","","<div style=""font-size:60px;""> </div>","null","LF","learning/Slide133.JPG","This is a tob:","",""
"","html-keyboard-response","407","885739","0.0-8.0-0.53","LF","gjq6le86au","1536","864","en","NG09US28","null","","","","learningBlock2","","","","This is a dep:","null","","","","",""
"","image-keyboard-response","408","886082","0.0-8.0-1.53","LF","gjq6le86au","1536","864","en","NG09US28","null","","","","","","","","learning/Slide134.JPG","null","","","","",""
"","html-keyboard-response","409","887092","0.0-8.0-2.53","LF","gjq6le86au","1536","864","en","NG09US28","null","","","","learningBlock2","","","","<div style=""font-size:60px;""> </div>","null","LF","learning/Slide134.JPG","This is a dep:","",""
"","html-keyboard-response","410","888104","0.0-8.0-0.54","LF","gjq6le86au","1536","864","en","NG09US28","null","","","","learningBlock2","","","","This is a tob:","null","","","","",""
"","image-keyboard-response","411","888445","0.0-8.0-1.54","LF","gjq6le86au","1536","864","en","NG09US28","null","","","","","","","","learning/Slide135.JPG","null","","","","",""
"","html-keyboard-response","412","889453","0.0-8.0-2.54","LF","gjq6le86au","1536","864","en","NG09US28","null","","","","learningBlock2","","","","<div style=""font-size:60px;""> </div>","null","LF","learning/Slide135.JPG","This is a tob:","",""
"","html-keyboard-response","413","890464","0.0-8.0-0.55","LF","gjq6le86au","1536","864","en","NG09US28","null","","","","learningBlock2","","","","This is a wug:","null","","","","",""
"","image-keyboard-response","414","890793","0.0-8.0-1.55","LF","gjq6le86au","1536","864","en","NG09US28","null","","","","","","","","learning/Slide136.JPG","null","","","","",""
"","html-keyboard-response","415","891808","0.0-8.0-2.55","LF","gjq6le86au","1536","864","en","NG09US28","null","","","","learningBlock2","","","","<div style=""font-size:60px;""> </div>","null","LF","learning/Slide136.JPG","This is a wug:","",""
"","html-keyboard-response","416","892823","0.0-8.0-0.56","LF","gjq6le86au","1536","864","en","NG09US28","null","","","","learningBlock2","","","","This is a tob:","null","","","","",""
"","image-keyboard-response","417","893165","0.0-8.0-1.56","LF","gjq6le86au","1536","864","en","NG09US28","null","","","","","","","","learning/Slide137.JPG","null","","","","",""
"","html-keyboard-response","418","894177","0.0-8.0-2.56","LF","gjq6le86au","1536","864","en","NG09US28","null","","","","learningBlock2","","","","<div style=""font-size:60px;""> </div>","null","LF","learning/Slide137.JPG","This is a tob:","",""
"","html-keyboard-response","419","895190","0.0-8.0-0.57","LF","gjq6le86au","1536","864","en","NG09US28","null","","","","learningBlock2","","","","This is a bim:","null","","","","",""
"","image-keyboard-response","420","895533","0.0-8.0-1.57","LF","gjq6le86au","1536","864","en","NG09US28","null","","","","","","","","learning/Slide138.JPG","null","","","","",""
"","html-keyboard-response","421","896542","0.0-8.0-2.57","LF","gjq6le86au","1536","864","en","NG09US28","null","","","","learningBlock2","","","","<div style=""font-size:60px;""> </div>","null","LF","learning/Slide138.JPG","This is a bim:","",""
"","html-keyboard-response","422","897551","0.0-8.0-0.58","LF","gjq6le86au","1536","864","en","NG09US28","null","","","","learningBlock2","","","","This is a wug:","null","","","","",""
"","image-keyboard-response","423","897880","0.0-8.0-1.58","LF","gjq6le86au","1536","864","en","NG09US28","null","","","","","","","","learning/Slide139.JPG","null","","","","",""
"","html-keyboard-response","424","898887","0.0-8.0-2.58","LF","gjq6le86au","1536","864","en","NG09US28","null","","","","learningBlock2","","","","<div style=""font-size:60px;""> </div>","null","LF","learning/Slide139.JPG","This is a wug:","",""
"","html-keyboard-response","425","899899","0.0-8.0-0.59","LF","gjq6le86au","1536","864","en","NG09US28","null","","","","learningBlock2","","","","This is a dep:","null","","","","",""
"","image-keyboard-response","426","900228","0.0-8.0-1.59","LF","gjq6le86au","1536","864","en","NG09US28","null","","","","","","","","learning/Slide140.JPG","null","","","","",""
"","html-keyboard-response","427","901243","0.0-8.0-2.59","LF","gjq6le86au","1536","864","en","NG09US28","null","","","","learningBlock2","","","","<div style=""font-size:60px;""> </div>","null","LF","learning/Slide140.JPG","This is a dep:","",""
"","html-keyboard-response","428","902255","0.0-8.0-0.60","LF","gjq6le86au","1536","864","en","NG09US28","null","","","","learningBlock2","","","","This is a tob:","null","","","","",""
"","image-keyboard-response","429","902588","0.0-8.0-1.60","LF","gjq6le86au","1536","864","en","NG09US28","null","","","","","","","","learning/Slide141.JPG","null","","","","",""
"","html-keyboard-response","430","903596","0.0-8.0-2.60","LF","gjq6le86au","1536","864","en","NG09US28","null","","","","learningBlock2","","","","<div style=""font-size:60px;""> </div>","null","LF","learning/Slide141.JPG","This is a tob:","",""
"","html-keyboard-response","431","904611","0.0-8.0-0.61","LF","gjq6le86au","1536","864","en","NG09US28","null","","","","learningBlock2","","","","This is a wug:","null","","","","",""
"","image-keyboard-response","432","904939","0.0-8.0-1.61","LF","gjq6le86au","1536","864","en","NG09US28","null","","","","","","","","learning/Slide142.JPG","null","","","","",""
"","html-keyboard-response","433","905951","0.0-8.0-2.61","LF","gjq6le86au","1536","864","en","NG09US28","null","","","","learningBlock2","","","","<div style=""font-size:60px;""> </div>","null","LF","learning/Slide142.JPG","This is a wug:","",""
"","html-keyboard-response","434","906963","0.0-8.0-0.62","LF","gjq6le86au","1536","864","en","NG09US28","null","","","","learningBlock2","","","","This is a bim:","null","","","","",""
"","image-keyboard-response","435","907295","0.0-8.0-1.62","LF","gjq6le86au","1536","864","en","NG09US28","null","","","","","","","","learning/Slide143.JPG","null","","","","",""
"","html-keyboard-response","436","908301","0.0-8.0-2.62","LF","gjq6le86au","1536","864","en","NG09US28","null","","","","learningBlock2","","","","<div style=""font-size:60px;""> </div>","null","LF","learning/Slide143.JPG","This is a bim:","",""
"","html-keyboard-response","437","909314","0.0-8.0-0.63","LF","gjq6le86au","1536","864","en","NG09US28","null","","","","learningBlock2","","","","This is a dep:","null","","","","",""
"","image-keyboard-response","438","909655","0.0-8.0-1.63","LF","gjq6le86au","1536","864","en","NG09US28","null","","","","","","","","learning/Slide144.JPG","null","","","","",""
"","html-keyboard-response","439","910669","0.0-8.0-2.63","LF","gjq6le86au","1536","864","en","NG09US28","null","","","","learningBlock2","","","","<div style=""font-size:60px;""> </div>","null","LF","learning/Slide144.JPG","This is a dep:","",""
"","html-keyboard-response","440","911682","0.0-8.0-0.64","LF","gjq6le86au","1536","864","en","NG09US28","null","","","","learningBlock2","","","","This is a bim:","null","","","","",""
"","image-keyboard-response","441","912010","0.0-8.0-1.64","LF","gjq6le86au","1536","864","en","NG09US28","null","","","","","","","","learning/Slide145.JPG","null","","","","",""
"","html-keyboard-response","442","913019","0.0-8.0-2.64","LF","gjq6le86au","1536","864","en","NG09US28","null","","","","learningBlock2","","","","<div style=""font-size:60px;""> </div>","null","LF","learning/Slide145.JPG","This is a bim:","",""
"","html-keyboard-response","443","914030","0.0-8.0-0.65","LF","gjq6le86au","1536","864","en","NG09US28","null","","","","learningBlock2","","","","This is a tob:","null","","","","",""
"","image-keyboard-response","444","914363","0.0-8.0-1.65","LF","gjq6le86au","1536","864","en","NG09US28","null","","","","","","","","learning/Slide146.JPG","null","","","","",""
"","html-keyboard-response","445","915370","0.0-8.0-2.65","LF","gjq6le86au","1536","864","en","NG09US28","null","","","","learningBlock2","","","","<div style=""font-size:60px;""> </div>","null","LF","learning/Slide146.JPG","This is a tob:","",""
"","html-keyboard-response","446","916383","0.0-8.0-0.66","LF","gjq6le86au","1536","864","en","NG09US28","null","","","","learningBlock2","","","","This is a wug:","null","","","","",""
"","image-keyboard-response","447","916727","0.0-8.0-1.66","LF","gjq6le86au","1536","864","en","NG09US28","null","","","","","","","","learning/Slide147.JPG","null","","","","",""
"","html-keyboard-response","448","917740","0.0-8.0-2.66","LF","gjq6le86au","1536","864","en","NG09US28","null","","","","learningBlock2","","","","<div style=""font-size:60px;""> </div>","null","LF","learning/Slide147.JPG","This is a wug:","",""
"","html-keyboard-response","449","918749","0.0-8.0-0.67","LF","gjq6le86au","1536","864","en","NG09US28","null","","","","learningBlock2","","","","This is a bim:","null","","","","",""
"","image-keyboard-response","450","919092","0.0-8.0-1.67","LF","gjq6le86au","1536","864","en","NG09US28","null","","","","","","","","learning/Slide148.JPG","null","","","","",""
"","html-keyboard-response","451","920103","0.0-8.0-2.67","LF","gjq6le86au","1536","864","en","NG09US28","null","","","","learningBlock2","","","","<div style=""font-size:60px;""> </div>","null","LF","learning/Slide148.JPG","This is a bim:","",""
"","html-keyboard-response","452","921116","0.0-8.0-0.68","LF","gjq6le86au","1536","864","en","NG09US28","null","","","","learningBlock2","","","","This is a dep:","null","","","","",""
"","image-keyboard-response","453","921456","0.0-8.0-1.68","LF","gjq6le86au","1536","864","en","NG09US28","null","","","","","","","","learning/Slide149.JPG","null","","","","",""
"","html-keyboard-response","454","922468","0.0-8.0-2.68","LF","gjq6le86au","1536","864","en","NG09US28","null","","","","learningBlock2","","","","<div style=""font-size:60px;""> </div>","null","LF","learning/Slide149.JPG","This is a dep:","",""
"","html-keyboard-response","455","923477","0.0-8.0-0.69","LF","gjq6le86au","1536","864","en","NG09US28","null","","","","learningBlock2","","","","This is a wug:","null","","","","",""
"","image-keyboard-response","456","923810","0.0-8.0-1.69","LF","gjq6le86au","1536","864","en","NG09US28","null","","","","","","","","learning/Slide150.JPG","null","","","","",""
"","html-keyboard-response","457","924820","0.0-8.0-2.69","LF","gjq6le86au","1536","864","en","NG09US28","null","","","","learningBlock2","","","","<div style=""font-size:60px;""> </div>","null","LF","learning/Slide150.JPG","This is a wug:","",""
"","html-keyboard-response","458","925834","0.0-8.0-0.70","LF","gjq6le86au","1536","864","en","NG09US28","null","","","","learningBlock2","","","","This is a dep:","null","","","","",""
"","image-keyboard-response","459","926163","0.0-8.0-1.70","LF","gjq6le86au","1536","864","en","NG09US28","null","","","","","","","","learning/Slide151.JPG","null","","","","",""
"","html-keyboard-response","460","927179","0.0-8.0-2.70","LF","gjq6le86au","1536","864","en","NG09US28","null","","","","learningBlock2","","","","<div style=""font-size:60px;""> </div>","null","LF","learning/Slide151.JPG","This is a dep:","",""
"","html-keyboard-response","461","928190","0.0-8.0-0.71","LF","gjq6le86au","1536","864","en","NG09US28","null","","","","learningBlock2","","","","This is a wug:","null","","","","",""
"","image-keyboard-response","462","928532","0.0-8.0-1.71","LF","gjq6le86au","1536","864","en","NG09US28","null","","","","","","","","learning/Slide152.JPG","null","","","","",""
"","html-keyboard-response","463","929542","0.0-8.0-2.71","LF","gjq6le86au","1536","864","en","NG09US28","null","","","","learningBlock2","","","","<div style=""font-size:60px;""> </div>","null","LF","learning/Slide152.JPG","This is a wug:","",""
"","html-keyboard-response","464","930556","0.0-8.0-0.72","LF","gjq6le86au","1536","864","en","NG09US28","null","","","","learningBlock2","","","","This is a bim:","null","","","","",""
"","image-keyboard-response","465","930888","0.0-8.0-1.72","LF","gjq6le86au","1536","864","en","NG09US28","null","","","","","","","","learning/Slide153.JPG","null","","","","",""
"","html-keyboard-response","466","931895","0.0-8.0-2.72","LF","gjq6le86au","1536","864","en","NG09US28","null","","","","learningBlock2","","","","<div style=""font-size:60px;""> </div>","null","LF","learning/Slide153.JPG","This is a bim:","",""
"","html-keyboard-response","467","932909","0.0-8.0-0.73","LF","gjq6le86au","1536","864","en","NG09US28","null","","","","learningBlock2","","","","This is a tob:","null","","","","",""
"","image-keyboard-response","468","933237","0.0-8.0-1.73","LF","gjq6le86au","1536","864","en","NG09US28","null","","","","","","","","learning/Slide154.JPG","null","","","","",""
"","html-keyboard-response","469","934251","0.0-8.0-2.73","LF","gjq6le86au","1536","864","en","NG09US28","null","","","","learningBlock2","","","","<div style=""font-size:60px;""> </div>","null","LF","learning/Slide154.JPG","This is a tob:","",""
"","html-keyboard-response","470","935265","0.0-8.0-0.74","LF","gjq6le86au","1536","864","en","NG09US28","null","","","","learningBlock2","","","","This is a dep:","null","","","","",""
"","image-keyboard-response","471","935593","0.0-8.0-1.74","LF","gjq6le86au","1536","864","en","NG09US28","null","","","","","","","","learning/Slide155.JPG","null","","","","",""
"","html-keyboard-response","472","936604","0.0-8.0-2.74","LF","gjq6le86au","1536","864","en","NG09US28","null","","","","learningBlock2","","","","<div style=""font-size:60px;""> </div>","null","LF","learning/Slide155.JPG","This is a dep:","",""
"","html-keyboard-response","473","937615","0.0-8.0-0.75","LF","gjq6le86au","1536","864","en","NG09US28","null","","","","learningBlock2","","","","This is a bim:","null","","","","",""
"","image-keyboard-response","474","937961","0.0-8.0-1.75","LF","gjq6le86au","1536","864","en","NG09US28","null","","","","","","","","learning/Slide156.JPG","null","","","","",""
"","html-keyboard-response","475","938971","0.0-8.0-2.75","LF","gjq6le86au","1536","864","en","NG09US28","null","","","","learningBlock2","","","","<div style=""font-size:60px;""> </div>","null","LF","learning/Slide156.JPG","This is a bim:","",""
"","html-keyboard-response","476","939985","0.0-8.0-0.76","LF","gjq6le86au","1536","864","en","NG09US28","null","","","","learningBlock2","","","","This is a dep:","null","","","","",""
"","image-keyboard-response","477","940314","0.0-8.0-1.76","LF","gjq6le86au","1536","864","en","NG09US28","null","","","","","","","","learning/Slide157.JPG","null","","","","",""
"","html-keyboard-response","478","941328","0.0-8.0-2.76","LF","gjq6le86au","1536","864","en","NG09US28","null","","","","learningBlock2","","","","<div style=""font-size:60px;""> </div>","null","LF","learning/Slide157.JPG","This is a dep:","",""
"","html-keyboard-response","479","942341","0.0-8.0-0.77","LF","gjq6le86au","1536","864","en","NG09US28","null","","","","learningBlock2","","","","This is a tob:","null","","","","",""
"","image-keyboard-response","480","942674","0.0-8.0-1.77","LF","gjq6le86au","1536","864","en","NG09US28","null","","","","","","","","learning/Slide158.JPG","null","","","","",""
"","html-keyboard-response","481","943683","0.0-8.0-2.77","LF","gjq6le86au","1536","864","en","NG09US28","null","","","","learningBlock2","","","","<div style=""font-size:60px;""> </div>","null","LF","learning/Slide158.JPG","This is a tob:","",""
"","html-keyboard-response","482","944699","0.0-8.0-0.78","LF","gjq6le86au","1536","864","en","NG09US28","null","","","","learningBlock2","","","","This is a dep:","null","","","","",""
"","image-keyboard-response","483","945044","0.0-8.0-1.78","LF","gjq6le86au","1536","864","en","NG09US28","null","","","","","","","","learning/Slide159.JPG","null","","","","",""
"","html-keyboard-response","484","946053","0.0-8.0-2.78","LF","gjq6le86au","1536","864","en","NG09US28","null","","","","learningBlock2","","","","<div style=""font-size:60px;""> </div>","null","LF","learning/Slide159.JPG","This is a dep:","",""
"","html-keyboard-response","485","947069","0.0-8.0-0.79","LF","gjq6le86au","1536","864","en","NG09US28","null","","","","learningBlock2","","","","This is a wug:","null","","","","",""
"","image-keyboard-response","486","947398","0.0-8.0-1.79","LF","gjq6le86au","1536","864","en","NG09US28","null","","","","","","","","learning/Slide160.JPG","null","","","","",""
"","html-keyboard-response","487","948406","0.0-8.0-2.79","LF","gjq6le86au","1536","864","en","NG09US28","null","","","","learningBlock2","","","","<div style=""font-size:60px;""> </div>","null","LF","learning/Slide160.JPG","This is a wug:","",""
"","resize2","488","960580","0.0-9.0","LF","gjq6le86au","1536","864","en","NG09US28","","","","","","","104","1.04","","","","","","",""
"","instructions","489","968112","0.0-10.0","LF","gjq6le86au","1536","864","en","NG09US28","NA","","","[{""page_index"":0,""viewing_time"":7531.269999977667}]","instructions","","","","","","","","","",""
