"success","trial_type","trial_index","time_elapsed","internal_node_id","condition","subject","screen_width","screen_height","language","codeword","rt","responses","url","view_history","test_part","final_height_px","final_width_px","scale_factor","stimulus","key_press","learningType","presentedImage","presentedLabel","button_pressed","response"
"true","fullscreen","0","2048","0.0-0.0","FL","owwgbas786","1536","864","en","ke09im08","","","","","","","","","","","","","","",""
"","survey-html-form","1","2966","0.0-1.0","FL","owwgbas786","1536","864","en","ke09im08","915.6850000144914","{""language"":""en""}","","","","","","","","","","","","",""
"","external-html","2","4538","0.0-3.0-0.0","FL","owwgbas786","1536","864","en","ke09im08","1567.1000000147615","","text/information_english.html","","","","","","","","","","","",""
"","external-html","3","7986","0.0-3.0-1.0","FL","owwgbas786","1536","864","en","ke09im08","3441.6500000224914","","text/consent_english.html","","","","","","","","","","","",""
"","survey-html-form","4","76226","0.0-3.0-2.0","FL","owwgbas786","1536","864","en","ke09im08","68239.0149999992","{""codeword_enter"":""ke09im08""}","","","","","","","","","","","","",""
"","instructions","5","94678","0.0-4.0","FL","owwgbas786","1536","864","en","ke09im08","NA","","","[{""page_index"":0,""viewing_time"":4087.1400000178255},{""page_index"":1,""viewing_time"":12862.104999978328}]","instructions","","","","","","","","","",""
"","resize","6","166641","0.0-5.0","FL","owwgbas786","1536","864","en","ke09im08","","","","","","","384","2.438095238095238","","","","","","",""
"","image-keyboard-response","7","166819","0.0-6.0-0.0","FL","owwgbas786","1536","864","en","ke09im08","null","","","","","","","","learning/Slide1.JPG","null","","","","",""
"","html-keyboard-response","8","167972","0.0-6.0-1.0","FL","owwgbas786","1536","864","en","ke09im08","null","","","","learningBlock1","","","","That was a tob.","null","","","","",""
"","html-keyboard-response","9","168973","0.0-6.0-2.0","FL","owwgbas786","1536","864","en","ke09im08","null","","","","learningBlock1","","","","<div style=""font-size:60px;""> </div>","null","FL","learning/Slide1.JPG","That was a tob.","",""
"","image-keyboard-response","10","169150","0.0-6.0-0.1","FL","owwgbas786","1536","864","en","ke09im08","null","","","","","","","","learning/Slide2.JPG","null","","","","",""
"","html-keyboard-response","11","170303","0.0-6.0-1.1","FL","owwgbas786","1536","864","en","ke09im08","null","","","","learningBlock1","","","","That was a wug.","null","","","","",""
"","html-keyboard-response","12","171304","0.0-6.0-2.1","FL","owwgbas786","1536","864","en","ke09im08","null","","","","learningBlock1","","","","<div style=""font-size:60px;""> </div>","null","FL","learning/Slide2.JPG","That was a wug.","",""
"","image-keyboard-response","13","171481","0.0-6.0-0.2","FL","owwgbas786","1536","864","en","ke09im08","null","","","","","","","","learning/Slide3.JPG","null","","","","",""
"","html-keyboard-response","14","172641","0.0-6.0-1.2","FL","owwgbas786","1536","864","en","ke09im08","null","","","","learningBlock1","","","","That was a bim.","null","","","","",""
"","html-keyboard-response","15","173642","0.0-6.0-2.2","FL","owwgbas786","1536","864","en","ke09im08","null","","","","learningBlock1","","","","<div style=""font-size:60px;""> </div>","null","FL","learning/Slide3.JPG","That was a bim.","",""
"","image-keyboard-response","16","173818","0.0-6.0-0.3","FL","owwgbas786","1536","864","en","ke09im08","null","","","","","","","","learning/Slide4.JPG","null","","","","",""
"","html-keyboard-response","17","174971","0.0-6.0-1.3","FL","owwgbas786","1536","864","en","ke09im08","null","","","","learningBlock1","","","","That was a dep.","null","","","","",""
"","html-keyboard-response","18","175972","0.0-6.0-2.3","FL","owwgbas786","1536","864","en","ke09im08","null","","","","learningBlock1","","","","<div style=""font-size:60px;""> </div>","null","FL","learning/Slide4.JPG","That was a dep.","",""
"","image-keyboard-response","19","176149","0.0-6.0-0.4","FL","owwgbas786","1536","864","en","ke09im08","null","","","","","","","","learning/Slide5.JPG","null","","","","",""
"","html-keyboard-response","20","177301","0.0-6.0-1.4","FL","owwgbas786","1536","864","en","ke09im08","null","","","","learningBlock1","","","","That was a wug.","null","","","","",""
"","html-keyboard-response","21","178302","0.0-6.0-2.4","FL","owwgbas786","1536","864","en","ke09im08","null","","","","learningBlock1","","","","<div style=""font-size:60px;""> </div>","null","FL","learning/Slide5.JPG","That was a wug.","",""
"","image-keyboard-response","22","178478","0.0-6.0-0.5","FL","owwgbas786","1536","864","en","ke09im08","null","","","","","","","","learning/Slide6.JPG","null","","","","",""
"","html-keyboard-response","23","179631","0.0-6.0-1.5","FL","owwgbas786","1536","864","en","ke09im08","null","","","","learningBlock1","","","","That was a dep.","null","","","","",""
"","html-keyboard-response","24","180633","0.0-6.0-2.5","FL","owwgbas786","1536","864","en","ke09im08","null","","","","learningBlock1","","","","<div style=""font-size:60px;""> </div>","null","FL","learning/Slide6.JPG","That was a dep.","",""
"","image-keyboard-response","25","180809","0.0-6.0-0.6","FL","owwgbas786","1536","864","en","ke09im08","null","","","","","","","","learning/Slide7.JPG","null","","","","",""
"","html-keyboard-response","26","181961","0.0-6.0-1.6","FL","owwgbas786","1536","864","en","ke09im08","null","","","","learningBlock1","","","","That was a wug.","null","","","","",""
"","html-keyboard-response","27","182962","0.0-6.0-2.6","FL","owwgbas786","1536","864","en","ke09im08","null","","","","learningBlock1","","","","<div style=""font-size:60px;""> </div>","null","FL","learning/Slide7.JPG","That was a wug.","",""
"","image-keyboard-response","28","183139","0.0-6.0-0.7","FL","owwgbas786","1536","864","en","ke09im08","null","","","","","","","","learning/Slide8.JPG","null","","","","",""
"","html-keyboard-response","29","184290","0.0-6.0-1.7","FL","owwgbas786","1536","864","en","ke09im08","null","","","","learningBlock1","","","","That was a bim.","null","","","","",""
"","html-keyboard-response","30","185291","0.0-6.0-2.7","FL","owwgbas786","1536","864","en","ke09im08","null","","","","learningBlock1","","","","<div style=""font-size:60px;""> </div>","null","FL","learning/Slide8.JPG","That was a bim.","",""
"","image-keyboard-response","31","185468","0.0-6.0-0.8","FL","owwgbas786","1536","864","en","ke09im08","null","","","","","","","","learning/Slide9.JPG","null","","","","",""
"","html-keyboard-response","32","186620","0.0-6.0-1.8","FL","owwgbas786","1536","864","en","ke09im08","null","","","","learningBlock1","","","","That was a wug.","null","","","","",""
"","html-keyboard-response","33","187622","0.0-6.0-2.8","FL","owwgbas786","1536","864","en","ke09im08","null","","","","learningBlock1","","","","<div style=""font-size:60px;""> </div>","null","FL","learning/Slide9.JPG","That was a wug.","",""
"","image-keyboard-response","34","187799","0.0-6.0-0.9","FL","owwgbas786","1536","864","en","ke09im08","null","","","","","","","","learning/Slide10.JPG","null","","","","",""
"","html-keyboard-response","35","188952","0.0-6.0-1.9","FL","owwgbas786","1536","864","en","ke09im08","null","","","","learningBlock1","","","","That was a dep.","null","","","","",""
"","html-keyboard-response","36","189953","0.0-6.0-2.9","FL","owwgbas786","1536","864","en","ke09im08","null","","","","learningBlock1","","","","<div style=""font-size:60px;""> </div>","null","FL","learning/Slide10.JPG","That was a dep.","",""
"","image-keyboard-response","37","190130","0.0-6.0-0.10","FL","owwgbas786","1536","864","en","ke09im08","null","","","","","","","","learning/Slide11.JPG","null","","","","",""
"","html-keyboard-response","38","191282","0.0-6.0-1.10","FL","owwgbas786","1536","864","en","ke09im08","null","","","","learningBlock1","","","","That was a tob.","null","","","","",""
"","html-keyboard-response","39","192283","0.0-6.0-2.10","FL","owwgbas786","1536","864","en","ke09im08","null","","","","learningBlock1","","","","<div style=""font-size:60px;""> </div>","null","FL","learning/Slide11.JPG","That was a tob.","",""
"","image-keyboard-response","40","192461","0.0-6.0-0.11","FL","owwgbas786","1536","864","en","ke09im08","null","","","","","","","","learning/Slide12.JPG","null","","","","",""
"","html-keyboard-response","41","193612","0.0-6.0-1.11","FL","owwgbas786","1536","864","en","ke09im08","null","","","","learningBlock1","","","","That was a dep.","null","","","","",""
"","html-keyboard-response","42","194613","0.0-6.0-2.11","FL","owwgbas786","1536","864","en","ke09im08","null","","","","learningBlock1","","","","<div style=""font-size:60px;""> </div>","null","FL","learning/Slide12.JPG","That was a dep.","",""
"","image-keyboard-response","43","194791","0.0-6.0-0.12","FL","owwgbas786","1536","864","en","ke09im08","null","","","","","","","","learning/Slide13.JPG","null","","","","",""
"","html-keyboard-response","44","195941","0.0-6.0-1.12","FL","owwgbas786","1536","864","en","ke09im08","null","","","","learningBlock1","","","","That was a bim.","null","","","","",""
"","html-keyboard-response","45","196943","0.0-6.0-2.12","FL","owwgbas786","1536","864","en","ke09im08","null","","","","learningBlock1","","","","<div style=""font-size:60px;""> </div>","null","FL","learning/Slide13.JPG","That was a bim.","",""
"","image-keyboard-response","46","197119","0.0-6.0-0.13","FL","owwgbas786","1536","864","en","ke09im08","null","","","","","","","","learning/Slide14.JPG","null","","","","",""
"","html-keyboard-response","47","198271","0.0-6.0-1.13","FL","owwgbas786","1536","864","en","ke09im08","null","","","","learningBlock1","","","","That was a wug.","null","","","","",""
"","html-keyboard-response","48","199273","0.0-6.0-2.13","FL","owwgbas786","1536","864","en","ke09im08","null","","","","learningBlock1","","","","<div style=""font-size:60px;""> </div>","null","FL","learning/Slide14.JPG","That was a wug.","",""
"","image-keyboard-response","49","199449","0.0-6.0-0.14","FL","owwgbas786","1536","864","en","ke09im08","null","","","","","","","","learning/Slide15.JPG","null","","","","",""
"","html-keyboard-response","50","200601","0.0-6.0-1.14","FL","owwgbas786","1536","864","en","ke09im08","null","","","","learningBlock1","","","","That was a tob.","null","","","","",""
"","html-keyboard-response","51","201602","0.0-6.0-2.14","FL","owwgbas786","1536","864","en","ke09im08","null","","","","learningBlock1","","","","<div style=""font-size:60px;""> </div>","null","FL","learning/Slide15.JPG","That was a tob.","",""
"","image-keyboard-response","52","201779","0.0-6.0-0.15","FL","owwgbas786","1536","864","en","ke09im08","null","","","","","","","","learning/Slide16.JPG","null","","","","",""
"","html-keyboard-response","53","202931","0.0-6.0-1.15","FL","owwgbas786","1536","864","en","ke09im08","null","","","","learningBlock1","","","","That was a dep.","null","","","","",""
"","html-keyboard-response","54","203933","0.0-6.0-2.15","FL","owwgbas786","1536","864","en","ke09im08","null","","","","learningBlock1","","","","<div style=""font-size:60px;""> </div>","null","FL","learning/Slide16.JPG","That was a dep.","",""
"","image-keyboard-response","55","204109","0.0-6.0-0.16","FL","owwgbas786","1536","864","en","ke09im08","null","","","","","","","","learning/Slide17.JPG","null","","","","",""
"","html-keyboard-response","56","205261","0.0-6.0-1.16","FL","owwgbas786","1536","864","en","ke09im08","null","","","","learningBlock1","","","","That was a bim.","null","","","","",""
"","html-keyboard-response","57","206262","0.0-6.0-2.16","FL","owwgbas786","1536","864","en","ke09im08","null","","","","learningBlock1","","","","<div style=""font-size:60px;""> </div>","null","FL","learning/Slide17.JPG","That was a bim.","",""
"","image-keyboard-response","58","206438","0.0-6.0-0.17","FL","owwgbas786","1536","864","en","ke09im08","null","","","","","","","","learning/Slide18.JPG","null","","","","",""
"","html-keyboard-response","59","207590","0.0-6.0-1.17","FL","owwgbas786","1536","864","en","ke09im08","null","","","","learningBlock1","","","","That was a tob.","null","","","","",""
"","html-keyboard-response","60","208591","0.0-6.0-2.17","FL","owwgbas786","1536","864","en","ke09im08","null","","","","learningBlock1","","","","<div style=""font-size:60px;""> </div>","null","FL","learning/Slide18.JPG","That was a tob.","",""
"","image-keyboard-response","61","208769","0.0-6.0-0.18","FL","owwgbas786","1536","864","en","ke09im08","null","","","","","","","","learning/Slide19.JPG","null","","","","",""
"","html-keyboard-response","62","209919","0.0-6.0-1.18","FL","owwgbas786","1536","864","en","ke09im08","null","","","","learningBlock1","","","","That was a wug.","null","","","","",""
"","html-keyboard-response","63","210921","0.0-6.0-2.18","FL","owwgbas786","1536","864","en","ke09im08","null","","","","learningBlock1","","","","<div style=""font-size:60px;""> </div>","null","FL","learning/Slide19.JPG","That was a wug.","",""
"","image-keyboard-response","64","211097","0.0-6.0-0.19","FL","owwgbas786","1536","864","en","ke09im08","null","","","","","","","","learning/Slide20.JPG","null","","","","",""
"","html-keyboard-response","65","212248","0.0-6.0-1.19","FL","owwgbas786","1536","864","en","ke09im08","null","","","","learningBlock1","","","","That was a bim.","null","","","","",""
"","html-keyboard-response","66","213249","0.0-6.0-2.19","FL","owwgbas786","1536","864","en","ke09im08","null","","","","learningBlock1","","","","<div style=""font-size:60px;""> </div>","null","FL","learning/Slide20.JPG","That was a bim.","",""
"","image-keyboard-response","67","213425","0.0-6.0-0.20","FL","owwgbas786","1536","864","en","ke09im08","null","","","","","","","","learning/Slide21.JPG","null","","","","",""
"","html-keyboard-response","68","214577","0.0-6.0-1.20","FL","owwgbas786","1536","864","en","ke09im08","null","","","","learningBlock1","","","","That was a dep.","null","","","","",""
"","html-keyboard-response","69","215580","0.0-6.0-2.20","FL","owwgbas786","1536","864","en","ke09im08","null","","","","learningBlock1","","","","<div style=""font-size:60px;""> </div>","null","FL","learning/Slide21.JPG","That was a dep.","",""
"","image-keyboard-response","70","215757","0.0-6.0-0.21","FL","owwgbas786","1536","864","en","ke09im08","null","","","","","","","","learning/Slide22.JPG","null","","","","",""
"","html-keyboard-response","71","216909","0.0-6.0-1.21","FL","owwgbas786","1536","864","en","ke09im08","null","","","","learningBlock1","","","","That was a bim.","null","","","","",""
"","html-keyboard-response","72","217910","0.0-6.0-2.21","FL","owwgbas786","1536","864","en","ke09im08","null","","","","learningBlock1","","","","<div style=""font-size:60px;""> </div>","null","FL","learning/Slide22.JPG","That was a bim.","",""
"","image-keyboard-response","73","218086","0.0-6.0-0.22","FL","owwgbas786","1536","864","en","ke09im08","null","","","","","","","","learning/Slide23.JPG","null","","","","",""
"","html-keyboard-response","74","219238","0.0-6.0-1.22","FL","owwgbas786","1536","864","en","ke09im08","null","","","","learningBlock1","","","","That was a tob.","null","","","","",""
"","html-keyboard-response","75","220240","0.0-6.0-2.22","FL","owwgbas786","1536","864","en","ke09im08","null","","","","learningBlock1","","","","<div style=""font-size:60px;""> </div>","null","FL","learning/Slide23.JPG","That was a tob.","",""
"","image-keyboard-response","76","220416","0.0-6.0-0.23","FL","owwgbas786","1536","864","en","ke09im08","null","","","","","","","","learning/Slide24.JPG","null","","","","",""
"","html-keyboard-response","77","221567","0.0-6.0-1.23","FL","owwgbas786","1536","864","en","ke09im08","null","","","","learningBlock1","","","","That was a wug.","null","","","","",""
"","html-keyboard-response","78","222568","0.0-6.0-2.23","FL","owwgbas786","1536","864","en","ke09im08","null","","","","learningBlock1","","","","<div style=""font-size:60px;""> </div>","null","FL","learning/Slide24.JPG","That was a wug.","",""
"","image-keyboard-response","79","222746","0.0-6.0-0.24","FL","owwgbas786","1536","864","en","ke09im08","null","","","","","","","","learning/Slide25.JPG","null","","","","",""
"","html-keyboard-response","80","223898","0.0-6.0-1.24","FL","owwgbas786","1536","864","en","ke09im08","null","","","","learningBlock1","","","","That was a dep.","null","","","","",""
"","html-keyboard-response","81","224899","0.0-6.0-2.24","FL","owwgbas786","1536","864","en","ke09im08","null","","","","learningBlock1","","","","<div style=""font-size:60px;""> </div>","null","FL","learning/Slide25.JPG","That was a dep.","",""
"","image-keyboard-response","82","225076","0.0-6.0-0.25","FL","owwgbas786","1536","864","en","ke09im08","null","","","","","","","","learning/Slide26.JPG","null","","","","",""
"","html-keyboard-response","83","226228","0.0-6.0-1.25","FL","owwgbas786","1536","864","en","ke09im08","null","","","","learningBlock1","","","","That was a wug.","null","","","","",""
"","html-keyboard-response","84","227229","0.0-6.0-2.25","FL","owwgbas786","1536","864","en","ke09im08","null","","","","learningBlock1","","","","<div style=""font-size:60px;""> </div>","null","FL","learning/Slide26.JPG","That was a wug.","",""
"","image-keyboard-response","85","227405","0.0-6.0-0.26","FL","owwgbas786","1536","864","en","ke09im08","null","","","","","","","","learning/Slide27.JPG","null","","","","",""
"","html-keyboard-response","86","228557","0.0-6.0-1.26","FL","owwgbas786","1536","864","en","ke09im08","null","","","","learningBlock1","","","","That was a bim.","null","","","","",""
"","html-keyboard-response","87","229559","0.0-6.0-2.26","FL","owwgbas786","1536","864","en","ke09im08","null","","","","learningBlock1","","","","<div style=""font-size:60px;""> </div>","null","FL","learning/Slide27.JPG","That was a bim.","",""
"","image-keyboard-response","88","229735","0.0-6.0-0.27","FL","owwgbas786","1536","864","en","ke09im08","null","","","","","","","","learning/Slide28.JPG","null","","","","",""
"","html-keyboard-response","89","230887","0.0-6.0-1.27","FL","owwgbas786","1536","864","en","ke09im08","null","","","","learningBlock1","","","","That was a dep.","null","","","","",""
"","html-keyboard-response","90","231888","0.0-6.0-2.27","FL","owwgbas786","1536","864","en","ke09im08","null","","","","learningBlock1","","","","<div style=""font-size:60px;""> </div>","null","FL","learning/Slide28.JPG","That was a dep.","",""
"","image-keyboard-response","91","232065","0.0-6.0-0.28","FL","owwgbas786","1536","864","en","ke09im08","null","","","","","","","","learning/Slide29.JPG","null","","","","",""
"","html-keyboard-response","92","233217","0.0-6.0-1.28","FL","owwgbas786","1536","864","en","ke09im08","null","","","","learningBlock1","","","","That was a tob.","null","","","","",""
"","html-keyboard-response","93","234219","0.0-6.0-2.28","FL","owwgbas786","1536","864","en","ke09im08","null","","","","learningBlock1","","","","<div style=""font-size:60px;""> </div>","null","FL","learning/Slide29.JPG","That was a tob.","",""
"","image-keyboard-response","94","234395","0.0-6.0-0.29","FL","owwgbas786","1536","864","en","ke09im08","null","","","","","","","","learning/Slide30.JPG","null","","","","",""
"","html-keyboard-response","95","235547","0.0-6.0-1.29","FL","owwgbas786","1536","864","en","ke09im08","null","","","","learningBlock1","","","","That was a dep.","null","","","","",""
"","html-keyboard-response","96","236548","0.0-6.0-2.29","FL","owwgbas786","1536","864","en","ke09im08","null","","","","learningBlock1","","","","<div style=""font-size:60px;""> </div>","null","FL","learning/Slide30.JPG","That was a dep.","",""
"","image-keyboard-response","97","236726","0.0-6.0-0.30","FL","owwgbas786","1536","864","en","ke09im08","null","","","","","","","","learning/Slide31.JPG","null","","","","",""
"","html-keyboard-response","98","237879","0.0-6.0-1.30","FL","owwgbas786","1536","864","en","ke09im08","null","","","","learningBlock1","","","","That was a wug.","null","","","","",""
"","html-keyboard-response","99","238880","0.0-6.0-2.30","FL","owwgbas786","1536","864","en","ke09im08","null","","","","learningBlock1","","","","<div style=""font-size:60px;""> </div>","null","FL","learning/Slide31.JPG","That was a wug.","",""
"","image-keyboard-response","100","239057","0.0-6.0-0.31","FL","owwgbas786","1536","864","en","ke09im08","null","","","","","","","","learning/Slide32.JPG","null","","","","",""
"","html-keyboard-response","101","240209","0.0-6.0-1.31","FL","owwgbas786","1536","864","en","ke09im08","null","","","","learningBlock1","","","","That was a tob.","null","","","","",""
"","html-keyboard-response","102","241210","0.0-6.0-2.31","FL","owwgbas786","1536","864","en","ke09im08","null","","","","learningBlock1","","","","<div style=""font-size:60px;""> </div>","null","FL","learning/Slide32.JPG","That was a tob.","",""
"","image-keyboard-response","103","241386","0.0-6.0-0.32","FL","owwgbas786","1536","864","en","ke09im08","null","","","","","","","","learning/Slide33.JPG","null","","","","",""
"","html-keyboard-response","104","242538","0.0-6.0-1.32","FL","owwgbas786","1536","864","en","ke09im08","null","","","","learningBlock1","","","","That was a bim.","null","","","","",""
"","html-keyboard-response","105","243540","0.0-6.0-2.32","FL","owwgbas786","1536","864","en","ke09im08","null","","","","learningBlock1","","","","<div style=""font-size:60px;""> </div>","null","FL","learning/Slide33.JPG","That was a bim.","",""
"","image-keyboard-response","106","243716","0.0-6.0-0.33","FL","owwgbas786","1536","864","en","ke09im08","null","","","","","","","","learning/Slide34.JPG","null","","","","",""
"","html-keyboard-response","107","244868","0.0-6.0-1.33","FL","owwgbas786","1536","864","en","ke09im08","null","","","","learningBlock1","","","","That was a tob.","null","","","","",""
"","html-keyboard-response","108","245869","0.0-6.0-2.33","FL","owwgbas786","1536","864","en","ke09im08","null","","","","learningBlock1","","","","<div style=""font-size:60px;""> </div>","null","FL","learning/Slide34.JPG","That was a tob.","",""
"","image-keyboard-response","109","246046","0.0-6.0-0.34","FL","owwgbas786","1536","864","en","ke09im08","null","","","","","","","","learning/Slide35.JPG","null","","","","",""
"","html-keyboard-response","110","247198","0.0-6.0-1.34","FL","owwgbas786","1536","864","en","ke09im08","null","","","","learningBlock1","","","","That was a bim.","null","","","","",""
"","html-keyboard-response","111","248199","0.0-6.0-2.34","FL","owwgbas786","1536","864","en","ke09im08","null","","","","learningBlock1","","","","<div style=""font-size:60px;""> </div>","null","FL","learning/Slide35.JPG","That was a bim.","",""
"","image-keyboard-response","112","248376","0.0-6.0-0.35","FL","owwgbas786","1536","864","en","ke09im08","null","","","","","","","","learning/Slide36.JPG","null","","","","",""
"","html-keyboard-response","113","249528","0.0-6.0-1.35","FL","owwgbas786","1536","864","en","ke09im08","null","","","","learningBlock1","","","","That was a dep.","null","","","","",""
"","html-keyboard-response","114","250529","0.0-6.0-2.35","FL","owwgbas786","1536","864","en","ke09im08","null","","","","learningBlock1","","","","<div style=""font-size:60px;""> </div>","null","FL","learning/Slide36.JPG","That was a dep.","",""
"","image-keyboard-response","115","250706","0.0-6.0-0.36","FL","owwgbas786","1536","864","en","ke09im08","null","","","","","","","","learning/Slide37.JPG","null","","","","",""
"","html-keyboard-response","116","251858","0.0-6.0-1.36","FL","owwgbas786","1536","864","en","ke09im08","null","","","","learningBlock1","","","","That was a tob.","null","","","","",""
"","html-keyboard-response","117","252859","0.0-6.0-2.36","FL","owwgbas786","1536","864","en","ke09im08","null","","","","learningBlock1","","","","<div style=""font-size:60px;""> </div>","null","FL","learning/Slide37.JPG","That was a tob.","",""
"","image-keyboard-response","118","253035","0.0-6.0-0.37","FL","owwgbas786","1536","864","en","ke09im08","null","","","","","","","","learning/Slide38.JPG","null","","","","",""
"","html-keyboard-response","119","254187","0.0-6.0-1.37","FL","owwgbas786","1536","864","en","ke09im08","null","","","","learningBlock1","","","","That was a wug.","null","","","","",""
"","html-keyboard-response","120","255190","0.0-6.0-2.37","FL","owwgbas786","1536","864","en","ke09im08","null","","","","learningBlock1","","","","<div style=""font-size:60px;""> </div>","null","FL","learning/Slide38.JPG","That was a wug.","",""
"","image-keyboard-response","121","255366","0.0-6.0-0.38","FL","owwgbas786","1536","864","en","ke09im08","null","","","","","","","","learning/Slide39.JPG","null","","","","",""
"","html-keyboard-response","122","256518","0.0-6.0-1.38","FL","owwgbas786","1536","864","en","ke09im08","null","","","","learningBlock1","","","","That was a bim.","null","","","","",""
"","html-keyboard-response","123","257520","0.0-6.0-2.38","FL","owwgbas786","1536","864","en","ke09im08","null","","","","learningBlock1","","","","<div style=""font-size:60px;""> </div>","null","FL","learning/Slide39.JPG","That was a bim.","",""
"","image-keyboard-response","124","257696","0.0-6.0-0.39","FL","owwgbas786","1536","864","en","ke09im08","null","","","","","","","","learning/Slide40.JPG","null","","","","",""
"","html-keyboard-response","125","258849","0.0-6.0-1.39","FL","owwgbas786","1536","864","en","ke09im08","null","","","","learningBlock1","","","","That was a tob.","null","","","","",""
"","html-keyboard-response","126","259851","0.0-6.0-2.39","FL","owwgbas786","1536","864","en","ke09im08","null","","","","learningBlock1","","","","<div style=""font-size:60px;""> </div>","null","FL","learning/Slide40.JPG","That was a tob.","",""
"","image-keyboard-response","127","260028","0.0-6.0-0.40","FL","owwgbas786","1536","864","en","ke09im08","null","","","","","","","","learning/Slide41.JPG","null","","","","",""
"","html-keyboard-response","128","261179","0.0-6.0-1.40","FL","owwgbas786","1536","864","en","ke09im08","null","","","","learningBlock1","","","","That was a bim.","null","","","","",""
"","html-keyboard-response","129","262180","0.0-6.0-2.40","FL","owwgbas786","1536","864","en","ke09im08","null","","","","learningBlock1","","","","<div style=""font-size:60px;""> </div>","null","FL","learning/Slide41.JPG","That was a bim.","",""
"","image-keyboard-response","130","262356","0.0-6.0-0.41","FL","owwgbas786","1536","864","en","ke09im08","null","","","","","","","","learning/Slide42.JPG","null","","","","",""
"","html-keyboard-response","131","263508","0.0-6.0-1.41","FL","owwgbas786","1536","864","en","ke09im08","null","","","","learningBlock1","","","","That was a dep.","null","","","","",""
"","html-keyboard-response","132","264509","0.0-6.0-2.41","FL","owwgbas786","1536","864","en","ke09im08","null","","","","learningBlock1","","","","<div style=""font-size:60px;""> </div>","null","FL","learning/Slide42.JPG","That was a dep.","",""
"","image-keyboard-response","133","264686","0.0-6.0-0.42","FL","owwgbas786","1536","864","en","ke09im08","null","","","","","","","","learning/Slide43.JPG","null","","","","",""
"","html-keyboard-response","134","265838","0.0-6.0-1.42","FL","owwgbas786","1536","864","en","ke09im08","null","","","","learningBlock1","","","","That was a wug.","null","","","","",""
"","html-keyboard-response","135","266838","0.0-6.0-2.42","FL","owwgbas786","1536","864","en","ke09im08","null","","","","learningBlock1","","","","<div style=""font-size:60px;""> </div>","null","FL","learning/Slide43.JPG","That was a wug.","",""
"","image-keyboard-response","136","267015","0.0-6.0-0.43","FL","owwgbas786","1536","864","en","ke09im08","null","","","","","","","","learning/Slide44.JPG","null","","","","",""
"","html-keyboard-response","137","268167","0.0-6.0-1.43","FL","owwgbas786","1536","864","en","ke09im08","null","","","","learningBlock1","","","","That was a bim.","null","","","","",""
"","html-keyboard-response","138","269169","0.0-6.0-2.43","FL","owwgbas786","1536","864","en","ke09im08","null","","","","learningBlock1","","","","<div style=""font-size:60px;""> </div>","null","FL","learning/Slide44.JPG","That was a bim.","",""
"","image-keyboard-response","139","269346","0.0-6.0-0.44","FL","owwgbas786","1536","864","en","ke09im08","null","","","","","","","","learning/Slide45.JPG","null","","","","",""
"","html-keyboard-response","140","270497","0.0-6.0-1.44","FL","owwgbas786","1536","864","en","ke09im08","null","","","","learningBlock1","","","","That was a wug.","null","","","","",""
"","html-keyboard-response","141","271498","0.0-6.0-2.44","FL","owwgbas786","1536","864","en","ke09im08","null","","","","learningBlock1","","","","<div style=""font-size:60px;""> </div>","null","FL","learning/Slide45.JPG","That was a wug.","",""
"","image-keyboard-response","142","271675","0.0-6.0-0.45","FL","owwgbas786","1536","864","en","ke09im08","null","","","","","","","","learning/Slide46.JPG","null","","","","",""
"","html-keyboard-response","143","272827","0.0-6.0-1.45","FL","owwgbas786","1536","864","en","ke09im08","null","","","","learningBlock1","","","","That was a dep.","null","","","","",""
"","html-keyboard-response","144","273829","0.0-6.0-2.45","FL","owwgbas786","1536","864","en","ke09im08","null","","","","learningBlock1","","","","<div style=""font-size:60px;""> </div>","null","FL","learning/Slide46.JPG","That was a dep.","",""
"","image-keyboard-response","145","274005","0.0-6.0-0.46","FL","owwgbas786","1536","864","en","ke09im08","null","","","","","","","","learning/Slide47.JPG","null","","","","",""
"","html-keyboard-response","146","275157","0.0-6.0-1.46","FL","owwgbas786","1536","864","en","ke09im08","null","","","","learningBlock1","","","","That was a tob.","null","","","","",""
"","html-keyboard-response","147","276157","0.0-6.0-2.46","FL","owwgbas786","1536","864","en","ke09im08","null","","","","learningBlock1","","","","<div style=""font-size:60px;""> </div>","null","FL","learning/Slide47.JPG","That was a tob.","",""
"","image-keyboard-response","148","276334","0.0-6.0-0.47","FL","owwgbas786","1536","864","en","ke09im08","null","","","","","","","","learning/Slide48.JPG","null","","","","",""
"","html-keyboard-response","149","277486","0.0-6.0-1.47","FL","owwgbas786","1536","864","en","ke09im08","null","","","","learningBlock1","","","","That was a bim.","null","","","","",""
"","html-keyboard-response","150","278487","0.0-6.0-2.47","FL","owwgbas786","1536","864","en","ke09im08","null","","","","learningBlock1","","","","<div style=""font-size:60px;""> </div>","null","FL","learning/Slide48.JPG","That was a bim.","",""
"","image-keyboard-response","151","278664","0.0-6.0-0.48","FL","owwgbas786","1536","864","en","ke09im08","null","","","","","","","","learning/Slide49.JPG","null","","","","",""
"","html-keyboard-response","152","279815","0.0-6.0-1.48","FL","owwgbas786","1536","864","en","ke09im08","null","","","","learningBlock1","","","","That was a dep.","null","","","","",""
"","html-keyboard-response","153","280818","0.0-6.0-2.48","FL","owwgbas786","1536","864","en","ke09im08","null","","","","learningBlock1","","","","<div style=""font-size:60px;""> </div>","null","FL","learning/Slide49.JPG","That was a dep.","",""
"","image-keyboard-response","154","280994","0.0-6.0-0.49","FL","owwgbas786","1536","864","en","ke09im08","null","","","","","","","","learning/Slide50.JPG","null","","","","",""
"","html-keyboard-response","155","282147","0.0-6.0-1.49","FL","owwgbas786","1536","864","en","ke09im08","null","","","","learningBlock1","","","","That was a tob.","null","","","","",""
"","html-keyboard-response","156","283149","0.0-6.0-2.49","FL","owwgbas786","1536","864","en","ke09im08","null","","","","learningBlock1","","","","<div style=""font-size:60px;""> </div>","null","FL","learning/Slide50.JPG","That was a tob.","",""
"","image-keyboard-response","157","283325","0.0-6.0-0.50","FL","owwgbas786","1536","864","en","ke09im08","null","","","","","","","","learning/Slide51.JPG","null","","","","",""
"","html-keyboard-response","158","284478","0.0-6.0-1.50","FL","owwgbas786","1536","864","en","ke09im08","null","","","","learningBlock1","","","","That was a bim.","null","","","","",""
"","html-keyboard-response","159","285479","0.0-6.0-2.50","FL","owwgbas786","1536","864","en","ke09im08","null","","","","learningBlock1","","","","<div style=""font-size:60px;""> </div>","null","FL","learning/Slide51.JPG","That was a bim.","",""
"","image-keyboard-response","160","285656","0.0-6.0-0.51","FL","owwgbas786","1536","864","en","ke09im08","null","","","","","","","","learning/Slide52.JPG","null","","","","",""
"","html-keyboard-response","161","286808","0.0-6.0-1.51","FL","owwgbas786","1536","864","en","ke09im08","null","","","","learningBlock1","","","","That was a wug.","null","","","","",""
"","html-keyboard-response","162","287810","0.0-6.0-2.51","FL","owwgbas786","1536","864","en","ke09im08","null","","","","learningBlock1","","","","<div style=""font-size:60px;""> </div>","null","FL","learning/Slide52.JPG","That was a wug.","",""
"","image-keyboard-response","163","287986","0.0-6.0-0.52","FL","owwgbas786","1536","864","en","ke09im08","null","","","","","","","","learning/Slide53.JPG","null","","","","",""
"","html-keyboard-response","164","289138","0.0-6.0-1.52","FL","owwgbas786","1536","864","en","ke09im08","null","","","","learningBlock1","","","","That was a tob.","null","","","","",""
"","html-keyboard-response","165","290140","0.0-6.0-2.52","FL","owwgbas786","1536","864","en","ke09im08","null","","","","learningBlock1","","","","<div style=""font-size:60px;""> </div>","null","FL","learning/Slide53.JPG","That was a tob.","",""
"","image-keyboard-response","166","290317","0.0-6.0-0.53","FL","owwgbas786","1536","864","en","ke09im08","null","","","","","","","","learning/Slide54.JPG","null","","","","",""
"","html-keyboard-response","167","291469","0.0-6.0-1.53","FL","owwgbas786","1536","864","en","ke09im08","null","","","","learningBlock1","","","","That was a dep.","null","","","","",""
"","html-keyboard-response","168","292485","0.0-6.0-2.53","FL","owwgbas786","1536","864","en","ke09im08","null","","","","learningBlock1","","","","<div style=""font-size:60px;""> </div>","null","FL","learning/Slide54.JPG","That was a dep.","",""
"","image-keyboard-response","169","292664","0.0-6.0-0.54","FL","owwgbas786","1536","864","en","ke09im08","null","","","","","","","","learning/Slide55.JPG","null","","","","",""
"","html-keyboard-response","170","293831","0.0-6.0-1.54","FL","owwgbas786","1536","864","en","ke09im08","null","","","","learningBlock1","","","","That was a bim.","null","","","","",""
"","html-keyboard-response","171","294833","0.0-6.0-2.54","FL","owwgbas786","1536","864","en","ke09im08","null","","","","learningBlock1","","","","<div style=""font-size:60px;""> </div>","null","FL","learning/Slide55.JPG","That was a bim.","",""
"","image-keyboard-response","172","295010","0.0-6.0-0.55","FL","owwgbas786","1536","864","en","ke09im08","null","","","","","","","","learning/Slide56.JPG","null","","","","",""
"","html-keyboard-response","173","296162","0.0-6.0-1.55","FL","owwgbas786","1536","864","en","ke09im08","null","","","","learningBlock1","","","","That was a tob.","null","","","","",""
"","html-keyboard-response","174","297163","0.0-6.0-2.55","FL","owwgbas786","1536","864","en","ke09im08","null","","","","learningBlock1","","","","<div style=""font-size:60px;""> </div>","null","FL","learning/Slide56.JPG","That was a tob.","",""
"","image-keyboard-response","175","297340","0.0-6.0-0.56","FL","owwgbas786","1536","864","en","ke09im08","null","","","","","","","","learning/Slide57.JPG","null","","","","",""
"","html-keyboard-response","176","298492","0.0-6.0-1.56","FL","owwgbas786","1536","864","en","ke09im08","null","","","","learningBlock1","","","","That was a dep.","null","","","","",""
"","html-keyboard-response","177","299494","0.0-6.0-2.56","FL","owwgbas786","1536","864","en","ke09im08","null","","","","learningBlock1","","","","<div style=""font-size:60px;""> </div>","null","FL","learning/Slide57.JPG","That was a dep.","",""
"","image-keyboard-response","178","299671","0.0-6.0-0.57","FL","owwgbas786","1536","864","en","ke09im08","null","","","","","","","","learning/Slide58.JPG","null","","","","",""
"","html-keyboard-response","179","300824","0.0-6.0-1.57","FL","owwgbas786","1536","864","en","ke09im08","null","","","","learningBlock1","","","","That was a wug.","null","","","","",""
"","html-keyboard-response","180","301826","0.0-6.0-2.57","FL","owwgbas786","1536","864","en","ke09im08","null","","","","learningBlock1","","","","<div style=""font-size:60px;""> </div>","null","FL","learning/Slide58.JPG","That was a wug.","",""
"","image-keyboard-response","181","302002","0.0-6.0-0.58","FL","owwgbas786","1536","864","en","ke09im08","null","","","","","","","","learning/Slide59.JPG","null","","","","",""
"","html-keyboard-response","182","303154","0.0-6.0-1.58","FL","owwgbas786","1536","864","en","ke09im08","null","","","","learningBlock1","","","","That was a dep.","null","","","","",""
"","html-keyboard-response","183","304155","0.0-6.0-2.58","FL","owwgbas786","1536","864","en","ke09im08","null","","","","learningBlock1","","","","<div style=""font-size:60px;""> </div>","null","FL","learning/Slide59.JPG","That was a dep.","",""
"","image-keyboard-response","184","304332","0.0-6.0-0.59","FL","owwgbas786","1536","864","en","ke09im08","null","","","","","","","","learning/Slide60.JPG","null","","","","",""
"","html-keyboard-response","185","305483","0.0-6.0-1.59","FL","owwgbas786","1536","864","en","ke09im08","null","","","","learningBlock1","","","","That was a wug.","null","","","","",""
"","html-keyboard-response","186","306484","0.0-6.0-2.59","FL","owwgbas786","1536","864","en","ke09im08","null","","","","learningBlock1","","","","<div style=""font-size:60px;""> </div>","null","FL","learning/Slide60.JPG","That was a wug.","",""
"","image-keyboard-response","187","306661","0.0-6.0-0.60","FL","owwgbas786","1536","864","en","ke09im08","null","","","","","","","","learning/Slide61.JPG","null","","","","",""
"","html-keyboard-response","188","307812","0.0-6.0-1.60","FL","owwgbas786","1536","864","en","ke09im08","null","","","","learningBlock1","","","","That was a bim.","null","","","","",""
"","html-keyboard-response","189","308814","0.0-6.0-2.60","FL","owwgbas786","1536","864","en","ke09im08","null","","","","learningBlock1","","","","<div style=""font-size:60px;""> </div>","null","FL","learning/Slide61.JPG","That was a bim.","",""
"","image-keyboard-response","190","308991","0.0-6.0-0.61","FL","owwgbas786","1536","864","en","ke09im08","null","","","","","","","","learning/Slide62.JPG","null","","","","",""
"","html-keyboard-response","191","310142","0.0-6.0-1.61","FL","owwgbas786","1536","864","en","ke09im08","null","","","","learningBlock1","","","","That was a dep.","null","","","","",""
"","html-keyboard-response","192","311143","0.0-6.0-2.61","FL","owwgbas786","1536","864","en","ke09im08","null","","","","learningBlock1","","","","<div style=""font-size:60px;""> </div>","null","FL","learning/Slide62.JPG","That was a dep.","",""
"","image-keyboard-response","193","311319","0.0-6.0-0.62","FL","owwgbas786","1536","864","en","ke09im08","null","","","","","","","","learning/Slide63.JPG","null","","","","",""
"","html-keyboard-response","194","312487","0.0-6.0-1.62","FL","owwgbas786","1536","864","en","ke09im08","null","","","","learningBlock1","","","","That was a bim.","null","","","","",""
"","html-keyboard-response","195","313488","0.0-6.0-2.62","FL","owwgbas786","1536","864","en","ke09im08","null","","","","learningBlock1","","","","<div style=""font-size:60px;""> </div>","null","FL","learning/Slide63.JPG","That was a bim.","",""
"","image-keyboard-response","196","313664","0.0-6.0-0.63","FL","owwgbas786","1536","864","en","ke09im08","null","","","","","","","","learning/Slide64.JPG","null","","","","",""
"","html-keyboard-response","197","314817","0.0-6.0-1.63","FL","owwgbas786","1536","864","en","ke09im08","null","","","","learningBlock1","","","","That was a tob.","null","","","","",""
"","html-keyboard-response","198","315818","0.0-6.0-2.63","FL","owwgbas786","1536","864","en","ke09im08","null","","","","learningBlock1","","","","<div style=""font-size:60px;""> </div>","null","FL","learning/Slide64.JPG","That was a tob.","",""
"","image-keyboard-response","199","315994","0.0-6.0-0.64","FL","owwgbas786","1536","864","en","ke09im08","null","","","","","","","","learning/Slide65.JPG","null","","","","",""
"","html-keyboard-response","200","317146","0.0-6.0-1.64","FL","owwgbas786","1536","864","en","ke09im08","null","","","","learningBlock1","","","","That was a wug.","null","","","","",""
"","html-keyboard-response","201","318147","0.0-6.0-2.64","FL","owwgbas786","1536","864","en","ke09im08","null","","","","learningBlock1","","","","<div style=""font-size:60px;""> </div>","null","FL","learning/Slide65.JPG","That was a wug.","",""
"","image-keyboard-response","202","318324","0.0-6.0-0.65","FL","owwgbas786","1536","864","en","ke09im08","null","","","","","","","","learning/Slide66.JPG","null","","","","",""
"","html-keyboard-response","203","319476","0.0-6.0-1.65","FL","owwgbas786","1536","864","en","ke09im08","null","","","","learningBlock1","","","","That was a dep.","null","","","","",""
"","html-keyboard-response","204","320478","0.0-6.0-2.65","FL","owwgbas786","1536","864","en","ke09im08","null","","","","learningBlock1","","","","<div style=""font-size:60px;""> </div>","null","FL","learning/Slide66.JPG","That was a dep.","",""
"","image-keyboard-response","205","320655","0.0-6.0-0.66","FL","owwgbas786","1536","864","en","ke09im08","null","","","","","","","","learning/Slide67.JPG","null","","","","",""
"","html-keyboard-response","206","321808","0.0-6.0-1.66","FL","owwgbas786","1536","864","en","ke09im08","null","","","","learningBlock1","","","","That was a tob.","null","","","","",""
"","html-keyboard-response","207","322810","0.0-6.0-2.66","FL","owwgbas786","1536","864","en","ke09im08","null","","","","learningBlock1","","","","<div style=""font-size:60px;""> </div>","null","FL","learning/Slide67.JPG","That was a tob.","",""
"","image-keyboard-response","208","322986","0.0-6.0-0.67","FL","owwgbas786","1536","864","en","ke09im08","null","","","","","","","","learning/Slide68.JPG","null","","","","",""
"","html-keyboard-response","209","324139","0.0-6.0-1.67","FL","owwgbas786","1536","864","en","ke09im08","null","","","","learningBlock1","","","","That was a wug.","null","","","","",""
"","html-keyboard-response","210","325141","0.0-6.0-2.67","FL","owwgbas786","1536","864","en","ke09im08","null","","","","learningBlock1","","","","<div style=""font-size:60px;""> </div>","null","FL","learning/Slide68.JPG","That was a wug.","",""
"","image-keyboard-response","211","325317","0.0-6.0-0.68","FL","owwgbas786","1536","864","en","ke09im08","null","","","","","","","","learning/Slide69.JPG","null","","","","",""
"","html-keyboard-response","212","326469","0.0-6.0-1.68","FL","owwgbas786","1536","864","en","ke09im08","null","","","","learningBlock1","","","","That was a tob.","null","","","","",""
"","html-keyboard-response","213","327471","0.0-6.0-2.68","FL","owwgbas786","1536","864","en","ke09im08","null","","","","learningBlock1","","","","<div style=""font-size:60px;""> </div>","null","FL","learning/Slide69.JPG","That was a tob.","",""
"","image-keyboard-response","214","327647","0.0-6.0-0.69","FL","owwgbas786","1536","864","en","ke09im08","null","","","","","","","","learning/Slide70.JPG","null","","","","",""
"","html-keyboard-response","215","328799","0.0-6.0-1.69","FL","owwgbas786","1536","864","en","ke09im08","null","","","","learningBlock1","","","","That was a dep.","null","","","","",""
"","html-keyboard-response","216","329800","0.0-6.0-2.69","FL","owwgbas786","1536","864","en","ke09im08","null","","","","learningBlock1","","","","<div style=""font-size:60px;""> </div>","null","FL","learning/Slide70.JPG","That was a dep.","",""
"","image-keyboard-response","217","329977","0.0-6.0-0.70","FL","owwgbas786","1536","864","en","ke09im08","null","","","","","","","","learning/Slide71.JPG","null","","","","",""
"","html-keyboard-response","218","331129","0.0-6.0-1.70","FL","owwgbas786","1536","864","en","ke09im08","null","","","","learningBlock1","","","","That was a wug.","null","","","","",""
"","html-keyboard-response","219","332130","0.0-6.0-2.70","FL","owwgbas786","1536","864","en","ke09im08","null","","","","learningBlock1","","","","<div style=""font-size:60px;""> </div>","null","FL","learning/Slide71.JPG","That was a wug.","",""
"","image-keyboard-response","220","332307","0.0-6.0-0.71","FL","owwgbas786","1536","864","en","ke09im08","null","","","","","","","","learning/Slide72.JPG","null","","","","",""
"","html-keyboard-response","221","333474","0.0-6.0-1.71","FL","owwgbas786","1536","864","en","ke09im08","null","","","","learningBlock1","","","","That was a bim.","null","","","","",""
"","html-keyboard-response","222","334475","0.0-6.0-2.71","FL","owwgbas786","1536","864","en","ke09im08","null","","","","learningBlock1","","","","<div style=""font-size:60px;""> </div>","null","FL","learning/Slide72.JPG","That was a bim.","",""
"","image-keyboard-response","223","334651","0.0-6.0-0.72","FL","owwgbas786","1536","864","en","ke09im08","null","","","","","","","","learning/Slide73.JPG","null","","","","",""
"","html-keyboard-response","224","335804","0.0-6.0-1.72","FL","owwgbas786","1536","864","en","ke09im08","null","","","","learningBlock1","","","","That was a wug.","null","","","","",""
"","html-keyboard-response","225","336807","0.0-6.0-2.72","FL","owwgbas786","1536","864","en","ke09im08","null","","","","learningBlock1","","","","<div style=""font-size:60px;""> </div>","null","FL","learning/Slide73.JPG","That was a wug.","",""
"","image-keyboard-response","226","336983","0.0-6.0-0.73","FL","owwgbas786","1536","864","en","ke09im08","null","","","","","","","","learning/Slide74.JPG","null","","","","",""
"","html-keyboard-response","227","338138","0.0-6.0-1.73","FL","owwgbas786","1536","864","en","ke09im08","null","","","","learningBlock1","","","","That was a dep.","null","","","","",""
"","html-keyboard-response","228","339138","0.0-6.0-2.73","FL","owwgbas786","1536","864","en","ke09im08","null","","","","learningBlock1","","","","<div style=""font-size:60px;""> </div>","null","FL","learning/Slide74.JPG","That was a dep.","",""
"","image-keyboard-response","229","339315","0.0-6.0-0.74","FL","owwgbas786","1536","864","en","ke09im08","null","","","","","","","","learning/Slide75.JPG","null","","","","",""
"","html-keyboard-response","230","340468","0.0-6.0-1.74","FL","owwgbas786","1536","864","en","ke09im08","null","","","","learningBlock1","","","","That was a tob.","null","","","","",""
"","html-keyboard-response","231","341470","0.0-6.0-2.74","FL","owwgbas786","1536","864","en","ke09im08","null","","","","learningBlock1","","","","<div style=""font-size:60px;""> </div>","null","FL","learning/Slide75.JPG","That was a tob.","",""
"","image-keyboard-response","232","341647","0.0-6.0-0.75","FL","owwgbas786","1536","864","en","ke09im08","null","","","","","","","","learning/Slide76.JPG","null","","","","",""
"","html-keyboard-response","233","342800","0.0-6.0-1.75","FL","owwgbas786","1536","864","en","ke09im08","null","","","","learningBlock1","","","","That was a bim.","null","","","","",""
"","html-keyboard-response","234","343800","0.0-6.0-2.75","FL","owwgbas786","1536","864","en","ke09im08","null","","","","learningBlock1","","","","<div style=""font-size:60px;""> </div>","null","FL","learning/Slide76.JPG","That was a bim.","",""
"","image-keyboard-response","235","343977","0.0-6.0-0.76","FL","owwgbas786","1536","864","en","ke09im08","null","","","","","","","","learning/Slide77.JPG","null","","","","",""
"","html-keyboard-response","236","345130","0.0-6.0-1.76","FL","owwgbas786","1536","864","en","ke09im08","null","","","","learningBlock1","","","","That was a tob.","null","","","","",""
"","html-keyboard-response","237","346131","0.0-6.0-2.76","FL","owwgbas786","1536","864","en","ke09im08","null","","","","learningBlock1","","","","<div style=""font-size:60px;""> </div>","null","FL","learning/Slide77.JPG","That was a tob.","",""
"","image-keyboard-response","238","346308","0.0-6.0-0.77","FL","owwgbas786","1536","864","en","ke09im08","null","","","","","","","","learning/Slide78.JPG","null","","","","",""
"","html-keyboard-response","239","347459","0.0-6.0-1.77","FL","owwgbas786","1536","864","en","ke09im08","null","","","","learningBlock1","","","","That was a wug.","null","","","","",""
"","html-keyboard-response","240","348460","0.0-6.0-2.77","FL","owwgbas786","1536","864","en","ke09im08","null","","","","learningBlock1","","","","<div style=""font-size:60px;""> </div>","null","FL","learning/Slide78.JPG","That was a wug.","",""
"","image-keyboard-response","241","348636","0.0-6.0-0.78","FL","owwgbas786","1536","864","en","ke09im08","null","","","","","","","","learning/Slide79.JPG","null","","","","",""
"","html-keyboard-response","242","349789","0.0-6.0-1.78","FL","owwgbas786","1536","864","en","ke09im08","null","","","","learningBlock1","","","","That was a bim.","null","","","","",""
"","html-keyboard-response","243","350791","0.0-6.0-2.78","FL","owwgbas786","1536","864","en","ke09im08","null","","","","learningBlock1","","","","<div style=""font-size:60px;""> </div>","null","FL","learning/Slide79.JPG","That was a bim.","",""
"","image-keyboard-response","244","350968","0.0-6.0-0.79","FL","owwgbas786","1536","864","en","ke09im08","null","","","","","","","","learning/Slide80.JPG","null","","","","",""
"","html-keyboard-response","245","352119","0.0-6.0-1.79","FL","owwgbas786","1536","864","en","ke09im08","null","","","","learningBlock1","","","","That was a tob.","null","","","","",""
"","html-keyboard-response","246","353120","0.0-6.0-2.79","FL","owwgbas786","1536","864","en","ke09im08","null","","","","learningBlock1","","","","<div style=""font-size:60px;""> </div>","null","FL","learning/Slide80.JPG","That was a tob.","",""
"","instructions","247","382450","0.0-7.0","FL","owwgbas786","1536","864","en","ke09im08","NA","","","[{""page_index"":0,""viewing_time"":29329.354999994393}]","instructions","","","","","","","","","",""
"","image-keyboard-response","248","382627","0.0-8.0-0.0","FL","owwgbas786","1536","864","en","ke09im08","null","","","","","","","","learning/Slide81.JPG","null","","","","",""
"","html-keyboard-response","249","383779","0.0-8.0-1.0","FL","owwgbas786","1536","864","en","ke09im08","null","","","","learningBlock2","","","","That was a wug.","null","","","","",""
"","html-keyboard-response","250","384781","0.0-8.0-2.0","FL","owwgbas786","1536","864","en","ke09im08","null","","","","learningBlock2","","","","<div style=""font-size:60px;""> </div>","null","FL","learning/Slide81.JPG","That was a wug.","",""
"","image-keyboard-response","251","384957","0.0-8.0-0.1","FL","owwgbas786","1536","864","en","ke09im08","null","","","","","","","","learning/Slide82.JPG","null","","","","",""
"","html-keyboard-response","252","386108","0.0-8.0-1.1","FL","owwgbas786","1536","864","en","ke09im08","null","","","","learningBlock2","","","","That was a bim.","null","","","","",""
"","html-keyboard-response","253","387111","0.0-8.0-2.1","FL","owwgbas786","1536","864","en","ke09im08","null","","","","learningBlock2","","","","<div style=""font-size:60px;""> </div>","null","FL","learning/Slide82.JPG","That was a bim.","",""
"","image-keyboard-response","254","387288","0.0-8.0-0.2","FL","owwgbas786","1536","864","en","ke09im08","null","","","","","","","","learning/Slide83.JPG","null","","","","",""
"","html-keyboard-response","255","388440","0.0-8.0-1.2","FL","owwgbas786","1536","864","en","ke09im08","null","","","","learningBlock2","","","","That was a wug.","null","","","","",""
"","html-keyboard-response","256","389441","0.0-8.0-2.2","FL","owwgbas786","1536","864","en","ke09im08","null","","","","learningBlock2","","","","<div style=""font-size:60px;""> </div>","null","FL","learning/Slide83.JPG","That was a wug.","",""
"","image-keyboard-response","257","389618","0.0-8.0-0.3","FL","owwgbas786","1536","864","en","ke09im08","null","","","","","","","","learning/Slide84.JPG","null","","","","",""
"","html-keyboard-response","258","390771","0.0-8.0-1.3","FL","owwgbas786","1536","864","en","ke09im08","null","","","","learningBlock2","","","","That was a dep.","null","","","","",""
"","html-keyboard-response","259","391772","0.0-8.0-2.3","FL","owwgbas786","1536","864","en","ke09im08","null","","","","learningBlock2","","","","<div style=""font-size:60px;""> </div>","null","FL","learning/Slide84.JPG","That was a dep.","",""
"","image-keyboard-response","260","391949","0.0-8.0-0.4","FL","owwgbas786","1536","864","en","ke09im08","null","","","","","","","","learning/Slide85.JPG","null","","","","",""
"","html-keyboard-response","261","393101","0.0-8.0-1.4","FL","owwgbas786","1536","864","en","ke09im08","null","","","","learningBlock2","","","","That was a bim.","null","","","","",""
"","html-keyboard-response","262","394103","0.0-8.0-2.4","FL","owwgbas786","1536","864","en","ke09im08","null","","","","learningBlock2","","","","<div style=""font-size:60px;""> </div>","null","FL","learning/Slide85.JPG","That was a bim.","",""
"","image-keyboard-response","263","394279","0.0-8.0-0.5","FL","owwgbas786","1536","864","en","ke09im08","null","","","","","","","","learning/Slide86.JPG","null","","","","",""
"","html-keyboard-response","264","395431","0.0-8.0-1.5","FL","owwgbas786","1536","864","en","ke09im08","null","","","","learningBlock2","","","","That was a tob.","null","","","","",""
"","html-keyboard-response","265","396432","0.0-8.0-2.5","FL","owwgbas786","1536","864","en","ke09im08","null","","","","learningBlock2","","","","<div style=""font-size:60px;""> </div>","null","FL","learning/Slide86.JPG","That was a tob.","",""
"","image-keyboard-response","266","396608","0.0-8.0-0.6","FL","owwgbas786","1536","864","en","ke09im08","null","","","","","","","","learning/Slide87.JPG","null","","","","",""
"","html-keyboard-response","267","397760","0.0-8.0-1.6","FL","owwgbas786","1536","864","en","ke09im08","null","","","","learningBlock2","","","","That was a wug.","null","","","","",""
"","html-keyboard-response","268","398761","0.0-8.0-2.6","FL","owwgbas786","1536","864","en","ke09im08","null","","","","learningBlock2","","","","<div style=""font-size:60px;""> </div>","null","FL","learning/Slide87.JPG","That was a wug.","",""
"","image-keyboard-response","269","398938","0.0-8.0-0.7","FL","owwgbas786","1536","864","en","ke09im08","null","","","","","","","","learning/Slide88.JPG","null","","","","",""
"","html-keyboard-response","270","400089","0.0-8.0-1.7","FL","owwgbas786","1536","864","en","ke09im08","null","","","","learningBlock2","","","","That was a tob.","null","","","","",""
"","html-keyboard-response","271","401090","0.0-8.0-2.7","FL","owwgbas786","1536","864","en","ke09im08","null","","","","learningBlock2","","","","<div style=""font-size:60px;""> </div>","null","FL","learning/Slide88.JPG","That was a tob.","",""
"","image-keyboard-response","272","401267","0.0-8.0-0.8","FL","owwgbas786","1536","864","en","ke09im08","null","","","","","","","","learning/Slide89.JPG","null","","","","",""
"","html-keyboard-response","273","402419","0.0-8.0-1.8","FL","owwgbas786","1536","864","en","ke09im08","null","","","","learningBlock2","","","","That was a bim.","null","","","","",""
"","html-keyboard-response","274","403420","0.0-8.0-2.8","FL","owwgbas786","1536","864","en","ke09im08","null","","","","learningBlock2","","","","<div style=""font-size:60px;""> </div>","null","FL","learning/Slide89.JPG","That was a bim.","",""
"","image-keyboard-response","275","403597","0.0-8.0-0.9","FL","owwgbas786","1536","864","en","ke09im08","null","","","","","","","","learning/Slide90.JPG","null","","","","",""
"","html-keyboard-response","276","404749","0.0-8.0-1.9","FL","owwgbas786","1536","864","en","ke09im08","null","","","","learningBlock2","","","","That was a dep.","null","","","","",""
"","html-keyboard-response","277","405751","0.0-8.0-2.9","FL","owwgbas786","1536","864","en","ke09im08","null","","","","learningBlock2","","","","<div style=""font-size:60px;""> </div>","null","FL","learning/Slide90.JPG","That was a dep.","",""
"","image-keyboard-response","278","405927","0.0-8.0-0.10","FL","owwgbas786","1536","864","en","ke09im08","null","","","","","","","","learning/Slide91.JPG","null","","","","",""
"","html-keyboard-response","279","407079","0.0-8.0-1.10","FL","owwgbas786","1536","864","en","ke09im08","null","","","","learningBlock2","","","","That was a wug.","null","","","","",""
"","html-keyboard-response","280","408081","0.0-8.0-2.10","FL","owwgbas786","1536","864","en","ke09im08","null","","","","learningBlock2","","","","<div style=""font-size:60px;""> </div>","null","FL","learning/Slide91.JPG","That was a wug.","",""
"","image-keyboard-response","281","408257","0.0-8.0-0.11","FL","owwgbas786","1536","864","en","ke09im08","null","","","","","","","","learning/Slide92.JPG","null","","","","",""
"","html-keyboard-response","282","409409","0.0-8.0-1.11","FL","owwgbas786","1536","864","en","ke09im08","null","","","","learningBlock2","","","","That was a tob.","null","","","","",""
"","html-keyboard-response","283","410410","0.0-8.0-2.11","FL","owwgbas786","1536","864","en","ke09im08","null","","","","learningBlock2","","","","<div style=""font-size:60px;""> </div>","null","FL","learning/Slide92.JPG","That was a tob.","",""
"","image-keyboard-response","284","410588","0.0-8.0-0.12","FL","owwgbas786","1536","864","en","ke09im08","null","","","","","","","","learning/Slide93.JPG","null","","","","",""
"","html-keyboard-response","285","411741","0.0-8.0-1.12","FL","owwgbas786","1536","864","en","ke09im08","null","","","","learningBlock2","","","","That was a bim.","null","","","","",""
"","html-keyboard-response","286","412746","0.0-8.0-2.12","FL","owwgbas786","1536","864","en","ke09im08","null","","","","learningBlock2","","","","<div style=""font-size:60px;""> </div>","null","FL","learning/Slide93.JPG","That was a bim.","",""
"","image-keyboard-response","287","412922","0.0-8.0-0.13","FL","owwgbas786","1536","864","en","ke09im08","null","","","","","","","","learning/Slide94.JPG","null","","","","",""
"","html-keyboard-response","288","414074","0.0-8.0-1.13","FL","owwgbas786","1536","864","en","ke09im08","null","","","","learningBlock2","","","","That was a tob.","null","","","","",""
"","html-keyboard-response","289","415077","0.0-8.0-2.13","FL","owwgbas786","1536","864","en","ke09im08","null","","","","learningBlock2","","","","<div style=""font-size:60px;""> </div>","null","FL","learning/Slide94.JPG","That was a tob.","",""
"","image-keyboard-response","290","415253","0.0-8.0-0.14","FL","owwgbas786","1536","864","en","ke09im08","null","","","","","","","","learning/Slide95.JPG","null","","","","",""
"","html-keyboard-response","291","416406","0.0-8.0-1.14","FL","owwgbas786","1536","864","en","ke09im08","null","","","","learningBlock2","","","","That was a wug.","null","","","","",""
"","html-keyboard-response","292","417407","0.0-8.0-2.14","FL","owwgbas786","1536","864","en","ke09im08","null","","","","learningBlock2","","","","<div style=""font-size:60px;""> </div>","null","FL","learning/Slide95.JPG","That was a wug.","",""
"","image-keyboard-response","293","417584","0.0-8.0-0.15","FL","owwgbas786","1536","864","en","ke09im08","null","","","","","","","","learning/Slide96.JPG","null","","","","",""
"","html-keyboard-response","294","418736","0.0-8.0-1.15","FL","owwgbas786","1536","864","en","ke09im08","null","","","","learningBlock2","","","","That was a tob.","null","","","","",""
"","html-keyboard-response","295","419737","0.0-8.0-2.15","FL","owwgbas786","1536","864","en","ke09im08","null","","","","learningBlock2","","","","<div style=""font-size:60px;""> </div>","null","FL","learning/Slide96.JPG","That was a tob.","",""
"","image-keyboard-response","296","419914","0.0-8.0-0.16","FL","owwgbas786","1536","864","en","ke09im08","null","","","","","","","","learning/Slide97.JPG","null","","","","",""
"","html-keyboard-response","297","421066","0.0-8.0-1.16","FL","owwgbas786","1536","864","en","ke09im08","null","","","","learningBlock2","","","","That was a dep.","null","","","","",""
"","html-keyboard-response","298","422067","0.0-8.0-2.16","FL","owwgbas786","1536","864","en","ke09im08","null","","","","learningBlock2","","","","<div style=""font-size:60px;""> </div>","null","FL","learning/Slide97.JPG","That was a dep.","",""
"","image-keyboard-response","299","422243","0.0-8.0-0.17","FL","owwgbas786","1536","864","en","ke09im08","null","","","","","","","","learning/Slide98.JPG","null","","","","",""
"","html-keyboard-response","300","423397","0.0-8.0-1.17","FL","owwgbas786","1536","864","en","ke09im08","null","","","","learningBlock2","","","","That was a bim.","null","","","","",""
"","html-keyboard-response","301","424399","0.0-8.0-2.17","FL","owwgbas786","1536","864","en","ke09im08","null","","","","learningBlock2","","","","<div style=""font-size:60px;""> </div>","null","FL","learning/Slide98.JPG","That was a bim.","",""
"","image-keyboard-response","302","424576","0.0-8.0-0.18","FL","owwgbas786","1536","864","en","ke09im08","null","","","","","","","","learning/Slide99.JPG","null","","","","",""
"","html-keyboard-response","303","425728","0.0-8.0-1.18","FL","owwgbas786","1536","864","en","ke09im08","null","","","","learningBlock2","","","","That was a dep.","null","","","","",""
"","html-keyboard-response","304","426729","0.0-8.0-2.18","FL","owwgbas786","1536","864","en","ke09im08","null","","","","learningBlock2","","","","<div style=""font-size:60px;""> </div>","null","FL","learning/Slide99.JPG","That was a dep.","",""
"","image-keyboard-response","305","426906","0.0-8.0-0.19","FL","owwgbas786","1536","864","en","ke09im08","null","","","","","","","","learning/Slide100.JPG","null","","","","",""
"","html-keyboard-response","306","428057","0.0-8.0-1.19","FL","owwgbas786","1536","864","en","ke09im08","null","","","","learningBlock2","","","","That was a bim.","null","","","","",""
"","html-keyboard-response","307","429059","0.0-8.0-2.19","FL","owwgbas786","1536","864","en","ke09im08","null","","","","learningBlock2","","","","<div style=""font-size:60px;""> </div>","null","FL","learning/Slide100.JPG","That was a bim.","",""
"","image-keyboard-response","308","429235","0.0-8.0-0.20","FL","owwgbas786","1536","864","en","ke09im08","null","","","","","","","","learning/Slide101.JPG","null","","","","",""
"","html-keyboard-response","309","430387","0.0-8.0-1.20","FL","owwgbas786","1536","864","en","ke09im08","null","","","","learningBlock2","","","","That was a tob.","null","","","","",""
"","html-keyboard-response","310","431389","0.0-8.0-2.20","FL","owwgbas786","1536","864","en","ke09im08","null","","","","learningBlock2","","","","<div style=""font-size:60px;""> </div>","null","FL","learning/Slide101.JPG","That was a tob.","",""
"","image-keyboard-response","311","431565","0.0-8.0-0.21","FL","owwgbas786","1536","864","en","ke09im08","null","","","","","","","","learning/Slide102.JPG","null","","","","",""
"","html-keyboard-response","312","432716","0.0-8.0-1.21","FL","owwgbas786","1536","864","en","ke09im08","null","","","","learningBlock2","","","","That was a bim.","null","","","","",""
"","html-keyboard-response","313","433717","0.0-8.0-2.21","FL","owwgbas786","1536","864","en","ke09im08","null","","","","learningBlock2","","","","<div style=""font-size:60px;""> </div>","null","FL","learning/Slide102.JPG","That was a bim.","",""
"","image-keyboard-response","314","433893","0.0-8.0-0.22","FL","owwgbas786","1536","864","en","ke09im08","null","","","","","","","","learning/Slide103.JPG","null","","","","",""
"","html-keyboard-response","315","435046","0.0-8.0-1.22","FL","owwgbas786","1536","864","en","ke09im08","null","","","","learningBlock2","","","","That was a dep.","null","","","","",""
"","html-keyboard-response","316","436048","0.0-8.0-2.22","FL","owwgbas786","1536","864","en","ke09im08","null","","","","learningBlock2","","","","<div style=""font-size:60px;""> </div>","null","FL","learning/Slide103.JPG","That was a dep.","",""
"","image-keyboard-response","317","436224","0.0-8.0-0.23","FL","owwgbas786","1536","864","en","ke09im08","null","","","","","","","","learning/Slide104.JPG","null","","","","",""
"","html-keyboard-response","318","437376","0.0-8.0-1.23","FL","owwgbas786","1536","864","en","ke09im08","null","","","","learningBlock2","","","","That was a tob.","null","","","","",""
"","html-keyboard-response","319","438378","0.0-8.0-2.23","FL","owwgbas786","1536","864","en","ke09im08","null","","","","learningBlock2","","","","<div style=""font-size:60px;""> </div>","null","FL","learning/Slide104.JPG","That was a tob.","",""
"","image-keyboard-response","320","438555","0.0-8.0-0.24","FL","owwgbas786","1536","864","en","ke09im08","null","","","","","","","","learning/Slide105.JPG","null","","","","",""
"","html-keyboard-response","321","439707","0.0-8.0-1.24","FL","owwgbas786","1536","864","en","ke09im08","null","","","","learningBlock2","","","","That was a dep.","null","","","","",""
"","html-keyboard-response","322","440708","0.0-8.0-2.24","FL","owwgbas786","1536","864","en","ke09im08","null","","","","learningBlock2","","","","<div style=""font-size:60px;""> </div>","null","FL","learning/Slide105.JPG","That was a dep.","",""
"","image-keyboard-response","323","440884","0.0-8.0-0.25","FL","owwgbas786","1536","864","en","ke09im08","null","","","","","","","","learning/Slide106.JPG","null","","","","",""
"","html-keyboard-response","324","442035","0.0-8.0-1.25","FL","owwgbas786","1536","864","en","ke09im08","null","","","","learningBlock2","","","","That was a wug.","null","","","","",""
"","html-keyboard-response","325","443038","0.0-8.0-2.25","FL","owwgbas786","1536","864","en","ke09im08","null","","","","learningBlock2","","","","<div style=""font-size:60px;""> </div>","null","FL","learning/Slide106.JPG","That was a wug.","",""
"","image-keyboard-response","326","443214","0.0-8.0-0.26","FL","owwgbas786","1536","864","en","ke09im08","null","","","","","","","","learning/Slide107.JPG","null","","","","",""
"","html-keyboard-response","327","444366","0.0-8.0-1.26","FL","owwgbas786","1536","864","en","ke09im08","null","","","","learningBlock2","","","","That was a bim.","null","","","","",""
"","html-keyboard-response","328","445368","0.0-8.0-2.26","FL","owwgbas786","1536","864","en","ke09im08","null","","","","learningBlock2","","","","<div style=""font-size:60px;""> </div>","null","FL","learning/Slide107.JPG","That was a bim.","",""
"","image-keyboard-response","329","445544","0.0-8.0-0.27","FL","owwgbas786","1536","864","en","ke09im08","null","","","","","","","","learning/Slide108.JPG","null","","","","",""
"","html-keyboard-response","330","446697","0.0-8.0-1.27","FL","owwgbas786","1536","864","en","ke09im08","null","","","","learningBlock2","","","","That was a dep.","null","","","","",""
"","html-keyboard-response","331","447699","0.0-8.0-2.27","FL","owwgbas786","1536","864","en","ke09im08","null","","","","learningBlock2","","","","<div style=""font-size:60px;""> </div>","null","FL","learning/Slide108.JPG","That was a dep.","",""
"","image-keyboard-response","332","447876","0.0-8.0-0.28","FL","owwgbas786","1536","864","en","ke09im08","null","","","","","","","","learning/Slide109.JPG","null","","","","",""
"","html-keyboard-response","333","449027","0.0-8.0-1.28","FL","owwgbas786","1536","864","en","ke09im08","null","","","","learningBlock2","","","","That was a wug.","null","","","","",""
"","html-keyboard-response","334","450028","0.0-8.0-2.28","FL","owwgbas786","1536","864","en","ke09im08","null","","","","learningBlock2","","","","<div style=""font-size:60px;""> </div>","null","FL","learning/Slide109.JPG","That was a wug.","",""
"","image-keyboard-response","335","450205","0.0-8.0-0.29","FL","owwgbas786","1536","864","en","ke09im08","null","","","","","","","","learning/Slide110.JPG","null","","","","",""
"","html-keyboard-response","336","451358","0.0-8.0-1.29","FL","owwgbas786","1536","864","en","ke09im08","null","","","","learningBlock2","","","","That was a bim.","null","","","","",""
"","html-keyboard-response","337","452359","0.0-8.0-2.29","FL","owwgbas786","1536","864","en","ke09im08","null","","","","learningBlock2","","","","<div style=""font-size:60px;""> </div>","null","FL","learning/Slide110.JPG","That was a bim.","",""
"","image-keyboard-response","338","452546","0.0-8.0-0.30","FL","owwgbas786","1536","864","en","ke09im08","null","","","","","","","","learning/Slide111.JPG","null","","","","",""
"","html-keyboard-response","339","453710","0.0-8.0-1.30","FL","owwgbas786","1536","864","en","ke09im08","null","","","","learningBlock2","","","","That was a tob.","null","","","","",""
"","html-keyboard-response","340","454712","0.0-8.0-2.30","FL","owwgbas786","1536","864","en","ke09im08","null","","","","learningBlock2","","","","<div style=""font-size:60px;""> </div>","null","FL","learning/Slide111.JPG","That was a tob.","",""
"","image-keyboard-response","341","454888","0.0-8.0-0.31","FL","owwgbas786","1536","864","en","ke09im08","null","","","","","","","","learning/Slide112.JPG","null","","","","",""
"","html-keyboard-response","342","456040","0.0-8.0-1.31","FL","owwgbas786","1536","864","en","ke09im08","null","","","","learningBlock2","","","","That was a wug.","null","","","","",""
"","html-keyboard-response","343","457042","0.0-8.0-2.31","FL","owwgbas786","1536","864","en","ke09im08","null","","","","learningBlock2","","","","<div style=""font-size:60px;""> </div>","null","FL","learning/Slide112.JPG","That was a wug.","",""
"","image-keyboard-response","344","457219","0.0-8.0-0.32","FL","owwgbas786","1536","864","en","ke09im08","null","","","","","","","","learning/Slide113.JPG","null","","","","",""
"","html-keyboard-response","345","458371","0.0-8.0-1.32","FL","owwgbas786","1536","864","en","ke09im08","null","","","","learningBlock2","","","","That was a tob.","null","","","","",""
"","html-keyboard-response","346","459372","0.0-8.0-2.32","FL","owwgbas786","1536","864","en","ke09im08","null","","","","learningBlock2","","","","<div style=""font-size:60px;""> </div>","null","FL","learning/Slide113.JPG","That was a tob.","",""
"","image-keyboard-response","347","459549","0.0-8.0-0.33","FL","owwgbas786","1536","864","en","ke09im08","null","","","","","","","","learning/Slide114.JPG","null","","","","",""
"","html-keyboard-response","348","460702","0.0-8.0-1.33","FL","owwgbas786","1536","864","en","ke09im08","null","","","","learningBlock2","","","","That was a wug.","null","","","","",""
"","html-keyboard-response","349","461703","0.0-8.0-2.33","FL","owwgbas786","1536","864","en","ke09im08","null","","","","learningBlock2","","","","<div style=""font-size:60px;""> </div>","null","FL","learning/Slide114.JPG","That was a wug.","",""
"","image-keyboard-response","350","461879","0.0-8.0-0.34","FL","owwgbas786","1536","864","en","ke09im08","null","","","","","","","","learning/Slide115.JPG","null","","","","",""
"","html-keyboard-response","351","463030","0.0-8.0-1.34","FL","owwgbas786","1536","864","en","ke09im08","null","","","","learningBlock2","","","","That was a bim.","null","","","","",""
"","html-keyboard-response","352","464032","0.0-8.0-2.34","FL","owwgbas786","1536","864","en","ke09im08","null","","","","learningBlock2","","","","<div style=""font-size:60px;""> </div>","null","FL","learning/Slide115.JPG","That was a bim.","",""
"","image-keyboard-response","353","464208","0.0-8.0-0.35","FL","owwgbas786","1536","864","en","ke09im08","null","","","","","","","","learning/Slide116.JPG","null","","","","",""
"","html-keyboard-response","354","465360","0.0-8.0-1.35","FL","owwgbas786","1536","864","en","ke09im08","null","","","","learningBlock2","","","","That was a dep.","null","","","","",""
"","html-keyboard-response","355","466361","0.0-8.0-2.35","FL","owwgbas786","1536","864","en","ke09im08","null","","","","learningBlock2","","","","<div style=""font-size:60px;""> </div>","null","FL","learning/Slide116.JPG","That was a dep.","",""
"","image-keyboard-response","356","466539","0.0-8.0-0.36","FL","owwgbas786","1536","864","en","ke09im08","null","","","","","","","","learning/Slide117.JPG","null","","","","",""
"","html-keyboard-response","357","467691","0.0-8.0-1.36","FL","owwgbas786","1536","864","en","ke09im08","null","","","","learningBlock2","","","","That was a tob.","null","","","","",""
"","html-keyboard-response","358","468693","0.0-8.0-2.36","FL","owwgbas786","1536","864","en","ke09im08","null","","","","learningBlock2","","","","<div style=""font-size:60px;""> </div>","null","FL","learning/Slide117.JPG","That was a tob.","",""
"","image-keyboard-response","359","468870","0.0-8.0-0.37","FL","owwgbas786","1536","864","en","ke09im08","null","","","","","","","","learning/Slide118.JPG","null","","","","",""
"","html-keyboard-response","360","470022","0.0-8.0-1.37","FL","owwgbas786","1536","864","en","ke09im08","null","","","","learningBlock2","","","","That was a dep.","null","","","","",""
"","html-keyboard-response","361","471024","0.0-8.0-2.37","FL","owwgbas786","1536","864","en","ke09im08","null","","","","learningBlock2","","","","<div style=""font-size:60px;""> </div>","null","FL","learning/Slide118.JPG","That was a dep.","",""
"","image-keyboard-response","362","471200","0.0-8.0-0.38","FL","owwgbas786","1536","864","en","ke09im08","null","","","","","","","","learning/Slide119.JPG","null","","","","",""
"","html-keyboard-response","363","472352","0.0-8.0-1.38","FL","owwgbas786","1536","864","en","ke09im08","null","","","","learningBlock2","","","","That was a wug.","null","","","","",""
"","html-keyboard-response","364","473354","0.0-8.0-2.38","FL","owwgbas786","1536","864","en","ke09im08","null","","","","learningBlock2","","","","<div style=""font-size:60px;""> </div>","null","FL","learning/Slide119.JPG","That was a wug.","",""
"","image-keyboard-response","365","473530","0.0-8.0-0.39","FL","owwgbas786","1536","864","en","ke09im08","null","","","","","","","","learning/Slide120.JPG","null","","","","",""
"","html-keyboard-response","366","474683","0.0-8.0-1.39","FL","owwgbas786","1536","864","en","ke09im08","null","","","","learningBlock2","","","","That was a dep.","null","","","","",""
"","html-keyboard-response","367","475684","0.0-8.0-2.39","FL","owwgbas786","1536","864","en","ke09im08","null","","","","learningBlock2","","","","<div style=""font-size:60px;""> </div>","null","FL","learning/Slide120.JPG","That was a dep.","",""
"","image-keyboard-response","368","475861","0.0-8.0-0.40","FL","owwgbas786","1536","864","en","ke09im08","null","","","","","","","","learning/Slide121.JPG","null","","","","",""
"","html-keyboard-response","369","477013","0.0-8.0-1.40","FL","owwgbas786","1536","864","en","ke09im08","null","","","","learningBlock2","","","","That was a bim.","null","","","","",""
"","html-keyboard-response","370","478015","0.0-8.0-2.40","FL","owwgbas786","1536","864","en","ke09im08","null","","","","learningBlock2","","","","<div style=""font-size:60px;""> </div>","null","FL","learning/Slide121.JPG","That was a bim.","",""
"","image-keyboard-response","371","478191","0.0-8.0-0.41","FL","owwgbas786","1536","864","en","ke09im08","null","","","","","","","","learning/Slide122.JPG","null","","","","",""
"","html-keyboard-response","372","479343","0.0-8.0-1.41","FL","owwgbas786","1536","864","en","ke09im08","null","","","","learningBlock2","","","","That was a wug.","null","","","","",""
"","html-keyboard-response","373","480345","0.0-8.0-2.41","FL","owwgbas786","1536","864","en","ke09im08","null","","","","learningBlock2","","","","<div style=""font-size:60px;""> </div>","null","FL","learning/Slide122.JPG","That was a wug.","",""
"","image-keyboard-response","374","480522","0.0-8.0-0.42","FL","owwgbas786","1536","864","en","ke09im08","null","","","","","","","","learning/Slide123.JPG","null","","","","",""
"","html-keyboard-response","375","481673","0.0-8.0-1.42","FL","owwgbas786","1536","864","en","ke09im08","null","","","","learningBlock2","","","","That was a bim.","null","","","","",""
"","html-keyboard-response","376","482674","0.0-8.0-2.42","FL","owwgbas786","1536","864","en","ke09im08","null","","","","learningBlock2","","","","<div style=""font-size:60px;""> </div>","null","FL","learning/Slide123.JPG","That was a bim.","",""
"","image-keyboard-response","377","482850","0.0-8.0-0.43","FL","owwgbas786","1536","864","en","ke09im08","null","","","","","","","","learning/Slide124.JPG","null","","","","",""
"","html-keyboard-response","378","484002","0.0-8.0-1.43","FL","owwgbas786","1536","864","en","ke09im08","null","","","","learningBlock2","","","","That was a tob.","null","","","","",""
"","html-keyboard-response","379","485004","0.0-8.0-2.43","FL","owwgbas786","1536","864","en","ke09im08","null","","","","learningBlock2","","","","<div style=""font-size:60px;""> </div>","null","FL","learning/Slide124.JPG","That was a tob.","",""
"","image-keyboard-response","380","485181","0.0-8.0-0.44","FL","owwgbas786","1536","864","en","ke09im08","null","","","","","","","","learning/Slide125.JPG","null","","","","",""
"","html-keyboard-response","381","486333","0.0-8.0-1.44","FL","owwgbas786","1536","864","en","ke09im08","null","","","","learningBlock2","","","","That was a bim.","null","","","","",""
"","html-keyboard-response","382","487334","0.0-8.0-2.44","FL","owwgbas786","1536","864","en","ke09im08","null","","","","learningBlock2","","","","<div style=""font-size:60px;""> </div>","null","FL","learning/Slide125.JPG","That was a bim.","",""
"","image-keyboard-response","383","487511","0.0-8.0-0.45","FL","owwgbas786","1536","864","en","ke09im08","null","","","","","","","","learning/Slide126.JPG","null","","","","",""
"","html-keyboard-response","384","488663","0.0-8.0-1.45","FL","owwgbas786","1536","864","en","ke09im08","null","","","","learningBlock2","","","","That was a tob.","null","","","","",""
"","html-keyboard-response","385","489665","0.0-8.0-2.45","FL","owwgbas786","1536","864","en","ke09im08","null","","","","learningBlock2","","","","<div style=""font-size:60px;""> </div>","null","FL","learning/Slide126.JPG","That was a tob.","",""
"","image-keyboard-response","386","489841","0.0-8.0-0.46","FL","owwgbas786","1536","864","en","ke09im08","null","","","","","","","","learning/Slide127.JPG","null","","","","",""
"","html-keyboard-response","387","490993","0.0-8.0-1.46","FL","owwgbas786","1536","864","en","ke09im08","null","","","","learningBlock2","","","","That was a dep.","null","","","","",""
"","html-keyboard-response","388","491995","0.0-8.0-2.46","FL","owwgbas786","1536","864","en","ke09im08","null","","","","learningBlock2","","","","<div style=""font-size:60px;""> </div>","null","FL","learning/Slide127.JPG","That was a dep.","",""
"","image-keyboard-response","389","492171","0.0-8.0-0.47","FL","owwgbas786","1536","864","en","ke09im08","null","","","","","","","","learning/Slide128.JPG","null","","","","",""
"","html-keyboard-response","390","493323","0.0-8.0-1.47","FL","owwgbas786","1536","864","en","ke09im08","null","","","","learningBlock2","","","","That was a wug.","null","","","","",""
"","html-keyboard-response","391","494325","0.0-8.0-2.47","FL","owwgbas786","1536","864","en","ke09im08","null","","","","learningBlock2","","","","<div style=""font-size:60px;""> </div>","null","FL","learning/Slide128.JPG","That was a wug.","",""
"","image-keyboard-response","392","494501","0.0-8.0-0.48","FL","owwgbas786","1536","864","en","ke09im08","null","","","","","","","","learning/Slide129.JPG","null","","","","",""
"","html-keyboard-response","393","495653","0.0-8.0-1.48","FL","owwgbas786","1536","864","en","ke09im08","null","","","","learningBlock2","","","","That was a tob.","null","","","","",""
"","html-keyboard-response","394","496654","0.0-8.0-2.48","FL","owwgbas786","1536","864","en","ke09im08","null","","","","learningBlock2","","","","<div style=""font-size:60px;""> </div>","null","FL","learning/Slide129.JPG","That was a tob.","",""
"","image-keyboard-response","395","496831","0.0-8.0-0.49","FL","owwgbas786","1536","864","en","ke09im08","null","","","","","","","","learning/Slide130.JPG","null","","","","",""
"","html-keyboard-response","396","497982","0.0-8.0-1.49","FL","owwgbas786","1536","864","en","ke09im08","null","","","","learningBlock2","","","","That was a wug.","null","","","","",""
"","html-keyboard-response","397","498983","0.0-8.0-2.49","FL","owwgbas786","1536","864","en","ke09im08","null","","","","learningBlock2","","","","<div style=""font-size:60px;""> </div>","null","FL","learning/Slide130.JPG","That was a wug.","",""
"","image-keyboard-response","398","499160","0.0-8.0-0.50","FL","owwgbas786","1536","864","en","ke09im08","null","","","","","","","","learning/Slide131.JPG","null","","","","",""
"","html-keyboard-response","399","500311","0.0-8.0-1.50","FL","owwgbas786","1536","864","en","ke09im08","null","","","","learningBlock2","","","","That was a bim.","null","","","","",""
"","html-keyboard-response","400","501312","0.0-8.0-2.50","FL","owwgbas786","1536","864","en","ke09im08","null","","","","learningBlock2","","","","<div style=""font-size:60px;""> </div>","null","FL","learning/Slide131.JPG","That was a bim.","",""
"","image-keyboard-response","401","501488","0.0-8.0-0.51","FL","owwgbas786","1536","864","en","ke09im08","null","","","","","","","","learning/Slide132.JPG","null","","","","",""
"","html-keyboard-response","402","502641","0.0-8.0-1.51","FL","owwgbas786","1536","864","en","ke09im08","null","","","","learningBlock2","","","","That was a dep.","null","","","","",""
"","html-keyboard-response","403","503644","0.0-8.0-2.51","FL","owwgbas786","1536","864","en","ke09im08","null","","","","learningBlock2","","","","<div style=""font-size:60px;""> </div>","null","FL","learning/Slide132.JPG","That was a dep.","",""
"","image-keyboard-response","404","503821","0.0-8.0-0.52","FL","owwgbas786","1536","864","en","ke09im08","null","","","","","","","","learning/Slide133.JPG","null","","","","",""
"","html-keyboard-response","405","504974","0.0-8.0-1.52","FL","owwgbas786","1536","864","en","ke09im08","null","","","","learningBlock2","","","","That was a tob.","null","","","","",""
"","html-keyboard-response","406","505975","0.0-8.0-2.52","FL","owwgbas786","1536","864","en","ke09im08","null","","","","learningBlock2","","","","<div style=""font-size:60px;""> </div>","null","FL","learning/Slide133.JPG","That was a tob.","",""
"","image-keyboard-response","407","506152","0.0-8.0-0.53","FL","owwgbas786","1536","864","en","ke09im08","null","","","","","","","","learning/Slide134.JPG","null","","","","",""
"","html-keyboard-response","408","507303","0.0-8.0-1.53","FL","owwgbas786","1536","864","en","ke09im08","null","","","","learningBlock2","","","","That was a dep.","null","","","","",""
"","html-keyboard-response","409","508305","0.0-8.0-2.53","FL","owwgbas786","1536","864","en","ke09im08","null","","","","learningBlock2","","","","<div style=""font-size:60px;""> </div>","null","FL","learning/Slide134.JPG","That was a dep.","",""
"","image-keyboard-response","410","508481","0.0-8.0-0.54","FL","owwgbas786","1536","864","en","ke09im08","null","","","","","","","","learning/Slide135.JPG","null","","","","",""
"","html-keyboard-response","411","509634","0.0-8.0-1.54","FL","owwgbas786","1536","864","en","ke09im08","null","","","","learningBlock2","","","","That was a tob.","null","","","","",""
"","html-keyboard-response","412","510636","0.0-8.0-2.54","FL","owwgbas786","1536","864","en","ke09im08","null","","","","learningBlock2","","","","<div style=""font-size:60px;""> </div>","null","FL","learning/Slide135.JPG","That was a tob.","",""
"","image-keyboard-response","413","510813","0.0-8.0-0.55","FL","owwgbas786","1536","864","en","ke09im08","null","","","","","","","","learning/Slide136.JPG","null","","","","",""
"","html-keyboard-response","414","511966","0.0-8.0-1.55","FL","owwgbas786","1536","864","en","ke09im08","null","","","","learningBlock2","","","","That was a wug.","null","","","","",""
"","html-keyboard-response","415","512967","0.0-8.0-2.55","FL","owwgbas786","1536","864","en","ke09im08","null","","","","learningBlock2","","","","<div style=""font-size:60px;""> </div>","null","FL","learning/Slide136.JPG","That was a wug.","",""
"","image-keyboard-response","416","513144","0.0-8.0-0.56","FL","owwgbas786","1536","864","en","ke09im08","null","","","","","","","","learning/Slide137.JPG","null","","","","",""
"","html-keyboard-response","417","514296","0.0-8.0-1.56","FL","owwgbas786","1536","864","en","ke09im08","null","","","","learningBlock2","","","","That was a tob.","null","","","","",""
"","html-keyboard-response","418","515297","0.0-8.0-2.56","FL","owwgbas786","1536","864","en","ke09im08","null","","","","learningBlock2","","","","<div style=""font-size:60px;""> </div>","null","FL","learning/Slide137.JPG","That was a tob.","",""
"","image-keyboard-response","419","515474","0.0-8.0-0.57","FL","owwgbas786","1536","864","en","ke09im08","null","","","","","","","","learning/Slide138.JPG","null","","","","",""
"","html-keyboard-response","420","516626","0.0-8.0-1.57","FL","owwgbas786","1536","864","en","ke09im08","null","","","","learningBlock2","","","","That was a bim.","null","","","","",""
"","html-keyboard-response","421","517628","0.0-8.0-2.57","FL","owwgbas786","1536","864","en","ke09im08","null","","","","learningBlock2","","","","<div style=""font-size:60px;""> </div>","null","FL","learning/Slide138.JPG","That was a bim.","",""
"","image-keyboard-response","422","517804","0.0-8.0-0.58","FL","owwgbas786","1536","864","en","ke09im08","null","","","","","","","","learning/Slide139.JPG","null","","","","",""
"","html-keyboard-response","423","518957","0.0-8.0-1.58","FL","owwgbas786","1536","864","en","ke09im08","null","","","","learningBlock2","","","","That was a wug.","null","","","","",""
"","html-keyboard-response","424","519959","0.0-8.0-2.58","FL","owwgbas786","1536","864","en","ke09im08","null","","","","learningBlock2","","","","<div style=""font-size:60px;""> </div>","null","FL","learning/Slide139.JPG","That was a wug.","",""
"","image-keyboard-response","425","520135","0.0-8.0-0.59","FL","owwgbas786","1536","864","en","ke09im08","null","","","","","","","","learning/Slide140.JPG","null","","","","",""
"","html-keyboard-response","426","521287","0.0-8.0-1.59","FL","owwgbas786","1536","864","en","ke09im08","null","","","","learningBlock2","","","","That was a dep.","null","","","","",""
"","html-keyboard-response","427","522288","0.0-8.0-2.59","FL","owwgbas786","1536","864","en","ke09im08","null","","","","learningBlock2","","","","<div style=""font-size:60px;""> </div>","null","FL","learning/Slide140.JPG","That was a dep.","",""
"","image-keyboard-response","428","522465","0.0-8.0-0.60","FL","owwgbas786","1536","864","en","ke09im08","null","","","","","","","","learning/Slide141.JPG","null","","","","",""
"","html-keyboard-response","429","523617","0.0-8.0-1.60","FL","owwgbas786","1536","864","en","ke09im08","null","","","","learningBlock2","","","","That was a tob.","null","","","","",""
"","html-keyboard-response","430","524619","0.0-8.0-2.60","FL","owwgbas786","1536","864","en","ke09im08","null","","","","learningBlock2","","","","<div style=""font-size:60px;""> </div>","null","FL","learning/Slide141.JPG","That was a tob.","",""
"","image-keyboard-response","431","524796","0.0-8.0-0.61","FL","owwgbas786","1536","864","en","ke09im08","null","","","","","","","","learning/Slide142.JPG","null","","","","",""
"","html-keyboard-response","432","525948","0.0-8.0-1.61","FL","owwgbas786","1536","864","en","ke09im08","null","","","","learningBlock2","","","","That was a wug.","null","","","","",""
"","html-keyboard-response","433","526949","0.0-8.0-2.61","FL","owwgbas786","1536","864","en","ke09im08","null","","","","learningBlock2","","","","<div style=""font-size:60px;""> </div>","null","FL","learning/Slide142.JPG","That was a wug.","",""
"","image-keyboard-response","434","527125","0.0-8.0-0.62","FL","owwgbas786","1536","864","en","ke09im08","null","","","","","","","","learning/Slide143.JPG","null","","","","",""
"","html-keyboard-response","435","528277","0.0-8.0-1.62","FL","owwgbas786","1536","864","en","ke09im08","null","","","","learningBlock2","","","","That was a bim.","null","","","","",""
"","html-keyboard-response","436","529279","0.0-8.0-2.62","FL","owwgbas786","1536","864","en","ke09im08","null","","","","learningBlock2","","","","<div style=""font-size:60px;""> </div>","null","FL","learning/Slide143.JPG","That was a bim.","",""
"","image-keyboard-response","437","529455","0.0-8.0-0.63","FL","owwgbas786","1536","864","en","ke09im08","null","","","","","","","","learning/Slide144.JPG","null","","","","",""
"","html-keyboard-response","438","530608","0.0-8.0-1.63","FL","owwgbas786","1536","864","en","ke09im08","null","","","","learningBlock2","","","","That was a dep.","null","","","","",""
"","html-keyboard-response","439","531609","0.0-8.0-2.63","FL","owwgbas786","1536","864","en","ke09im08","null","","","","learningBlock2","","","","<div style=""font-size:60px;""> </div>","null","FL","learning/Slide144.JPG","That was a dep.","",""
"","image-keyboard-response","440","531786","0.0-8.0-0.64","FL","owwgbas786","1536","864","en","ke09im08","null","","","","","","","","learning/Slide145.JPG","null","","","","",""
"","html-keyboard-response","441","532939","0.0-8.0-1.64","FL","owwgbas786","1536","864","en","ke09im08","null","","","","learningBlock2","","","","That was a bim.","null","","","","",""
"","html-keyboard-response","442","533940","0.0-8.0-2.64","FL","owwgbas786","1536","864","en","ke09im08","null","","","","learningBlock2","","","","<div style=""font-size:60px;""> </div>","null","FL","learning/Slide145.JPG","That was a bim.","",""
"","image-keyboard-response","443","534117","0.0-8.0-0.65","FL","owwgbas786","1536","864","en","ke09im08","null","","","","","","","","learning/Slide146.JPG","null","","","","",""
"","html-keyboard-response","444","535268","0.0-8.0-1.65","FL","owwgbas786","1536","864","en","ke09im08","null","","","","learningBlock2","","","","That was a tob.","null","","","","",""
"","html-keyboard-response","445","536269","0.0-8.0-2.65","FL","owwgbas786","1536","864","en","ke09im08","null","","","","learningBlock2","","","","<div style=""font-size:60px;""> </div>","null","FL","learning/Slide146.JPG","That was a tob.","",""
"","image-keyboard-response","446","536446","0.0-8.0-0.66","FL","owwgbas786","1536","864","en","ke09im08","null","","","","","","","","learning/Slide147.JPG","null","","","","",""
"","html-keyboard-response","447","537599","0.0-8.0-1.66","FL","owwgbas786","1536","864","en","ke09im08","null","","","","learningBlock2","","","","That was a wug.","null","","","","",""
"","html-keyboard-response","448","538601","0.0-8.0-2.66","FL","owwgbas786","1536","864","en","ke09im08","null","","","","learningBlock2","","","","<div style=""font-size:60px;""> </div>","null","FL","learning/Slide147.JPG","That was a wug.","",""
"","image-keyboard-response","449","538777","0.0-8.0-0.67","FL","owwgbas786","1536","864","en","ke09im08","null","","","","","","","","learning/Slide148.JPG","null","","","","",""
"","html-keyboard-response","450","539929","0.0-8.0-1.67","FL","owwgbas786","1536","864","en","ke09im08","null","","","","learningBlock2","","","","That was a bim.","null","","","","",""
"","html-keyboard-response","451","540931","0.0-8.0-2.67","FL","owwgbas786","1536","864","en","ke09im08","null","","","","learningBlock2","","","","<div style=""font-size:60px;""> </div>","null","FL","learning/Slide148.JPG","That was a bim.","",""
"","image-keyboard-response","452","541107","0.0-8.0-0.68","FL","owwgbas786","1536","864","en","ke09im08","null","","","","","","","","learning/Slide149.JPG","null","","","","",""
"","html-keyboard-response","453","542258","0.0-8.0-1.68","FL","owwgbas786","1536","864","en","ke09im08","null","","","","learningBlock2","","","","That was a dep.","null","","","","",""
"","html-keyboard-response","454","543260","0.0-8.0-2.68","FL","owwgbas786","1536","864","en","ke09im08","null","","","","learningBlock2","","","","<div style=""font-size:60px;""> </div>","null","FL","learning/Slide149.JPG","That was a dep.","",""
"","image-keyboard-response","455","543436","0.0-8.0-0.69","FL","owwgbas786","1536","864","en","ke09im08","null","","","","","","","","learning/Slide150.JPG","null","","","","",""
"","html-keyboard-response","456","544589","0.0-8.0-1.69","FL","owwgbas786","1536","864","en","ke09im08","null","","","","learningBlock2","","","","That was a wug.","null","","","","",""
"","html-keyboard-response","457","545590","0.0-8.0-2.69","FL","owwgbas786","1536","864","en","ke09im08","null","","","","learningBlock2","","","","<div style=""font-size:60px;""> </div>","null","FL","learning/Slide150.JPG","That was a wug.","",""
"","image-keyboard-response","458","545767","0.0-8.0-0.70","FL","owwgbas786","1536","864","en","ke09im08","null","","","","","","","","learning/Slide151.JPG","null","","","","",""
"","html-keyboard-response","459","546919","0.0-8.0-1.70","FL","owwgbas786","1536","864","en","ke09im08","null","","","","learningBlock2","","","","That was a dep.","null","","","","",""
"","html-keyboard-response","460","547920","0.0-8.0-2.70","FL","owwgbas786","1536","864","en","ke09im08","null","","","","learningBlock2","","","","<div style=""font-size:60px;""> </div>","null","FL","learning/Slide151.JPG","That was a dep.","",""
"","image-keyboard-response","461","548097","0.0-8.0-0.71","FL","owwgbas786","1536","864","en","ke09im08","null","","","","","","","","learning/Slide152.JPG","null","","","","",""
"","html-keyboard-response","462","549247","0.0-8.0-1.71","FL","owwgbas786","1536","864","en","ke09im08","null","","","","learningBlock2","","","","That was a wug.","null","","","","",""
"","html-keyboard-response","463","550249","0.0-8.0-2.71","FL","owwgbas786","1536","864","en","ke09im08","null","","","","learningBlock2","","","","<div style=""font-size:60px;""> </div>","null","FL","learning/Slide152.JPG","That was a wug.","",""
"","image-keyboard-response","464","550425","0.0-8.0-0.72","FL","owwgbas786","1536","864","en","ke09im08","null","","","","","","","","learning/Slide153.JPG","null","","","","",""
"","html-keyboard-response","465","551577","0.0-8.0-1.72","FL","owwgbas786","1536","864","en","ke09im08","null","","","","learningBlock2","","","","That was a bim.","null","","","","",""
"","html-keyboard-response","466","552585","0.0-8.0-2.72","FL","owwgbas786","1536","864","en","ke09im08","null","","","","learningBlock2","","","","<div style=""font-size:60px;""> </div>","null","FL","learning/Slide153.JPG","That was a bim.","",""
"","image-keyboard-response","467","552764","0.0-8.0-0.73","FL","owwgbas786","1536","864","en","ke09im08","null","","","","","","","","learning/Slide154.JPG","null","","","","",""
"","html-keyboard-response","468","553917","0.0-8.0-1.73","FL","owwgbas786","1536","864","en","ke09im08","null","","","","learningBlock2","","","","That was a tob.","null","","","","",""
"","html-keyboard-response","469","554918","0.0-8.0-2.73","FL","owwgbas786","1536","864","en","ke09im08","null","","","","learningBlock2","","","","<div style=""font-size:60px;""> </div>","null","FL","learning/Slide154.JPG","That was a tob.","",""
"","image-keyboard-response","470","555095","0.0-8.0-0.74","FL","owwgbas786","1536","864","en","ke09im08","null","","","","","","","","learning/Slide155.JPG","null","","","","",""
"","html-keyboard-response","471","556247","0.0-8.0-1.74","FL","owwgbas786","1536","864","en","ke09im08","null","","","","learningBlock2","","","","That was a dep.","null","","","","",""
"","html-keyboard-response","472","557250","0.0-8.0-2.74","FL","owwgbas786","1536","864","en","ke09im08","null","","","","learningBlock2","","","","<div style=""font-size:60px;""> </div>","null","FL","learning/Slide155.JPG","That was a dep.","",""
"","image-keyboard-response","473","557426","0.0-8.0-0.75","FL","owwgbas786","1536","864","en","ke09im08","null","","","","","","","","learning/Slide156.JPG","null","","","","",""
"","html-keyboard-response","474","558578","0.0-8.0-1.75","FL","owwgbas786","1536","864","en","ke09im08","null","","","","learningBlock2","","","","That was a bim.","null","","","","",""
"","html-keyboard-response","475","559580","0.0-8.0-2.75","FL","owwgbas786","1536","864","en","ke09im08","null","","","","learningBlock2","","","","<div style=""font-size:60px;""> </div>","null","FL","learning/Slide156.JPG","That was a bim.","",""
"","image-keyboard-response","476","559756","0.0-8.0-0.76","FL","owwgbas786","1536","864","en","ke09im08","null","","","","","","","","learning/Slide157.JPG","null","","","","",""
"","html-keyboard-response","477","560909","0.0-8.0-1.76","FL","owwgbas786","1536","864","en","ke09im08","null","","","","learningBlock2","","","","That was a dep.","null","","","","",""
"","html-keyboard-response","478","561910","0.0-8.0-2.76","FL","owwgbas786","1536","864","en","ke09im08","null","","","","learningBlock2","","","","<div style=""font-size:60px;""> </div>","null","FL","learning/Slide157.JPG","That was a dep.","",""
"","image-keyboard-response","479","562087","0.0-8.0-0.77","FL","owwgbas786","1536","864","en","ke09im08","null","","","","","","","","learning/Slide158.JPG","null","","","","",""
"","html-keyboard-response","480","563239","0.0-8.0-1.77","FL","owwgbas786","1536","864","en","ke09im08","null","","","","learningBlock2","","","","That was a tob.","null","","","","",""
"","html-keyboard-response","481","564240","0.0-8.0-2.77","FL","owwgbas786","1536","864","en","ke09im08","null","","","","learningBlock2","","","","<div style=""font-size:60px;""> </div>","null","FL","learning/Slide158.JPG","That was a tob.","",""
"","image-keyboard-response","482","564417","0.0-8.0-0.78","FL","owwgbas786","1536","864","en","ke09im08","null","","","","","","","","learning/Slide159.JPG","null","","","","",""
"","html-keyboard-response","483","565569","0.0-8.0-1.78","FL","owwgbas786","1536","864","en","ke09im08","null","","","","learningBlock2","","","","That was a dep.","null","","","","",""
"","html-keyboard-response","484","566570","0.0-8.0-2.78","FL","owwgbas786","1536","864","en","ke09im08","null","","","","learningBlock2","","","","<div style=""font-size:60px;""> </div>","null","FL","learning/Slide159.JPG","That was a dep.","",""
"","image-keyboard-response","485","566747","0.0-8.0-0.79","FL","owwgbas786","1536","864","en","ke09im08","null","","","","","","","","learning/Slide160.JPG","null","","","","",""
"","html-keyboard-response","486","567898","0.0-8.0-1.79","FL","owwgbas786","1536","864","en","ke09im08","null","","","","learningBlock2","","","","That was a wug.","null","","","","",""
"","html-keyboard-response","487","568900","0.0-8.0-2.79","FL","owwgbas786","1536","864","en","ke09im08","null","","","","learningBlock2","","","","<div style=""font-size:60px;""> </div>","null","FL","learning/Slide160.JPG","That was a wug.","",""
"","resize2","488","572568","0.0-9.0","FL","owwgbas786","1536","864","en","ke09im08","","","","","","","104","1.04","","","","","","",""
