"success","trial_type","trial_index","time_elapsed","internal_node_id","condition","subject","screen_width","screen_height","language","codeword","rt","responses","url","view_history","test_part","final_height_px","final_width_px","scale_factor","stimulus","key_press","learningType","presentedImage","presentedLabel","button_pressed","response"
"true","fullscreen","0","3834","0.0-0.0","FL","75e8k8531m","1920","1080","en","tz05yu04","","","","","","","","","","","","","","",""
"","survey-html-form","1","9898","0.0-1.0","FL","75e8k8531m","1920","1080","en","tz05yu04","6057","{""language"":""en""}","","","","","","","","","","","","",""
"","external-html","2","47367","0.0-3.0-0.0","FL","75e8k8531m","1920","1080","en","tz05yu04","37427","","text/information_english.html","","","","","","","","","","","",""
"","external-html","3","63781","0.0-3.0-1.0","FL","75e8k8531m","1920","1080","en","tz05yu04","16349","","text/consent_english.html","","","","","","","","","","","",""
"","survey-html-form","4","237705","0.0-3.0-2.0","FL","75e8k8531m","1920","1080","en","tz05yu04","173922","{""codeword_enter"":""tz05yu04""}","","","","","","","","","","","","",""
"","instructions","5","251732","0.0-4.0","FL","75e8k8531m","1920","1080","en","tz05yu04","NA","","","[{""page_index"":0,""viewing_time"":3288},{""page_index"":1,""viewing_time"":9229}]","instructions","","","","","","","","","",""
"","resize","6","298569","0.0-5.0","FL","75e8k8531m","1920","1080","en","tz05yu04","","","","","","","276","1.7523809523809524","","","","","","",""
"","image-keyboard-response","7","298750","0.0-6.0-0.0","FL","75e8k8531m","1920","1080","en","tz05yu04","null","","","","","","","","learning/Slide1.JPG","null","","","","",""
"","html-keyboard-response","8","299918","0.0-6.0-1.0","FL","75e8k8531m","1920","1080","en","tz05yu04","null","","","","learningBlock1","","","","That was a tob.","null","","","","",""
"","html-keyboard-response","9","300936","0.0-6.0-2.0","FL","75e8k8531m","1920","1080","en","tz05yu04","null","","","","learningBlock1","","","","<div style=""font-size:60px;""> </div>","null","FL","learning/Slide1.JPG","That was a tob.","",""
"","image-keyboard-response","10","301128","0.0-6.0-0.1","FL","75e8k8531m","1920","1080","en","tz05yu04","null","","","","","","","","learning/Slide2.JPG","null","","","","",""
"","html-keyboard-response","11","302295","0.0-6.0-1.1","FL","75e8k8531m","1920","1080","en","tz05yu04","null","","","","learningBlock1","","","","That was a wug.","null","","","","",""
"","html-keyboard-response","12","303296","0.0-6.0-2.1","FL","75e8k8531m","1920","1080","en","tz05yu04","null","","","","learningBlock1","","","","<div style=""font-size:60px;""> </div>","null","FL","learning/Slide2.JPG","That was a wug.","",""
"","image-keyboard-response","13","303487","0.0-6.0-0.2","FL","75e8k8531m","1920","1080","en","tz05yu04","null","","","","","","","","learning/Slide3.JPG","null","","","","",""
"","html-keyboard-response","14","304645","0.0-6.0-1.2","FL","75e8k8531m","1920","1080","en","tz05yu04","null","","","","learningBlock1","","","","That was a bim.","null","","","","",""
"","html-keyboard-response","15","305658","0.0-6.0-2.2","FL","75e8k8531m","1920","1080","en","tz05yu04","null","","","","learningBlock1","","","","<div style=""font-size:60px;""> </div>","null","FL","learning/Slide3.JPG","That was a bim.","",""
"","image-keyboard-response","16","305847","0.0-6.0-0.3","FL","75e8k8531m","1920","1080","en","tz05yu04","null","","","","","","","","learning/Slide4.JPG","null","","","","",""
"","html-keyboard-response","17","307009","0.0-6.0-1.3","FL","75e8k8531m","1920","1080","en","tz05yu04","null","","","","learningBlock1","","","","That was a dep.","null","","","","",""
"","html-keyboard-response","18","308014","0.0-6.0-2.3","FL","75e8k8531m","1920","1080","en","tz05yu04","null","","","","learningBlock1","","","","<div style=""font-size:60px;""> </div>","null","FL","learning/Slide4.JPG","That was a dep.","",""
"","image-keyboard-response","19","308205","0.0-6.0-0.4","FL","75e8k8531m","1920","1080","en","tz05yu04","null","","","","","","","","learning/Slide5.JPG","null","","","","",""
"","html-keyboard-response","20","309379","0.0-6.0-1.4","FL","75e8k8531m","1920","1080","en","tz05yu04","null","","","","learningBlock1","","","","That was a wug.","null","","","","",""
"","html-keyboard-response","21","310383","0.0-6.0-2.4","FL","75e8k8531m","1920","1080","en","tz05yu04","null","","","","learningBlock1","","","","<div style=""font-size:60px;""> </div>","null","FL","learning/Slide5.JPG","That was a wug.","",""
"","image-keyboard-response","22","310570","0.0-6.0-0.5","FL","75e8k8531m","1920","1080","en","tz05yu04","null","","","","","","","","learning/Slide6.JPG","null","","","","",""
"","html-keyboard-response","23","311742","0.0-6.0-1.5","FL","75e8k8531m","1920","1080","en","tz05yu04","null","","","","learningBlock1","","","","That was a dep.","null","","","","",""
"","html-keyboard-response","24","312756","0.0-6.0-2.5","FL","75e8k8531m","1920","1080","en","tz05yu04","null","","","","learningBlock1","","","","<div style=""font-size:60px;""> </div>","null","FL","learning/Slide6.JPG","That was a dep.","",""
"","image-keyboard-response","25","312944","0.0-6.0-0.6","FL","75e8k8531m","1920","1080","en","tz05yu04","null","","","","","","","","learning/Slide7.JPG","null","","","","",""
"","html-keyboard-response","26","314110","0.0-6.0-1.6","FL","75e8k8531m","1920","1080","en","tz05yu04","null","","","","learningBlock1","","","","That was a wug.","null","","","","",""
"","html-keyboard-response","27","315124","0.0-6.0-2.6","FL","75e8k8531m","1920","1080","en","tz05yu04","null","","","","learningBlock1","","","","<div style=""font-size:60px;""> </div>","null","FL","learning/Slide7.JPG","That was a wug.","",""
"","image-keyboard-response","28","315316","0.0-6.0-0.7","FL","75e8k8531m","1920","1080","en","tz05yu04","null","","","","","","","","learning/Slide8.JPG","null","","","","",""
"","html-keyboard-response","29","316484","0.0-6.0-1.7","FL","75e8k8531m","1920","1080","en","tz05yu04","null","","","","learningBlock1","","","","That was a bim.","null","","","","",""
"","html-keyboard-response","30","317498","0.0-6.0-2.7","FL","75e8k8531m","1920","1080","en","tz05yu04","null","","","","learningBlock1","","","","<div style=""font-size:60px;""> </div>","null","FL","learning/Slide8.JPG","That was a bim.","",""
"","image-keyboard-response","31","317689","0.0-6.0-0.8","FL","75e8k8531m","1920","1080","en","tz05yu04","null","","","","","","","","learning/Slide9.JPG","null","","","","",""
"","html-keyboard-response","32","318859","0.0-6.0-1.8","FL","75e8k8531m","1920","1080","en","tz05yu04","null","","","","learningBlock1","","","","That was a wug.","null","","","","",""
"","html-keyboard-response","33","319876","0.0-6.0-2.8","FL","75e8k8531m","1920","1080","en","tz05yu04","null","","","","learningBlock1","","","","<div style=""font-size:60px;""> </div>","null","FL","learning/Slide9.JPG","That was a wug.","",""
"","image-keyboard-response","34","320067","0.0-6.0-0.9","FL","75e8k8531m","1920","1080","en","tz05yu04","null","","","","","","","","learning/Slide10.JPG","null","","","","",""
"","html-keyboard-response","35","321236","0.0-6.0-1.9","FL","75e8k8531m","1920","1080","en","tz05yu04","null","","","","learningBlock1","","","","That was a dep.","null","","","","",""
"","html-keyboard-response","36","322253","0.0-6.0-2.9","FL","75e8k8531m","1920","1080","en","tz05yu04","null","","","","learningBlock1","","","","<div style=""font-size:60px;""> </div>","null","FL","learning/Slide10.JPG","That was a dep.","",""
"","image-keyboard-response","37","322443","0.0-6.0-0.10","FL","75e8k8531m","1920","1080","en","tz05yu04","null","","","","","","","","learning/Slide11.JPG","null","","","","",""
"","html-keyboard-response","38","323613","0.0-6.0-1.10","FL","75e8k8531m","1920","1080","en","tz05yu04","null","","","","learningBlock1","","","","That was a tob.","null","","","","",""
"","html-keyboard-response","39","324618","0.0-6.0-2.10","FL","75e8k8531m","1920","1080","en","tz05yu04","null","","","","learningBlock1","","","","<div style=""font-size:60px;""> </div>","null","FL","learning/Slide11.JPG","That was a tob.","",""
"","image-keyboard-response","40","324809","0.0-6.0-0.11","FL","75e8k8531m","1920","1080","en","tz05yu04","null","","","","","","","","learning/Slide12.JPG","null","","","","",""
"","html-keyboard-response","41","325971","0.0-6.0-1.11","FL","75e8k8531m","1920","1080","en","tz05yu04","null","","","","learningBlock1","","","","That was a dep.","null","","","","",""
"","html-keyboard-response","42","326983","0.0-6.0-2.11","FL","75e8k8531m","1920","1080","en","tz05yu04","null","","","","learningBlock1","","","","<div style=""font-size:60px;""> </div>","null","FL","learning/Slide12.JPG","That was a dep.","",""
"","image-keyboard-response","43","327174","0.0-6.0-0.12","FL","75e8k8531m","1920","1080","en","tz05yu04","null","","","","","","","","learning/Slide13.JPG","null","","","","",""
"","html-keyboard-response","44","328345","0.0-6.0-1.12","FL","75e8k8531m","1920","1080","en","tz05yu04","null","","","","learningBlock1","","","","That was a bim.","null","","","","",""
"","html-keyboard-response","45","329362","0.0-6.0-2.12","FL","75e8k8531m","1920","1080","en","tz05yu04","null","","","","learningBlock1","","","","<div style=""font-size:60px;""> </div>","null","FL","learning/Slide13.JPG","That was a bim.","",""
"","image-keyboard-response","46","329551","0.0-6.0-0.13","FL","75e8k8531m","1920","1080","en","tz05yu04","null","","","","","","","","learning/Slide14.JPG","null","","","","",""
"","html-keyboard-response","47","330714","0.0-6.0-1.13","FL","75e8k8531m","1920","1080","en","tz05yu04","null","","","","learningBlock1","","","","That was a wug.","null","","","","",""
"","html-keyboard-response","48","331728","0.0-6.0-2.13","FL","75e8k8531m","1920","1080","en","tz05yu04","null","","","","learningBlock1","","","","<div style=""font-size:60px;""> </div>","null","FL","learning/Slide14.JPG","That was a wug.","",""
"","image-keyboard-response","49","331918","0.0-6.0-0.14","FL","75e8k8531m","1920","1080","en","tz05yu04","null","","","","","","","","learning/Slide15.JPG","null","","","","",""
"","html-keyboard-response","50","333092","0.0-6.0-1.14","FL","75e8k8531m","1920","1080","en","tz05yu04","null","","","","learningBlock1","","","","That was a tob.","null","","","","",""
"","html-keyboard-response","51","334092","0.0-6.0-2.14","FL","75e8k8531m","1920","1080","en","tz05yu04","null","","","","learningBlock1","","","","<div style=""font-size:60px;""> </div>","null","FL","learning/Slide15.JPG","That was a tob.","",""
"","image-keyboard-response","52","334279","0.0-6.0-0.15","FL","75e8k8531m","1920","1080","en","tz05yu04","null","","","","","","","","learning/Slide16.JPG","null","","","","",""
"","html-keyboard-response","53","335442","0.0-6.0-1.15","FL","75e8k8531m","1920","1080","en","tz05yu04","null","","","","learningBlock1","","","","That was a dep.","null","","","","",""
"","html-keyboard-response","54","336454","0.0-6.0-2.15","FL","75e8k8531m","1920","1080","en","tz05yu04","null","","","","learningBlock1","","","","<div style=""font-size:60px;""> </div>","null","FL","learning/Slide16.JPG","That was a dep.","",""
"","image-keyboard-response","55","336643","0.0-6.0-0.16","FL","75e8k8531m","1920","1080","en","tz05yu04","null","","","","","","","","learning/Slide17.JPG","null","","","","",""
"","html-keyboard-response","56","337808","0.0-6.0-1.16","FL","75e8k8531m","1920","1080","en","tz05yu04","null","","","","learningBlock1","","","","That was a bim.","null","","","","",""
"","html-keyboard-response","57","338817","0.0-6.0-2.16","FL","75e8k8531m","1920","1080","en","tz05yu04","null","","","","learningBlock1","","","","<div style=""font-size:60px;""> </div>","null","FL","learning/Slide17.JPG","That was a bim.","",""
"","image-keyboard-response","58","339008","0.0-6.0-0.17","FL","75e8k8531m","1920","1080","en","tz05yu04","null","","","","","","","","learning/Slide18.JPG","null","","","","",""
"","html-keyboard-response","59","340168","0.0-6.0-1.17","FL","75e8k8531m","1920","1080","en","tz05yu04","null","","","","learningBlock1","","","","That was a tob.","null","","","","",""
"","html-keyboard-response","60","341178","0.0-6.0-2.17","FL","75e8k8531m","1920","1080","en","tz05yu04","null","","","","learningBlock1","","","","<div style=""font-size:60px;""> </div>","null","FL","learning/Slide18.JPG","That was a tob.","",""
"","image-keyboard-response","61","341366","0.0-6.0-0.18","FL","75e8k8531m","1920","1080","en","tz05yu04","null","","","","","","","","learning/Slide19.JPG","null","","","","",""
"","html-keyboard-response","62","342539","0.0-6.0-1.18","FL","75e8k8531m","1920","1080","en","tz05yu04","null","","","","learningBlock1","","","","That was a wug.","null","","","","",""
"","html-keyboard-response","63","343541","0.0-6.0-2.18","FL","75e8k8531m","1920","1080","en","tz05yu04","null","","","","learningBlock1","","","","<div style=""font-size:60px;""> </div>","null","FL","learning/Slide19.JPG","That was a wug.","",""
"","image-keyboard-response","64","343731","0.0-6.0-0.19","FL","75e8k8531m","1920","1080","en","tz05yu04","null","","","","","","","","learning/Slide20.JPG","null","","","","",""
"","html-keyboard-response","65","344897","0.0-6.0-1.19","FL","75e8k8531m","1920","1080","en","tz05yu04","null","","","","learningBlock1","","","","That was a bim.","null","","","","",""
"","html-keyboard-response","66","345902","0.0-6.0-2.19","FL","75e8k8531m","1920","1080","en","tz05yu04","null","","","","learningBlock1","","","","<div style=""font-size:60px;""> </div>","null","FL","learning/Slide20.JPG","That was a bim.","",""
"","image-keyboard-response","67","346093","0.0-6.0-0.20","FL","75e8k8531m","1920","1080","en","tz05yu04","null","","","","","","","","learning/Slide21.JPG","null","","","","",""
"","html-keyboard-response","68","347252","0.0-6.0-1.20","FL","75e8k8531m","1920","1080","en","tz05yu04","null","","","","learningBlock1","","","","That was a dep.","null","","","","",""
"","html-keyboard-response","69","348266","0.0-6.0-2.20","FL","75e8k8531m","1920","1080","en","tz05yu04","null","","","","learningBlock1","","","","<div style=""font-size:60px;""> </div>","null","FL","learning/Slide21.JPG","That was a dep.","",""
"","image-keyboard-response","70","348457","0.0-6.0-0.21","FL","75e8k8531m","1920","1080","en","tz05yu04","null","","","","","","","","learning/Slide22.JPG","null","","","","",""
"","html-keyboard-response","71","349613","0.0-6.0-1.21","FL","75e8k8531m","1920","1080","en","tz05yu04","null","","","","learningBlock1","","","","That was a bim.","null","","","","",""
"","html-keyboard-response","72","350629","0.0-6.0-2.21","FL","75e8k8531m","1920","1080","en","tz05yu04","null","","","","learningBlock1","","","","<div style=""font-size:60px;""> </div>","null","FL","learning/Slide22.JPG","That was a bim.","",""
"","image-keyboard-response","73","350822","0.0-6.0-0.22","FL","75e8k8531m","1920","1080","en","tz05yu04","null","","","","","","","","learning/Slide23.JPG","null","","","","",""
"","html-keyboard-response","74","351989","0.0-6.0-1.22","FL","75e8k8531m","1920","1080","en","tz05yu04","null","","","","learningBlock1","","","","That was a tob.","null","","","","",""
"","html-keyboard-response","75","352993","0.0-6.0-2.22","FL","75e8k8531m","1920","1080","en","tz05yu04","null","","","","learningBlock1","","","","<div style=""font-size:60px;""> </div>","null","FL","learning/Slide23.JPG","That was a tob.","",""
"","image-keyboard-response","76","353182","0.0-6.0-0.23","FL","75e8k8531m","1920","1080","en","tz05yu04","null","","","","","","","","learning/Slide24.JPG","null","","","","",""
"","html-keyboard-response","77","354356","0.0-6.0-1.23","FL","75e8k8531m","1920","1080","en","tz05yu04","null","","","","learningBlock1","","","","That was a wug.","null","","","","",""
"","html-keyboard-response","78","355367","0.0-6.0-2.23","FL","75e8k8531m","1920","1080","en","tz05yu04","null","","","","learningBlock1","","","","<div style=""font-size:60px;""> </div>","null","FL","learning/Slide24.JPG","That was a wug.","",""
"","image-keyboard-response","79","355560","0.0-6.0-0.24","FL","75e8k8531m","1920","1080","en","tz05yu04","null","","","","","","","","learning/Slide25.JPG","null","","","","",""
"","html-keyboard-response","80","356730","0.0-6.0-1.24","FL","75e8k8531m","1920","1080","en","tz05yu04","null","","","","learningBlock1","","","","That was a dep.","null","","","","",""
"","html-keyboard-response","81","357733","0.0-6.0-2.24","FL","75e8k8531m","1920","1080","en","tz05yu04","null","","","","learningBlock1","","","","<div style=""font-size:60px;""> </div>","null","FL","learning/Slide25.JPG","That was a dep.","",""
"","image-keyboard-response","82","357925","0.0-6.0-0.25","FL","75e8k8531m","1920","1080","en","tz05yu04","null","","","","","","","","learning/Slide26.JPG","null","","","","",""
"","html-keyboard-response","83","359097","0.0-6.0-1.25","FL","75e8k8531m","1920","1080","en","tz05yu04","null","","","","learningBlock1","","","","That was a wug.","null","","","","",""
"","html-keyboard-response","84","360111","0.0-6.0-2.25","FL","75e8k8531m","1920","1080","en","tz05yu04","null","","","","learningBlock1","","","","<div style=""font-size:60px;""> </div>","null","FL","learning/Slide26.JPG","That was a wug.","",""
"","image-keyboard-response","85","360299","0.0-6.0-0.26","FL","75e8k8531m","1920","1080","en","tz05yu04","null","","","","","","","","learning/Slide27.JPG","null","","","","",""
"","html-keyboard-response","86","361460","0.0-6.0-1.26","FL","75e8k8531m","1920","1080","en","tz05yu04","null","","","","learningBlock1","","","","That was a bim.","null","","","","",""
"","html-keyboard-response","87","362470","0.0-6.0-2.26","FL","75e8k8531m","1920","1080","en","tz05yu04","null","","","","learningBlock1","","","","<div style=""font-size:60px;""> </div>","null","FL","learning/Slide27.JPG","That was a bim.","",""
"","image-keyboard-response","88","362661","0.0-6.0-0.27","FL","75e8k8531m","1920","1080","en","tz05yu04","null","","","","","","","","learning/Slide28.JPG","null","","","","",""
"","html-keyboard-response","89","363834","0.0-6.0-1.27","FL","75e8k8531m","1920","1080","en","tz05yu04","null","","","","learningBlock1","","","","That was a dep.","null","","","","",""
"","html-keyboard-response","90","364850","0.0-6.0-2.27","FL","75e8k8531m","1920","1080","en","tz05yu04","null","","","","learningBlock1","","","","<div style=""font-size:60px;""> </div>","null","FL","learning/Slide28.JPG","That was a dep.","",""
"","image-keyboard-response","91","365039","0.0-6.0-0.28","FL","75e8k8531m","1920","1080","en","tz05yu04","null","","","","","","","","learning/Slide29.JPG","null","","","","",""
"","html-keyboard-response","92","366209","0.0-6.0-1.28","FL","75e8k8531m","1920","1080","en","tz05yu04","null","","","","learningBlock1","","","","That was a tob.","null","","","","",""
"","html-keyboard-response","93","367219","0.0-6.0-2.28","FL","75e8k8531m","1920","1080","en","tz05yu04","null","","","","learningBlock1","","","","<div style=""font-size:60px;""> </div>","null","FL","learning/Slide29.JPG","That was a tob.","",""
"","image-keyboard-response","94","367409","0.0-6.0-0.29","FL","75e8k8531m","1920","1080","en","tz05yu04","null","","","","","","","","learning/Slide30.JPG","null","","","","",""
"","html-keyboard-response","95","368578","0.0-6.0-1.29","FL","75e8k8531m","1920","1080","en","tz05yu04","null","","","","learningBlock1","","","","That was a dep.","null","","","","",""
"","html-keyboard-response","96","369585","0.0-6.0-2.29","FL","75e8k8531m","1920","1080","en","tz05yu04","null","","","","learningBlock1","","","","<div style=""font-size:60px;""> </div>","null","FL","learning/Slide30.JPG","That was a dep.","",""
"","image-keyboard-response","97","369775","0.0-6.0-0.30","FL","75e8k8531m","1920","1080","en","tz05yu04","null","","","","","","","","learning/Slide31.JPG","null","","","","",""
"","html-keyboard-response","98","370949","0.0-6.0-1.30","FL","75e8k8531m","1920","1080","en","tz05yu04","null","","","","learningBlock1","","","","That was a wug.","null","","","","",""
"","html-keyboard-response","99","371961","0.0-6.0-2.30","FL","75e8k8531m","1920","1080","en","tz05yu04","null","","","","learningBlock1","","","","<div style=""font-size:60px;""> </div>","null","FL","learning/Slide31.JPG","That was a wug.","",""
"","image-keyboard-response","100","372149","0.0-6.0-0.31","FL","75e8k8531m","1920","1080","en","tz05yu04","null","","","","","","","","learning/Slide32.JPG","null","","","","",""
"","html-keyboard-response","101","373322","0.0-6.0-1.31","FL","75e8k8531m","1920","1080","en","tz05yu04","null","","","","learningBlock1","","","","That was a tob.","null","","","","",""
"","html-keyboard-response","102","374332","0.0-6.0-2.31","FL","75e8k8531m","1920","1080","en","tz05yu04","null","","","","learningBlock1","","","","<div style=""font-size:60px;""> </div>","null","FL","learning/Slide32.JPG","That was a tob.","",""
"","image-keyboard-response","103","374524","0.0-6.0-0.32","FL","75e8k8531m","1920","1080","en","tz05yu04","null","","","","","","","","learning/Slide33.JPG","null","","","","",""
"","html-keyboard-response","104","375697","0.0-6.0-1.32","FL","75e8k8531m","1920","1080","en","tz05yu04","null","","","","learningBlock1","","","","That was a bim.","null","","","","",""
"","html-keyboard-response","105","376709","0.0-6.0-2.32","FL","75e8k8531m","1920","1080","en","tz05yu04","null","","","","learningBlock1","","","","<div style=""font-size:60px;""> </div>","null","FL","learning/Slide33.JPG","That was a bim.","",""
"","image-keyboard-response","106","376901","0.0-6.0-0.33","FL","75e8k8531m","1920","1080","en","tz05yu04","null","","","","","","","","learning/Slide34.JPG","null","","","","",""
"","html-keyboard-response","107","378067","0.0-6.0-1.33","FL","75e8k8531m","1920","1080","en","tz05yu04","null","","","","learningBlock1","","","","That was a tob.","null","","","","",""
"","html-keyboard-response","108","379084","0.0-6.0-2.33","FL","75e8k8531m","1920","1080","en","tz05yu04","null","","","","learningBlock1","","","","<div style=""font-size:60px;""> </div>","null","FL","learning/Slide34.JPG","That was a tob.","",""
"","image-keyboard-response","109","379273","0.0-6.0-0.34","FL","75e8k8531m","1920","1080","en","tz05yu04","null","","","","","","","","learning/Slide35.JPG","null","","","","",""
"","html-keyboard-response","110","380445","0.0-6.0-1.34","FL","75e8k8531m","1920","1080","en","tz05yu04","null","","","","learningBlock1","","","","That was a bim.","null","","","","",""
"","html-keyboard-response","111","381459","0.0-6.0-2.34","FL","75e8k8531m","1920","1080","en","tz05yu04","null","","","","learningBlock1","","","","<div style=""font-size:60px;""> </div>","null","FL","learning/Slide35.JPG","That was a bim.","",""
"","image-keyboard-response","112","381650","0.0-6.0-0.35","FL","75e8k8531m","1920","1080","en","tz05yu04","null","","","","","","","","learning/Slide36.JPG","null","","","","",""
"","html-keyboard-response","113","382823","0.0-6.0-1.35","FL","75e8k8531m","1920","1080","en","tz05yu04","null","","","","learningBlock1","","","","That was a dep.","null","","","","",""
"","html-keyboard-response","114","383833","0.0-6.0-2.35","FL","75e8k8531m","1920","1080","en","tz05yu04","null","","","","learningBlock1","","","","<div style=""font-size:60px;""> </div>","null","FL","learning/Slide36.JPG","That was a dep.","",""
"","image-keyboard-response","115","384020","0.0-6.0-0.36","FL","75e8k8531m","1920","1080","en","tz05yu04","null","","","","","","","","learning/Slide37.JPG","null","","","","",""
"","html-keyboard-response","116","385180","0.0-6.0-1.36","FL","75e8k8531m","1920","1080","en","tz05yu04","null","","","","learningBlock1","","","","That was a tob.","null","","","","",""
"","html-keyboard-response","117","386183","0.0-6.0-2.36","FL","75e8k8531m","1920","1080","en","tz05yu04","null","","","","learningBlock1","","","","<div style=""font-size:60px;""> </div>","null","FL","learning/Slide37.JPG","That was a tob.","",""
"","image-keyboard-response","118","386369","0.0-6.0-0.37","FL","75e8k8531m","1920","1080","en","tz05yu04","null","","","","","","","","learning/Slide38.JPG","null","","","","",""
"","html-keyboard-response","119","387533","0.0-6.0-1.37","FL","75e8k8531m","1920","1080","en","tz05yu04","null","","","","learningBlock1","","","","That was a wug.","null","","","","",""
"","html-keyboard-response","120","388537","0.0-6.0-2.37","FL","75e8k8531m","1920","1080","en","tz05yu04","null","","","","learningBlock1","","","","<div style=""font-size:60px;""> </div>","null","FL","learning/Slide38.JPG","That was a wug.","",""
"","image-keyboard-response","121","388729","0.0-6.0-0.38","FL","75e8k8531m","1920","1080","en","tz05yu04","null","","","","","","","","learning/Slide39.JPG","null","","","","",""
"","html-keyboard-response","122","389891","0.0-6.0-1.38","FL","75e8k8531m","1920","1080","en","tz05yu04","null","","","","learningBlock1","","","","That was a bim.","null","","","","",""
"","html-keyboard-response","123","390895","0.0-6.0-2.38","FL","75e8k8531m","1920","1080","en","tz05yu04","null","","","","learningBlock1","","","","<div style=""font-size:60px;""> </div>","null","FL","learning/Slide39.JPG","That was a bim.","",""
"","image-keyboard-response","124","391082","0.0-6.0-0.39","FL","75e8k8531m","1920","1080","en","tz05yu04","null","","","","","","","","learning/Slide40.JPG","null","","","","",""
"","html-keyboard-response","125","392251","0.0-6.0-1.39","FL","75e8k8531m","1920","1080","en","tz05yu04","null","","","","learningBlock1","","","","That was a tob.","null","","","","",""
"","html-keyboard-response","126","393258","0.0-6.0-2.39","FL","75e8k8531m","1920","1080","en","tz05yu04","null","","","","learningBlock1","","","","<div style=""font-size:60px;""> </div>","null","FL","learning/Slide40.JPG","That was a tob.","",""
"","image-keyboard-response","127","393446","0.0-6.0-0.40","FL","75e8k8531m","1920","1080","en","tz05yu04","null","","","","","","","","learning/Slide41.JPG","null","","","","",""
"","html-keyboard-response","128","394615","0.0-6.0-1.40","FL","75e8k8531m","1920","1080","en","tz05yu04","null","","","","learningBlock1","","","","That was a bim.","null","","","","",""
"","html-keyboard-response","129","395619","0.0-6.0-2.40","FL","75e8k8531m","1920","1080","en","tz05yu04","null","","","","learningBlock1","","","","<div style=""font-size:60px;""> </div>","null","FL","learning/Slide41.JPG","That was a bim.","",""
"","image-keyboard-response","130","395808","0.0-6.0-0.41","FL","75e8k8531m","1920","1080","en","tz05yu04","null","","","","","","","","learning/Slide42.JPG","null","","","","",""
"","html-keyboard-response","131","396979","0.0-6.0-1.41","FL","75e8k8531m","1920","1080","en","tz05yu04","null","","","","learningBlock1","","","","That was a dep.","null","","","","",""
"","html-keyboard-response","132","397985","0.0-6.0-2.41","FL","75e8k8531m","1920","1080","en","tz05yu04","null","","","","learningBlock1","","","","<div style=""font-size:60px;""> </div>","null","FL","learning/Slide42.JPG","That was a dep.","",""
"","image-keyboard-response","133","398175","0.0-6.0-0.42","FL","75e8k8531m","1920","1080","en","tz05yu04","null","","","","","","","","learning/Slide43.JPG","null","","","","",""
"","html-keyboard-response","134","399344","0.0-6.0-1.42","FL","75e8k8531m","1920","1080","en","tz05yu04","null","","","","learningBlock1","","","","That was a wug.","null","","","","",""
"","html-keyboard-response","135","400359","0.0-6.0-2.42","FL","75e8k8531m","1920","1080","en","tz05yu04","null","","","","learningBlock1","","","","<div style=""font-size:60px;""> </div>","null","FL","learning/Slide43.JPG","That was a wug.","",""
"","image-keyboard-response","136","400549","0.0-6.0-0.43","FL","75e8k8531m","1920","1080","en","tz05yu04","null","","","","","","","","learning/Slide44.JPG","null","","","","",""
"","html-keyboard-response","137","401722","0.0-6.0-1.43","FL","75e8k8531m","1920","1080","en","tz05yu04","null","","","","learningBlock1","","","","That was a bim.","null","","","","",""
"","html-keyboard-response","138","402724","0.0-6.0-2.43","FL","75e8k8531m","1920","1080","en","tz05yu04","null","","","","learningBlock1","","","","<div style=""font-size:60px;""> </div>","null","FL","learning/Slide44.JPG","That was a bim.","",""
"","image-keyboard-response","139","402913","0.0-6.0-0.44","FL","75e8k8531m","1920","1080","en","tz05yu04","null","","","","","","","","learning/Slide45.JPG","null","","","","",""
"","html-keyboard-response","140","404083","0.0-6.0-1.44","FL","75e8k8531m","1920","1080","en","tz05yu04","null","","","","learningBlock1","","","","That was a wug.","null","","","","",""
"","html-keyboard-response","141","405085","0.0-6.0-2.44","FL","75e8k8531m","1920","1080","en","tz05yu04","null","","","","learningBlock1","","","","<div style=""font-size:60px;""> </div>","null","FL","learning/Slide45.JPG","That was a wug.","",""
"","image-keyboard-response","142","405276","0.0-6.0-0.45","FL","75e8k8531m","1920","1080","en","tz05yu04","null","","","","","","","","learning/Slide46.JPG","null","","","","",""
"","html-keyboard-response","143","406446","0.0-6.0-1.45","FL","75e8k8531m","1920","1080","en","tz05yu04","null","","","","learningBlock1","","","","That was a dep.","null","","","","",""
"","html-keyboard-response","144","407461","0.0-6.0-2.45","FL","75e8k8531m","1920","1080","en","tz05yu04","null","","","","learningBlock1","","","","<div style=""font-size:60px;""> </div>","null","FL","learning/Slide46.JPG","That was a dep.","",""
"","image-keyboard-response","145","407653","0.0-6.0-0.46","FL","75e8k8531m","1920","1080","en","tz05yu04","null","","","","","","","","learning/Slide47.JPG","null","","","","",""
"","html-keyboard-response","146","408825","0.0-6.0-1.46","FL","75e8k8531m","1920","1080","en","tz05yu04","null","","","","learningBlock1","","","","That was a tob.","null","","","","",""
"","html-keyboard-response","147","409840","0.0-6.0-2.46","FL","75e8k8531m","1920","1080","en","tz05yu04","null","","","","learningBlock1","","","","<div style=""font-size:60px;""> </div>","null","FL","learning/Slide47.JPG","That was a tob.","",""
"","image-keyboard-response","148","410030","0.0-6.0-0.47","FL","75e8k8531m","1920","1080","en","tz05yu04","null","","","","","","","","learning/Slide48.JPG","null","","","","",""
"","html-keyboard-response","149","411202","0.0-6.0-1.47","FL","75e8k8531m","1920","1080","en","tz05yu04","null","","","","learningBlock1","","","","That was a bim.","null","","","","",""
"","html-keyboard-response","150","412218","0.0-6.0-2.47","FL","75e8k8531m","1920","1080","en","tz05yu04","null","","","","learningBlock1","","","","<div style=""font-size:60px;""> </div>","null","FL","learning/Slide48.JPG","That was a bim.","",""
"","image-keyboard-response","151","412409","0.0-6.0-0.48","FL","75e8k8531m","1920","1080","en","tz05yu04","null","","","","","","","","learning/Slide49.JPG","null","","","","",""
"","html-keyboard-response","152","413578","0.0-6.0-1.48","FL","75e8k8531m","1920","1080","en","tz05yu04","null","","","","learningBlock1","","","","That was a dep.","null","","","","",""
"","html-keyboard-response","153","414589","0.0-6.0-2.48","FL","75e8k8531m","1920","1080","en","tz05yu04","null","","","","learningBlock1","","","","<div style=""font-size:60px;""> </div>","null","FL","learning/Slide49.JPG","That was a dep.","",""
"","image-keyboard-response","154","414780","0.0-6.0-0.49","FL","75e8k8531m","1920","1080","en","tz05yu04","null","","","","","","","","learning/Slide50.JPG","null","","","","",""
"","html-keyboard-response","155","415954","0.0-6.0-1.49","FL","75e8k8531m","1920","1080","en","tz05yu04","null","","","","learningBlock1","","","","That was a tob.","null","","","","",""
"","html-keyboard-response","156","416959","0.0-6.0-2.49","FL","75e8k8531m","1920","1080","en","tz05yu04","null","","","","learningBlock1","","","","<div style=""font-size:60px;""> </div>","null","FL","learning/Slide50.JPG","That was a tob.","",""
"","image-keyboard-response","157","417147","0.0-6.0-0.50","FL","75e8k8531m","1920","1080","en","tz05yu04","null","","","","","","","","learning/Slide51.JPG","null","","","","",""
"","html-keyboard-response","158","418309","0.0-6.0-1.50","FL","75e8k8531m","1920","1080","en","tz05yu04","null","","","","learningBlock1","","","","That was a bim.","null","","","","",""
"","html-keyboard-response","159","419325","0.0-6.0-2.50","FL","75e8k8531m","1920","1080","en","tz05yu04","null","","","","learningBlock1","","","","<div style=""font-size:60px;""> </div>","null","FL","learning/Slide51.JPG","That was a bim.","",""
"","image-keyboard-response","160","419517","0.0-6.0-0.51","FL","75e8k8531m","1920","1080","en","tz05yu04","null","","","","","","","","learning/Slide52.JPG","null","","","","",""
"","html-keyboard-response","161","420678","0.0-6.0-1.51","FL","75e8k8531m","1920","1080","en","tz05yu04","null","","","","learningBlock1","","","","That was a wug.","null","","","","",""
"","html-keyboard-response","162","421692","0.0-6.0-2.51","FL","75e8k8531m","1920","1080","en","tz05yu04","null","","","","learningBlock1","","","","<div style=""font-size:60px;""> </div>","null","FL","learning/Slide52.JPG","That was a wug.","",""
"","image-keyboard-response","163","421880","0.0-6.0-0.52","FL","75e8k8531m","1920","1080","en","tz05yu04","null","","","","","","","","learning/Slide53.JPG","null","","","","",""
"","html-keyboard-response","164","423047","0.0-6.0-1.52","FL","75e8k8531m","1920","1080","en","tz05yu04","null","","","","learningBlock1","","","","That was a tob.","null","","","","",""
"","html-keyboard-response","165","424048","0.0-6.0-2.52","FL","75e8k8531m","1920","1080","en","tz05yu04","null","","","","learningBlock1","","","","<div style=""font-size:60px;""> </div>","null","FL","learning/Slide53.JPG","That was a tob.","",""
"","image-keyboard-response","166","424240","0.0-6.0-0.53","FL","75e8k8531m","1920","1080","en","tz05yu04","null","","","","","","","","learning/Slide54.JPG","null","","","","",""
"","html-keyboard-response","167","425400","0.0-6.0-1.53","FL","75e8k8531m","1920","1080","en","tz05yu04","null","","","","learningBlock1","","","","That was a dep.","null","","","","",""
"","html-keyboard-response","168","426411","0.0-6.0-2.53","FL","75e8k8531m","1920","1080","en","tz05yu04","null","","","","learningBlock1","","","","<div style=""font-size:60px;""> </div>","null","FL","learning/Slide54.JPG","That was a dep.","",""
"","image-keyboard-response","169","426601","0.0-6.0-0.54","FL","75e8k8531m","1920","1080","en","tz05yu04","null","","","","","","","","learning/Slide55.JPG","null","","","","",""
"","html-keyboard-response","170","427774","0.0-6.0-1.54","FL","75e8k8531m","1920","1080","en","tz05yu04","null","","","","learningBlock1","","","","That was a bim.","null","","","","",""
"","html-keyboard-response","171","428787","0.0-6.0-2.54","FL","75e8k8531m","1920","1080","en","tz05yu04","null","","","","learningBlock1","","","","<div style=""font-size:60px;""> </div>","null","FL","learning/Slide55.JPG","That was a bim.","",""
"","image-keyboard-response","172","428978","0.0-6.0-0.55","FL","75e8k8531m","1920","1080","en","tz05yu04","null","","","","","","","","learning/Slide56.JPG","null","","","","",""
"","html-keyboard-response","173","430144","0.0-6.0-1.55","FL","75e8k8531m","1920","1080","en","tz05yu04","null","","","","learningBlock1","","","","That was a tob.","null","","","","",""
"","html-keyboard-response","174","431158","0.0-6.0-2.55","FL","75e8k8531m","1920","1080","en","tz05yu04","null","","","","learningBlock1","","","","<div style=""font-size:60px;""> </div>","null","FL","learning/Slide56.JPG","That was a tob.","",""
"","image-keyboard-response","175","431349","0.0-6.0-0.56","FL","75e8k8531m","1920","1080","en","tz05yu04","null","","","","","","","","learning/Slide57.JPG","null","","","","",""
"","html-keyboard-response","176","432516","0.0-6.0-1.56","FL","75e8k8531m","1920","1080","en","tz05yu04","null","","","","learningBlock1","","","","That was a dep.","null","","","","",""
"","html-keyboard-response","177","433529","0.0-6.0-2.56","FL","75e8k8531m","1920","1080","en","tz05yu04","null","","","","learningBlock1","","","","<div style=""font-size:60px;""> </div>","null","FL","learning/Slide57.JPG","That was a dep.","",""
"","image-keyboard-response","178","433718","0.0-6.0-0.57","FL","75e8k8531m","1920","1080","en","tz05yu04","null","","","","","","","","learning/Slide58.JPG","null","","","","",""
"","html-keyboard-response","179","434888","0.0-6.0-1.57","FL","75e8k8531m","1920","1080","en","tz05yu04","null","","","","learningBlock1","","","","That was a wug.","null","","","","",""
"","html-keyboard-response","180","435893","0.0-6.0-2.57","FL","75e8k8531m","1920","1080","en","tz05yu04","null","","","","learningBlock1","","","","<div style=""font-size:60px;""> </div>","null","FL","learning/Slide58.JPG","That was a wug.","",""
"","image-keyboard-response","181","436083","0.0-6.0-0.58","FL","75e8k8531m","1920","1080","en","tz05yu04","null","","","","","","","","learning/Slide59.JPG","null","","","","",""
"","html-keyboard-response","182","437250","0.0-6.0-1.58","FL","75e8k8531m","1920","1080","en","tz05yu04","null","","","","learningBlock1","","","","That was a dep.","null","","","","",""
"","html-keyboard-response","183","438266","0.0-6.0-2.58","FL","75e8k8531m","1920","1080","en","tz05yu04","null","","","","learningBlock1","","","","<div style=""font-size:60px;""> </div>","null","FL","learning/Slide59.JPG","That was a dep.","",""
"","image-keyboard-response","184","438457","0.0-6.0-0.59","FL","75e8k8531m","1920","1080","en","tz05yu04","null","","","","","","","","learning/Slide60.JPG","null","","","","",""
"","html-keyboard-response","185","439619","0.0-6.0-1.59","FL","75e8k8531m","1920","1080","en","tz05yu04","null","","","","learningBlock1","","","","That was a wug.","null","","","","",""
"","html-keyboard-response","186","440627","0.0-6.0-2.59","FL","75e8k8531m","1920","1080","en","tz05yu04","null","","","","learningBlock1","","","","<div style=""font-size:60px;""> </div>","null","FL","learning/Slide60.JPG","That was a wug.","",""
"","image-keyboard-response","187","440817","0.0-6.0-0.60","FL","75e8k8531m","1920","1080","en","tz05yu04","null","","","","","","","","learning/Slide61.JPG","null","","","","",""
"","html-keyboard-response","188","441989","0.0-6.0-1.60","FL","75e8k8531m","1920","1080","en","tz05yu04","null","","","","learningBlock1","","","","That was a bim.","null","","","","",""
"","html-keyboard-response","189","443005","0.0-6.0-2.60","FL","75e8k8531m","1920","1080","en","tz05yu04","null","","","","learningBlock1","","","","<div style=""font-size:60px;""> </div>","null","FL","learning/Slide61.JPG","That was a bim.","",""
"","image-keyboard-response","190","443195","0.0-6.0-0.61","FL","75e8k8531m","1920","1080","en","tz05yu04","null","","","","","","","","learning/Slide62.JPG","null","","","","",""
"","html-keyboard-response","191","444362","0.0-6.0-1.61","FL","75e8k8531m","1920","1080","en","tz05yu04","null","","","","learningBlock1","","","","That was a dep.","null","","","","",""
"","html-keyboard-response","192","445374","0.0-6.0-2.61","FL","75e8k8531m","1920","1080","en","tz05yu04","null","","","","learningBlock1","","","","<div style=""font-size:60px;""> </div>","null","FL","learning/Slide62.JPG","That was a dep.","",""
"","image-keyboard-response","193","445561","0.0-6.0-0.62","FL","75e8k8531m","1920","1080","en","tz05yu04","null","","","","","","","","learning/Slide63.JPG","null","","","","",""
"","html-keyboard-response","194","446733","0.0-6.0-1.62","FL","75e8k8531m","1920","1080","en","tz05yu04","null","","","","learningBlock1","","","","That was a bim.","null","","","","",""
"","html-keyboard-response","195","447751","0.0-6.0-2.62","FL","75e8k8531m","1920","1080","en","tz05yu04","null","","","","learningBlock1","","","","<div style=""font-size:60px;""> </div>","null","FL","learning/Slide63.JPG","That was a bim.","",""
"","image-keyboard-response","196","447938","0.0-6.0-0.63","FL","75e8k8531m","1920","1080","en","tz05yu04","null","","","","","","","","learning/Slide64.JPG","null","","","","",""
"","html-keyboard-response","197","449109","0.0-6.0-1.63","FL","75e8k8531m","1920","1080","en","tz05yu04","null","","","","learningBlock1","","","","That was a tob.","null","","","","",""
"","html-keyboard-response","198","450124","0.0-6.0-2.63","FL","75e8k8531m","1920","1080","en","tz05yu04","null","","","","learningBlock1","","","","<div style=""font-size:60px;""> </div>","null","FL","learning/Slide64.JPG","That was a tob.","",""
"","image-keyboard-response","199","450314","0.0-6.0-0.64","FL","75e8k8531m","1920","1080","en","tz05yu04","null","","","","","","","","learning/Slide65.JPG","null","","","","",""
"","html-keyboard-response","200","451475","0.0-6.0-1.64","FL","75e8k8531m","1920","1080","en","tz05yu04","null","","","","learningBlock1","","","","That was a wug.","null","","","","",""
"","html-keyboard-response","201","452482","0.0-6.0-2.64","FL","75e8k8531m","1920","1080","en","tz05yu04","null","","","","learningBlock1","","","","<div style=""font-size:60px;""> </div>","null","FL","learning/Slide65.JPG","That was a wug.","",""
"","image-keyboard-response","202","452672","0.0-6.0-0.65","FL","75e8k8531m","1920","1080","en","tz05yu04","null","","","","","","","","learning/Slide66.JPG","null","","","","",""
"","html-keyboard-response","203","453849","0.0-6.0-1.65","FL","75e8k8531m","1920","1080","en","tz05yu04","null","","","","learningBlock1","","","","That was a dep.","null","","","","",""
"","html-keyboard-response","204","454863","0.0-6.0-2.65","FL","75e8k8531m","1920","1080","en","tz05yu04","null","","","","learningBlock1","","","","<div style=""font-size:60px;""> </div>","null","FL","learning/Slide66.JPG","That was a dep.","",""
"","image-keyboard-response","205","455053","0.0-6.0-0.66","FL","75e8k8531m","1920","1080","en","tz05yu04","null","","","","","","","","learning/Slide67.JPG","null","","","","",""
"","html-keyboard-response","206","456214","0.0-6.0-1.66","FL","75e8k8531m","1920","1080","en","tz05yu04","null","","","","learningBlock1","","","","That was a tob.","null","","","","",""
"","html-keyboard-response","207","457218","0.0-6.0-2.66","FL","75e8k8531m","1920","1080","en","tz05yu04","null","","","","learningBlock1","","","","<div style=""font-size:60px;""> </div>","null","FL","learning/Slide67.JPG","That was a tob.","",""
"","image-keyboard-response","208","457410","0.0-6.0-0.67","FL","75e8k8531m","1920","1080","en","tz05yu04","null","","","","","","","","learning/Slide68.JPG","null","","","","",""
"","html-keyboard-response","209","458582","0.0-6.0-1.67","FL","75e8k8531m","1920","1080","en","tz05yu04","null","","","","learningBlock1","","","","That was a wug.","null","","","","",""
"","html-keyboard-response","210","459597","0.0-6.0-2.67","FL","75e8k8531m","1920","1080","en","tz05yu04","null","","","","learningBlock1","","","","<div style=""font-size:60px;""> </div>","null","FL","learning/Slide68.JPG","That was a wug.","",""
"","image-keyboard-response","211","459787","0.0-6.0-0.68","FL","75e8k8531m","1920","1080","en","tz05yu04","null","","","","","","","","learning/Slide69.JPG","null","","","","",""
"","html-keyboard-response","212","460955","0.0-6.0-1.68","FL","75e8k8531m","1920","1080","en","tz05yu04","null","","","","learningBlock1","","","","That was a tob.","null","","","","",""
"","html-keyboard-response","213","461973","0.0-6.0-2.68","FL","75e8k8531m","1920","1080","en","tz05yu04","null","","","","learningBlock1","","","","<div style=""font-size:60px;""> </div>","null","FL","learning/Slide69.JPG","That was a tob.","",""
"","image-keyboard-response","214","462161","0.0-6.0-0.69","FL","75e8k8531m","1920","1080","en","tz05yu04","null","","","","","","","","learning/Slide70.JPG","null","","","","",""
"","html-keyboard-response","215","463336","0.0-6.0-1.69","FL","75e8k8531m","1920","1080","en","tz05yu04","null","","","","learningBlock1","","","","That was a dep.","null","","","","",""
"","html-keyboard-response","216","464349","0.0-6.0-2.69","FL","75e8k8531m","1920","1080","en","tz05yu04","null","","","","learningBlock1","","","","<div style=""font-size:60px;""> </div>","null","FL","learning/Slide70.JPG","That was a dep.","",""
"","image-keyboard-response","217","464540","0.0-6.0-0.70","FL","75e8k8531m","1920","1080","en","tz05yu04","null","","","","","","","","learning/Slide71.JPG","null","","","","",""
"","html-keyboard-response","218","465713","0.0-6.0-1.70","FL","75e8k8531m","1920","1080","en","tz05yu04","null","","","","learningBlock1","","","","That was a wug.","null","","","","",""
"","html-keyboard-response","219","466728","0.0-6.0-2.70","FL","75e8k8531m","1920","1080","en","tz05yu04","null","","","","learningBlock1","","","","<div style=""font-size:60px;""> </div>","null","FL","learning/Slide71.JPG","That was a wug.","",""
"","image-keyboard-response","220","466918","0.0-6.0-0.71","FL","75e8k8531m","1920","1080","en","tz05yu04","null","","","","","","","","learning/Slide72.JPG","null","","","","",""
"","html-keyboard-response","221","468090","0.0-6.0-1.71","FL","75e8k8531m","1920","1080","en","tz05yu04","null","","","","learningBlock1","","","","That was a bim.","null","","","","",""
"","html-keyboard-response","222","469102","0.0-6.0-2.71","FL","75e8k8531m","1920","1080","en","tz05yu04","null","","","","learningBlock1","","","","<div style=""font-size:60px;""> </div>","null","FL","learning/Slide72.JPG","That was a bim.","",""
"","image-keyboard-response","223","469290","0.0-6.0-0.72","FL","75e8k8531m","1920","1080","en","tz05yu04","null","","","","","","","","learning/Slide73.JPG","null","","","","",""
"","html-keyboard-response","224","470451","0.0-6.0-1.72","FL","75e8k8531m","1920","1080","en","tz05yu04","null","","","","learningBlock1","","","","That was a wug.","null","","","","",""
"","html-keyboard-response","225","471459","0.0-6.0-2.72","FL","75e8k8531m","1920","1080","en","tz05yu04","null","","","","learningBlock1","","","","<div style=""font-size:60px;""> </div>","null","FL","learning/Slide73.JPG","That was a wug.","",""
"","image-keyboard-response","226","471646","0.0-6.0-0.73","FL","75e8k8531m","1920","1080","en","tz05yu04","null","","","","","","","","learning/Slide74.JPG","null","","","","",""
"","html-keyboard-response","227","472819","0.0-6.0-1.73","FL","75e8k8531m","1920","1080","en","tz05yu04","null","","","","learningBlock1","","","","That was a dep.","null","","","","",""
"","html-keyboard-response","228","473835","0.0-6.0-2.73","FL","75e8k8531m","1920","1080","en","tz05yu04","null","","","","learningBlock1","","","","<div style=""font-size:60px;""> </div>","null","FL","learning/Slide74.JPG","That was a dep.","",""
"","image-keyboard-response","229","474023","0.0-6.0-0.74","FL","75e8k8531m","1920","1080","en","tz05yu04","null","","","","","","","","learning/Slide75.JPG","null","","","","",""
"","html-keyboard-response","230","475189","0.0-6.0-1.74","FL","75e8k8531m","1920","1080","en","tz05yu04","null","","","","learningBlock1","","","","That was a tob.","null","","","","",""
"","html-keyboard-response","231","476195","0.0-6.0-2.74","FL","75e8k8531m","1920","1080","en","tz05yu04","null","","","","learningBlock1","","","","<div style=""font-size:60px;""> </div>","null","FL","learning/Slide75.JPG","That was a tob.","",""
"","image-keyboard-response","232","476383","0.0-6.0-0.75","FL","75e8k8531m","1920","1080","en","tz05yu04","null","","","","","","","","learning/Slide76.JPG","null","","","","",""
"","html-keyboard-response","233","477544","0.0-6.0-1.75","FL","75e8k8531m","1920","1080","en","tz05yu04","null","","","","learningBlock1","","","","That was a bim.","null","","","","",""
"","html-keyboard-response","234","478559","0.0-6.0-2.75","FL","75e8k8531m","1920","1080","en","tz05yu04","null","","","","learningBlock1","","","","<div style=""font-size:60px;""> </div>","null","FL","learning/Slide76.JPG","That was a bim.","",""
"","image-keyboard-response","235","478748","0.0-6.0-0.76","FL","75e8k8531m","1920","1080","en","tz05yu04","null","","","","","","","","learning/Slide77.JPG","null","","","","",""
"","html-keyboard-response","236","479908","0.0-6.0-1.76","FL","75e8k8531m","1920","1080","en","tz05yu04","null","","","","learningBlock1","","","","That was a tob.","null","","","","",""
"","html-keyboard-response","237","480917","0.0-6.0-2.76","FL","75e8k8531m","1920","1080","en","tz05yu04","null","","","","learningBlock1","","","","<div style=""font-size:60px;""> </div>","null","FL","learning/Slide77.JPG","That was a tob.","",""
"","image-keyboard-response","238","481106","0.0-6.0-0.77","FL","75e8k8531m","1920","1080","en","tz05yu04","null","","","","","","","","learning/Slide78.JPG","null","","","","",""
"","html-keyboard-response","239","482270","0.0-6.0-1.77","FL","75e8k8531m","1920","1080","en","tz05yu04","null","","","","learningBlock1","","","","That was a wug.","null","","","","",""
"","html-keyboard-response","240","483274","0.0-6.0-2.77","FL","75e8k8531m","1920","1080","en","tz05yu04","null","","","","learningBlock1","","","","<div style=""font-size:60px;""> </div>","null","FL","learning/Slide78.JPG","That was a wug.","",""
"","image-keyboard-response","241","483466","0.0-6.0-0.78","FL","75e8k8531m","1920","1080","en","tz05yu04","null","","","","","","","","learning/Slide79.JPG","null","","","","",""
"","html-keyboard-response","242","484640","0.0-6.0-1.78","FL","75e8k8531m","1920","1080","en","tz05yu04","null","","","","learningBlock1","","","","That was a bim.","null","","","","",""
"","html-keyboard-response","243","485644","0.0-6.0-2.78","FL","75e8k8531m","1920","1080","en","tz05yu04","null","","","","learningBlock1","","","","<div style=""font-size:60px;""> </div>","null","FL","learning/Slide79.JPG","That was a bim.","",""
"","image-keyboard-response","244","485834","0.0-6.0-0.79","FL","75e8k8531m","1920","1080","en","tz05yu04","null","","","","","","","","learning/Slide80.JPG","null","","","","",""
"","html-keyboard-response","245","487009","0.0-6.0-1.79","FL","75e8k8531m","1920","1080","en","tz05yu04","null","","","","learningBlock1","","","","That was a tob.","null","","","","",""
"","html-keyboard-response","246","488010","0.0-6.0-2.79","FL","75e8k8531m","1920","1080","en","tz05yu04","null","","","","learningBlock1","","","","<div style=""font-size:60px;""> </div>","null","FL","learning/Slide80.JPG","That was a tob.","",""
"","instructions","247","491215","0.0-7.0","FL","75e8k8531m","1920","1080","en","tz05yu04","NA","","","[{""page_index"":0,""viewing_time"":3203}]","instructions","","","","","","","","","",""
"","image-keyboard-response","248","491398","0.0-8.0-0.0","FL","75e8k8531m","1920","1080","en","tz05yu04","null","","","","","","","","learning/Slide81.JPG","null","","","","",""
"","html-keyboard-response","249","492568","0.0-8.0-1.0","FL","75e8k8531m","1920","1080","en","tz05yu04","null","","","","learningBlock2","","","","That was a wug.","null","","","","",""
"","html-keyboard-response","250","493569","0.0-8.0-2.0","FL","75e8k8531m","1920","1080","en","tz05yu04","null","","","","learningBlock2","","","","<div style=""font-size:60px;""> </div>","null","FL","learning/Slide81.JPG","That was a wug.","",""
"","image-keyboard-response","251","493758","0.0-8.0-0.1","FL","75e8k8531m","1920","1080","en","tz05yu04","null","","","","","","","","learning/Slide82.JPG","null","","","","",""
"","html-keyboard-response","252","494919","0.0-8.0-1.1","FL","75e8k8531m","1920","1080","en","tz05yu04","null","","","","learningBlock2","","","","That was a bim.","null","","","","",""
"","html-keyboard-response","253","495934","0.0-8.0-2.1","FL","75e8k8531m","1920","1080","en","tz05yu04","null","","","","learningBlock2","","","","<div style=""font-size:60px;""> </div>","null","FL","learning/Slide82.JPG","That was a bim.","",""
"","image-keyboard-response","254","496121","0.0-8.0-0.2","FL","75e8k8531m","1920","1080","en","tz05yu04","null","","","","","","","","learning/Slide83.JPG","null","","","","",""
"","html-keyboard-response","255","497291","0.0-8.0-1.2","FL","75e8k8531m","1920","1080","en","tz05yu04","null","","","","learningBlock2","","","","That was a wug.","null","","","","",""
"","html-keyboard-response","256","498305","0.0-8.0-2.2","FL","75e8k8531m","1920","1080","en","tz05yu04","null","","","","learningBlock2","","","","<div style=""font-size:60px;""> </div>","null","FL","learning/Slide83.JPG","That was a wug.","",""
"","image-keyboard-response","257","498496","0.0-8.0-0.3","FL","75e8k8531m","1920","1080","en","tz05yu04","null","","","","","","","","learning/Slide84.JPG","null","","","","",""
"","html-keyboard-response","258","499666","0.0-8.0-1.3","FL","75e8k8531m","1920","1080","en","tz05yu04","null","","","","learningBlock2","","","","That was a dep.","null","","","","",""
"","html-keyboard-response","259","500671","0.0-8.0-2.3","FL","75e8k8531m","1920","1080","en","tz05yu04","null","","","","learningBlock2","","","","<div style=""font-size:60px;""> </div>","null","FL","learning/Slide84.JPG","That was a dep.","",""
"","image-keyboard-response","260","500861","0.0-8.0-0.4","FL","75e8k8531m","1920","1080","en","tz05yu04","null","","","","","","","","learning/Slide85.JPG","null","","","","",""
"","html-keyboard-response","261","502028","0.0-8.0-1.4","FL","75e8k8531m","1920","1080","en","tz05yu04","null","","","","learningBlock2","","","","That was a bim.","null","","","","",""
"","html-keyboard-response","262","503031","0.0-8.0-2.4","FL","75e8k8531m","1920","1080","en","tz05yu04","null","","","","learningBlock2","","","","<div style=""font-size:60px;""> </div>","null","FL","learning/Slide85.JPG","That was a bim.","",""
"","image-keyboard-response","263","503222","0.0-8.0-0.5","FL","75e8k8531m","1920","1080","en","tz05yu04","null","","","","","","","","learning/Slide86.JPG","null","","","","",""
"","html-keyboard-response","264","504394","0.0-8.0-1.5","FL","75e8k8531m","1920","1080","en","tz05yu04","null","","","","learningBlock2","","","","That was a tob.","null","","","","",""
"","html-keyboard-response","265","505408","0.0-8.0-2.5","FL","75e8k8531m","1920","1080","en","tz05yu04","null","","","","learningBlock2","","","","<div style=""font-size:60px;""> </div>","null","FL","learning/Slide86.JPG","That was a tob.","",""
"","image-keyboard-response","266","505599","0.0-8.0-0.6","FL","75e8k8531m","1920","1080","en","tz05yu04","null","","","","","","","","learning/Slide87.JPG","null","","","","",""
"","html-keyboard-response","267","506774","0.0-8.0-1.6","FL","75e8k8531m","1920","1080","en","tz05yu04","null","","","","learningBlock2","","","","That was a wug.","null","","","","",""
"","html-keyboard-response","268","507791","0.0-8.0-2.6","FL","75e8k8531m","1920","1080","en","tz05yu04","null","","","","learningBlock2","","","","<div style=""font-size:60px;""> </div>","null","FL","learning/Slide87.JPG","That was a wug.","",""
"","image-keyboard-response","269","507981","0.0-8.0-0.7","FL","75e8k8531m","1920","1080","en","tz05yu04","null","","","","","","","","learning/Slide88.JPG","null","","","","",""
"","html-keyboard-response","270","509156","0.0-8.0-1.7","FL","75e8k8531m","1920","1080","en","tz05yu04","null","","","","learningBlock2","","","","That was a tob.","null","","","","",""
"","html-keyboard-response","271","510171","0.0-8.0-2.7","FL","75e8k8531m","1920","1080","en","tz05yu04","null","","","","learningBlock2","","","","<div style=""font-size:60px;""> </div>","null","FL","learning/Slide88.JPG","That was a tob.","",""
"","image-keyboard-response","272","510360","0.0-8.0-0.8","FL","75e8k8531m","1920","1080","en","tz05yu04","null","","","","","","","","learning/Slide89.JPG","null","","","","",""
"","html-keyboard-response","273","511531","0.0-8.0-1.8","FL","75e8k8531m","1920","1080","en","tz05yu04","null","","","","learningBlock2","","","","That was a bim.","null","","","","",""
"","html-keyboard-response","274","512534","0.0-8.0-2.8","FL","75e8k8531m","1920","1080","en","tz05yu04","null","","","","learningBlock2","","","","<div style=""font-size:60px;""> </div>","null","FL","learning/Slide89.JPG","That was a bim.","",""
"","image-keyboard-response","275","512726","0.0-8.0-0.9","FL","75e8k8531m","1920","1080","en","tz05yu04","null","","","","","","","","learning/Slide90.JPG","null","","","","",""
"","html-keyboard-response","276","513883","0.0-8.0-1.9","FL","75e8k8531m","1920","1080","en","tz05yu04","null","","","","learningBlock2","","","","That was a dep.","null","","","","",""
"","html-keyboard-response","277","514898","0.0-8.0-2.9","FL","75e8k8531m","1920","1080","en","tz05yu04","null","","","","learningBlock2","","","","<div style=""font-size:60px;""> </div>","null","FL","learning/Slide90.JPG","That was a dep.","",""
"","image-keyboard-response","278","515089","0.0-8.0-0.10","FL","75e8k8531m","1920","1080","en","tz05yu04","null","","","","","","","","learning/Slide91.JPG","null","","","","",""
"","html-keyboard-response","279","516252","0.0-8.0-1.10","FL","75e8k8531m","1920","1080","en","tz05yu04","null","","","","learningBlock2","","","","That was a wug.","null","","","","",""
"","html-keyboard-response","280","517265","0.0-8.0-2.10","FL","75e8k8531m","1920","1080","en","tz05yu04","null","","","","learningBlock2","","","","<div style=""font-size:60px;""> </div>","null","FL","learning/Slide91.JPG","That was a wug.","",""
"","image-keyboard-response","281","517451","0.0-8.0-0.11","FL","75e8k8531m","1920","1080","en","tz05yu04","null","","","","","","","","learning/Slide92.JPG","null","","","","",""
"","html-keyboard-response","282","518617","0.0-8.0-1.11","FL","75e8k8531m","1920","1080","en","tz05yu04","null","","","","learningBlock2","","","","That was a tob.","null","","","","",""
"","html-keyboard-response","283","519626","0.0-8.0-2.11","FL","75e8k8531m","1920","1080","en","tz05yu04","null","","","","learningBlock2","","","","<div style=""font-size:60px;""> </div>","null","FL","learning/Slide92.JPG","That was a tob.","",""
"","image-keyboard-response","284","519814","0.0-8.0-0.12","FL","75e8k8531m","1920","1080","en","tz05yu04","null","","","","","","","","learning/Slide93.JPG","null","","","","",""
"","html-keyboard-response","285","520974","0.0-8.0-1.12","FL","75e8k8531m","1920","1080","en","tz05yu04","null","","","","learningBlock2","","","","That was a bim.","null","","","","",""
"","html-keyboard-response","286","521982","0.0-8.0-2.12","FL","75e8k8531m","1920","1080","en","tz05yu04","null","","","","learningBlock2","","","","<div style=""font-size:60px;""> </div>","null","FL","learning/Slide93.JPG","That was a bim.","",""
"","image-keyboard-response","287","522169","0.0-8.0-0.13","FL","75e8k8531m","1920","1080","en","tz05yu04","null","","","","","","","","learning/Slide94.JPG","null","","","","",""
"","html-keyboard-response","288","523341","0.0-8.0-1.13","FL","75e8k8531m","1920","1080","en","tz05yu04","null","","","","learningBlock2","","","","That was a tob.","null","","","","",""
"","html-keyboard-response","289","524343","0.0-8.0-2.13","FL","75e8k8531m","1920","1080","en","tz05yu04","null","","","","learningBlock2","","","","<div style=""font-size:60px;""> </div>","null","FL","learning/Slide94.JPG","That was a tob.","",""
"","image-keyboard-response","290","524535","0.0-8.0-0.14","FL","75e8k8531m","1920","1080","en","tz05yu04","null","","","","","","","","learning/Slide95.JPG","null","","","","",""
"","html-keyboard-response","291","525698","0.0-8.0-1.14","FL","75e8k8531m","1920","1080","en","tz05yu04","null","","","","learningBlock2","","","","That was a wug.","null","","","","",""
"","html-keyboard-response","292","526709","0.0-8.0-2.14","FL","75e8k8531m","1920","1080","en","tz05yu04","null","","","","learningBlock2","","","","<div style=""font-size:60px;""> </div>","null","FL","learning/Slide95.JPG","That was a wug.","",""
"","image-keyboard-response","293","526898","0.0-8.0-0.15","FL","75e8k8531m","1920","1080","en","tz05yu04","null","","","","","","","","learning/Slide96.JPG","null","","","","",""
"","html-keyboard-response","294","528066","0.0-8.0-1.15","FL","75e8k8531m","1920","1080","en","tz05yu04","null","","","","learningBlock2","","","","That was a tob.","null","","","","",""
"","html-keyboard-response","295","529069","0.0-8.0-2.15","FL","75e8k8531m","1920","1080","en","tz05yu04","null","","","","learningBlock2","","","","<div style=""font-size:60px;""> </div>","null","FL","learning/Slide96.JPG","That was a tob.","",""
"","image-keyboard-response","296","529260","0.0-8.0-0.16","FL","75e8k8531m","1920","1080","en","tz05yu04","null","","","","","","","","learning/Slide97.JPG","null","","","","",""
"","html-keyboard-response","297","530429","0.0-8.0-1.16","FL","75e8k8531m","1920","1080","en","tz05yu04","null","","","","learningBlock2","","","","That was a dep.","null","","","","",""
"","html-keyboard-response","298","531442","0.0-8.0-2.16","FL","75e8k8531m","1920","1080","en","tz05yu04","null","","","","learningBlock2","","","","<div style=""font-size:60px;""> </div>","null","FL","learning/Slide97.JPG","That was a dep.","",""
"","image-keyboard-response","299","531634","0.0-8.0-0.17","FL","75e8k8531m","1920","1080","en","tz05yu04","null","","","","","","","","learning/Slide98.JPG","null","","","","",""
"","html-keyboard-response","300","532797","0.0-8.0-1.17","FL","75e8k8531m","1920","1080","en","tz05yu04","null","","","","learningBlock2","","","","That was a bim.","null","","","","",""
"","html-keyboard-response","301","533805","0.0-8.0-2.17","FL","75e8k8531m","1920","1080","en","tz05yu04","null","","","","learningBlock2","","","","<div style=""font-size:60px;""> </div>","null","FL","learning/Slide98.JPG","That was a bim.","",""
"","image-keyboard-response","302","533993","0.0-8.0-0.18","FL","75e8k8531m","1920","1080","en","tz05yu04","null","","","","","","","","learning/Slide99.JPG","null","","","","",""
"","html-keyboard-response","303","535165","0.0-8.0-1.18","FL","75e8k8531m","1920","1080","en","tz05yu04","null","","","","learningBlock2","","","","That was a dep.","null","","","","",""
"","html-keyboard-response","304","536175","0.0-8.0-2.18","FL","75e8k8531m","1920","1080","en","tz05yu04","null","","","","learningBlock2","","","","<div style=""font-size:60px;""> </div>","null","FL","learning/Slide99.JPG","That was a dep.","",""
"","image-keyboard-response","305","536367","0.0-8.0-0.19","FL","75e8k8531m","1920","1080","en","tz05yu04","null","","","","","","","","learning/Slide100.JPG","null","","","","",""
"","html-keyboard-response","306","537535","0.0-8.0-1.19","FL","75e8k8531m","1920","1080","en","tz05yu04","null","","","","learningBlock2","","","","That was a bim.","null","","","","",""
"","html-keyboard-response","307","538550","0.0-8.0-2.19","FL","75e8k8531m","1920","1080","en","tz05yu04","null","","","","learningBlock2","","","","<div style=""font-size:60px;""> </div>","null","FL","learning/Slide100.JPG","That was a bim.","",""
"","image-keyboard-response","308","538742","0.0-8.0-0.20","FL","75e8k8531m","1920","1080","en","tz05yu04","null","","","","","","","","learning/Slide101.JPG","null","","","","",""
"","html-keyboard-response","309","539917","0.0-8.0-1.20","FL","75e8k8531m","1920","1080","en","tz05yu04","null","","","","learningBlock2","","","","That was a tob.","null","","","","",""
"","html-keyboard-response","310","540930","0.0-8.0-2.20","FL","75e8k8531m","1920","1080","en","tz05yu04","null","","","","learningBlock2","","","","<div style=""font-size:60px;""> </div>","null","FL","learning/Slide101.JPG","That was a tob.","",""
"","image-keyboard-response","311","541122","0.0-8.0-0.21","FL","75e8k8531m","1920","1080","en","tz05yu04","null","","","","","","","","learning/Slide102.JPG","null","","","","",""
"","html-keyboard-response","312","542290","0.0-8.0-1.21","FL","75e8k8531m","1920","1080","en","tz05yu04","null","","","","learningBlock2","","","","That was a bim.","null","","","","",""
"","html-keyboard-response","313","543294","0.0-8.0-2.21","FL","75e8k8531m","1920","1080","en","tz05yu04","null","","","","learningBlock2","","","","<div style=""font-size:60px;""> </div>","null","FL","learning/Slide102.JPG","That was a bim.","",""
"","image-keyboard-response","314","543487","0.0-8.0-0.22","FL","75e8k8531m","1920","1080","en","tz05yu04","null","","","","","","","","learning/Slide103.JPG","null","","","","",""
"","html-keyboard-response","315","544656","0.0-8.0-1.22","FL","75e8k8531m","1920","1080","en","tz05yu04","null","","","","learningBlock2","","","","That was a dep.","null","","","","",""
"","html-keyboard-response","316","545672","0.0-8.0-2.22","FL","75e8k8531m","1920","1080","en","tz05yu04","null","","","","learningBlock2","","","","<div style=""font-size:60px;""> </div>","null","FL","learning/Slide103.JPG","That was a dep.","",""
"","image-keyboard-response","317","545861","0.0-8.0-0.23","FL","75e8k8531m","1920","1080","en","tz05yu04","null","","","","","","","","learning/Slide104.JPG","null","","","","",""
"","html-keyboard-response","318","547034","0.0-8.0-1.23","FL","75e8k8531m","1920","1080","en","tz05yu04","null","","","","learningBlock2","","","","That was a tob.","null","","","","",""
"","html-keyboard-response","319","548035","0.0-8.0-2.23","FL","75e8k8531m","1920","1080","en","tz05yu04","null","","","","learningBlock2","","","","<div style=""font-size:60px;""> </div>","null","FL","learning/Slide104.JPG","That was a tob.","",""
"","image-keyboard-response","320","548227","0.0-8.0-0.24","FL","75e8k8531m","1920","1080","en","tz05yu04","null","","","","","","","","learning/Slide105.JPG","null","","","","",""
"","html-keyboard-response","321","549396","0.0-8.0-1.24","FL","75e8k8531m","1920","1080","en","tz05yu04","null","","","","learningBlock2","","","","That was a dep.","null","","","","",""
"","html-keyboard-response","322","550405","0.0-8.0-2.24","FL","75e8k8531m","1920","1080","en","tz05yu04","null","","","","learningBlock2","","","","<div style=""font-size:60px;""> </div>","null","FL","learning/Slide105.JPG","That was a dep.","",""
"","image-keyboard-response","323","550595","0.0-8.0-0.25","FL","75e8k8531m","1920","1080","en","tz05yu04","null","","","","","","","","learning/Slide106.JPG","null","","","","",""
"","html-keyboard-response","324","551769","0.0-8.0-1.25","FL","75e8k8531m","1920","1080","en","tz05yu04","null","","","","learningBlock2","","","","That was a wug.","null","","","","",""
"","html-keyboard-response","325","552779","0.0-8.0-2.25","FL","75e8k8531m","1920","1080","en","tz05yu04","null","","","","learningBlock2","","","","<div style=""font-size:60px;""> </div>","null","FL","learning/Slide106.JPG","That was a wug.","",""
"","image-keyboard-response","326","552972","0.0-8.0-0.26","FL","75e8k8531m","1920","1080","en","tz05yu04","null","","","","","","","","learning/Slide107.JPG","null","","","","",""
"","html-keyboard-response","327","554144","0.0-8.0-1.26","FL","75e8k8531m","1920","1080","en","tz05yu04","null","","","","learningBlock2","","","","That was a bim.","null","","","","",""
"","html-keyboard-response","328","555159","0.0-8.0-2.26","FL","75e8k8531m","1920","1080","en","tz05yu04","null","","","","learningBlock2","","","","<div style=""font-size:60px;""> </div>","null","FL","learning/Slide107.JPG","That was a bim.","",""
"","image-keyboard-response","329","555349","0.0-8.0-0.27","FL","75e8k8531m","1920","1080","en","tz05yu04","null","","","","","","","","learning/Slide108.JPG","null","","","","",""
"","html-keyboard-response","330","556516","0.0-8.0-1.27","FL","75e8k8531m","1920","1080","en","tz05yu04","null","","","","learningBlock2","","","","That was a dep.","null","","","","",""
"","html-keyboard-response","331","557527","0.0-8.0-2.27","FL","75e8k8531m","1920","1080","en","tz05yu04","null","","","","learningBlock2","","","","<div style=""font-size:60px;""> </div>","null","FL","learning/Slide108.JPG","That was a dep.","",""
"","image-keyboard-response","332","557717","0.0-8.0-0.28","FL","75e8k8531m","1920","1080","en","tz05yu04","null","","","","","","","","learning/Slide109.JPG","null","","","","",""
"","html-keyboard-response","333","558876","0.0-8.0-1.28","FL","75e8k8531m","1920","1080","en","tz05yu04","null","","","","learningBlock2","","","","That was a wug.","null","","","","",""
"","html-keyboard-response","334","559888","0.0-8.0-2.28","FL","75e8k8531m","1920","1080","en","tz05yu04","null","","","","learningBlock2","","","","<div style=""font-size:60px;""> </div>","null","FL","learning/Slide109.JPG","That was a wug.","",""
"","image-keyboard-response","335","560077","0.0-8.0-0.29","FL","75e8k8531m","1920","1080","en","tz05yu04","null","","","","","","","","learning/Slide110.JPG","null","","","","",""
"","html-keyboard-response","336","561250","0.0-8.0-1.29","FL","75e8k8531m","1920","1080","en","tz05yu04","null","","","","learningBlock2","","","","That was a bim.","null","","","","",""
"","html-keyboard-response","337","562264","0.0-8.0-2.29","FL","75e8k8531m","1920","1080","en","tz05yu04","null","","","","learningBlock2","","","","<div style=""font-size:60px;""> </div>","null","FL","learning/Slide110.JPG","That was a bim.","",""
"","image-keyboard-response","338","562457","0.0-8.0-0.30","FL","75e8k8531m","1920","1080","en","tz05yu04","null","","","","","","","","learning/Slide111.JPG","null","","","","",""
"","html-keyboard-response","339","563616","0.0-8.0-1.30","FL","75e8k8531m","1920","1080","en","tz05yu04","null","","","","learningBlock2","","","","That was a tob.","null","","","","",""
"","html-keyboard-response","340","564631","0.0-8.0-2.30","FL","75e8k8531m","1920","1080","en","tz05yu04","null","","","","learningBlock2","","","","<div style=""font-size:60px;""> </div>","null","FL","learning/Slide111.JPG","That was a tob.","",""
"","image-keyboard-response","341","564820","0.0-8.0-0.31","FL","75e8k8531m","1920","1080","en","tz05yu04","null","","","","","","","","learning/Slide112.JPG","null","","","","",""
"","html-keyboard-response","342","565991","0.0-8.0-1.31","FL","75e8k8531m","1920","1080","en","tz05yu04","null","","","","learningBlock2","","","","That was a wug.","null","","","","",""
"","html-keyboard-response","343","566993","0.0-8.0-2.31","FL","75e8k8531m","1920","1080","en","tz05yu04","null","","","","learningBlock2","","","","<div style=""font-size:60px;""> </div>","null","FL","learning/Slide112.JPG","That was a wug.","",""
"","image-keyboard-response","344","567183","0.0-8.0-0.32","FL","75e8k8531m","1920","1080","en","tz05yu04","null","","","","","","","","learning/Slide113.JPG","null","","","","",""
"","html-keyboard-response","345","568355","0.0-8.0-1.32","FL","75e8k8531m","1920","1080","en","tz05yu04","null","","","","learningBlock2","","","","That was a tob.","null","","","","",""
"","html-keyboard-response","346","569362","0.0-8.0-2.32","FL","75e8k8531m","1920","1080","en","tz05yu04","null","","","","learningBlock2","","","","<div style=""font-size:60px;""> </div>","null","FL","learning/Slide113.JPG","That was a tob.","",""
"","image-keyboard-response","347","569553","0.0-8.0-0.33","FL","75e8k8531m","1920","1080","en","tz05yu04","null","","","","","","","","learning/Slide114.JPG","null","","","","",""
"","html-keyboard-response","348","570725","0.0-8.0-1.33","FL","75e8k8531m","1920","1080","en","tz05yu04","null","","","","learningBlock2","","","","That was a wug.","null","","","","",""
"","html-keyboard-response","349","571738","0.0-8.0-2.33","FL","75e8k8531m","1920","1080","en","tz05yu04","null","","","","learningBlock2","","","","<div style=""font-size:60px;""> </div>","null","FL","learning/Slide114.JPG","That was a wug.","",""
"","image-keyboard-response","350","571928","0.0-8.0-0.34","FL","75e8k8531m","1920","1080","en","tz05yu04","null","","","","","","","","learning/Slide115.JPG","null","","","","",""
"","html-keyboard-response","351","573101","0.0-8.0-1.34","FL","75e8k8531m","1920","1080","en","tz05yu04","null","","","","learningBlock2","","","","That was a bim.","null","","","","",""
"","html-keyboard-response","352","574105","0.0-8.0-2.34","FL","75e8k8531m","1920","1080","en","tz05yu04","null","","","","learningBlock2","","","","<div style=""font-size:60px;""> </div>","null","FL","learning/Slide115.JPG","That was a bim.","",""
"","image-keyboard-response","353","574297","0.0-8.0-0.35","FL","75e8k8531m","1920","1080","en","tz05yu04","null","","","","","","","","learning/Slide116.JPG","null","","","","",""
"","html-keyboard-response","354","575466","0.0-8.0-1.35","FL","75e8k8531m","1920","1080","en","tz05yu04","null","","","","learningBlock2","","","","That was a dep.","null","","","","",""
"","html-keyboard-response","355","576478","0.0-8.0-2.35","FL","75e8k8531m","1920","1080","en","tz05yu04","null","","","","learningBlock2","","","","<div style=""font-size:60px;""> </div>","null","FL","learning/Slide116.JPG","That was a dep.","",""
"","image-keyboard-response","356","576668","0.0-8.0-0.36","FL","75e8k8531m","1920","1080","en","tz05yu04","null","","","","","","","","learning/Slide117.JPG","null","","","","",""
"","html-keyboard-response","357","577844","0.0-8.0-1.36","FL","75e8k8531m","1920","1080","en","tz05yu04","null","","","","learningBlock2","","","","That was a tob.","null","","","","",""
"","html-keyboard-response","358","578856","0.0-8.0-2.36","FL","75e8k8531m","1920","1080","en","tz05yu04","null","","","","learningBlock2","","","","<div style=""font-size:60px;""> </div>","null","FL","learning/Slide117.JPG","That was a tob.","",""
"","image-keyboard-response","359","579031","0.0-8.0-0.37","FL","75e8k8531m","1920","1080","en","tz05yu04","null","","","","","","","","learning/Slide118.JPG","null","","","","",""
"","html-keyboard-response","360","580203","0.0-8.0-1.37","FL","75e8k8531m","1920","1080","en","tz05yu04","null","","","","learningBlock2","","","","That was a dep.","null","","","","",""
"","html-keyboard-response","361","581206","0.0-8.0-2.37","FL","75e8k8531m","1920","1080","en","tz05yu04","null","","","","learningBlock2","","","","<div style=""font-size:60px;""> </div>","null","FL","learning/Slide118.JPG","That was a dep.","",""
"","image-keyboard-response","362","581396","0.0-8.0-0.38","FL","75e8k8531m","1920","1080","en","tz05yu04","null","","","","","","","","learning/Slide119.JPG","null","","","","",""
"","html-keyboard-response","363","582569","0.0-8.0-1.38","FL","75e8k8531m","1920","1080","en","tz05yu04","null","","","","learningBlock2","","","","That was a wug.","null","","","","",""
"","html-keyboard-response","364","583578","0.0-8.0-2.38","FL","75e8k8531m","1920","1080","en","tz05yu04","null","","","","learningBlock2","","","","<div style=""font-size:60px;""> </div>","null","FL","learning/Slide119.JPG","That was a wug.","",""
"","image-keyboard-response","365","583769","0.0-8.0-0.39","FL","75e8k8531m","1920","1080","en","tz05yu04","null","","","","","","","","learning/Slide120.JPG","null","","","","",""
"","html-keyboard-response","366","584943","0.0-8.0-1.39","FL","75e8k8531m","1920","1080","en","tz05yu04","null","","","","learningBlock2","","","","That was a dep.","null","","","","",""
"","html-keyboard-response","367","585955","0.0-8.0-2.39","FL","75e8k8531m","1920","1080","en","tz05yu04","null","","","","learningBlock2","","","","<div style=""font-size:60px;""> </div>","null","FL","learning/Slide120.JPG","That was a dep.","",""
"","image-keyboard-response","368","586144","0.0-8.0-0.40","FL","75e8k8531m","1920","1080","en","tz05yu04","null","","","","","","","","learning/Slide121.JPG","null","","","","",""
"","html-keyboard-response","369","587314","0.0-8.0-1.40","FL","75e8k8531m","1920","1080","en","tz05yu04","null","","","","learningBlock2","","","","That was a bim.","null","","","","",""
"","html-keyboard-response","370","588327","0.0-8.0-2.40","FL","75e8k8531m","1920","1080","en","tz05yu04","null","","","","learningBlock2","","","","<div style=""font-size:60px;""> </div>","null","FL","learning/Slide121.JPG","That was a bim.","",""
"","image-keyboard-response","371","588516","0.0-8.0-0.41","FL","75e8k8531m","1920","1080","en","tz05yu04","null","","","","","","","","learning/Slide122.JPG","null","","","","",""
"","html-keyboard-response","372","589692","0.0-8.0-1.41","FL","75e8k8531m","1920","1080","en","tz05yu04","null","","","","learningBlock2","","","","That was a wug.","null","","","","",""
"","html-keyboard-response","373","590705","0.0-8.0-2.41","FL","75e8k8531m","1920","1080","en","tz05yu04","null","","","","learningBlock2","","","","<div style=""font-size:60px;""> </div>","null","FL","learning/Slide122.JPG","That was a wug.","",""
"","image-keyboard-response","374","590895","0.0-8.0-0.42","FL","75e8k8531m","1920","1080","en","tz05yu04","null","","","","","","","","learning/Slide123.JPG","null","","","","",""
"","html-keyboard-response","375","592065","0.0-8.0-1.42","FL","75e8k8531m","1920","1080","en","tz05yu04","null","","","","learningBlock2","","","","That was a bim.","null","","","","",""
"","html-keyboard-response","376","593080","0.0-8.0-2.42","FL","75e8k8531m","1920","1080","en","tz05yu04","null","","","","learningBlock2","","","","<div style=""font-size:60px;""> </div>","null","FL","learning/Slide123.JPG","That was a bim.","",""
"","image-keyboard-response","377","593270","0.0-8.0-0.43","FL","75e8k8531m","1920","1080","en","tz05yu04","null","","","","","","","","learning/Slide124.JPG","null","","","","",""
"","html-keyboard-response","378","594442","0.0-8.0-1.43","FL","75e8k8531m","1920","1080","en","tz05yu04","null","","","","learningBlock2","","","","That was a tob.","null","","","","",""
"","html-keyboard-response","379","595444","0.0-8.0-2.43","FL","75e8k8531m","1920","1080","en","tz05yu04","null","","","","learningBlock2","","","","<div style=""font-size:60px;""> </div>","null","FL","learning/Slide124.JPG","That was a tob.","",""
"","image-keyboard-response","380","595635","0.0-8.0-0.44","FL","75e8k8531m","1920","1080","en","tz05yu04","null","","","","","","","","learning/Slide125.JPG","null","","","","",""
"","html-keyboard-response","381","596795","0.0-8.0-1.44","FL","75e8k8531m","1920","1080","en","tz05yu04","null","","","","learningBlock2","","","","That was a bim.","null","","","","",""
"","html-keyboard-response","382","597812","0.0-8.0-2.44","FL","75e8k8531m","1920","1080","en","tz05yu04","null","","","","learningBlock2","","","","<div style=""font-size:60px;""> </div>","null","FL","learning/Slide125.JPG","That was a bim.","",""
"","image-keyboard-response","383","598002","0.0-8.0-0.45","FL","75e8k8531m","1920","1080","en","tz05yu04","null","","","","","","","","learning/Slide126.JPG","null","","","","",""
"","html-keyboard-response","384","599168","0.0-8.0-1.45","FL","75e8k8531m","1920","1080","en","tz05yu04","null","","","","learningBlock2","","","","That was a tob.","null","","","","",""
"","html-keyboard-response","385","600184","0.0-8.0-2.45","FL","75e8k8531m","1920","1080","en","tz05yu04","null","","","","learningBlock2","","","","<div style=""font-size:60px;""> </div>","null","FL","learning/Slide126.JPG","That was a tob.","",""
"","image-keyboard-response","386","600374","0.0-8.0-0.46","FL","75e8k8531m","1920","1080","en","tz05yu04","null","","","","","","","","learning/Slide127.JPG","null","","","","",""
"","html-keyboard-response","387","601544","0.0-8.0-1.46","FL","75e8k8531m","1920","1080","en","tz05yu04","null","","","","learningBlock2","","","","That was a dep.","null","","","","",""
"","html-keyboard-response","388","602557","0.0-8.0-2.46","FL","75e8k8531m","1920","1080","en","tz05yu04","null","","","","learningBlock2","","","","<div style=""font-size:60px;""> </div>","null","FL","learning/Slide127.JPG","That was a dep.","",""
"","image-keyboard-response","389","602748","0.0-8.0-0.47","FL","75e8k8531m","1920","1080","en","tz05yu04","null","","","","","","","","learning/Slide128.JPG","null","","","","",""
"","html-keyboard-response","390","603916","0.0-8.0-1.47","FL","75e8k8531m","1920","1080","en","tz05yu04","null","","","","learningBlock2","","","","That was a wug.","null","","","","",""
"","html-keyboard-response","391","604931","0.0-8.0-2.47","FL","75e8k8531m","1920","1080","en","tz05yu04","null","","","","learningBlock2","","","","<div style=""font-size:60px;""> </div>","null","FL","learning/Slide128.JPG","That was a wug.","",""
"","image-keyboard-response","392","605122","0.0-8.0-0.48","FL","75e8k8531m","1920","1080","en","tz05yu04","null","","","","","","","","learning/Slide129.JPG","null","","","","",""
"","html-keyboard-response","393","606293","0.0-8.0-1.48","FL","75e8k8531m","1920","1080","en","tz05yu04","null","","","","learningBlock2","","","","That was a tob.","null","","","","",""
"","html-keyboard-response","394","607305","0.0-8.0-2.48","FL","75e8k8531m","1920","1080","en","tz05yu04","null","","","","learningBlock2","","","","<div style=""font-size:60px;""> </div>","null","FL","learning/Slide129.JPG","That was a tob.","",""
"","image-keyboard-response","395","607496","0.0-8.0-0.49","FL","75e8k8531m","1920","1080","en","tz05yu04","null","","","","","","","","learning/Slide130.JPG","null","","","","",""
"","html-keyboard-response","396","608657","0.0-8.0-1.49","FL","75e8k8531m","1920","1080","en","tz05yu04","null","","","","learningBlock2","","","","That was a wug.","null","","","","",""
"","html-keyboard-response","397","609667","0.0-8.0-2.49","FL","75e8k8531m","1920","1080","en","tz05yu04","null","","","","learningBlock2","","","","<div style=""font-size:60px;""> </div>","null","FL","learning/Slide130.JPG","That was a wug.","",""
"","image-keyboard-response","398","609856","0.0-8.0-0.50","FL","75e8k8531m","1920","1080","en","tz05yu04","null","","","","","","","","learning/Slide131.JPG","null","","","","",""
"","html-keyboard-response","399","611030","0.0-8.0-1.50","FL","75e8k8531m","1920","1080","en","tz05yu04","null","","","","learningBlock2","","","","That was a bim.","null","","","","",""
"","html-keyboard-response","400","612043","0.0-8.0-2.50","FL","75e8k8531m","1920","1080","en","tz05yu04","null","","","","learningBlock2","","","","<div style=""font-size:60px;""> </div>","null","FL","learning/Slide131.JPG","That was a bim.","",""
"","image-keyboard-response","401","612232","0.0-8.0-0.51","FL","75e8k8531m","1920","1080","en","tz05yu04","null","","","","","","","","learning/Slide132.JPG","null","","","","",""
"","html-keyboard-response","402","613397","0.0-8.0-1.51","FL","75e8k8531m","1920","1080","en","tz05yu04","null","","","","learningBlock2","","","","That was a dep.","null","","","","",""
"","html-keyboard-response","403","614411","0.0-8.0-2.51","FL","75e8k8531m","1920","1080","en","tz05yu04","null","","","","learningBlock2","","","","<div style=""font-size:60px;""> </div>","null","FL","learning/Slide132.JPG","That was a dep.","",""
"","image-keyboard-response","404","614602","0.0-8.0-0.52","FL","75e8k8531m","1920","1080","en","tz05yu04","null","","","","","","","","learning/Slide133.JPG","null","","","","",""
"","html-keyboard-response","405","615774","0.0-8.0-1.52","FL","75e8k8531m","1920","1080","en","tz05yu04","null","","","","learningBlock2","","","","That was a tob.","null","","","","",""
"","html-keyboard-response","406","616776","0.0-8.0-2.52","FL","75e8k8531m","1920","1080","en","tz05yu04","null","","","","learningBlock2","","","","<div style=""font-size:60px;""> </div>","null","FL","learning/Slide133.JPG","That was a tob.","",""
"","image-keyboard-response","407","616965","0.0-8.0-0.53","FL","75e8k8531m","1920","1080","en","tz05yu04","null","","","","","","","","learning/Slide134.JPG","null","","","","",""
"","html-keyboard-response","408","618142","0.0-8.0-1.53","FL","75e8k8531m","1920","1080","en","tz05yu04","null","","","","learningBlock2","","","","That was a dep.","null","","","","",""
"","html-keyboard-response","409","619157","0.0-8.0-2.53","FL","75e8k8531m","1920","1080","en","tz05yu04","null","","","","learningBlock2","","","","<div style=""font-size:60px;""> </div>","null","FL","learning/Slide134.JPG","That was a dep.","",""
"","image-keyboard-response","410","619346","0.0-8.0-0.54","FL","75e8k8531m","1920","1080","en","tz05yu04","null","","","","","","","","learning/Slide135.JPG","null","","","","",""
"","html-keyboard-response","411","620514","0.0-8.0-1.54","FL","75e8k8531m","1920","1080","en","tz05yu04","null","","","","learningBlock2","","","","That was a tob.","null","","","","",""
"","html-keyboard-response","412","621526","0.0-8.0-2.54","FL","75e8k8531m","1920","1080","en","tz05yu04","null","","","","learningBlock2","","","","<div style=""font-size:60px;""> </div>","null","FL","learning/Slide135.JPG","That was a tob.","",""
"","image-keyboard-response","413","621715","0.0-8.0-0.55","FL","75e8k8531m","1920","1080","en","tz05yu04","null","","","","","","","","learning/Slide136.JPG","null","","","","",""
"","html-keyboard-response","414","622875","0.0-8.0-1.55","FL","75e8k8531m","1920","1080","en","tz05yu04","null","","","","learningBlock2","","","","That was a wug.","null","","","","",""
"","html-keyboard-response","415","623889","0.0-8.0-2.55","FL","75e8k8531m","1920","1080","en","tz05yu04","null","","","","learningBlock2","","","","<div style=""font-size:60px;""> </div>","null","FL","learning/Slide136.JPG","That was a wug.","",""
"","image-keyboard-response","416","624079","0.0-8.0-0.56","FL","75e8k8531m","1920","1080","en","tz05yu04","null","","","","","","","","learning/Slide137.JPG","null","","","","",""
"","html-keyboard-response","417","625245","0.0-8.0-1.56","FL","75e8k8531m","1920","1080","en","tz05yu04","null","","","","learningBlock2","","","","That was a tob.","null","","","","",""
"","html-keyboard-response","418","626257","0.0-8.0-2.56","FL","75e8k8531m","1920","1080","en","tz05yu04","null","","","","learningBlock2","","","","<div style=""font-size:60px;""> </div>","null","FL","learning/Slide137.JPG","That was a tob.","",""
"","image-keyboard-response","419","626448","0.0-8.0-0.57","FL","75e8k8531m","1920","1080","en","tz05yu04","null","","","","","","","","learning/Slide138.JPG","null","","","","",""
"","html-keyboard-response","420","627618","0.0-8.0-1.57","FL","75e8k8531m","1920","1080","en","tz05yu04","null","","","","learningBlock2","","","","That was a bim.","null","","","","",""
"","html-keyboard-response","421","628633","0.0-8.0-2.57","FL","75e8k8531m","1920","1080","en","tz05yu04","null","","","","learningBlock2","","","","<div style=""font-size:60px;""> </div>","null","FL","learning/Slide138.JPG","That was a bim.","",""
"","image-keyboard-response","422","628824","0.0-8.0-0.58","FL","75e8k8531m","1920","1080","en","tz05yu04","null","","","","","","","","learning/Slide139.JPG","null","","","","",""
"","html-keyboard-response","423","629984","0.0-8.0-1.58","FL","75e8k8531m","1920","1080","en","tz05yu04","null","","","","learningBlock2","","","","That was a wug.","null","","","","",""
"","html-keyboard-response","424","630998","0.0-8.0-2.58","FL","75e8k8531m","1920","1080","en","tz05yu04","null","","","","learningBlock2","","","","<div style=""font-size:60px;""> </div>","null","FL","learning/Slide139.JPG","That was a wug.","",""
"","image-keyboard-response","425","631189","0.0-8.0-0.59","FL","75e8k8531m","1920","1080","en","tz05yu04","null","","","","","","","","learning/Slide140.JPG","null","","","","",""
"","html-keyboard-response","426","632353","0.0-8.0-1.59","FL","75e8k8531m","1920","1080","en","tz05yu04","null","","","","learningBlock2","","","","That was a dep.","null","","","","",""
"","html-keyboard-response","427","633360","0.0-8.0-2.59","FL","75e8k8531m","1920","1080","en","tz05yu04","null","","","","learningBlock2","","","","<div style=""font-size:60px;""> </div>","null","FL","learning/Slide140.JPG","That was a dep.","",""
"","image-keyboard-response","428","633550","0.0-8.0-0.60","FL","75e8k8531m","1920","1080","en","tz05yu04","null","","","","","","","","learning/Slide141.JPG","null","","","","",""
"","html-keyboard-response","429","634725","0.0-8.0-1.60","FL","75e8k8531m","1920","1080","en","tz05yu04","null","","","","learningBlock2","","","","That was a tob.","null","","","","",""
"","html-keyboard-response","430","635735","0.0-8.0-2.60","FL","75e8k8531m","1920","1080","en","tz05yu04","null","","","","learningBlock2","","","","<div style=""font-size:60px;""> </div>","null","FL","learning/Slide141.JPG","That was a tob.","",""
"","image-keyboard-response","431","635923","0.0-8.0-0.61","FL","75e8k8531m","1920","1080","en","tz05yu04","null","","","","","","","","learning/Slide142.JPG","null","","","","",""
"","html-keyboard-response","432","637098","0.0-8.0-1.61","FL","75e8k8531m","1920","1080","en","tz05yu04","null","","","","learningBlock2","","","","That was a wug.","null","","","","",""
"","html-keyboard-response","433","638104","0.0-8.0-2.61","FL","75e8k8531m","1920","1080","en","tz05yu04","null","","","","learningBlock2","","","","<div style=""font-size:60px;""> </div>","null","FL","learning/Slide142.JPG","That was a wug.","",""
"","image-keyboard-response","434","638295","0.0-8.0-0.62","FL","75e8k8531m","1920","1080","en","tz05yu04","null","","","","","","","","learning/Slide143.JPG","null","","","","",""
"","html-keyboard-response","435","639463","0.0-8.0-1.62","FL","75e8k8531m","1920","1080","en","tz05yu04","null","","","","learningBlock2","","","","That was a bim.","null","","","","",""
"","html-keyboard-response","436","640469","0.0-8.0-2.62","FL","75e8k8531m","1920","1080","en","tz05yu04","null","","","","learningBlock2","","","","<div style=""font-size:60px;""> </div>","null","FL","learning/Slide143.JPG","That was a bim.","",""
"","image-keyboard-response","437","640659","0.0-8.0-0.63","FL","75e8k8531m","1920","1080","en","tz05yu04","null","","","","","","","","learning/Slide144.JPG","null","","","","",""
"","html-keyboard-response","438","641832","0.0-8.0-1.63","FL","75e8k8531m","1920","1080","en","tz05yu04","null","","","","learningBlock2","","","","That was a dep.","null","","","","",""
"","html-keyboard-response","439","642848","0.0-8.0-2.63","FL","75e8k8531m","1920","1080","en","tz05yu04","null","","","","learningBlock2","","","","<div style=""font-size:60px;""> </div>","null","FL","learning/Slide144.JPG","That was a dep.","",""
"","image-keyboard-response","440","643039","0.0-8.0-0.64","FL","75e8k8531m","1920","1080","en","tz05yu04","null","","","","","","","","learning/Slide145.JPG","null","","","","",""
"","html-keyboard-response","441","644208","0.0-8.0-1.64","FL","75e8k8531m","1920","1080","en","tz05yu04","null","","","","learningBlock2","","","","That was a bim.","null","","","","",""
"","html-keyboard-response","442","645218","0.0-8.0-2.64","FL","75e8k8531m","1920","1080","en","tz05yu04","null","","","","learningBlock2","","","","<div style=""font-size:60px;""> </div>","null","FL","learning/Slide145.JPG","That was a bim.","",""
"","image-keyboard-response","443","645407","0.0-8.0-0.65","FL","75e8k8531m","1920","1080","en","tz05yu04","null","","","","","","","","learning/Slide146.JPG","null","","","","",""
"","html-keyboard-response","444","646580","0.0-8.0-1.65","FL","75e8k8531m","1920","1080","en","tz05yu04","null","","","","learningBlock2","","","","That was a tob.","null","","","","",""
"","html-keyboard-response","445","647590","0.0-8.0-2.65","FL","75e8k8531m","1920","1080","en","tz05yu04","null","","","","learningBlock2","","","","<div style=""font-size:60px;""> </div>","null","FL","learning/Slide146.JPG","That was a tob.","",""
"","image-keyboard-response","446","647781","0.0-8.0-0.66","FL","75e8k8531m","1920","1080","en","tz05yu04","null","","","","","","","","learning/Slide147.JPG","null","","","","",""
"","html-keyboard-response","447","648953","0.0-8.0-1.66","FL","75e8k8531m","1920","1080","en","tz05yu04","null","","","","learningBlock2","","","","That was a wug.","null","","","","",""
"","html-keyboard-response","448","649955","0.0-8.0-2.66","FL","75e8k8531m","1920","1080","en","tz05yu04","null","","","","learningBlock2","","","","<div style=""font-size:60px;""> </div>","null","FL","learning/Slide147.JPG","That was a wug.","",""
"","image-keyboard-response","449","650143","0.0-8.0-0.67","FL","75e8k8531m","1920","1080","en","tz05yu04","null","","","","","","","","learning/Slide148.JPG","null","","","","",""
"","html-keyboard-response","450","651306","0.0-8.0-1.67","FL","75e8k8531m","1920","1080","en","tz05yu04","null","","","","learningBlock2","","","","That was a bim.","null","","","","",""
"","html-keyboard-response","451","652308","0.0-8.0-2.67","FL","75e8k8531m","1920","1080","en","tz05yu04","null","","","","learningBlock2","","","","<div style=""font-size:60px;""> </div>","null","FL","learning/Slide148.JPG","That was a bim.","",""
"","image-keyboard-response","452","652500","0.0-8.0-0.68","FL","75e8k8531m","1920","1080","en","tz05yu04","null","","","","","","","","learning/Slide149.JPG","null","","","","",""
"","html-keyboard-response","453","653666","0.0-8.0-1.68","FL","75e8k8531m","1920","1080","en","tz05yu04","null","","","","learningBlock2","","","","That was a dep.","null","","","","",""
"","html-keyboard-response","454","654681","0.0-8.0-2.68","FL","75e8k8531m","1920","1080","en","tz05yu04","null","","","","learningBlock2","","","","<div style=""font-size:60px;""> </div>","null","FL","learning/Slide149.JPG","That was a dep.","",""
"","image-keyboard-response","455","654874","0.0-8.0-0.69","FL","75e8k8531m","1920","1080","en","tz05yu04","null","","","","","","","","learning/Slide150.JPG","null","","","","",""
"","html-keyboard-response","456","656044","0.0-8.0-1.69","FL","75e8k8531m","1920","1080","en","tz05yu04","null","","","","learningBlock2","","","","That was a wug.","null","","","","",""
"","html-keyboard-response","457","657055","0.0-8.0-2.69","FL","75e8k8531m","1920","1080","en","tz05yu04","null","","","","learningBlock2","","","","<div style=""font-size:60px;""> </div>","null","FL","learning/Slide150.JPG","That was a wug.","",""
"","image-keyboard-response","458","657244","0.0-8.0-0.70","FL","75e8k8531m","1920","1080","en","tz05yu04","null","","","","","","","","learning/Slide151.JPG","null","","","","",""
"","html-keyboard-response","459","658403","0.0-8.0-1.70","FL","75e8k8531m","1920","1080","en","tz05yu04","null","","","","learningBlock2","","","","That was a dep.","null","","","","",""
"","html-keyboard-response","460","659409","0.0-8.0-2.70","FL","75e8k8531m","1920","1080","en","tz05yu04","null","","","","learningBlock2","","","","<div style=""font-size:60px;""> </div>","null","FL","learning/Slide151.JPG","That was a dep.","",""
"","image-keyboard-response","461","659597","0.0-8.0-0.71","FL","75e8k8531m","1920","1080","en","tz05yu04","null","","","","","","","","learning/Slide152.JPG","null","","","","",""
"","html-keyboard-response","462","660758","0.0-8.0-1.71","FL","75e8k8531m","1920","1080","en","tz05yu04","null","","","","learningBlock2","","","","That was a wug.","null","","","","",""
"","html-keyboard-response","463","661774","0.0-8.0-2.71","FL","75e8k8531m","1920","1080","en","tz05yu04","null","","","","learningBlock2","","","","<div style=""font-size:60px;""> </div>","null","FL","learning/Slide152.JPG","That was a wug.","",""
"","image-keyboard-response","464","661962","0.0-8.0-0.72","FL","75e8k8531m","1920","1080","en","tz05yu04","null","","","","","","","","learning/Slide153.JPG","null","","","","",""
"","html-keyboard-response","465","663138","0.0-8.0-1.72","FL","75e8k8531m","1920","1080","en","tz05yu04","null","","","","learningBlock2","","","","That was a bim.","null","","","","",""
"","html-keyboard-response","466","664152","0.0-8.0-2.72","FL","75e8k8531m","1920","1080","en","tz05yu04","null","","","","learningBlock2","","","","<div style=""font-size:60px;""> </div>","null","FL","learning/Slide153.JPG","That was a bim.","",""
"","image-keyboard-response","467","664341","0.0-8.0-0.73","FL","75e8k8531m","1920","1080","en","tz05yu04","null","","","","","","","","learning/Slide154.JPG","null","","","","",""
"","html-keyboard-response","468","665500","0.0-8.0-1.73","FL","75e8k8531m","1920","1080","en","tz05yu04","null","","","","learningBlock2","","","","That was a tob.","null","","","","",""
"","html-keyboard-response","469","666513","0.0-8.0-2.73","FL","75e8k8531m","1920","1080","en","tz05yu04","null","","","","learningBlock2","","","","<div style=""font-size:60px;""> </div>","null","FL","learning/Slide154.JPG","That was a tob.","",""
"","image-keyboard-response","470","666706","0.0-8.0-0.74","FL","75e8k8531m","1920","1080","en","tz05yu04","null","","","","","","","","learning/Slide155.JPG","null","","","","",""
"","html-keyboard-response","471","667874","0.0-8.0-1.74","FL","75e8k8531m","1920","1080","en","tz05yu04","null","","","","learningBlock2","","","","That was a dep.","null","","","","",""
"","html-keyboard-response","472","668890","0.0-8.0-2.74","FL","75e8k8531m","1920","1080","en","tz05yu04","null","","","","learningBlock2","","","","<div style=""font-size:60px;""> </div>","null","FL","learning/Slide155.JPG","That was a dep.","",""
"","image-keyboard-response","473","669079","0.0-8.0-0.75","FL","75e8k8531m","1920","1080","en","tz05yu04","null","","","","","","","","learning/Slide156.JPG","null","","","","",""
"","html-keyboard-response","474","670251","0.0-8.0-1.75","FL","75e8k8531m","1920","1080","en","tz05yu04","null","","","","learningBlock2","","","","That was a bim.","null","","","","",""
"","html-keyboard-response","475","671259","0.0-8.0-2.75","FL","75e8k8531m","1920","1080","en","tz05yu04","null","","","","learningBlock2","","","","<div style=""font-size:60px;""> </div>","null","FL","learning/Slide156.JPG","That was a bim.","",""
"","image-keyboard-response","476","671450","0.0-8.0-0.76","FL","75e8k8531m","1920","1080","en","tz05yu04","null","","","","","","","","learning/Slide157.JPG","null","","","","",""
"","html-keyboard-response","477","672620","0.0-8.0-1.76","FL","75e8k8531m","1920","1080","en","tz05yu04","null","","","","learningBlock2","","","","That was a dep.","null","","","","",""
"","html-keyboard-response","478","673635","0.0-8.0-2.76","FL","75e8k8531m","1920","1080","en","tz05yu04","null","","","","learningBlock2","","","","<div style=""font-size:60px;""> </div>","null","FL","learning/Slide157.JPG","That was a dep.","",""
"","image-keyboard-response","479","673824","0.0-8.0-0.77","FL","75e8k8531m","1920","1080","en","tz05yu04","null","","","","","","","","learning/Slide158.JPG","null","","","","",""
"","html-keyboard-response","480","674997","0.0-8.0-1.77","FL","75e8k8531m","1920","1080","en","tz05yu04","null","","","","learningBlock2","","","","That was a tob.","null","","","","",""
"","html-keyboard-response","481","675999","0.0-8.0-2.77","FL","75e8k8531m","1920","1080","en","tz05yu04","null","","","","learningBlock2","","","","<div style=""font-size:60px;""> </div>","null","FL","learning/Slide158.JPG","That was a tob.","",""
"","image-keyboard-response","482","676191","0.0-8.0-0.78","FL","75e8k8531m","1920","1080","en","tz05yu04","null","","","","","","","","learning/Slide159.JPG","null","","","","",""
"","html-keyboard-response","483","677353","0.0-8.0-1.78","FL","75e8k8531m","1920","1080","en","tz05yu04","null","","","","learningBlock2","","","","That was a dep.","null","","","","",""
"","html-keyboard-response","484","678354","0.0-8.0-2.78","FL","75e8k8531m","1920","1080","en","tz05yu04","null","","","","learningBlock2","","","","<div style=""font-size:60px;""> </div>","null","FL","learning/Slide159.JPG","That was a dep.","",""
"","image-keyboard-response","485","678543","0.0-8.0-0.79","FL","75e8k8531m","1920","1080","en","tz05yu04","null","","","","","","","","learning/Slide160.JPG","null","","","","",""
"","html-keyboard-response","486","679713","0.0-8.0-1.79","FL","75e8k8531m","1920","1080","en","tz05yu04","null","","","","learningBlock2","","","","That was a wug.","null","","","","",""
