"success","trial_type","trial_index","time_elapsed","internal_node_id","condition","subject","screen_width","screen_height","language","codeword","rt","responses","url","view_history","test_part","final_height_px","final_width_px","scale_factor","stimulus","key_press","learningType","presentedImage","presentedLabel","button_pressed","response"
"true","fullscreen","0","718704","0.0-0.0","FL","19l91w0hqd","1536","864","en","NE07SE16","","","","","","","","","","","","","","",""
"","survey-html-form","1","727629","0.0-1.0","FL","19l91w0hqd","1536","864","en","NE07SE16","8921.794999856502","{""language"":""en""}","","","","","","","","","","","","",""
"","external-html","2","766663","0.0-3.0-0.0","FL","19l91w0hqd","1536","864","en","NE07SE16","38886.93500007503","","text/information_english.html","","","","","","","","","","","",""
"","external-html","3","777471","0.0-3.0-1.0","FL","19l91w0hqd","1536","864","en","NE07SE16","10741.380000021309","","text/consent_english.html","","","","","","","","","","","",""
"","survey-html-form","4","833788","0.0-3.0-2.0","FL","19l91w0hqd","1536","864","en","NE07SE16","56315.940000116825","{""codeword_enter"":""NE07SE16""}","","","","","","","","","","","","",""
"","instructions","5","851946","0.0-4.0","FL","19l91w0hqd","1536","864","en","NE07SE16","NA","","","[{""page_index"":0,""viewing_time"":5745.240000076592},{""page_index"":1,""viewing_time"":10900.670000119135}]","instructions","","","","","","","","","",""
"","resize","6","870533","0.0-5.0","FL","19l91w0hqd","1536","864","en","NE07SE16","","","","","","","344","2.1841269841269844","","","","","","",""
"","image-keyboard-response","7","870718","0.0-6.0-0.0","FL","19l91w0hqd","1536","864","en","NE07SE16","null","","","","","","","","learning/Slide1.JPG","null","","","","",""
"","html-keyboard-response","8","871892","0.0-6.0-1.0","FL","19l91w0hqd","1536","864","en","NE07SE16","null","","","","learningBlock1","","","","That was a tob.","null","","","","",""
"","html-keyboard-response","9","872897","0.0-6.0-2.0","FL","19l91w0hqd","1536","864","en","NE07SE16","null","","","","learningBlock1","","","","<div style=""font-size:60px;""> </div>","null","FL","learning/Slide1.JPG","That was a tob.","",""
"","image-keyboard-response","10","873086","0.0-6.0-0.1","FL","19l91w0hqd","1536","864","en","NE07SE16","null","","","","","","","","learning/Slide2.JPG","null","","","","",""
"","html-keyboard-response","11","874243","0.0-6.0-1.1","FL","19l91w0hqd","1536","864","en","NE07SE16","null","","","","learningBlock1","","","","That was a wug.","null","","","","",""
"","html-keyboard-response","12","875251","0.0-6.0-2.1","FL","19l91w0hqd","1536","864","en","NE07SE16","null","","","","learningBlock1","","","","<div style=""font-size:60px;""> </div>","null","FL","learning/Slide2.JPG","That was a wug.","",""
"","image-keyboard-response","13","875433","0.0-6.0-0.2","FL","19l91w0hqd","1536","864","en","NE07SE16","null","","","","","","","","learning/Slide3.JPG","null","","","","",""
"","html-keyboard-response","14","876613","0.0-6.0-1.2","FL","19l91w0hqd","1536","864","en","NE07SE16","null","","","","learningBlock1","","","","That was a bim.","null","","","","",""
"","html-keyboard-response","15","877621","0.0-6.0-2.2","FL","19l91w0hqd","1536","864","en","NE07SE16","null","","","","learningBlock1","","","","<div style=""font-size:60px;""> </div>","null","FL","learning/Slide3.JPG","That was a bim.","",""
"","image-keyboard-response","16","877807","0.0-6.0-0.3","FL","19l91w0hqd","1536","864","en","NE07SE16","null","","","","","","","","learning/Slide4.JPG","null","","","","",""
"","html-keyboard-response","17","878971","0.0-6.0-1.3","FL","19l91w0hqd","1536","864","en","NE07SE16","null","","","","learningBlock1","","","","That was a dep.","null","","","","",""
"","html-keyboard-response","18","879976","0.0-6.0-2.3","FL","19l91w0hqd","1536","864","en","NE07SE16","null","","","","learningBlock1","","","","<div style=""font-size:60px;""> </div>","null","FL","learning/Slide4.JPG","That was a dep.","",""
"","image-keyboard-response","19","880162","0.0-6.0-0.4","FL","19l91w0hqd","1536","864","en","NE07SE16","null","","","","","","","","learning/Slide5.JPG","null","","","","",""
"","html-keyboard-response","20","881329","0.0-6.0-1.4","FL","19l91w0hqd","1536","864","en","NE07SE16","null","","","","learningBlock1","","","","That was a wug.","null","","","","",""
"","html-keyboard-response","21","882332","0.0-6.0-2.4","FL","19l91w0hqd","1536","864","en","NE07SE16","null","","","","learningBlock1","","","","<div style=""font-size:60px;""> </div>","null","FL","learning/Slide5.JPG","That was a wug.","",""
"","image-keyboard-response","22","882512","0.0-6.0-0.5","FL","19l91w0hqd","1536","864","en","NE07SE16","null","","","","","","","","learning/Slide6.JPG","null","","","","",""
"","html-keyboard-response","23","883671","0.0-6.0-1.5","FL","19l91w0hqd","1536","864","en","NE07SE16","null","","","","learningBlock1","","","","That was a dep.","null","","","","",""
"","html-keyboard-response","24","884682","0.0-6.0-2.5","FL","19l91w0hqd","1536","864","en","NE07SE16","null","","","","learningBlock1","","","","<div style=""font-size:60px;""> </div>","null","FL","learning/Slide6.JPG","That was a dep.","",""
"","image-keyboard-response","25","884864","0.0-6.0-0.6","FL","19l91w0hqd","1536","864","en","NE07SE16","null","","","","","","","","learning/Slide7.JPG","null","","","","",""
"","html-keyboard-response","26","886023","0.0-6.0-1.6","FL","19l91w0hqd","1536","864","en","NE07SE16","null","","","","learningBlock1","","","","That was a wug.","null","","","","",""
"","html-keyboard-response","27","887028","0.0-6.0-2.6","FL","19l91w0hqd","1536","864","en","NE07SE16","null","","","","learningBlock1","","","","<div style=""font-size:60px;""> </div>","null","FL","learning/Slide7.JPG","That was a wug.","",""
"","image-keyboard-response","28","887205","0.0-6.0-0.7","FL","19l91w0hqd","1536","864","en","NE07SE16","null","","","","","","","","learning/Slide8.JPG","null","","","","",""
"","html-keyboard-response","29","888373","0.0-6.0-1.7","FL","19l91w0hqd","1536","864","en","NE07SE16","null","","","","learningBlock1","","","","That was a bim.","null","","","","",""
"","html-keyboard-response","30","889382","0.0-6.0-2.7","FL","19l91w0hqd","1536","864","en","NE07SE16","null","","","","learningBlock1","","","","<div style=""font-size:60px;""> </div>","null","FL","learning/Slide8.JPG","That was a bim.","",""
"","image-keyboard-response","31","889561","0.0-6.0-0.8","FL","19l91w0hqd","1536","864","en","NE07SE16","null","","","","","","","","learning/Slide9.JPG","null","","","","",""
"","html-keyboard-response","32","890731","0.0-6.0-1.8","FL","19l91w0hqd","1536","864","en","NE07SE16","null","","","","learningBlock1","","","","That was a wug.","null","","","","",""
"","html-keyboard-response","33","891736","0.0-6.0-2.8","FL","19l91w0hqd","1536","864","en","NE07SE16","null","","","","learningBlock1","","","","<div style=""font-size:60px;""> </div>","null","FL","learning/Slide9.JPG","That was a wug.","",""
"","image-keyboard-response","34","891916","0.0-6.0-0.9","FL","19l91w0hqd","1536","864","en","NE07SE16","null","","","","","","","","learning/Slide10.JPG","null","","","","",""
"","html-keyboard-response","35","893084","0.0-6.0-1.9","FL","19l91w0hqd","1536","864","en","NE07SE16","null","","","","learningBlock1","","","","That was a dep.","null","","","","",""
"","html-keyboard-response","36","894094","0.0-6.0-2.9","FL","19l91w0hqd","1536","864","en","NE07SE16","null","","","","learningBlock1","","","","<div style=""font-size:60px;""> </div>","null","FL","learning/Slide10.JPG","That was a dep.","",""
"","image-keyboard-response","37","894276","0.0-6.0-0.10","FL","19l91w0hqd","1536","864","en","NE07SE16","null","","","","","","","","learning/Slide11.JPG","null","","","","",""
"","html-keyboard-response","38","895443","0.0-6.0-1.10","FL","19l91w0hqd","1536","864","en","NE07SE16","null","","","","learningBlock1","","","","That was a tob.","null","","","","",""
"","html-keyboard-response","39","896445","0.0-6.0-2.10","FL","19l91w0hqd","1536","864","en","NE07SE16","null","","","","learningBlock1","","","","<div style=""font-size:60px;""> </div>","null","FL","learning/Slide11.JPG","That was a tob.","",""
"","image-keyboard-response","40","896632","0.0-6.0-0.11","FL","19l91w0hqd","1536","864","en","NE07SE16","null","","","","","","","","learning/Slide12.JPG","null","","","","",""
"","html-keyboard-response","41","897801","0.0-6.0-1.11","FL","19l91w0hqd","1536","864","en","NE07SE16","null","","","","learningBlock1","","","","That was a dep.","null","","","","",""
"","html-keyboard-response","42","898817","0.0-6.0-2.11","FL","19l91w0hqd","1536","864","en","NE07SE16","null","","","","learningBlock1","","","","<div style=""font-size:60px;""> </div>","null","FL","learning/Slide12.JPG","That was a dep.","",""
"","image-keyboard-response","43","898994","0.0-6.0-0.12","FL","19l91w0hqd","1536","864","en","NE07SE16","null","","","","","","","","learning/Slide13.JPG","null","","","","",""
"","html-keyboard-response","44","900163","0.0-6.0-1.12","FL","19l91w0hqd","1536","864","en","NE07SE16","null","","","","learningBlock1","","","","That was a bim.","null","","","","",""
"","html-keyboard-response","45","901172","0.0-6.0-2.12","FL","19l91w0hqd","1536","864","en","NE07SE16","null","","","","learningBlock1","","","","<div style=""font-size:60px;""> </div>","null","FL","learning/Slide13.JPG","That was a bim.","",""
"","image-keyboard-response","46","901349","0.0-6.0-0.13","FL","19l91w0hqd","1536","864","en","NE07SE16","null","","","","","","","","learning/Slide14.JPG","null","","","","",""
"","html-keyboard-response","47","902508","0.0-6.0-1.13","FL","19l91w0hqd","1536","864","en","NE07SE16","null","","","","learningBlock1","","","","That was a wug.","null","","","","",""
"","html-keyboard-response","48","903517","0.0-6.0-2.13","FL","19l91w0hqd","1536","864","en","NE07SE16","null","","","","learningBlock1","","","","<div style=""font-size:60px;""> </div>","null","FL","learning/Slide14.JPG","That was a wug.","",""
"","image-keyboard-response","49","903710","0.0-6.0-0.14","FL","19l91w0hqd","1536","864","en","NE07SE16","null","","","","","","","","learning/Slide15.JPG","null","","","","",""
"","html-keyboard-response","50","904882","0.0-6.0-1.14","FL","19l91w0hqd","1536","864","en","NE07SE16","null","","","","learningBlock1","","","","That was a tob.","null","","","","",""
"","html-keyboard-response","51","905887","0.0-6.0-2.14","FL","19l91w0hqd","1536","864","en","NE07SE16","null","","","","learningBlock1","","","","<div style=""font-size:60px;""> </div>","null","FL","learning/Slide15.JPG","That was a tob.","",""
"","image-keyboard-response","52","906080","0.0-6.0-0.15","FL","19l91w0hqd","1536","864","en","NE07SE16","null","","","","","","","","learning/Slide16.JPG","null","","","","",""
"","html-keyboard-response","53","907239","0.0-6.0-1.15","FL","19l91w0hqd","1536","864","en","NE07SE16","null","","","","learningBlock1","","","","That was a dep.","null","","","","",""
"","html-keyboard-response","54","908245","0.0-6.0-2.15","FL","19l91w0hqd","1536","864","en","NE07SE16","null","","","","learningBlock1","","","","<div style=""font-size:60px;""> </div>","null","FL","learning/Slide16.JPG","That was a dep.","",""
"","image-keyboard-response","55","908424","0.0-6.0-0.16","FL","19l91w0hqd","1536","864","en","NE07SE16","null","","","","","","","","learning/Slide17.JPG","null","","","","",""
"","html-keyboard-response","56","909592","0.0-6.0-1.16","FL","19l91w0hqd","1536","864","en","NE07SE16","null","","","","learningBlock1","","","","That was a bim.","null","","","","",""
"","html-keyboard-response","57","910599","0.0-6.0-2.16","FL","19l91w0hqd","1536","864","en","NE07SE16","null","","","","learningBlock1","","","","<div style=""font-size:60px;""> </div>","null","FL","learning/Slide17.JPG","That was a bim.","",""
"","image-keyboard-response","58","910782","0.0-6.0-0.17","FL","19l91w0hqd","1536","864","en","NE07SE16","null","","","","","","","","learning/Slide18.JPG","null","","","","",""
"","html-keyboard-response","59","911953","0.0-6.0-1.17","FL","19l91w0hqd","1536","864","en","NE07SE16","null","","","","learningBlock1","","","","That was a tob.","null","","","","",""
"","html-keyboard-response","60","912959","0.0-6.0-2.17","FL","19l91w0hqd","1536","864","en","NE07SE16","null","","","","learningBlock1","","","","<div style=""font-size:60px;""> </div>","null","FL","learning/Slide18.JPG","That was a tob.","",""
"","image-keyboard-response","61","913137","0.0-6.0-0.18","FL","19l91w0hqd","1536","864","en","NE07SE16","null","","","","","","","","learning/Slide19.JPG","null","","","","",""
"","html-keyboard-response","62","914298","0.0-6.0-1.18","FL","19l91w0hqd","1536","864","en","NE07SE16","null","","","","learningBlock1","","","","That was a wug.","null","","","","",""
"","html-keyboard-response","63","915301","0.0-6.0-2.18","FL","19l91w0hqd","1536","864","en","NE07SE16","null","","","","learningBlock1","","","","<div style=""font-size:60px;""> </div>","null","FL","learning/Slide19.JPG","That was a wug.","",""
"","image-keyboard-response","64","915485","0.0-6.0-0.19","FL","19l91w0hqd","1536","864","en","NE07SE16","null","","","","","","","","learning/Slide20.JPG","null","","","","",""
"","html-keyboard-response","65","916637","0.0-6.0-1.19","FL","19l91w0hqd","1536","864","en","NE07SE16","null","","","","learningBlock1","","","","That was a bim.","null","","","","",""
"","html-keyboard-response","66","917646","0.0-6.0-2.19","FL","19l91w0hqd","1536","864","en","NE07SE16","null","","","","learningBlock1","","","","<div style=""font-size:60px;""> </div>","null","FL","learning/Slide20.JPG","That was a bim.","",""
"","image-keyboard-response","67","917826","0.0-6.0-0.20","FL","19l91w0hqd","1536","864","en","NE07SE16","null","","","","","","","","learning/Slide21.JPG","null","","","","",""
"","html-keyboard-response","68","918993","0.0-6.0-1.20","FL","19l91w0hqd","1536","864","en","NE07SE16","null","","","","learningBlock1","","","","That was a dep.","null","","","","",""
"","html-keyboard-response","69","920006","0.0-6.0-2.20","FL","19l91w0hqd","1536","864","en","NE07SE16","null","","","","learningBlock1","","","","<div style=""font-size:60px;""> </div>","null","FL","learning/Slide21.JPG","That was a dep.","",""
"","image-keyboard-response","70","920185","0.0-6.0-0.21","FL","19l91w0hqd","1536","864","en","NE07SE16","null","","","","","","","","learning/Slide22.JPG","null","","","","",""
"","html-keyboard-response","71","921347","0.0-6.0-1.21","FL","19l91w0hqd","1536","864","en","NE07SE16","null","","","","learningBlock1","","","","That was a bim.","null","","","","",""
"","html-keyboard-response","72","922355","0.0-6.0-2.21","FL","19l91w0hqd","1536","864","en","NE07SE16","null","","","","learningBlock1","","","","<div style=""font-size:60px;""> </div>","null","FL","learning/Slide22.JPG","That was a bim.","",""
"","image-keyboard-response","73","922540","0.0-6.0-0.22","FL","19l91w0hqd","1536","864","en","NE07SE16","null","","","","","","","","learning/Slide23.JPG","null","","","","",""
"","html-keyboard-response","74","923693","0.0-6.0-1.22","FL","19l91w0hqd","1536","864","en","NE07SE16","null","","","","learningBlock1","","","","That was a tob.","null","","","","",""
"","html-keyboard-response","75","924701","0.0-6.0-2.22","FL","19l91w0hqd","1536","864","en","NE07SE16","null","","","","learningBlock1","","","","<div style=""font-size:60px;""> </div>","null","FL","learning/Slide23.JPG","That was a tob.","",""
"","image-keyboard-response","76","924884","0.0-6.0-0.23","FL","19l91w0hqd","1536","864","en","NE07SE16","null","","","","","","","","learning/Slide24.JPG","null","","","","",""
"","html-keyboard-response","77","926051","0.0-6.0-1.23","FL","19l91w0hqd","1536","864","en","NE07SE16","null","","","","learningBlock1","","","","That was a wug.","null","","","","",""
"","html-keyboard-response","78","927054","0.0-6.0-2.23","FL","19l91w0hqd","1536","864","en","NE07SE16","null","","","","learningBlock1","","","","<div style=""font-size:60px;""> </div>","null","FL","learning/Slide24.JPG","That was a wug.","",""
"","image-keyboard-response","79","927233","0.0-6.0-0.24","FL","19l91w0hqd","1536","864","en","NE07SE16","null","","","","","","","","learning/Slide25.JPG","null","","","","",""
"","html-keyboard-response","80","928392","0.0-6.0-1.24","FL","19l91w0hqd","1536","864","en","NE07SE16","null","","","","learningBlock1","","","","That was a dep.","null","","","","",""
"","html-keyboard-response","81","929402","0.0-6.0-2.24","FL","19l91w0hqd","1536","864","en","NE07SE16","null","","","","learningBlock1","","","","<div style=""font-size:60px;""> </div>","null","FL","learning/Slide25.JPG","That was a dep.","",""
"","image-keyboard-response","82","929583","0.0-6.0-0.25","FL","19l91w0hqd","1536","864","en","NE07SE16","null","","","","","","","","learning/Slide26.JPG","null","","","","",""
"","html-keyboard-response","83","930756","0.0-6.0-1.25","FL","19l91w0hqd","1536","864","en","NE07SE16","null","","","","learningBlock1","","","","That was a wug.","null","","","","",""
"","html-keyboard-response","84","931762","0.0-6.0-2.25","FL","19l91w0hqd","1536","864","en","NE07SE16","null","","","","learningBlock1","","","","<div style=""font-size:60px;""> </div>","null","FL","learning/Slide26.JPG","That was a wug.","",""
"","image-keyboard-response","85","931942","0.0-6.0-0.26","FL","19l91w0hqd","1536","864","en","NE07SE16","null","","","","","","","","learning/Slide27.JPG","null","","","","",""
"","html-keyboard-response","86","933104","0.0-6.0-1.26","FL","19l91w0hqd","1536","864","en","NE07SE16","null","","","","learningBlock1","","","","That was a bim.","null","","","","",""
"","html-keyboard-response","87","934113","0.0-6.0-2.26","FL","19l91w0hqd","1536","864","en","NE07SE16","null","","","","learningBlock1","","","","<div style=""font-size:60px;""> </div>","null","FL","learning/Slide27.JPG","That was a bim.","",""
"","image-keyboard-response","88","934292","0.0-6.0-0.27","FL","19l91w0hqd","1536","864","en","NE07SE16","null","","","","","","","","learning/Slide28.JPG","null","","","","",""
"","html-keyboard-response","89","935455","0.0-6.0-1.27","FL","19l91w0hqd","1536","864","en","NE07SE16","null","","","","learningBlock1","","","","That was a dep.","null","","","","",""
"","html-keyboard-response","90","936461","0.0-6.0-2.27","FL","19l91w0hqd","1536","864","en","NE07SE16","null","","","","learningBlock1","","","","<div style=""font-size:60px;""> </div>","null","FL","learning/Slide28.JPG","That was a dep.","",""
"","image-keyboard-response","91","936644","0.0-6.0-0.28","FL","19l91w0hqd","1536","864","en","NE07SE16","null","","","","","","","","learning/Slide29.JPG","null","","","","",""
"","html-keyboard-response","92","937810","0.0-6.0-1.28","FL","19l91w0hqd","1536","864","en","NE07SE16","null","","","","learningBlock1","","","","That was a tob.","null","","","","",""
"","html-keyboard-response","93","938818","0.0-6.0-2.28","FL","19l91w0hqd","1536","864","en","NE07SE16","null","","","","learningBlock1","","","","<div style=""font-size:60px;""> </div>","null","FL","learning/Slide29.JPG","That was a tob.","",""
"","image-keyboard-response","94","938995","0.0-6.0-0.29","FL","19l91w0hqd","1536","864","en","NE07SE16","null","","","","","","","","learning/Slide30.JPG","null","","","","",""
"","html-keyboard-response","95","940161","0.0-6.0-1.29","FL","19l91w0hqd","1536","864","en","NE07SE16","null","","","","learningBlock1","","","","That was a dep.","null","","","","",""
"","html-keyboard-response","96","941168","0.0-6.0-2.29","FL","19l91w0hqd","1536","864","en","NE07SE16","null","","","","learningBlock1","","","","<div style=""font-size:60px;""> </div>","null","FL","learning/Slide30.JPG","That was a dep.","",""
"","image-keyboard-response","97","941348","0.0-6.0-0.30","FL","19l91w0hqd","1536","864","en","NE07SE16","null","","","","","","","","learning/Slide31.JPG","null","","","","",""
"","html-keyboard-response","98","942507","0.0-6.0-1.30","FL","19l91w0hqd","1536","864","en","NE07SE16","null","","","","learningBlock1","","","","That was a wug.","null","","","","",""
"","html-keyboard-response","99","943511","0.0-6.0-2.30","FL","19l91w0hqd","1536","864","en","NE07SE16","null","","","","learningBlock1","","","","<div style=""font-size:60px;""> </div>","null","FL","learning/Slide31.JPG","That was a wug.","",""
"","image-keyboard-response","100","943694","0.0-6.0-0.31","FL","19l91w0hqd","1536","864","en","NE07SE16","null","","","","","","","","learning/Slide32.JPG","null","","","","",""
"","html-keyboard-response","101","944857","0.0-6.0-1.31","FL","19l91w0hqd","1536","864","en","NE07SE16","null","","","","learningBlock1","","","","That was a tob.","null","","","","",""
"","html-keyboard-response","102","945866","0.0-6.0-2.31","FL","19l91w0hqd","1536","864","en","NE07SE16","null","","","","learningBlock1","","","","<div style=""font-size:60px;""> </div>","null","FL","learning/Slide32.JPG","That was a tob.","",""
"","image-keyboard-response","103","946048","0.0-6.0-0.32","FL","19l91w0hqd","1536","864","en","NE07SE16","null","","","","","","","","learning/Slide33.JPG","null","","","","",""
"","html-keyboard-response","104","947214","0.0-6.0-1.32","FL","19l91w0hqd","1536","864","en","NE07SE16","null","","","","learningBlock1","","","","That was a bim.","null","","","","",""
"","html-keyboard-response","105","948218","0.0-6.0-2.32","FL","19l91w0hqd","1536","864","en","NE07SE16","null","","","","learningBlock1","","","","<div style=""font-size:60px;""> </div>","null","FL","learning/Slide33.JPG","That was a bim.","",""
"","image-keyboard-response","106","948401","0.0-6.0-0.33","FL","19l91w0hqd","1536","864","en","NE07SE16","null","","","","","","","","learning/Slide34.JPG","null","","","","",""
"","html-keyboard-response","107","949557","0.0-6.0-1.33","FL","19l91w0hqd","1536","864","en","NE07SE16","null","","","","learningBlock1","","","","That was a tob.","null","","","","",""
"","html-keyboard-response","108","950563","0.0-6.0-2.33","FL","19l91w0hqd","1536","864","en","NE07SE16","null","","","","learningBlock1","","","","<div style=""font-size:60px;""> </div>","null","FL","learning/Slide34.JPG","That was a tob.","",""
"","image-keyboard-response","109","950745","0.0-6.0-0.34","FL","19l91w0hqd","1536","864","en","NE07SE16","null","","","","","","","","learning/Slide35.JPG","null","","","","",""
"","html-keyboard-response","110","951901","0.0-6.0-1.34","FL","19l91w0hqd","1536","864","en","NE07SE16","null","","","","learningBlock1","","","","That was a bim.","null","","","","",""
"","html-keyboard-response","111","952912","0.0-6.0-2.34","FL","19l91w0hqd","1536","864","en","NE07SE16","null","","","","learningBlock1","","","","<div style=""font-size:60px;""> </div>","null","FL","learning/Slide35.JPG","That was a bim.","",""
"","image-keyboard-response","112","953095","0.0-6.0-0.35","FL","19l91w0hqd","1536","864","en","NE07SE16","null","","","","","","","","learning/Slide36.JPG","null","","","","",""
"","html-keyboard-response","113","954252","0.0-6.0-1.35","FL","19l91w0hqd","1536","864","en","NE07SE16","null","","","","learningBlock1","","","","That was a dep.","null","","","","",""
"","html-keyboard-response","114","955257","0.0-6.0-2.35","FL","19l91w0hqd","1536","864","en","NE07SE16","null","","","","learningBlock1","","","","<div style=""font-size:60px;""> </div>","null","FL","learning/Slide36.JPG","That was a dep.","",""
"","image-keyboard-response","115","955438","0.0-6.0-0.36","FL","19l91w0hqd","1536","864","en","NE07SE16","null","","","","","","","","learning/Slide37.JPG","null","","","","",""
"","html-keyboard-response","116","956604","0.0-6.0-1.36","FL","19l91w0hqd","1536","864","en","NE07SE16","null","","","","learningBlock1","","","","That was a tob.","null","","","","",""
"","html-keyboard-response","117","957613","0.0-6.0-2.36","FL","19l91w0hqd","1536","864","en","NE07SE16","null","","","","learningBlock1","","","","<div style=""font-size:60px;""> </div>","null","FL","learning/Slide37.JPG","That was a tob.","",""
"","image-keyboard-response","118","957797","0.0-6.0-0.37","FL","19l91w0hqd","1536","864","en","NE07SE16","null","","","","","","","","learning/Slide38.JPG","null","","","","",""
"","html-keyboard-response","119","958958","0.0-6.0-1.37","FL","19l91w0hqd","1536","864","en","NE07SE16","null","","","","learningBlock1","","","","That was a wug.","null","","","","",""
"","html-keyboard-response","120","959966","0.0-6.0-2.37","FL","19l91w0hqd","1536","864","en","NE07SE16","null","","","","learningBlock1","","","","<div style=""font-size:60px;""> </div>","null","FL","learning/Slide38.JPG","That was a wug.","",""
"","image-keyboard-response","121","960147","0.0-6.0-0.38","FL","19l91w0hqd","1536","864","en","NE07SE16","null","","","","","","","","learning/Slide39.JPG","null","","","","",""
"","html-keyboard-response","122","961312","0.0-6.0-1.38","FL","19l91w0hqd","1536","864","en","NE07SE16","null","","","","learningBlock1","","","","That was a bim.","null","","","","",""
"","html-keyboard-response","123","962319","0.0-6.0-2.38","FL","19l91w0hqd","1536","864","en","NE07SE16","null","","","","learningBlock1","","","","<div style=""font-size:60px;""> </div>","null","FL","learning/Slide39.JPG","That was a bim.","",""
"","image-keyboard-response","124","962499","0.0-6.0-0.39","FL","19l91w0hqd","1536","864","en","NE07SE16","null","","","","","","","","learning/Slide40.JPG","null","","","","",""
"","html-keyboard-response","125","963664","0.0-6.0-1.39","FL","19l91w0hqd","1536","864","en","NE07SE16","null","","","","learningBlock1","","","","That was a tob.","null","","","","",""
"","html-keyboard-response","126","964674","0.0-6.0-2.39","FL","19l91w0hqd","1536","864","en","NE07SE16","null","","","","learningBlock1","","","","<div style=""font-size:60px;""> </div>","null","FL","learning/Slide40.JPG","That was a tob.","",""
"","image-keyboard-response","127","964853","0.0-6.0-0.40","FL","19l91w0hqd","1536","864","en","NE07SE16","null","","","","","","","","learning/Slide41.JPG","null","","","","",""
"","html-keyboard-response","128","966021","0.0-6.0-1.40","FL","19l91w0hqd","1536","864","en","NE07SE16","null","","","","learningBlock1","","","","That was a bim.","null","","","","",""
"","html-keyboard-response","129","967031","0.0-6.0-2.40","FL","19l91w0hqd","1536","864","en","NE07SE16","null","","","","learningBlock1","","","","<div style=""font-size:60px;""> </div>","null","FL","learning/Slide41.JPG","That was a bim.","",""
"","image-keyboard-response","130","967218","0.0-6.0-0.41","FL","19l91w0hqd","1536","864","en","NE07SE16","null","","","","","","","","learning/Slide42.JPG","null","","","","",""
"","html-keyboard-response","131","968391","0.0-6.0-1.41","FL","19l91w0hqd","1536","864","en","NE07SE16","null","","","","learningBlock1","","","","That was a dep.","null","","","","",""
"","html-keyboard-response","132","969402","0.0-6.0-2.41","FL","19l91w0hqd","1536","864","en","NE07SE16","null","","","","learningBlock1","","","","<div style=""font-size:60px;""> </div>","null","FL","learning/Slide42.JPG","That was a dep.","",""
"","image-keyboard-response","133","969584","0.0-6.0-0.42","FL","19l91w0hqd","1536","864","en","NE07SE16","null","","","","","","","","learning/Slide43.JPG","null","","","","",""
"","html-keyboard-response","134","970752","0.0-6.0-1.42","FL","19l91w0hqd","1536","864","en","NE07SE16","null","","","","learningBlock1","","","","That was a wug.","null","","","","",""
"","html-keyboard-response","135","971755","0.0-6.0-2.42","FL","19l91w0hqd","1536","864","en","NE07SE16","null","","","","learningBlock1","","","","<div style=""font-size:60px;""> </div>","null","FL","learning/Slide43.JPG","That was a wug.","",""
"","image-keyboard-response","136","971935","0.0-6.0-0.43","FL","19l91w0hqd","1536","864","en","NE07SE16","null","","","","","","","","learning/Slide44.JPG","null","","","","",""
"","html-keyboard-response","137","973091","0.0-6.0-1.43","FL","19l91w0hqd","1536","864","en","NE07SE16","null","","","","learningBlock1","","","","That was a bim.","null","","","","",""
"","html-keyboard-response","138","974093","0.0-6.0-2.43","FL","19l91w0hqd","1536","864","en","NE07SE16","null","","","","learningBlock1","","","","<div style=""font-size:60px;""> </div>","null","FL","learning/Slide44.JPG","That was a bim.","",""
"","image-keyboard-response","139","974276","0.0-6.0-0.44","FL","19l91w0hqd","1536","864","en","NE07SE16","null","","","","","","","","learning/Slide45.JPG","null","","","","",""
"","html-keyboard-response","140","975437","0.0-6.0-1.44","FL","19l91w0hqd","1536","864","en","NE07SE16","null","","","","learningBlock1","","","","That was a wug.","null","","","","",""
"","html-keyboard-response","141","976447","0.0-6.0-2.44","FL","19l91w0hqd","1536","864","en","NE07SE16","null","","","","learningBlock1","","","","<div style=""font-size:60px;""> </div>","null","FL","learning/Slide45.JPG","That was a wug.","",""
"","image-keyboard-response","142","976632","0.0-6.0-0.45","FL","19l91w0hqd","1536","864","en","NE07SE16","null","","","","","","","","learning/Slide46.JPG","null","","","","",""
"","html-keyboard-response","143","977801","0.0-6.0-1.45","FL","19l91w0hqd","1536","864","en","NE07SE16","null","","","","learningBlock1","","","","That was a dep.","null","","","","",""
"","html-keyboard-response","144","978813","0.0-6.0-2.45","FL","19l91w0hqd","1536","864","en","NE07SE16","null","","","","learningBlock1","","","","<div style=""font-size:60px;""> </div>","null","FL","learning/Slide46.JPG","That was a dep.","",""
"","image-keyboard-response","145","978993","0.0-6.0-0.46","FL","19l91w0hqd","1536","864","en","NE07SE16","null","","","","","","","","learning/Slide47.JPG","null","","","","",""
"","html-keyboard-response","146","980151","0.0-6.0-1.46","FL","19l91w0hqd","1536","864","en","NE07SE16","null","","","","learningBlock1","","","","That was a tob.","null","","","","",""
"","html-keyboard-response","147","981162","0.0-6.0-2.46","FL","19l91w0hqd","1536","864","en","NE07SE16","null","","","","learningBlock1","","","","<div style=""font-size:60px;""> </div>","null","FL","learning/Slide47.JPG","That was a tob.","",""
"","image-keyboard-response","148","981344","0.0-6.0-0.47","FL","19l91w0hqd","1536","864","en","NE07SE16","null","","","","","","","","learning/Slide48.JPG","null","","","","",""
"","html-keyboard-response","149","982515","0.0-6.0-1.47","FL","19l91w0hqd","1536","864","en","NE07SE16","null","","","","learningBlock1","","","","That was a bim.","null","","","","",""
"","html-keyboard-response","150","983521","0.0-6.0-2.47","FL","19l91w0hqd","1536","864","en","NE07SE16","null","","","","learningBlock1","","","","<div style=""font-size:60px;""> </div>","null","FL","learning/Slide48.JPG","That was a bim.","",""
"","image-keyboard-response","151","983707","0.0-6.0-0.48","FL","19l91w0hqd","1536","864","en","NE07SE16","null","","","","","","","","learning/Slide49.JPG","null","","","","",""
"","html-keyboard-response","152","984878","0.0-6.0-1.48","FL","19l91w0hqd","1536","864","en","NE07SE16","null","","","","learningBlock1","","","","That was a dep.","null","","","","",""
"","html-keyboard-response","153","985887","0.0-6.0-2.48","FL","19l91w0hqd","1536","864","en","NE07SE16","null","","","","learningBlock1","","","","<div style=""font-size:60px;""> </div>","null","FL","learning/Slide49.JPG","That was a dep.","",""
"","image-keyboard-response","154","986067","0.0-6.0-0.49","FL","19l91w0hqd","1536","864","en","NE07SE16","null","","","","","","","","learning/Slide50.JPG","null","","","","",""
"","html-keyboard-response","155","987231","0.0-6.0-1.49","FL","19l91w0hqd","1536","864","en","NE07SE16","null","","","","learningBlock1","","","","That was a tob.","null","","","","",""
"","html-keyboard-response","156","988239","0.0-6.0-2.49","FL","19l91w0hqd","1536","864","en","NE07SE16","null","","","","learningBlock1","","","","<div style=""font-size:60px;""> </div>","null","FL","learning/Slide50.JPG","That was a tob.","",""
"","image-keyboard-response","157","988419","0.0-6.0-0.50","FL","19l91w0hqd","1536","864","en","NE07SE16","null","","","","","","","","learning/Slide51.JPG","null","","","","",""
"","html-keyboard-response","158","989581","0.0-6.0-1.50","FL","19l91w0hqd","1536","864","en","NE07SE16","null","","","","learningBlock1","","","","That was a bim.","null","","","","",""
"","html-keyboard-response","159","990587","0.0-6.0-2.50","FL","19l91w0hqd","1536","864","en","NE07SE16","null","","","","learningBlock1","","","","<div style=""font-size:60px;""> </div>","null","FL","learning/Slide51.JPG","That was a bim.","",""
"","image-keyboard-response","160","990766","0.0-6.0-0.51","FL","19l91w0hqd","1536","864","en","NE07SE16","null","","","","","","","","learning/Slide52.JPG","null","","","","",""
"","html-keyboard-response","161","991935","0.0-6.0-1.51","FL","19l91w0hqd","1536","864","en","NE07SE16","null","","","","learningBlock1","","","","That was a wug.","null","","","","",""
"","html-keyboard-response","162","992947","0.0-6.0-2.51","FL","19l91w0hqd","1536","864","en","NE07SE16","null","","","","learningBlock1","","","","<div style=""font-size:60px;""> </div>","null","FL","learning/Slide52.JPG","That was a wug.","",""
"","image-keyboard-response","163","993128","0.0-6.0-0.52","FL","19l91w0hqd","1536","864","en","NE07SE16","null","","","","","","","","learning/Slide53.JPG","null","","","","",""
"","html-keyboard-response","164","994293","0.0-6.0-1.52","FL","19l91w0hqd","1536","864","en","NE07SE16","null","","","","learningBlock1","","","","That was a tob.","null","","","","",""
"","html-keyboard-response","165","995304","0.0-6.0-2.52","FL","19l91w0hqd","1536","864","en","NE07SE16","null","","","","learningBlock1","","","","<div style=""font-size:60px;""> </div>","null","FL","learning/Slide53.JPG","That was a tob.","",""
"","image-keyboard-response","166","995488","0.0-6.0-0.53","FL","19l91w0hqd","1536","864","en","NE07SE16","null","","","","","","","","learning/Slide54.JPG","null","","","","",""
"","html-keyboard-response","167","996658","0.0-6.0-1.53","FL","19l91w0hqd","1536","864","en","NE07SE16","null","","","","learningBlock1","","","","That was a dep.","null","","","","",""
"","html-keyboard-response","168","997665","0.0-6.0-2.53","FL","19l91w0hqd","1536","864","en","NE07SE16","null","","","","learningBlock1","","","","<div style=""font-size:60px;""> </div>","null","FL","learning/Slide54.JPG","That was a dep.","",""
"","image-keyboard-response","169","997848","0.0-6.0-0.54","FL","19l91w0hqd","1536","864","en","NE07SE16","null","","","","","","","","learning/Slide55.JPG","null","","","","",""
"","html-keyboard-response","170","999023","0.0-6.0-1.54","FL","19l91w0hqd","1536","864","en","NE07SE16","null","","","","learningBlock1","","","","That was a bim.","null","","","","",""
"","html-keyboard-response","171","1000033","0.0-6.0-2.54","FL","19l91w0hqd","1536","864","en","NE07SE16","null","","","","learningBlock1","","","","<div style=""font-size:60px;""> </div>","null","FL","learning/Slide55.JPG","That was a bim.","",""
"","image-keyboard-response","172","1000216","0.0-6.0-0.55","FL","19l91w0hqd","1536","864","en","NE07SE16","null","","","","","","","","learning/Slide56.JPG","null","","","","",""
"","html-keyboard-response","173","1001394","0.0-6.0-1.55","FL","19l91w0hqd","1536","864","en","NE07SE16","null","","","","learningBlock1","","","","That was a tob.","null","","","","",""
"","html-keyboard-response","174","1002405","0.0-6.0-2.55","FL","19l91w0hqd","1536","864","en","NE07SE16","null","","","","learningBlock1","","","","<div style=""font-size:60px;""> </div>","null","FL","learning/Slide56.JPG","That was a tob.","",""
"","image-keyboard-response","175","1002588","0.0-6.0-0.56","FL","19l91w0hqd","1536","864","en","NE07SE16","null","","","","","","","","learning/Slide57.JPG","null","","","","",""
"","html-keyboard-response","176","1003754","0.0-6.0-1.56","FL","19l91w0hqd","1536","864","en","NE07SE16","null","","","","learningBlock1","","","","That was a dep.","null","","","","",""
"","html-keyboard-response","177","1004757","0.0-6.0-2.56","FL","19l91w0hqd","1536","864","en","NE07SE16","null","","","","learningBlock1","","","","<div style=""font-size:60px;""> </div>","null","FL","learning/Slide57.JPG","That was a dep.","",""
"","image-keyboard-response","178","1004939","0.0-6.0-0.57","FL","19l91w0hqd","1536","864","en","NE07SE16","null","","","","","","","","learning/Slide58.JPG","null","","","","",""
"","html-keyboard-response","179","1006103","0.0-6.0-1.57","FL","19l91w0hqd","1536","864","en","NE07SE16","null","","","","learningBlock1","","","","That was a wug.","null","","","","",""
"","html-keyboard-response","180","1007112","0.0-6.0-2.57","FL","19l91w0hqd","1536","864","en","NE07SE16","null","","","","learningBlock1","","","","<div style=""font-size:60px;""> </div>","null","FL","learning/Slide58.JPG","That was a wug.","",""
"","image-keyboard-response","181","1007293","0.0-6.0-0.58","FL","19l91w0hqd","1536","864","en","NE07SE16","null","","","","","","","","learning/Slide59.JPG","null","","","","",""
"","html-keyboard-response","182","1008465","0.0-6.0-1.58","FL","19l91w0hqd","1536","864","en","NE07SE16","null","","","","learningBlock1","","","","That was a dep.","null","","","","",""
"","html-keyboard-response","183","1009473","0.0-6.0-2.58","FL","19l91w0hqd","1536","864","en","NE07SE16","null","","","","learningBlock1","","","","<div style=""font-size:60px;""> </div>","null","FL","learning/Slide59.JPG","That was a dep.","",""
"","image-keyboard-response","184","1009651","0.0-6.0-0.59","FL","19l91w0hqd","1536","864","en","NE07SE16","null","","","","","","","","learning/Slide60.JPG","null","","","","",""
"","html-keyboard-response","185","1010823","0.0-6.0-1.59","FL","19l91w0hqd","1536","864","en","NE07SE16","null","","","","learningBlock1","","","","That was a wug.","null","","","","",""
"","html-keyboard-response","186","1011827","0.0-6.0-2.59","FL","19l91w0hqd","1536","864","en","NE07SE16","null","","","","learningBlock1","","","","<div style=""font-size:60px;""> </div>","null","FL","learning/Slide60.JPG","That was a wug.","",""
"","image-keyboard-response","187","1012005","0.0-6.0-0.60","FL","19l91w0hqd","1536","864","en","NE07SE16","null","","","","","","","","learning/Slide61.JPG","null","","","","",""
"","html-keyboard-response","188","1013166","0.0-6.0-1.60","FL","19l91w0hqd","1536","864","en","NE07SE16","null","","","","learningBlock1","","","","That was a bim.","null","","","","",""
"","html-keyboard-response","189","1014173","0.0-6.0-2.60","FL","19l91w0hqd","1536","864","en","NE07SE16","null","","","","learningBlock1","","","","<div style=""font-size:60px;""> </div>","null","FL","learning/Slide61.JPG","That was a bim.","",""
"","image-keyboard-response","190","1014353","0.0-6.0-0.61","FL","19l91w0hqd","1536","864","en","NE07SE16","null","","","","","","","","learning/Slide62.JPG","null","","","","",""
"","html-keyboard-response","191","1015527","0.0-6.0-1.61","FL","19l91w0hqd","1536","864","en","NE07SE16","null","","","","learningBlock1","","","","That was a dep.","null","","","","",""
"","html-keyboard-response","192","1016536","0.0-6.0-2.61","FL","19l91w0hqd","1536","864","en","NE07SE16","null","","","","learningBlock1","","","","<div style=""font-size:60px;""> </div>","null","FL","learning/Slide62.JPG","That was a dep.","",""
"","image-keyboard-response","193","1016718","0.0-6.0-0.62","FL","19l91w0hqd","1536","864","en","NE07SE16","null","","","","","","","","learning/Slide63.JPG","null","","","","",""
"","html-keyboard-response","194","1017886","0.0-6.0-1.62","FL","19l91w0hqd","1536","864","en","NE07SE16","null","","","","learningBlock1","","","","That was a bim.","null","","","","",""
"","html-keyboard-response","195","1018895","0.0-6.0-2.62","FL","19l91w0hqd","1536","864","en","NE07SE16","null","","","","learningBlock1","","","","<div style=""font-size:60px;""> </div>","null","FL","learning/Slide63.JPG","That was a bim.","",""
"","image-keyboard-response","196","1019085","0.0-6.0-0.63","FL","19l91w0hqd","1536","864","en","NE07SE16","null","","","","","","","","learning/Slide64.JPG","null","","","","",""
"","html-keyboard-response","197","1020248","0.0-6.0-1.63","FL","19l91w0hqd","1536","864","en","NE07SE16","null","","","","learningBlock1","","","","That was a tob.","null","","","","",""
"","html-keyboard-response","198","1021253","0.0-6.0-2.63","FL","19l91w0hqd","1536","864","en","NE07SE16","null","","","","learningBlock1","","","","<div style=""font-size:60px;""> </div>","null","FL","learning/Slide64.JPG","That was a tob.","",""
"","image-keyboard-response","199","1021430","0.0-6.0-0.64","FL","19l91w0hqd","1536","864","en","NE07SE16","null","","","","","","","","learning/Slide65.JPG","null","","","","",""
"","html-keyboard-response","200","1022588","0.0-6.0-1.64","FL","19l91w0hqd","1536","864","en","NE07SE16","null","","","","learningBlock1","","","","That was a wug.","null","","","","",""
"","html-keyboard-response","201","1023596","0.0-6.0-2.64","FL","19l91w0hqd","1536","864","en","NE07SE16","null","","","","learningBlock1","","","","<div style=""font-size:60px;""> </div>","null","FL","learning/Slide65.JPG","That was a wug.","",""
"","image-keyboard-response","202","1023776","0.0-6.0-0.65","FL","19l91w0hqd","1536","864","en","NE07SE16","null","","","","","","","","learning/Slide66.JPG","null","","","","",""
"","html-keyboard-response","203","1024938","0.0-6.0-1.65","FL","19l91w0hqd","1536","864","en","NE07SE16","null","","","","learningBlock1","","","","That was a dep.","null","","","","",""
"","html-keyboard-response","204","1025947","0.0-6.0-2.65","FL","19l91w0hqd","1536","864","en","NE07SE16","null","","","","learningBlock1","","","","<div style=""font-size:60px;""> </div>","null","FL","learning/Slide66.JPG","That was a dep.","",""
"","image-keyboard-response","205","1026125","0.0-6.0-0.66","FL","19l91w0hqd","1536","864","en","NE07SE16","null","","","","","","","","learning/Slide67.JPG","null","","","","",""
"","html-keyboard-response","206","1027286","0.0-6.0-1.66","FL","19l91w0hqd","1536","864","en","NE07SE16","null","","","","learningBlock1","","","","That was a tob.","null","","","","",""
"","html-keyboard-response","207","1028294","0.0-6.0-2.66","FL","19l91w0hqd","1536","864","en","NE07SE16","null","","","","learningBlock1","","","","<div style=""font-size:60px;""> </div>","null","FL","learning/Slide67.JPG","That was a tob.","",""
"","image-keyboard-response","208","1028473","0.0-6.0-0.67","FL","19l91w0hqd","1536","864","en","NE07SE16","null","","","","","","","","learning/Slide68.JPG","null","","","","",""
"","html-keyboard-response","209","1029643","0.0-6.0-1.67","FL","19l91w0hqd","1536","864","en","NE07SE16","null","","","","learningBlock1","","","","That was a wug.","null","","","","",""
"","html-keyboard-response","210","1030652","0.0-6.0-2.67","FL","19l91w0hqd","1536","864","en","NE07SE16","null","","","","learningBlock1","","","","<div style=""font-size:60px;""> </div>","null","FL","learning/Slide68.JPG","That was a wug.","",""
"","image-keyboard-response","211","1030836","0.0-6.0-0.68","FL","19l91w0hqd","1536","864","en","NE07SE16","null","","","","","","","","learning/Slide69.JPG","null","","","","",""
"","html-keyboard-response","212","1032003","0.0-6.0-1.68","FL","19l91w0hqd","1536","864","en","NE07SE16","null","","","","learningBlock1","","","","That was a tob.","null","","","","",""
"","html-keyboard-response","213","1033006","0.0-6.0-2.68","FL","19l91w0hqd","1536","864","en","NE07SE16","null","","","","learningBlock1","","","","<div style=""font-size:60px;""> </div>","null","FL","learning/Slide69.JPG","That was a tob.","",""
"","image-keyboard-response","214","1033185","0.0-6.0-0.69","FL","19l91w0hqd","1536","864","en","NE07SE16","null","","","","","","","","learning/Slide70.JPG","null","","","","",""
"","html-keyboard-response","215","1034354","0.0-6.0-1.69","FL","19l91w0hqd","1536","864","en","NE07SE16","null","","","","learningBlock1","","","","That was a dep.","null","","","","",""
"","html-keyboard-response","216","1035357","0.0-6.0-2.69","FL","19l91w0hqd","1536","864","en","NE07SE16","null","","","","learningBlock1","","","","<div style=""font-size:60px;""> </div>","null","FL","learning/Slide70.JPG","That was a dep.","",""
"","image-keyboard-response","217","1035543","0.0-6.0-0.70","FL","19l91w0hqd","1536","864","en","NE07SE16","null","","","","","","","","learning/Slide71.JPG","null","","","","",""
"","html-keyboard-response","218","1036706","0.0-6.0-1.70","FL","19l91w0hqd","1536","864","en","NE07SE16","null","","","","learningBlock1","","","","That was a wug.","null","","","","",""
"","html-keyboard-response","219","1037713","0.0-6.0-2.70","FL","19l91w0hqd","1536","864","en","NE07SE16","null","","","","learningBlock1","","","","<div style=""font-size:60px;""> </div>","null","FL","learning/Slide71.JPG","That was a wug.","",""
"","image-keyboard-response","220","1037891","0.0-6.0-0.71","FL","19l91w0hqd","1536","864","en","NE07SE16","null","","","","","","","","learning/Slide72.JPG","null","","","","",""
"","html-keyboard-response","221","1039054","0.0-6.0-1.71","FL","19l91w0hqd","1536","864","en","NE07SE16","null","","","","learningBlock1","","","","That was a bim.","null","","","","",""
"","html-keyboard-response","222","1040064","0.0-6.0-2.71","FL","19l91w0hqd","1536","864","en","NE07SE16","null","","","","learningBlock1","","","","<div style=""font-size:60px;""> </div>","null","FL","learning/Slide72.JPG","That was a bim.","",""
"","image-keyboard-response","223","1040243","0.0-6.0-0.72","FL","19l91w0hqd","1536","864","en","NE07SE16","null","","","","","","","","learning/Slide73.JPG","null","","","","",""
"","html-keyboard-response","224","1041408","0.0-6.0-1.72","FL","19l91w0hqd","1536","864","en","NE07SE16","null","","","","learningBlock1","","","","That was a wug.","null","","","","",""
"","html-keyboard-response","225","1042412","0.0-6.0-2.72","FL","19l91w0hqd","1536","864","en","NE07SE16","null","","","","learningBlock1","","","","<div style=""font-size:60px;""> </div>","null","FL","learning/Slide73.JPG","That was a wug.","",""
"","image-keyboard-response","226","1042591","0.0-6.0-0.73","FL","19l91w0hqd","1536","864","en","NE07SE16","null","","","","","","","","learning/Slide74.JPG","null","","","","",""
"","html-keyboard-response","227","1043753","0.0-6.0-1.73","FL","19l91w0hqd","1536","864","en","NE07SE16","null","","","","learningBlock1","","","","That was a dep.","null","","","","",""
"","html-keyboard-response","228","1044763","0.0-6.0-2.73","FL","19l91w0hqd","1536","864","en","NE07SE16","null","","","","learningBlock1","","","","<div style=""font-size:60px;""> </div>","null","FL","learning/Slide74.JPG","That was a dep.","",""
"","image-keyboard-response","229","1044948","0.0-6.0-0.74","FL","19l91w0hqd","1536","864","en","NE07SE16","null","","","","","","","","learning/Slide75.JPG","null","","","","",""
"","html-keyboard-response","230","1046125","0.0-6.0-1.74","FL","19l91w0hqd","1536","864","en","NE07SE16","null","","","","learningBlock1","","","","That was a tob.","null","","","","",""
"","html-keyboard-response","231","1047132","0.0-6.0-2.74","FL","19l91w0hqd","1536","864","en","NE07SE16","null","","","","learningBlock1","","","","<div style=""font-size:60px;""> </div>","null","FL","learning/Slide75.JPG","That was a tob.","",""
"","image-keyboard-response","232","1047311","0.0-6.0-0.75","FL","19l91w0hqd","1536","864","en","NE07SE16","null","","","","","","","","learning/Slide76.JPG","null","","","","",""
"","html-keyboard-response","233","1048476","0.0-6.0-1.75","FL","19l91w0hqd","1536","864","en","NE07SE16","null","","","","learningBlock1","","","","That was a bim.","null","","","","",""
"","html-keyboard-response","234","1049483","0.0-6.0-2.75","FL","19l91w0hqd","1536","864","en","NE07SE16","null","","","","learningBlock1","","","","<div style=""font-size:60px;""> </div>","null","FL","learning/Slide76.JPG","That was a bim.","",""
"","image-keyboard-response","235","1049668","0.0-6.0-0.76","FL","19l91w0hqd","1536","864","en","NE07SE16","null","","","","","","","","learning/Slide77.JPG","null","","","","",""
"","html-keyboard-response","236","1050833","0.0-6.0-1.76","FL","19l91w0hqd","1536","864","en","NE07SE16","null","","","","learningBlock1","","","","That was a tob.","null","","","","",""
"","html-keyboard-response","237","1051843","0.0-6.0-2.76","FL","19l91w0hqd","1536","864","en","NE07SE16","null","","","","learningBlock1","","","","<div style=""font-size:60px;""> </div>","null","FL","learning/Slide77.JPG","That was a tob.","",""
"","image-keyboard-response","238","1052025","0.0-6.0-0.77","FL","19l91w0hqd","1536","864","en","NE07SE16","null","","","","","","","","learning/Slide78.JPG","null","","","","",""
"","html-keyboard-response","239","1053184","0.0-6.0-1.77","FL","19l91w0hqd","1536","864","en","NE07SE16","null","","","","learningBlock1","","","","That was a wug.","null","","","","",""
"","html-keyboard-response","240","1054195","0.0-6.0-2.77","FL","19l91w0hqd","1536","864","en","NE07SE16","null","","","","learningBlock1","","","","<div style=""font-size:60px;""> </div>","null","FL","learning/Slide78.JPG","That was a wug.","",""
"","image-keyboard-response","241","1054373","0.0-6.0-0.78","FL","19l91w0hqd","1536","864","en","NE07SE16","null","","","","","","","","learning/Slide79.JPG","null","","","","",""
"","html-keyboard-response","242","1055527","0.0-6.0-1.78","FL","19l91w0hqd","1536","864","en","NE07SE16","null","","","","learningBlock1","","","","That was a bim.","null","","","","",""
"","html-keyboard-response","243","1056535","0.0-6.0-2.78","FL","19l91w0hqd","1536","864","en","NE07SE16","null","","","","learningBlock1","","","","<div style=""font-size:60px;""> </div>","null","FL","learning/Slide79.JPG","That was a bim.","",""
"","image-keyboard-response","244","1056721","0.0-6.0-0.79","FL","19l91w0hqd","1536","864","en","NE07SE16","null","","","","","","","","learning/Slide80.JPG","null","","","","",""
"","html-keyboard-response","245","1057891","0.0-6.0-1.79","FL","19l91w0hqd","1536","864","en","NE07SE16","null","","","","learningBlock1","","","","That was a tob.","null","","","","",""
"","html-keyboard-response","246","1058896","0.0-6.0-2.79","FL","19l91w0hqd","1536","864","en","NE07SE16","null","","","","learningBlock1","","","","<div style=""font-size:60px;""> </div>","null","FL","learning/Slide80.JPG","That was a tob.","",""
"","instructions","247","1069553","0.0-7.0","FL","19l91w0hqd","1536","864","en","NE07SE16","NA","","","[{""page_index"":0,""viewing_time"":10655.904999934137}]","instructions","","","","","","","","","",""
"","image-keyboard-response","248","1069738","0.0-8.0-0.0","FL","19l91w0hqd","1536","864","en","NE07SE16","null","","","","","","","","learning/Slide81.JPG","null","","","","",""
"","html-keyboard-response","249","1070907","0.0-8.0-1.0","FL","19l91w0hqd","1536","864","en","NE07SE16","null","","","","learningBlock2","","","","That was a wug.","null","","","","",""
"","html-keyboard-response","250","1071916","0.0-8.0-2.0","FL","19l91w0hqd","1536","864","en","NE07SE16","null","","","","learningBlock2","","","","<div style=""font-size:60px;""> </div>","null","FL","learning/Slide81.JPG","That was a wug.","",""
"","image-keyboard-response","251","1072103","0.0-8.0-0.1","FL","19l91w0hqd","1536","864","en","NE07SE16","null","","","","","","","","learning/Slide82.JPG","null","","","","",""
"","html-keyboard-response","252","1073267","0.0-8.0-1.1","FL","19l91w0hqd","1536","864","en","NE07SE16","null","","","","learningBlock2","","","","That was a bim.","null","","","","",""
"","html-keyboard-response","253","1074272","0.0-8.0-2.1","FL","19l91w0hqd","1536","864","en","NE07SE16","null","","","","learningBlock2","","","","<div style=""font-size:60px;""> </div>","null","FL","learning/Slide82.JPG","That was a bim.","",""
"","image-keyboard-response","254","1074453","0.0-8.0-0.2","FL","19l91w0hqd","1536","864","en","NE07SE16","null","","","","","","","","learning/Slide83.JPG","null","","","","",""
"","html-keyboard-response","255","1075616","0.0-8.0-1.2","FL","19l91w0hqd","1536","864","en","NE07SE16","null","","","","learningBlock2","","","","That was a wug.","null","","","","",""
"","html-keyboard-response","256","1076627","0.0-8.0-2.2","FL","19l91w0hqd","1536","864","en","NE07SE16","null","","","","learningBlock2","","","","<div style=""font-size:60px;""> </div>","null","FL","learning/Slide83.JPG","That was a wug.","",""
"","image-keyboard-response","257","1076804","0.0-8.0-0.3","FL","19l91w0hqd","1536","864","en","NE07SE16","null","","","","","","","","learning/Slide84.JPG","null","","","","",""
"","html-keyboard-response","258","1077965","0.0-8.0-1.3","FL","19l91w0hqd","1536","864","en","NE07SE16","null","","","","learningBlock2","","","","That was a dep.","null","","","","",""
"","html-keyboard-response","259","1078978","0.0-8.0-2.3","FL","19l91w0hqd","1536","864","en","NE07SE16","null","","","","learningBlock2","","","","<div style=""font-size:60px;""> </div>","null","FL","learning/Slide84.JPG","That was a dep.","",""
"","image-keyboard-response","260","1079156","0.0-8.0-0.4","FL","19l91w0hqd","1536","864","en","NE07SE16","null","","","","","","","","learning/Slide85.JPG","null","","","","",""
"","html-keyboard-response","261","1080317","0.0-8.0-1.4","FL","19l91w0hqd","1536","864","en","NE07SE16","null","","","","learningBlock2","","","","That was a bim.","null","","","","",""
"","html-keyboard-response","262","1081324","0.0-8.0-2.4","FL","19l91w0hqd","1536","864","en","NE07SE16","null","","","","learningBlock2","","","","<div style=""font-size:60px;""> </div>","null","FL","learning/Slide85.JPG","That was a bim.","",""
"","image-keyboard-response","263","1081502","0.0-8.0-0.5","FL","19l91w0hqd","1536","864","en","NE07SE16","null","","","","","","","","learning/Slide86.JPG","null","","","","",""
"","html-keyboard-response","264","1082672","0.0-8.0-1.5","FL","19l91w0hqd","1536","864","en","NE07SE16","null","","","","learningBlock2","","","","That was a tob.","null","","","","",""
"","html-keyboard-response","265","1083683","0.0-8.0-2.5","FL","19l91w0hqd","1536","864","en","NE07SE16","null","","","","learningBlock2","","","","<div style=""font-size:60px;""> </div>","null","FL","learning/Slide86.JPG","That was a tob.","",""
"","image-keyboard-response","266","1083863","0.0-8.0-0.6","FL","19l91w0hqd","1536","864","en","NE07SE16","null","","","","","","","","learning/Slide87.JPG","null","","","","",""
"","html-keyboard-response","267","1085031","0.0-8.0-1.6","FL","19l91w0hqd","1536","864","en","NE07SE16","null","","","","learningBlock2","","","","That was a wug.","null","","","","",""
"","html-keyboard-response","268","1086034","0.0-8.0-2.6","FL","19l91w0hqd","1536","864","en","NE07SE16","null","","","","learningBlock2","","","","<div style=""font-size:60px;""> </div>","null","FL","learning/Slide87.JPG","That was a wug.","",""
"","image-keyboard-response","269","1086218","0.0-8.0-0.7","FL","19l91w0hqd","1536","864","en","NE07SE16","null","","","","","","","","learning/Slide88.JPG","null","","","","",""
"","html-keyboard-response","270","1087374","0.0-8.0-1.7","FL","19l91w0hqd","1536","864","en","NE07SE16","null","","","","learningBlock2","","","","That was a tob.","null","","","","",""
"","html-keyboard-response","271","1088383","0.0-8.0-2.7","FL","19l91w0hqd","1536","864","en","NE07SE16","null","","","","learningBlock2","","","","<div style=""font-size:60px;""> </div>","null","FL","learning/Slide88.JPG","That was a tob.","",""
"","image-keyboard-response","272","1088569","0.0-8.0-0.8","FL","19l91w0hqd","1536","864","en","NE07SE16","null","","","","","","","","learning/Slide89.JPG","null","","","","",""
"","html-keyboard-response","273","1089734","0.0-8.0-1.8","FL","19l91w0hqd","1536","864","en","NE07SE16","null","","","","learningBlock2","","","","That was a bim.","null","","","","",""
"","html-keyboard-response","274","1090745","0.0-8.0-2.8","FL","19l91w0hqd","1536","864","en","NE07SE16","null","","","","learningBlock2","","","","<div style=""font-size:60px;""> </div>","null","FL","learning/Slide89.JPG","That was a bim.","",""
"","image-keyboard-response","275","1090925","0.0-8.0-0.9","FL","19l91w0hqd","1536","864","en","NE07SE16","null","","","","","","","","learning/Slide90.JPG","null","","","","",""
"","html-keyboard-response","276","1092091","0.0-8.0-1.9","FL","19l91w0hqd","1536","864","en","NE07SE16","null","","","","learningBlock2","","","","That was a dep.","null","","","","",""
"","html-keyboard-response","277","1093098","0.0-8.0-2.9","FL","19l91w0hqd","1536","864","en","NE07SE16","null","","","","learningBlock2","","","","<div style=""font-size:60px;""> </div>","null","FL","learning/Slide90.JPG","That was a dep.","",""
"","image-keyboard-response","278","1093278","0.0-8.0-0.10","FL","19l91w0hqd","1536","864","en","NE07SE16","null","","","","","","","","learning/Slide91.JPG","null","","","","",""
"","html-keyboard-response","279","1094441","0.0-8.0-1.10","FL","19l91w0hqd","1536","864","en","NE07SE16","null","","","","learningBlock2","","","","That was a wug.","null","","","","",""
"","html-keyboard-response","280","1095448","0.0-8.0-2.10","FL","19l91w0hqd","1536","864","en","NE07SE16","null","","","","learningBlock2","","","","<div style=""font-size:60px;""> </div>","null","FL","learning/Slide91.JPG","That was a wug.","",""
"","image-keyboard-response","281","1095628","0.0-8.0-0.11","FL","19l91w0hqd","1536","864","en","NE07SE16","null","","","","","","","","learning/Slide92.JPG","null","","","","",""
"","html-keyboard-response","282","1096799","0.0-8.0-1.11","FL","19l91w0hqd","1536","864","en","NE07SE16","null","","","","learningBlock2","","","","That was a tob.","null","","","","",""
"","html-keyboard-response","283","1097803","0.0-8.0-2.11","FL","19l91w0hqd","1536","864","en","NE07SE16","null","","","","learningBlock2","","","","<div style=""font-size:60px;""> </div>","null","FL","learning/Slide92.JPG","That was a tob.","",""
"","image-keyboard-response","284","1097983","0.0-8.0-0.12","FL","19l91w0hqd","1536","864","en","NE07SE16","null","","","","","","","","learning/Slide93.JPG","null","","","","",""
"","html-keyboard-response","285","1099148","0.0-8.0-1.12","FL","19l91w0hqd","1536","864","en","NE07SE16","null","","","","learningBlock2","","","","That was a bim.","null","","","","",""
"","html-keyboard-response","286","1100152","0.0-8.0-2.12","FL","19l91w0hqd","1536","864","en","NE07SE16","null","","","","learningBlock2","","","","<div style=""font-size:60px;""> </div>","null","FL","learning/Slide93.JPG","That was a bim.","",""
"","image-keyboard-response","287","1100332","0.0-8.0-0.13","FL","19l91w0hqd","1536","864","en","NE07SE16","null","","","","","","","","learning/Slide94.JPG","null","","","","",""
"","html-keyboard-response","288","1101497","0.0-8.0-1.13","FL","19l91w0hqd","1536","864","en","NE07SE16","null","","","","learningBlock2","","","","That was a tob.","null","","","","",""
"","html-keyboard-response","289","1102499","0.0-8.0-2.13","FL","19l91w0hqd","1536","864","en","NE07SE16","null","","","","learningBlock2","","","","<div style=""font-size:60px;""> </div>","null","FL","learning/Slide94.JPG","That was a tob.","",""
"","image-keyboard-response","290","1102678","0.0-8.0-0.14","FL","19l91w0hqd","1536","864","en","NE07SE16","null","","","","","","","","learning/Slide95.JPG","null","","","","",""
"","html-keyboard-response","291","1103845","0.0-8.0-1.14","FL","19l91w0hqd","1536","864","en","NE07SE16","null","","","","learningBlock2","","","","That was a wug.","null","","","","",""
"","html-keyboard-response","292","1104851","0.0-8.0-2.14","FL","19l91w0hqd","1536","864","en","NE07SE16","null","","","","learningBlock2","","","","<div style=""font-size:60px;""> </div>","null","FL","learning/Slide95.JPG","That was a wug.","",""
"","image-keyboard-response","293","1105036","0.0-8.0-0.15","FL","19l91w0hqd","1536","864","en","NE07SE16","null","","","","","","","","learning/Slide96.JPG","null","","","","",""
"","html-keyboard-response","294","1106198","0.0-8.0-1.15","FL","19l91w0hqd","1536","864","en","NE07SE16","null","","","","learningBlock2","","","","That was a tob.","null","","","","",""
"","html-keyboard-response","295","1107202","0.0-8.0-2.15","FL","19l91w0hqd","1536","864","en","NE07SE16","null","","","","learningBlock2","","","","<div style=""font-size:60px;""> </div>","null","FL","learning/Slide96.JPG","That was a tob.","",""
"","image-keyboard-response","296","1107383","0.0-8.0-0.16","FL","19l91w0hqd","1536","864","en","NE07SE16","null","","","","","","","","learning/Slide97.JPG","null","","","","",""
"","html-keyboard-response","297","1108552","0.0-8.0-1.16","FL","19l91w0hqd","1536","864","en","NE07SE16","null","","","","learningBlock2","","","","That was a dep.","null","","","","",""
"","html-keyboard-response","298","1109559","0.0-8.0-2.16","FL","19l91w0hqd","1536","864","en","NE07SE16","null","","","","learningBlock2","","","","<div style=""font-size:60px;""> </div>","null","FL","learning/Slide97.JPG","That was a dep.","",""
"","image-keyboard-response","299","1109738","0.0-8.0-0.17","FL","19l91w0hqd","1536","864","en","NE07SE16","null","","","","","","","","learning/Slide98.JPG","null","","","","",""
"","html-keyboard-response","300","1110896","0.0-8.0-1.17","FL","19l91w0hqd","1536","864","en","NE07SE16","null","","","","learningBlock2","","","","That was a bim.","null","","","","",""
"","html-keyboard-response","301","1111907","0.0-8.0-2.17","FL","19l91w0hqd","1536","864","en","NE07SE16","null","","","","learningBlock2","","","","<div style=""font-size:60px;""> </div>","null","FL","learning/Slide98.JPG","That was a bim.","",""
"","image-keyboard-response","302","1112087","0.0-8.0-0.18","FL","19l91w0hqd","1536","864","en","NE07SE16","null","","","","","","","","learning/Slide99.JPG","null","","","","",""
"","html-keyboard-response","303","1113252","0.0-8.0-1.18","FL","19l91w0hqd","1536","864","en","NE07SE16","null","","","","learningBlock2","","","","That was a dep.","null","","","","",""
"","html-keyboard-response","304","1114264","0.0-8.0-2.18","FL","19l91w0hqd","1536","864","en","NE07SE16","null","","","","learningBlock2","","","","<div style=""font-size:60px;""> </div>","null","FL","learning/Slide99.JPG","That was a dep.","",""
"","image-keyboard-response","305","1114444","0.0-8.0-0.19","FL","19l91w0hqd","1536","864","en","NE07SE16","null","","","","","","","","learning/Slide100.JPG","null","","","","",""
"","html-keyboard-response","306","1115601","0.0-8.0-1.19","FL","19l91w0hqd","1536","864","en","NE07SE16","null","","","","learningBlock2","","","","That was a bim.","null","","","","",""
"","html-keyboard-response","307","1116606","0.0-8.0-2.19","FL","19l91w0hqd","1536","864","en","NE07SE16","null","","","","learningBlock2","","","","<div style=""font-size:60px;""> </div>","null","FL","learning/Slide100.JPG","That was a bim.","",""
"","image-keyboard-response","308","1116784","0.0-8.0-0.20","FL","19l91w0hqd","1536","864","en","NE07SE16","null","","","","","","","","learning/Slide101.JPG","null","","","","",""
"","html-keyboard-response","309","1117946","0.0-8.0-1.20","FL","19l91w0hqd","1536","864","en","NE07SE16","null","","","","learningBlock2","","","","That was a tob.","null","","","","",""
"","html-keyboard-response","310","1118949","0.0-8.0-2.20","FL","19l91w0hqd","1536","864","en","NE07SE16","null","","","","learningBlock2","","","","<div style=""font-size:60px;""> </div>","null","FL","learning/Slide101.JPG","That was a tob.","",""
"","image-keyboard-response","311","1119132","0.0-8.0-0.21","FL","19l91w0hqd","1536","864","en","NE07SE16","null","","","","","","","","learning/Slide102.JPG","null","","","","",""
"","html-keyboard-response","312","1120288","0.0-8.0-1.21","FL","19l91w0hqd","1536","864","en","NE07SE16","null","","","","learningBlock2","","","","That was a bim.","null","","","","",""
"","html-keyboard-response","313","1121298","0.0-8.0-2.21","FL","19l91w0hqd","1536","864","en","NE07SE16","null","","","","learningBlock2","","","","<div style=""font-size:60px;""> </div>","null","FL","learning/Slide102.JPG","That was a bim.","",""
"","image-keyboard-response","314","1121477","0.0-8.0-0.22","FL","19l91w0hqd","1536","864","en","NE07SE16","null","","","","","","","","learning/Slide103.JPG","null","","","","",""
"","html-keyboard-response","315","1122642","0.0-8.0-1.22","FL","19l91w0hqd","1536","864","en","NE07SE16","null","","","","learningBlock2","","","","That was a dep.","null","","","","",""
"","html-keyboard-response","316","1123648","0.0-8.0-2.22","FL","19l91w0hqd","1536","864","en","NE07SE16","null","","","","learningBlock2","","","","<div style=""font-size:60px;""> </div>","null","FL","learning/Slide103.JPG","That was a dep.","",""
"","image-keyboard-response","317","1123838","0.0-8.0-0.23","FL","19l91w0hqd","1536","864","en","NE07SE16","null","","","","","","","","learning/Slide104.JPG","null","","","","",""
"","html-keyboard-response","318","1125004","0.0-8.0-1.23","FL","19l91w0hqd","1536","864","en","NE07SE16","null","","","","learningBlock2","","","","That was a tob.","null","","","","",""
"","html-keyboard-response","319","1126013","0.0-8.0-2.23","FL","19l91w0hqd","1536","864","en","NE07SE16","null","","","","learningBlock2","","","","<div style=""font-size:60px;""> </div>","null","FL","learning/Slide104.JPG","That was a tob.","",""
"","image-keyboard-response","320","1126192","0.0-8.0-0.24","FL","19l91w0hqd","1536","864","en","NE07SE16","null","","","","","","","","learning/Slide105.JPG","null","","","","",""
"","html-keyboard-response","321","1127347","0.0-8.0-1.24","FL","19l91w0hqd","1536","864","en","NE07SE16","null","","","","learningBlock2","","","","That was a dep.","null","","","","",""
"","html-keyboard-response","322","1128359","0.0-8.0-2.24","FL","19l91w0hqd","1536","864","en","NE07SE16","null","","","","learningBlock2","","","","<div style=""font-size:60px;""> </div>","null","FL","learning/Slide105.JPG","That was a dep.","",""
"","image-keyboard-response","323","1128537","0.0-8.0-0.25","FL","19l91w0hqd","1536","864","en","NE07SE16","null","","","","","","","","learning/Slide106.JPG","null","","","","",""
"","html-keyboard-response","324","1129703","0.0-8.0-1.25","FL","19l91w0hqd","1536","864","en","NE07SE16","null","","","","learningBlock2","","","","That was a wug.","null","","","","",""
"","html-keyboard-response","325","1130706","0.0-8.0-2.25","FL","19l91w0hqd","1536","864","en","NE07SE16","null","","","","learningBlock2","","","","<div style=""font-size:60px;""> </div>","null","FL","learning/Slide106.JPG","That was a wug.","",""
"","image-keyboard-response","326","1130885","0.0-8.0-0.26","FL","19l91w0hqd","1536","864","en","NE07SE16","null","","","","","","","","learning/Slide107.JPG","null","","","","",""
"","html-keyboard-response","327","1132043","0.0-8.0-1.26","FL","19l91w0hqd","1536","864","en","NE07SE16","null","","","","learningBlock2","","","","That was a bim.","null","","","","",""
"","html-keyboard-response","328","1133046","0.0-8.0-2.26","FL","19l91w0hqd","1536","864","en","NE07SE16","null","","","","learningBlock2","","","","<div style=""font-size:60px;""> </div>","null","FL","learning/Slide107.JPG","That was a bim.","",""
"","image-keyboard-response","329","1133223","0.0-8.0-0.27","FL","19l91w0hqd","1536","864","en","NE07SE16","null","","","","","","","","learning/Slide108.JPG","null","","","","",""
"","html-keyboard-response","330","1134383","0.0-8.0-1.27","FL","19l91w0hqd","1536","864","en","NE07SE16","null","","","","learningBlock2","","","","That was a dep.","null","","","","",""
"","html-keyboard-response","331","1135394","0.0-8.0-2.27","FL","19l91w0hqd","1536","864","en","NE07SE16","null","","","","learningBlock2","","","","<div style=""font-size:60px;""> </div>","null","FL","learning/Slide108.JPG","That was a dep.","",""
"","image-keyboard-response","332","1135573","0.0-8.0-0.28","FL","19l91w0hqd","1536","864","en","NE07SE16","null","","","","","","","","learning/Slide109.JPG","null","","","","",""
"","html-keyboard-response","333","1136742","0.0-8.0-1.28","FL","19l91w0hqd","1536","864","en","NE07SE16","null","","","","learningBlock2","","","","That was a wug.","null","","","","",""
"","html-keyboard-response","334","1137747","0.0-8.0-2.28","FL","19l91w0hqd","1536","864","en","NE07SE16","null","","","","learningBlock2","","","","<div style=""font-size:60px;""> </div>","null","FL","learning/Slide109.JPG","That was a wug.","",""
"","image-keyboard-response","335","1137932","0.0-8.0-0.29","FL","19l91w0hqd","1536","864","en","NE07SE16","null","","","","","","","","learning/Slide110.JPG","null","","","","",""
"","html-keyboard-response","336","1139094","0.0-8.0-1.29","FL","19l91w0hqd","1536","864","en","NE07SE16","null","","","","learningBlock2","","","","That was a bim.","null","","","","",""
"","html-keyboard-response","337","1140099","0.0-8.0-2.29","FL","19l91w0hqd","1536","864","en","NE07SE16","null","","","","learningBlock2","","","","<div style=""font-size:60px;""> </div>","null","FL","learning/Slide110.JPG","That was a bim.","",""
"","image-keyboard-response","338","1140284","0.0-8.0-0.30","FL","19l91w0hqd","1536","864","en","NE07SE16","null","","","","","","","","learning/Slide111.JPG","null","","","","",""
"","html-keyboard-response","339","1141445","0.0-8.0-1.30","FL","19l91w0hqd","1536","864","en","NE07SE16","null","","","","learningBlock2","","","","That was a tob.","null","","","","",""
"","html-keyboard-response","340","1142455","0.0-8.0-2.30","FL","19l91w0hqd","1536","864","en","NE07SE16","null","","","","learningBlock2","","","","<div style=""font-size:60px;""> </div>","null","FL","learning/Slide111.JPG","That was a tob.","",""
"","image-keyboard-response","341","1142633","0.0-8.0-0.31","FL","19l91w0hqd","1536","864","en","NE07SE16","null","","","","","","","","learning/Slide112.JPG","null","","","","",""
"","html-keyboard-response","342","1143804","0.0-8.0-1.31","FL","19l91w0hqd","1536","864","en","NE07SE16","null","","","","learningBlock2","","","","That was a wug.","null","","","","",""
"","html-keyboard-response","343","1144817","0.0-8.0-2.31","FL","19l91w0hqd","1536","864","en","NE07SE16","null","","","","learningBlock2","","","","<div style=""font-size:60px;""> </div>","null","FL","learning/Slide112.JPG","That was a wug.","",""
"","image-keyboard-response","344","1144995","0.0-8.0-0.32","FL","19l91w0hqd","1536","864","en","NE07SE16","null","","","","","","","","learning/Slide113.JPG","null","","","","",""
"","html-keyboard-response","345","1146155","0.0-8.0-1.32","FL","19l91w0hqd","1536","864","en","NE07SE16","null","","","","learningBlock2","","","","That was a tob.","null","","","","",""
"","html-keyboard-response","346","1147159","0.0-8.0-2.32","FL","19l91w0hqd","1536","864","en","NE07SE16","null","","","","learningBlock2","","","","<div style=""font-size:60px;""> </div>","null","FL","learning/Slide113.JPG","That was a tob.","",""
"","image-keyboard-response","347","1147337","0.0-8.0-0.33","FL","19l91w0hqd","1536","864","en","NE07SE16","null","","","","","","","","learning/Slide114.JPG","null","","","","",""
"","html-keyboard-response","348","1148503","0.0-8.0-1.33","FL","19l91w0hqd","1536","864","en","NE07SE16","null","","","","learningBlock2","","","","That was a wug.","null","","","","",""
"","html-keyboard-response","349","1149517","0.0-8.0-2.33","FL","19l91w0hqd","1536","864","en","NE07SE16","null","","","","learningBlock2","","","","<div style=""font-size:60px;""> </div>","null","FL","learning/Slide114.JPG","That was a wug.","",""
"","image-keyboard-response","350","1149698","0.0-8.0-0.34","FL","19l91w0hqd","1536","864","en","NE07SE16","null","","","","","","","","learning/Slide115.JPG","null","","","","",""
"","html-keyboard-response","351","1150873","0.0-8.0-1.34","FL","19l91w0hqd","1536","864","en","NE07SE16","null","","","","learningBlock2","","","","That was a bim.","null","","","","",""
"","html-keyboard-response","352","1151879","0.0-8.0-2.34","FL","19l91w0hqd","1536","864","en","NE07SE16","null","","","","learningBlock2","","","","<div style=""font-size:60px;""> </div>","null","FL","learning/Slide115.JPG","That was a bim.","",""
"","image-keyboard-response","353","1152058","0.0-8.0-0.35","FL","19l91w0hqd","1536","864","en","NE07SE16","null","","","","","","","","learning/Slide116.JPG","null","","","","",""
"","html-keyboard-response","354","1153213","0.0-8.0-1.35","FL","19l91w0hqd","1536","864","en","NE07SE16","null","","","","learningBlock2","","","","That was a dep.","null","","","","",""
"","html-keyboard-response","355","1154217","0.0-8.0-2.35","FL","19l91w0hqd","1536","864","en","NE07SE16","null","","","","learningBlock2","","","","<div style=""font-size:60px;""> </div>","null","FL","learning/Slide116.JPG","That was a dep.","",""
"","image-keyboard-response","356","1154395","0.0-8.0-0.36","FL","19l91w0hqd","1536","864","en","NE07SE16","null","","","","","","","","learning/Slide117.JPG","null","","","","",""
"","html-keyboard-response","357","1155554","0.0-8.0-1.36","FL","19l91w0hqd","1536","864","en","NE07SE16","null","","","","learningBlock2","","","","That was a tob.","null","","","","",""
"","html-keyboard-response","358","1156561","0.0-8.0-2.36","FL","19l91w0hqd","1536","864","en","NE07SE16","null","","","","learningBlock2","","","","<div style=""font-size:60px;""> </div>","null","FL","learning/Slide117.JPG","That was a tob.","",""
"","image-keyboard-response","359","1156745","0.0-8.0-0.37","FL","19l91w0hqd","1536","864","en","NE07SE16","null","","","","","","","","learning/Slide118.JPG","null","","","","",""
"","html-keyboard-response","360","1157912","0.0-8.0-1.37","FL","19l91w0hqd","1536","864","en","NE07SE16","null","","","","learningBlock2","","","","That was a dep.","null","","","","",""
"","html-keyboard-response","361","1158915","0.0-8.0-2.37","FL","19l91w0hqd","1536","864","en","NE07SE16","null","","","","learningBlock2","","","","<div style=""font-size:60px;""> </div>","null","FL","learning/Slide118.JPG","That was a dep.","",""
"","image-keyboard-response","362","1159098","0.0-8.0-0.38","FL","19l91w0hqd","1536","864","en","NE07SE16","null","","","","","","","","learning/Slide119.JPG","null","","","","",""
"","html-keyboard-response","363","1160261","0.0-8.0-1.38","FL","19l91w0hqd","1536","864","en","NE07SE16","null","","","","learningBlock2","","","","That was a wug.","null","","","","",""
"","html-keyboard-response","364","1161267","0.0-8.0-2.38","FL","19l91w0hqd","1536","864","en","NE07SE16","null","","","","learningBlock2","","","","<div style=""font-size:60px;""> </div>","null","FL","learning/Slide119.JPG","That was a wug.","",""
"","image-keyboard-response","365","1161445","0.0-8.0-0.39","FL","19l91w0hqd","1536","864","en","NE07SE16","null","","","","","","","","learning/Slide120.JPG","null","","","","",""
"","html-keyboard-response","366","1162611","0.0-8.0-1.39","FL","19l91w0hqd","1536","864","en","NE07SE16","null","","","","learningBlock2","","","","That was a dep.","null","","","","",""
"","html-keyboard-response","367","1163621","0.0-8.0-2.39","FL","19l91w0hqd","1536","864","en","NE07SE16","null","","","","learningBlock2","","","","<div style=""font-size:60px;""> </div>","null","FL","learning/Slide120.JPG","That was a dep.","",""
"","image-keyboard-response","368","1163806","0.0-8.0-0.40","FL","19l91w0hqd","1536","864","en","NE07SE16","null","","","","","","","","learning/Slide121.JPG","null","","","","",""
"","html-keyboard-response","369","1164965","0.0-8.0-1.40","FL","19l91w0hqd","1536","864","en","NE07SE16","null","","","","learningBlock2","","","","That was a bim.","null","","","","",""
"","html-keyboard-response","370","1165972","0.0-8.0-2.40","FL","19l91w0hqd","1536","864","en","NE07SE16","null","","","","learningBlock2","","","","<div style=""font-size:60px;""> </div>","null","FL","learning/Slide121.JPG","That was a bim.","",""
"","image-keyboard-response","371","1166152","0.0-8.0-0.41","FL","19l91w0hqd","1536","864","en","NE07SE16","null","","","","","","","","learning/Slide122.JPG","null","","","","",""
"","html-keyboard-response","372","1167324","0.0-8.0-1.41","FL","19l91w0hqd","1536","864","en","NE07SE16","null","","","","learningBlock2","","","","That was a wug.","null","","","","",""
"","html-keyboard-response","373","1168328","0.0-8.0-2.41","FL","19l91w0hqd","1536","864","en","NE07SE16","null","","","","learningBlock2","","","","<div style=""font-size:60px;""> </div>","null","FL","learning/Slide122.JPG","That was a wug.","",""
"","image-keyboard-response","374","1168507","0.0-8.0-0.42","FL","19l91w0hqd","1536","864","en","NE07SE16","null","","","","","","","","learning/Slide123.JPG","null","","","","",""
"","html-keyboard-response","375","1169669","0.0-8.0-1.42","FL","19l91w0hqd","1536","864","en","NE07SE16","null","","","","learningBlock2","","","","That was a bim.","null","","","","",""
"","html-keyboard-response","376","1170676","0.0-8.0-2.42","FL","19l91w0hqd","1536","864","en","NE07SE16","null","","","","learningBlock2","","","","<div style=""font-size:60px;""> </div>","null","FL","learning/Slide123.JPG","That was a bim.","",""
"","image-keyboard-response","377","1170855","0.0-8.0-0.43","FL","19l91w0hqd","1536","864","en","NE07SE16","null","","","","","","","","learning/Slide124.JPG","null","","","","",""
"","html-keyboard-response","378","1172024","0.0-8.0-1.43","FL","19l91w0hqd","1536","864","en","NE07SE16","null","","","","learningBlock2","","","","That was a tob.","null","","","","",""
"","html-keyboard-response","379","1173028","0.0-8.0-2.43","FL","19l91w0hqd","1536","864","en","NE07SE16","null","","","","learningBlock2","","","","<div style=""font-size:60px;""> </div>","null","FL","learning/Slide124.JPG","That was a tob.","",""
"","image-keyboard-response","380","1173214","0.0-8.0-0.44","FL","19l91w0hqd","1536","864","en","NE07SE16","null","","","","","","","","learning/Slide125.JPG","null","","","","",""
"","html-keyboard-response","381","1174368","0.0-8.0-1.44","FL","19l91w0hqd","1536","864","en","NE07SE16","null","","","","learningBlock2","","","","That was a bim.","null","","","","",""
"","html-keyboard-response","382","1175373","0.0-8.0-2.44","FL","19l91w0hqd","1536","864","en","NE07SE16","null","","","","learningBlock2","","","","<div style=""font-size:60px;""> </div>","null","FL","learning/Slide125.JPG","That was a bim.","",""
"","image-keyboard-response","383","1175552","0.0-8.0-0.45","FL","19l91w0hqd","1536","864","en","NE07SE16","null","","","","","","","","learning/Slide126.JPG","null","","","","",""
"","html-keyboard-response","384","1176714","0.0-8.0-1.45","FL","19l91w0hqd","1536","864","en","NE07SE16","null","","","","learningBlock2","","","","That was a tob.","null","","","","",""
"","html-keyboard-response","385","1177718","0.0-8.0-2.45","FL","19l91w0hqd","1536","864","en","NE07SE16","null","","","","learningBlock2","","","","<div style=""font-size:60px;""> </div>","null","FL","learning/Slide126.JPG","That was a tob.","",""
"","image-keyboard-response","386","1177898","0.0-8.0-0.46","FL","19l91w0hqd","1536","864","en","NE07SE16","null","","","","","","","","learning/Slide127.JPG","null","","","","",""
"","html-keyboard-response","387","1179063","0.0-8.0-1.46","FL","19l91w0hqd","1536","864","en","NE07SE16","null","","","","learningBlock2","","","","That was a dep.","null","","","","",""
"","html-keyboard-response","388","1180079","0.0-8.0-2.46","FL","19l91w0hqd","1536","864","en","NE07SE16","null","","","","learningBlock2","","","","<div style=""font-size:60px;""> </div>","null","FL","learning/Slide127.JPG","That was a dep.","",""
"","image-keyboard-response","389","1180258","0.0-8.0-0.47","FL","19l91w0hqd","1536","864","en","NE07SE16","null","","","","","","","","learning/Slide128.JPG","null","","","","",""
"","html-keyboard-response","390","1181432","0.0-8.0-1.47","FL","19l91w0hqd","1536","864","en","NE07SE16","null","","","","learningBlock2","","","","That was a wug.","null","","","","",""
"","html-keyboard-response","391","1182443","0.0-8.0-2.47","FL","19l91w0hqd","1536","864","en","NE07SE16","null","","","","learningBlock2","","","","<div style=""font-size:60px;""> </div>","null","FL","learning/Slide128.JPG","That was a wug.","",""
"","image-keyboard-response","392","1182622","0.0-8.0-0.48","FL","19l91w0hqd","1536","864","en","NE07SE16","null","","","","","","","","learning/Slide129.JPG","null","","","","",""
"","html-keyboard-response","393","1183788","0.0-8.0-1.48","FL","19l91w0hqd","1536","864","en","NE07SE16","null","","","","learningBlock2","","","","That was a tob.","null","","","","",""
"","html-keyboard-response","394","1184797","0.0-8.0-2.48","FL","19l91w0hqd","1536","864","en","NE07SE16","null","","","","learningBlock2","","","","<div style=""font-size:60px;""> </div>","null","FL","learning/Slide129.JPG","That was a tob.","",""
"","image-keyboard-response","395","1184984","0.0-8.0-0.49","FL","19l91w0hqd","1536","864","en","NE07SE16","null","","","","","","","","learning/Slide130.JPG","null","","","","",""
"","html-keyboard-response","396","1186149","0.0-8.0-1.49","FL","19l91w0hqd","1536","864","en","NE07SE16","null","","","","learningBlock2","","","","That was a wug.","null","","","","",""
"","html-keyboard-response","397","1187153","0.0-8.0-2.49","FL","19l91w0hqd","1536","864","en","NE07SE16","null","","","","learningBlock2","","","","<div style=""font-size:60px;""> </div>","null","FL","learning/Slide130.JPG","That was a wug.","",""
"","image-keyboard-response","398","1187332","0.0-8.0-0.50","FL","19l91w0hqd","1536","864","en","NE07SE16","null","","","","","","","","learning/Slide131.JPG","null","","","","",""
"","html-keyboard-response","399","1188487","0.0-8.0-1.50","FL","19l91w0hqd","1536","864","en","NE07SE16","null","","","","learningBlock2","","","","That was a bim.","null","","","","",""
"","html-keyboard-response","400","1189495","0.0-8.0-2.50","FL","19l91w0hqd","1536","864","en","NE07SE16","null","","","","learningBlock2","","","","<div style=""font-size:60px;""> </div>","null","FL","learning/Slide131.JPG","That was a bim.","",""
"","image-keyboard-response","401","1189682","0.0-8.0-0.51","FL","19l91w0hqd","1536","864","en","NE07SE16","null","","","","","","","","learning/Slide132.JPG","null","","","","",""
"","html-keyboard-response","402","1190853","0.0-8.0-1.51","FL","19l91w0hqd","1536","864","en","NE07SE16","null","","","","learningBlock2","","","","That was a dep.","null","","","","",""
"","html-keyboard-response","403","1191865","0.0-8.0-2.51","FL","19l91w0hqd","1536","864","en","NE07SE16","null","","","","learningBlock2","","","","<div style=""font-size:60px;""> </div>","null","FL","learning/Slide132.JPG","That was a dep.","",""
"","image-keyboard-response","404","1192051","0.0-8.0-0.52","FL","19l91w0hqd","1536","864","en","NE07SE16","null","","","","","","","","learning/Slide133.JPG","null","","","","",""
"","html-keyboard-response","405","1193216","0.0-8.0-1.52","FL","19l91w0hqd","1536","864","en","NE07SE16","null","","","","learningBlock2","","","","That was a tob.","null","","","","",""
"","html-keyboard-response","406","1194225","0.0-8.0-2.52","FL","19l91w0hqd","1536","864","en","NE07SE16","null","","","","learningBlock2","","","","<div style=""font-size:60px;""> </div>","null","FL","learning/Slide133.JPG","That was a tob.","",""
"","image-keyboard-response","407","1194408","0.0-8.0-0.53","FL","19l91w0hqd","1536","864","en","NE07SE16","null","","","","","","","","learning/Slide134.JPG","null","","","","",""
"","html-keyboard-response","408","1195570","0.0-8.0-1.53","FL","19l91w0hqd","1536","864","en","NE07SE16","null","","","","learningBlock2","","","","That was a dep.","null","","","","",""
"","html-keyboard-response","409","1196579","0.0-8.0-2.53","FL","19l91w0hqd","1536","864","en","NE07SE16","null","","","","learningBlock2","","","","<div style=""font-size:60px;""> </div>","null","FL","learning/Slide134.JPG","That was a dep.","",""
"","image-keyboard-response","410","1196766","0.0-8.0-0.54","FL","19l91w0hqd","1536","864","en","NE07SE16","null","","","","","","","","learning/Slide135.JPG","null","","","","",""
"","html-keyboard-response","411","1197937","0.0-8.0-1.54","FL","19l91w0hqd","1536","864","en","NE07SE16","null","","","","learningBlock2","","","","That was a tob.","null","","","","",""
"","html-keyboard-response","412","1198942","0.0-8.0-2.54","FL","19l91w0hqd","1536","864","en","NE07SE16","null","","","","learningBlock2","","","","<div style=""font-size:60px;""> </div>","null","FL","learning/Slide135.JPG","That was a tob.","",""
"","image-keyboard-response","413","1199124","0.0-8.0-0.55","FL","19l91w0hqd","1536","864","en","NE07SE16","null","","","","","","","","learning/Slide136.JPG","null","","","","",""
"","html-keyboard-response","414","1200301","0.0-8.0-1.55","FL","19l91w0hqd","1536","864","en","NE07SE16","null","","","","learningBlock2","","","","That was a wug.","null","","","","",""
"","html-keyboard-response","415","1201311","0.0-8.0-2.55","FL","19l91w0hqd","1536","864","en","NE07SE16","null","","","","learningBlock2","","","","<div style=""font-size:60px;""> </div>","null","FL","learning/Slide136.JPG","That was a wug.","",""
"","image-keyboard-response","416","1201492","0.0-8.0-0.56","FL","19l91w0hqd","1536","864","en","NE07SE16","null","","","","","","","","learning/Slide137.JPG","null","","","","",""
"","html-keyboard-response","417","1202665","0.0-8.0-1.56","FL","19l91w0hqd","1536","864","en","NE07SE16","null","","","","learningBlock2","","","","That was a tob.","null","","","","",""
"","html-keyboard-response","418","1203672","0.0-8.0-2.56","FL","19l91w0hqd","1536","864","en","NE07SE16","null","","","","learningBlock2","","","","<div style=""font-size:60px;""> </div>","null","FL","learning/Slide137.JPG","That was a tob.","",""
"","image-keyboard-response","419","1203858","0.0-8.0-0.57","FL","19l91w0hqd","1536","864","en","NE07SE16","null","","","","","","","","learning/Slide138.JPG","null","","","","",""
"","html-keyboard-response","420","1205027","0.0-8.0-1.57","FL","19l91w0hqd","1536","864","en","NE07SE16","null","","","","learningBlock2","","","","That was a bim.","null","","","","",""
"","html-keyboard-response","421","1206044","0.0-8.0-2.57","FL","19l91w0hqd","1536","864","en","NE07SE16","null","","","","learningBlock2","","","","<div style=""font-size:60px;""> </div>","null","FL","learning/Slide138.JPG","That was a bim.","",""
"","image-keyboard-response","422","1206224","0.0-8.0-0.58","FL","19l91w0hqd","1536","864","en","NE07SE16","null","","","","","","","","learning/Slide139.JPG","null","","","","",""
"","html-keyboard-response","423","1207385","0.0-8.0-1.58","FL","19l91w0hqd","1536","864","en","NE07SE16","null","","","","learningBlock2","","","","That was a wug.","null","","","","",""
"","html-keyboard-response","424","1208395","0.0-8.0-2.58","FL","19l91w0hqd","1536","864","en","NE07SE16","null","","","","learningBlock2","","","","<div style=""font-size:60px;""> </div>","null","FL","learning/Slide139.JPG","That was a wug.","",""
"","image-keyboard-response","425","1208579","0.0-8.0-0.59","FL","19l91w0hqd","1536","864","en","NE07SE16","null","","","","","","","","learning/Slide140.JPG","null","","","","",""
"","html-keyboard-response","426","1209744","0.0-8.0-1.59","FL","19l91w0hqd","1536","864","en","NE07SE16","null","","","","learningBlock2","","","","That was a dep.","null","","","","",""
"","html-keyboard-response","427","1210747","0.0-8.0-2.59","FL","19l91w0hqd","1536","864","en","NE07SE16","null","","","","learningBlock2","","","","<div style=""font-size:60px;""> </div>","null","FL","learning/Slide140.JPG","That was a dep.","",""
"","image-keyboard-response","428","1210927","0.0-8.0-0.60","FL","19l91w0hqd","1536","864","en","NE07SE16","null","","","","","","","","learning/Slide141.JPG","null","","","","",""
"","html-keyboard-response","429","1212093","0.0-8.0-1.60","FL","19l91w0hqd","1536","864","en","NE07SE16","null","","","","learningBlock2","","","","That was a tob.","null","","","","",""
"","html-keyboard-response","430","1213102","0.0-8.0-2.60","FL","19l91w0hqd","1536","864","en","NE07SE16","null","","","","learningBlock2","","","","<div style=""font-size:60px;""> </div>","null","FL","learning/Slide141.JPG","That was a tob.","",""
"","image-keyboard-response","431","1213281","0.0-8.0-0.61","FL","19l91w0hqd","1536","864","en","NE07SE16","null","","","","","","","","learning/Slide142.JPG","null","","","","",""
"","html-keyboard-response","432","1214453","0.0-8.0-1.61","FL","19l91w0hqd","1536","864","en","NE07SE16","null","","","","learningBlock2","","","","That was a wug.","null","","","","",""
"","html-keyboard-response","433","1215456","0.0-8.0-2.61","FL","19l91w0hqd","1536","864","en","NE07SE16","null","","","","learningBlock2","","","","<div style=""font-size:60px;""> </div>","null","FL","learning/Slide142.JPG","That was a wug.","",""
"","image-keyboard-response","434","1215642","0.0-8.0-0.62","FL","19l91w0hqd","1536","864","en","NE07SE16","null","","","","","","","","learning/Slide143.JPG","null","","","","",""
"","html-keyboard-response","435","1216807","0.0-8.0-1.62","FL","19l91w0hqd","1536","864","en","NE07SE16","null","","","","learningBlock2","","","","That was a bim.","null","","","","",""
"","html-keyboard-response","436","1217817","0.0-8.0-2.62","FL","19l91w0hqd","1536","864","en","NE07SE16","null","","","","learningBlock2","","","","<div style=""font-size:60px;""> </div>","null","FL","learning/Slide143.JPG","That was a bim.","",""
"","image-keyboard-response","437","1218006","0.0-8.0-0.63","FL","19l91w0hqd","1536","864","en","NE07SE16","null","","","","","","","","learning/Slide144.JPG","null","","","","",""
"","html-keyboard-response","438","1219178","0.0-8.0-1.63","FL","19l91w0hqd","1536","864","en","NE07SE16","null","","","","learningBlock2","","","","That was a dep.","null","","","","",""
"","html-keyboard-response","439","1220186","0.0-8.0-2.63","FL","19l91w0hqd","1536","864","en","NE07SE16","null","","","","learningBlock2","","","","<div style=""font-size:60px;""> </div>","null","FL","learning/Slide144.JPG","That was a dep.","",""
"","image-keyboard-response","440","1220367","0.0-8.0-0.64","FL","19l91w0hqd","1536","864","en","NE07SE16","null","","","","","","","","learning/Slide145.JPG","null","","","","",""
"","html-keyboard-response","441","1221526","0.0-8.0-1.64","FL","19l91w0hqd","1536","864","en","NE07SE16","null","","","","learningBlock2","","","","That was a bim.","null","","","","",""
"","html-keyboard-response","442","1222535","0.0-8.0-2.64","FL","19l91w0hqd","1536","864","en","NE07SE16","null","","","","learningBlock2","","","","<div style=""font-size:60px;""> </div>","null","FL","learning/Slide145.JPG","That was a bim.","",""
"","image-keyboard-response","443","1222719","0.0-8.0-0.65","FL","19l91w0hqd","1536","864","en","NE07SE16","null","","","","","","","","learning/Slide146.JPG","null","","","","",""
"","html-keyboard-response","444","1223885","0.0-8.0-1.65","FL","19l91w0hqd","1536","864","en","NE07SE16","null","","","","learningBlock2","","","","That was a tob.","null","","","","",""
"","html-keyboard-response","445","1224892","0.0-8.0-2.65","FL","19l91w0hqd","1536","864","en","NE07SE16","null","","","","learningBlock2","","","","<div style=""font-size:60px;""> </div>","null","FL","learning/Slide146.JPG","That was a tob.","",""
"","image-keyboard-response","446","1225074","0.0-8.0-0.66","FL","19l91w0hqd","1536","864","en","NE07SE16","null","","","","","","","","learning/Slide147.JPG","null","","","","",""
"","html-keyboard-response","447","1226236","0.0-8.0-1.66","FL","19l91w0hqd","1536","864","en","NE07SE16","null","","","","learningBlock2","","","","That was a wug.","null","","","","",""
"","html-keyboard-response","448","1227243","0.0-8.0-2.66","FL","19l91w0hqd","1536","864","en","NE07SE16","null","","","","learningBlock2","","","","<div style=""font-size:60px;""> </div>","null","FL","learning/Slide147.JPG","That was a wug.","",""
"","image-keyboard-response","449","1227427","0.0-8.0-0.67","FL","19l91w0hqd","1536","864","en","NE07SE16","null","","","","","","","","learning/Slide148.JPG","null","","","","",""
"","html-keyboard-response","450","1228594","0.0-8.0-1.67","FL","19l91w0hqd","1536","864","en","NE07SE16","null","","","","learningBlock2","","","","That was a bim.","null","","","","",""
"","html-keyboard-response","451","1229602","0.0-8.0-2.67","FL","19l91w0hqd","1536","864","en","NE07SE16","null","","","","learningBlock2","","","","<div style=""font-size:60px;""> </div>","null","FL","learning/Slide148.JPG","That was a bim.","",""
"","image-keyboard-response","452","1229785","0.0-8.0-0.68","FL","19l91w0hqd","1536","864","en","NE07SE16","null","","","","","","","","learning/Slide149.JPG","null","","","","",""
"","html-keyboard-response","453","1230948","0.0-8.0-1.68","FL","19l91w0hqd","1536","864","en","NE07SE16","null","","","","learningBlock2","","","","That was a dep.","null","","","","",""
"","html-keyboard-response","454","1231956","0.0-8.0-2.68","FL","19l91w0hqd","1536","864","en","NE07SE16","null","","","","learningBlock2","","","","<div style=""font-size:60px;""> </div>","null","FL","learning/Slide149.JPG","That was a dep.","",""
"","image-keyboard-response","455","1232140","0.0-8.0-0.69","FL","19l91w0hqd","1536","864","en","NE07SE16","null","","","","","","","","learning/Slide150.JPG","null","","","","",""
"","html-keyboard-response","456","1233304","0.0-8.0-1.69","FL","19l91w0hqd","1536","864","en","NE07SE16","null","","","","learningBlock2","","","","That was a wug.","null","","","","",""
"","html-keyboard-response","457","1234323","0.0-8.0-2.69","FL","19l91w0hqd","1536","864","en","NE07SE16","null","","","","learningBlock2","","","","<div style=""font-size:60px;""> </div>","null","FL","learning/Slide150.JPG","That was a wug.","",""
"","image-keyboard-response","458","1234508","0.0-8.0-0.70","FL","19l91w0hqd","1536","864","en","NE07SE16","null","","","","","","","","learning/Slide151.JPG","null","","","","",""
"","html-keyboard-response","459","1235675","0.0-8.0-1.70","FL","19l91w0hqd","1536","864","en","NE07SE16","null","","","","learningBlock2","","","","That was a dep.","null","","","","",""
"","html-keyboard-response","460","1236686","0.0-8.0-2.70","FL","19l91w0hqd","1536","864","en","NE07SE16","null","","","","learningBlock2","","","","<div style=""font-size:60px;""> </div>","null","FL","learning/Slide151.JPG","That was a dep.","",""
"","image-keyboard-response","461","1236868","0.0-8.0-0.71","FL","19l91w0hqd","1536","864","en","NE07SE16","null","","","","","","","","learning/Slide152.JPG","null","","","","",""
"","html-keyboard-response","462","1238026","0.0-8.0-1.71","FL","19l91w0hqd","1536","864","en","NE07SE16","null","","","","learningBlock2","","","","That was a wug.","null","","","","",""
"","html-keyboard-response","463","1239034","0.0-8.0-2.71","FL","19l91w0hqd","1536","864","en","NE07SE16","null","","","","learningBlock2","","","","<div style=""font-size:60px;""> </div>","null","FL","learning/Slide152.JPG","That was a wug.","",""
"","image-keyboard-response","464","1239217","0.0-8.0-0.72","FL","19l91w0hqd","1536","864","en","NE07SE16","null","","","","","","","","learning/Slide153.JPG","null","","","","",""
"","html-keyboard-response","465","1240383","0.0-8.0-1.72","FL","19l91w0hqd","1536","864","en","NE07SE16","null","","","","learningBlock2","","","","That was a bim.","null","","","","",""
"","html-keyboard-response","466","1241392","0.0-8.0-2.72","FL","19l91w0hqd","1536","864","en","NE07SE16","null","","","","learningBlock2","","","","<div style=""font-size:60px;""> </div>","null","FL","learning/Slide153.JPG","That was a bim.","",""
"","image-keyboard-response","467","1241574","0.0-8.0-0.73","FL","19l91w0hqd","1536","864","en","NE07SE16","null","","","","","","","","learning/Slide154.JPG","null","","","","",""
"","html-keyboard-response","468","1242743","0.0-8.0-1.73","FL","19l91w0hqd","1536","864","en","NE07SE16","null","","","","learningBlock2","","","","That was a tob.","null","","","","",""
"","html-keyboard-response","469","1243751","0.0-8.0-2.73","FL","19l91w0hqd","1536","864","en","NE07SE16","null","","","","learningBlock2","","","","<div style=""font-size:60px;""> </div>","null","FL","learning/Slide154.JPG","That was a tob.","",""
"","image-keyboard-response","470","1243938","0.0-8.0-0.74","FL","19l91w0hqd","1536","864","en","NE07SE16","null","","","","","","","","learning/Slide155.JPG","null","","","","",""
"","html-keyboard-response","471","1245124","0.0-8.0-1.74","FL","19l91w0hqd","1536","864","en","NE07SE16","null","","","","learningBlock2","","","","That was a dep.","null","","","","",""
"","html-keyboard-response","472","1246137","0.0-8.0-2.74","FL","19l91w0hqd","1536","864","en","NE07SE16","null","","","","learningBlock2","","","","<div style=""font-size:60px;""> </div>","null","FL","learning/Slide155.JPG","That was a dep.","",""
"","image-keyboard-response","473","1246316","0.0-8.0-0.75","FL","19l91w0hqd","1536","864","en","NE07SE16","null","","","","","","","","learning/Slide156.JPG","null","","","","",""
"","html-keyboard-response","474","1247476","0.0-8.0-1.75","FL","19l91w0hqd","1536","864","en","NE07SE16","null","","","","learningBlock2","","","","That was a bim.","null","","","","",""
"","html-keyboard-response","475","1248480","0.0-8.0-2.75","FL","19l91w0hqd","1536","864","en","NE07SE16","null","","","","learningBlock2","","","","<div style=""font-size:60px;""> </div>","null","FL","learning/Slide156.JPG","That was a bim.","",""
"","image-keyboard-response","476","1248661","0.0-8.0-0.76","FL","19l91w0hqd","1536","864","en","NE07SE16","null","","","","","","","","learning/Slide157.JPG","null","","","","",""
"","html-keyboard-response","477","1249828","0.0-8.0-1.76","FL","19l91w0hqd","1536","864","en","NE07SE16","null","","","","learningBlock2","","","","That was a dep.","null","","","","",""
"","html-keyboard-response","478","1250832","0.0-8.0-2.76","FL","19l91w0hqd","1536","864","en","NE07SE16","null","","","","learningBlock2","","","","<div style=""font-size:60px;""> </div>","null","FL","learning/Slide157.JPG","That was a dep.","",""
"","image-keyboard-response","479","1251010","0.0-8.0-0.77","FL","19l91w0hqd","1536","864","en","NE07SE16","null","","","","","","","","learning/Slide158.JPG","null","","","","",""
"","html-keyboard-response","480","1252167","0.0-8.0-1.77","FL","19l91w0hqd","1536","864","en","NE07SE16","null","","","","learningBlock2","","","","That was a tob.","null","","","","",""
"","html-keyboard-response","481","1253179","0.0-8.0-2.77","FL","19l91w0hqd","1536","864","en","NE07SE16","null","","","","learningBlock2","","","","<div style=""font-size:60px;""> </div>","null","FL","learning/Slide158.JPG","That was a tob.","",""
"","image-keyboard-response","482","1253358","0.0-8.0-0.78","FL","19l91w0hqd","1536","864","en","NE07SE16","null","","","","","","","","learning/Slide159.JPG","null","","","","",""
"","html-keyboard-response","483","1254522","0.0-8.0-1.78","FL","19l91w0hqd","1536","864","en","NE07SE16","null","","","","learningBlock2","","","","That was a dep.","null","","","","",""
"","html-keyboard-response","484","1255532","0.0-8.0-2.78","FL","19l91w0hqd","1536","864","en","NE07SE16","null","","","","learningBlock2","","","","<div style=""font-size:60px;""> </div>","null","FL","learning/Slide159.JPG","That was a dep.","",""
"","image-keyboard-response","485","1255711","0.0-8.0-0.79","FL","19l91w0hqd","1536","864","en","NE07SE16","null","","","","","","","","learning/Slide160.JPG","null","","","","",""
"","html-keyboard-response","486","1256875","0.0-8.0-1.79","FL","19l91w0hqd","1536","864","en","NE07SE16","null","","","","learningBlock2","","","","That was a wug.","null","","","","",""
