"success","trial_type","trial_index","time_elapsed","internal_node_id","condition","subject","screen_width","screen_height","language","codeword","rt","responses","url","view_history","test_part","final_height_px","final_width_px","scale_factor","stimulus","key_press","learningType","presentedImage","presentedLabel","button_pressed","response"
"true","fullscreen","0","5486","0.0-0.0","LF","9dovdyxkak","1280","720","de","er09us26","","","","","","","","","","","","","","",""
"","survey-html-form","1","23491","0.0-1.0","LF","9dovdyxkak","1280","720","de","er09us26","18000","{""language"":""de""}","","","","","","","","","","","","",""
"","external-html","2","261069","0.0-2.0-0.0","LF","9dovdyxkak","1280","720","de","er09us26","237503","","text/information.html","","","","","","","","","","","",""
"","external-html","3","330999","0.0-2.0-1.0","LF","9dovdyxkak","1280","720","de","er09us26","69885","","text/consent.html","","","","","","","","","","","",""
"","survey-html-form","4","455880","0.0-2.0-2.0","LF","9dovdyxkak","1280","720","de","er09us26","124877","{""codeword_enter"":""er09us26""}","","","","","","","","","","","","",""
"","instructions","5","484294","0.0-4.0","LF","9dovdyxkak","1280","720","de","er09us26","NA","","","[{""page_index"":0,""viewing_time"":3055},{""page_index"":1,""viewing_time"":23850}]","instructions","","","","","","","","","",""
"","resize","6","677157","0.0-5.0","LF","9dovdyxkak","1280","720","de","er09us26","","","","","","","372","2.361904761904762","","","","","","",""
"","html-keyboard-response","7","678176","0.0-6.0-0.0","LF","9dovdyxkak","1280","720","de","er09us26","null","","","","learningBlock1","","","","This is a tob:","null","","","","",""
"","image-keyboard-response","8","678517","0.0-6.0-1.0","LF","9dovdyxkak","1280","720","de","er09us26","null","","","","","","","","learning/Slide1.JPG","null","","","","",""
"","html-keyboard-response","9","679536","0.0-6.0-2.0","LF","9dovdyxkak","1280","720","de","er09us26","null","","","","learningBlock1","","","","<div style=""font-size:60px;""> </div>","null","LF","learning/Slide1.JPG","This is a tob:","",""
"","html-keyboard-response","10","680556","0.0-6.0-0.1","LF","9dovdyxkak","1280","720","de","er09us26","null","","","","learningBlock1","","","","This is a wug:","null","","","","",""
"","image-keyboard-response","11","680896","0.0-6.0-1.1","LF","9dovdyxkak","1280","720","de","er09us26","null","","","","","","","","learning/Slide2.JPG","null","","","","",""
"","html-keyboard-response","12","681907","0.0-6.0-2.1","LF","9dovdyxkak","1280","720","de","er09us26","null","","","","learningBlock1","","","","<div style=""font-size:60px;""> </div>","null","LF","learning/Slide2.JPG","This is a wug:","",""
"","html-keyboard-response","13","682916","0.0-6.0-0.2","LF","9dovdyxkak","1280","720","de","er09us26","null","","","","learningBlock1","","","","This is a bim:","null","","","","",""
"","image-keyboard-response","14","683276","0.0-6.0-1.2","LF","9dovdyxkak","1280","720","de","er09us26","null","","","","","","","","learning/Slide3.JPG","null","","","","",""
"","html-keyboard-response","15","684295","0.0-6.0-2.2","LF","9dovdyxkak","1280","720","de","er09us26","null","","","","learningBlock1","","","","<div style=""font-size:60px;""> </div>","null","LF","learning/Slide3.JPG","This is a bim:","",""
"","html-keyboard-response","16","685297","0.0-6.0-0.3","LF","9dovdyxkak","1280","720","de","er09us26","null","","","","learningBlock1","","","","This is a dep:","null","","","","",""
"","image-keyboard-response","17","685645","0.0-6.0-1.3","LF","9dovdyxkak","1280","720","de","er09us26","null","","","","","","","","learning/Slide4.JPG","null","","","","",""
"","html-keyboard-response","18","686666","0.0-6.0-2.3","LF","9dovdyxkak","1280","720","de","er09us26","null","","","","learningBlock1","","","","<div style=""font-size:60px;""> </div>","null","LF","learning/Slide4.JPG","This is a dep:","",""
"","html-keyboard-response","19","687676","0.0-6.0-0.4","LF","9dovdyxkak","1280","720","de","er09us26","null","","","","learningBlock1","","","","This is a wug:","null","","","","",""
"","image-keyboard-response","20","688017","0.0-6.0-1.4","LF","9dovdyxkak","1280","720","de","er09us26","null","","","","","","","","learning/Slide5.JPG","null","","","","",""
"","html-keyboard-response","21","689037","0.0-6.0-2.4","LF","9dovdyxkak","1280","720","de","er09us26","null","","","","learningBlock1","","","","<div style=""font-size:60px;""> </div>","null","LF","learning/Slide5.JPG","This is a wug:","",""
"","html-keyboard-response","22","690046","0.0-6.0-0.5","LF","9dovdyxkak","1280","720","de","er09us26","null","","","","learningBlock1","","","","This is a dep:","null","","","","",""
"","image-keyboard-response","23","690397","0.0-6.0-1.5","LF","9dovdyxkak","1280","720","de","er09us26","null","","","","","","","","learning/Slide6.JPG","null","","","","",""
"","html-keyboard-response","24","691416","0.0-6.0-2.5","LF","9dovdyxkak","1280","720","de","er09us26","null","","","","learningBlock1","","","","<div style=""font-size:60px;""> </div>","null","LF","learning/Slide6.JPG","This is a dep:","",""
"","html-keyboard-response","25","692427","0.0-6.0-0.6","LF","9dovdyxkak","1280","720","de","er09us26","null","","","","learningBlock1","","","","This is a wug:","null","","","","",""
"","image-keyboard-response","26","692777","0.0-6.0-1.6","LF","9dovdyxkak","1280","720","de","er09us26","null","","","","","","","","learning/Slide7.JPG","null","","","","",""
"","html-keyboard-response","27","693786","0.0-6.0-2.6","LF","9dovdyxkak","1280","720","de","er09us26","null","","","","learningBlock1","","","","<div style=""font-size:60px;""> </div>","null","LF","learning/Slide7.JPG","This is a wug:","",""
"","html-keyboard-response","28","694806","0.0-6.0-0.7","LF","9dovdyxkak","1280","720","de","er09us26","null","","","","learningBlock1","","","","This is a bim:","null","","","","",""
"","image-keyboard-response","29","695152","0.0-6.0-1.7","LF","9dovdyxkak","1280","720","de","er09us26","null","","","","","","","","learning/Slide8.JPG","null","","","","",""
"","html-keyboard-response","30","696156","0.0-6.0-2.7","LF","9dovdyxkak","1280","720","de","er09us26","null","","","","learningBlock1","","","","<div style=""font-size:60px;""> </div>","null","LF","learning/Slide8.JPG","This is a bim:","",""
"","html-keyboard-response","31","697162","0.0-6.0-0.8","LF","9dovdyxkak","1280","720","de","er09us26","null","","","","learningBlock1","","","","This is a wug:","null","","","","",""
"","image-keyboard-response","32","697496","0.0-6.0-1.8","LF","9dovdyxkak","1280","720","de","er09us26","null","","","","","","","","learning/Slide9.JPG","null","","","","",""
"","html-keyboard-response","33","698506","0.0-6.0-2.8","LF","9dovdyxkak","1280","720","de","er09us26","null","","","","learningBlock1","","","","<div style=""font-size:60px;""> </div>","null","LF","learning/Slide9.JPG","This is a wug:","",""
"","html-keyboard-response","34","699526","0.0-6.0-0.9","LF","9dovdyxkak","1280","720","de","er09us26","null","","","","learningBlock1","","","","This is a dep:","null","","","","",""
"","image-keyboard-response","35","699877","0.0-6.0-1.9","LF","9dovdyxkak","1280","720","de","er09us26","null","","","","","","","","learning/Slide10.JPG","null","","","","",""
"","html-keyboard-response","36","700897","0.0-6.0-2.9","LF","9dovdyxkak","1280","720","de","er09us26","null","","","","learningBlock1","","","","<div style=""font-size:60px;""> </div>","null","LF","learning/Slide10.JPG","This is a dep:","",""
"","html-keyboard-response","37","701906","0.0-6.0-0.10","LF","9dovdyxkak","1280","720","de","er09us26","null","","","","learningBlock1","","","","This is a tob:","null","","","","",""
"","image-keyboard-response","38","702246","0.0-6.0-1.10","LF","9dovdyxkak","1280","720","de","er09us26","null","","","","","","","","learning/Slide11.JPG","null","","","","",""
"","html-keyboard-response","39","703266","0.0-6.0-2.10","LF","9dovdyxkak","1280","720","de","er09us26","null","","","","learningBlock1","","","","<div style=""font-size:60px;""> </div>","null","LF","learning/Slide11.JPG","This is a tob:","",""
"","html-keyboard-response","40","704286","0.0-6.0-0.11","LF","9dovdyxkak","1280","720","de","er09us26","null","","","","learningBlock1","","","","This is a dep:","null","","","","",""
"","image-keyboard-response","41","704627","0.0-6.0-1.11","LF","9dovdyxkak","1280","720","de","er09us26","null","","","","","","","","learning/Slide12.JPG","null","","","","",""
"","html-keyboard-response","42","705635","0.0-6.0-2.11","LF","9dovdyxkak","1280","720","de","er09us26","null","","","","learningBlock1","","","","<div style=""font-size:60px;""> </div>","null","LF","learning/Slide12.JPG","This is a dep:","",""
"","html-keyboard-response","43","706656","0.0-6.0-0.12","LF","9dovdyxkak","1280","720","de","er09us26","null","","","","learningBlock1","","","","This is a bim:","null","","","","",""
"","image-keyboard-response","44","707007","0.0-6.0-1.12","LF","9dovdyxkak","1280","720","de","er09us26","null","","","","","","","","learning/Slide13.JPG","null","","","","",""
"","html-keyboard-response","45","708027","0.0-6.0-2.12","LF","9dovdyxkak","1280","720","de","er09us26","null","","","","learningBlock1","","","","<div style=""font-size:60px;""> </div>","null","LF","learning/Slide13.JPG","This is a bim:","",""
"","html-keyboard-response","46","709046","0.0-6.0-0.13","LF","9dovdyxkak","1280","720","de","er09us26","null","","","","learningBlock1","","","","This is a wug:","null","","","","",""
"","image-keyboard-response","47","709397","0.0-6.0-1.13","LF","9dovdyxkak","1280","720","de","er09us26","null","","","","","","","","learning/Slide14.JPG","null","","","","",""
"","html-keyboard-response","48","710406","0.0-6.0-2.13","LF","9dovdyxkak","1280","720","de","er09us26","null","","","","learningBlock1","","","","<div style=""font-size:60px;""> </div>","null","LF","learning/Slide14.JPG","This is a wug:","",""
"","html-keyboard-response","49","711426","0.0-6.0-0.14","LF","9dovdyxkak","1280","720","de","er09us26","null","","","","learningBlock1","","","","This is a tob:","null","","","","",""
"","image-keyboard-response","50","711776","0.0-6.0-1.14","LF","9dovdyxkak","1280","720","de","er09us26","null","","","","","","","","learning/Slide15.JPG","null","","","","",""
"","html-keyboard-response","51","712786","0.0-6.0-2.14","LF","9dovdyxkak","1280","720","de","er09us26","null","","","","learningBlock1","","","","<div style=""font-size:60px;""> </div>","null","LF","learning/Slide15.JPG","This is a tob:","",""
"","html-keyboard-response","52","713806","0.0-6.0-0.15","LF","9dovdyxkak","1280","720","de","er09us26","null","","","","learningBlock1","","","","This is a dep:","null","","","","",""
"","image-keyboard-response","53","714146","0.0-6.0-1.15","LF","9dovdyxkak","1280","720","de","er09us26","null","","","","","","","","learning/Slide16.JPG","null","","","","",""
"","html-keyboard-response","54","715156","0.0-6.0-2.15","LF","9dovdyxkak","1280","720","de","er09us26","null","","","","learningBlock1","","","","<div style=""font-size:60px;""> </div>","null","LF","learning/Slide16.JPG","This is a dep:","",""
"","html-keyboard-response","55","716166","0.0-6.0-0.16","LF","9dovdyxkak","1280","720","de","er09us26","null","","","","learningBlock1","","","","This is a bim:","null","","","","",""
"","image-keyboard-response","56","716516","0.0-6.0-1.16","LF","9dovdyxkak","1280","720","de","er09us26","null","","","","","","","","learning/Slide17.JPG","null","","","","",""
"","html-keyboard-response","57","717526","0.0-6.0-2.16","LF","9dovdyxkak","1280","720","de","er09us26","null","","","","learningBlock1","","","","<div style=""font-size:60px;""> </div>","null","LF","learning/Slide17.JPG","This is a bim:","",""
"","html-keyboard-response","58","718536","0.0-6.0-0.17","LF","9dovdyxkak","1280","720","de","er09us26","null","","","","learningBlock1","","","","This is a tob:","null","","","","",""
"","image-keyboard-response","59","718876","0.0-6.0-1.17","LF","9dovdyxkak","1280","720","de","er09us26","null","","","","","","","","learning/Slide18.JPG","null","","","","",""
"","html-keyboard-response","60","719896","0.0-6.0-2.17","LF","9dovdyxkak","1280","720","de","er09us26","null","","","","learningBlock1","","","","<div style=""font-size:60px;""> </div>","null","LF","learning/Slide18.JPG","This is a tob:","",""
"","html-keyboard-response","61","720906","0.0-6.0-0.18","LF","9dovdyxkak","1280","720","de","er09us26","null","","","","learningBlock1","","","","This is a wug:","null","","","","",""
"","image-keyboard-response","62","721256","0.0-6.0-1.18","LF","9dovdyxkak","1280","720","de","er09us26","null","","","","","","","","learning/Slide19.JPG","null","","","","",""
"","html-keyboard-response","63","722276","0.0-6.0-2.18","LF","9dovdyxkak","1280","720","de","er09us26","null","","","","learningBlock1","","","","<div style=""font-size:60px;""> </div>","null","LF","learning/Slide19.JPG","This is a wug:","",""
"","html-keyboard-response","64","723283","0.0-6.0-0.19","LF","9dovdyxkak","1280","720","de","er09us26","null","","","","learningBlock1","","","","This is a bim:","null","","","","",""
"","image-keyboard-response","65","723627","0.0-6.0-1.19","LF","9dovdyxkak","1280","720","de","er09us26","null","","","","","","","","learning/Slide20.JPG","null","","","","",""
"","html-keyboard-response","66","724636","0.0-6.0-2.19","LF","9dovdyxkak","1280","720","de","er09us26","null","","","","learningBlock1","","","","<div style=""font-size:60px;""> </div>","null","LF","learning/Slide20.JPG","This is a bim:","",""
"","html-keyboard-response","67","725656","0.0-6.0-0.20","LF","9dovdyxkak","1280","720","de","er09us26","null","","","","learningBlock1","","","","This is a dep:","null","","","","",""
"","image-keyboard-response","68","726006","0.0-6.0-1.20","LF","9dovdyxkak","1280","720","de","er09us26","null","","","","","","","","learning/Slide21.JPG","null","","","","",""
"","html-keyboard-response","69","727027","0.0-6.0-2.20","LF","9dovdyxkak","1280","720","de","er09us26","null","","","","learningBlock1","","","","<div style=""font-size:60px;""> </div>","null","LF","learning/Slide21.JPG","This is a dep:","",""
"","html-keyboard-response","70","728047","0.0-6.0-0.21","LF","9dovdyxkak","1280","720","de","er09us26","null","","","","learningBlock1","","","","This is a bim:","null","","","","",""
"","image-keyboard-response","71","728396","0.0-6.0-1.21","LF","9dovdyxkak","1280","720","de","er09us26","null","","","","","","","","learning/Slide22.JPG","null","","","","",""
"","html-keyboard-response","72","729416","0.0-6.0-2.21","LF","9dovdyxkak","1280","720","de","er09us26","null","","","","learningBlock1","","","","<div style=""font-size:60px;""> </div>","null","LF","learning/Slide22.JPG","This is a bim:","",""
"","html-keyboard-response","73","730426","0.0-6.0-0.22","LF","9dovdyxkak","1280","720","de","er09us26","null","","","","learningBlock1","","","","This is a tob:","null","","","","",""
"","image-keyboard-response","74","730776","0.0-6.0-1.22","LF","9dovdyxkak","1280","720","de","er09us26","null","","","","","","","","learning/Slide23.JPG","null","","","","",""
"","html-keyboard-response","75","731796","0.0-6.0-2.22","LF","9dovdyxkak","1280","720","de","er09us26","null","","","","learningBlock1","","","","<div style=""font-size:60px;""> </div>","null","LF","learning/Slide23.JPG","This is a tob:","",""
"","html-keyboard-response","76","732817","0.0-6.0-0.23","LF","9dovdyxkak","1280","720","de","er09us26","null","","","","learningBlock1","","","","This is a wug:","null","","","","",""
"","image-keyboard-response","77","733156","0.0-6.0-1.23","LF","9dovdyxkak","1280","720","de","er09us26","null","","","","","","","","learning/Slide24.JPG","null","","","","",""
"","html-keyboard-response","78","734166","0.0-6.0-2.23","LF","9dovdyxkak","1280","720","de","er09us26","null","","","","learningBlock1","","","","<div style=""font-size:60px;""> </div>","null","LF","learning/Slide24.JPG","This is a wug:","",""
"","html-keyboard-response","79","735176","0.0-6.0-0.24","LF","9dovdyxkak","1280","720","de","er09us26","null","","","","learningBlock1","","","","This is a dep:","null","","","","",""
"","image-keyboard-response","80","735516","0.0-6.0-1.24","LF","9dovdyxkak","1280","720","de","er09us26","null","","","","","","","","learning/Slide25.JPG","null","","","","",""
"","html-keyboard-response","81","736536","0.0-6.0-2.24","LF","9dovdyxkak","1280","720","de","er09us26","null","","","","learningBlock1","","","","<div style=""font-size:60px;""> </div>","null","LF","learning/Slide25.JPG","This is a dep:","",""
"","html-keyboard-response","82","737546","0.0-6.0-0.25","LF","9dovdyxkak","1280","720","de","er09us26","null","","","","learningBlock1","","","","This is a wug:","null","","","","",""
"","image-keyboard-response","83","737906","0.0-6.0-1.25","LF","9dovdyxkak","1280","720","de","er09us26","null","","","","","","","","learning/Slide26.JPG","null","","","","",""
"","html-keyboard-response","84","738917","0.0-6.0-2.25","LF","9dovdyxkak","1280","720","de","er09us26","null","","","","learningBlock1","","","","<div style=""font-size:60px;""> </div>","null","LF","learning/Slide26.JPG","This is a wug:","",""
"","html-keyboard-response","85","739936","0.0-6.0-0.26","LF","9dovdyxkak","1280","720","de","er09us26","null","","","","learningBlock1","","","","This is a bim:","null","","","","",""
"","image-keyboard-response","86","740277","0.0-6.0-1.26","LF","9dovdyxkak","1280","720","de","er09us26","null","","","","","","","","learning/Slide27.JPG","null","","","","",""
"","html-keyboard-response","87","741292","0.0-6.0-2.26","LF","9dovdyxkak","1280","720","de","er09us26","null","","","","learningBlock1","","","","<div style=""font-size:60px;""> </div>","null","LF","learning/Slide27.JPG","This is a bim:","",""
"","html-keyboard-response","88","742296","0.0-6.0-0.27","LF","9dovdyxkak","1280","720","de","er09us26","null","","","","learningBlock1","","","","This is a dep:","null","","","","",""
"","image-keyboard-response","89","742636","0.0-6.0-1.27","LF","9dovdyxkak","1280","720","de","er09us26","null","","","","","","","","learning/Slide28.JPG","null","","","","",""
"","html-keyboard-response","90","743657","0.0-6.0-2.27","LF","9dovdyxkak","1280","720","de","er09us26","null","","","","learningBlock1","","","","<div style=""font-size:60px;""> </div>","null","LF","learning/Slide28.JPG","This is a dep:","",""
"","html-keyboard-response","91","744666","0.0-6.0-0.28","LF","9dovdyxkak","1280","720","de","er09us26","null","","","","learningBlock1","","","","This is a tob:","null","","","","",""
"","image-keyboard-response","92","745007","0.0-6.0-1.28","LF","9dovdyxkak","1280","720","de","er09us26","null","","","","","","","","learning/Slide29.JPG","null","","","","",""
"","html-keyboard-response","93","746017","0.0-6.0-2.28","LF","9dovdyxkak","1280","720","de","er09us26","null","","","","learningBlock1","","","","<div style=""font-size:60px;""> </div>","null","LF","learning/Slide29.JPG","This is a tob:","",""
"","html-keyboard-response","94","747026","0.0-6.0-0.29","LF","9dovdyxkak","1280","720","de","er09us26","null","","","","learningBlock1","","","","This is a dep:","null","","","","",""
"","image-keyboard-response","95","747376","0.0-6.0-1.29","LF","9dovdyxkak","1280","720","de","er09us26","null","","","","","","","","learning/Slide30.JPG","null","","","","",""
"","html-keyboard-response","96","748386","0.0-6.0-2.29","LF","9dovdyxkak","1280","720","de","er09us26","null","","","","learningBlock1","","","","<div style=""font-size:60px;""> </div>","null","LF","learning/Slide30.JPG","This is a dep:","",""
"","html-keyboard-response","97","749396","0.0-6.0-0.30","LF","9dovdyxkak","1280","720","de","er09us26","null","","","","learningBlock1","","","","This is a wug:","null","","","","",""
"","image-keyboard-response","98","749736","0.0-6.0-1.30","LF","9dovdyxkak","1280","720","de","er09us26","null","","","","","","","","learning/Slide31.JPG","null","","","","",""
"","html-keyboard-response","99","750757","0.0-6.0-2.30","LF","9dovdyxkak","1280","720","de","er09us26","null","","","","learningBlock1","","","","<div style=""font-size:60px;""> </div>","null","LF","learning/Slide31.JPG","This is a wug:","",""
"","html-keyboard-response","100","751776","0.0-6.0-0.31","LF","9dovdyxkak","1280","720","de","er09us26","null","","","","learningBlock1","","","","This is a tob:","null","","","","",""
"","image-keyboard-response","101","752122","0.0-6.0-1.31","LF","9dovdyxkak","1280","720","de","er09us26","null","","","","","","","","learning/Slide32.JPG","null","","","","",""
"","html-keyboard-response","102","753137","0.0-6.0-2.31","LF","9dovdyxkak","1280","720","de","er09us26","null","","","","learningBlock1","","","","<div style=""font-size:60px;""> </div>","null","LF","learning/Slide32.JPG","This is a tob:","",""
"","html-keyboard-response","103","754156","0.0-6.0-0.32","LF","9dovdyxkak","1280","720","de","er09us26","null","","","","learningBlock1","","","","This is a bim:","null","","","","",""
"","image-keyboard-response","104","754506","0.0-6.0-1.32","LF","9dovdyxkak","1280","720","de","er09us26","null","","","","","","","","learning/Slide33.JPG","null","","","","",""
"","html-keyboard-response","105","755517","0.0-6.0-2.32","LF","9dovdyxkak","1280","720","de","er09us26","null","","","","learningBlock1","","","","<div style=""font-size:60px;""> </div>","null","LF","learning/Slide33.JPG","This is a bim:","",""
"","html-keyboard-response","106","756526","0.0-6.0-0.33","LF","9dovdyxkak","1280","720","de","er09us26","null","","","","learningBlock1","","","","This is a tob:","null","","","","",""
"","image-keyboard-response","107","756876","0.0-6.0-1.33","LF","9dovdyxkak","1280","720","de","er09us26","null","","","","","","","","learning/Slide34.JPG","null","","","","",""
"","html-keyboard-response","108","757886","0.0-6.0-2.33","LF","9dovdyxkak","1280","720","de","er09us26","null","","","","learningBlock1","","","","<div style=""font-size:60px;""> </div>","null","LF","learning/Slide34.JPG","This is a tob:","",""
"","html-keyboard-response","109","758906","0.0-6.0-0.34","LF","9dovdyxkak","1280","720","de","er09us26","null","","","","learningBlock1","","","","This is a bim:","null","","","","",""
"","image-keyboard-response","110","759246","0.0-6.0-1.34","LF","9dovdyxkak","1280","720","de","er09us26","null","","","","","","","","learning/Slide35.JPG","null","","","","",""
"","html-keyboard-response","111","760256","0.0-6.0-2.34","LF","9dovdyxkak","1280","720","de","er09us26","null","","","","learningBlock1","","","","<div style=""font-size:60px;""> </div>","null","LF","learning/Slide35.JPG","This is a bim:","",""
"","html-keyboard-response","112","761266","0.0-6.0-0.35","LF","9dovdyxkak","1280","720","de","er09us26","null","","","","learningBlock1","","","","This is a dep:","null","","","","",""
"","image-keyboard-response","113","761607","0.0-6.0-1.35","LF","9dovdyxkak","1280","720","de","er09us26","null","","","","","","","","learning/Slide36.JPG","null","","","","",""
"","html-keyboard-response","114","762617","0.0-6.0-2.35","LF","9dovdyxkak","1280","720","de","er09us26","null","","","","learningBlock1","","","","<div style=""font-size:60px;""> </div>","null","LF","learning/Slide36.JPG","This is a dep:","",""
"","html-keyboard-response","115","763637","0.0-6.0-0.36","LF","9dovdyxkak","1280","720","de","er09us26","null","","","","learningBlock1","","","","This is a tob:","null","","","","",""
"","image-keyboard-response","116","763976","0.0-6.0-1.36","LF","9dovdyxkak","1280","720","de","er09us26","null","","","","","","","","learning/Slide37.JPG","null","","","","",""
"","html-keyboard-response","117","764986","0.0-6.0-2.36","LF","9dovdyxkak","1280","720","de","er09us26","null","","","","learningBlock1","","","","<div style=""font-size:60px;""> </div>","null","LF","learning/Slide37.JPG","This is a tob:","",""
"","html-keyboard-response","118","765996","0.0-6.0-0.37","LF","9dovdyxkak","1280","720","de","er09us26","null","","","","learningBlock1","","","","This is a wug:","null","","","","",""
"","image-keyboard-response","119","766346","0.0-6.0-1.37","LF","9dovdyxkak","1280","720","de","er09us26","null","","","","","","","","learning/Slide38.JPG","null","","","","",""
"","html-keyboard-response","120","767356","0.0-6.0-2.37","LF","9dovdyxkak","1280","720","de","er09us26","null","","","","learningBlock1","","","","<div style=""font-size:60px;""> </div>","null","LF","learning/Slide38.JPG","This is a wug:","",""
"","html-keyboard-response","121","768367","0.0-6.0-0.38","LF","9dovdyxkak","1280","720","de","er09us26","null","","","","learningBlock1","","","","This is a bim:","null","","","","",""
"","image-keyboard-response","122","768707","0.0-6.0-1.38","LF","9dovdyxkak","1280","720","de","er09us26","null","","","","","","","","learning/Slide39.JPG","null","","","","",""
"","html-keyboard-response","123","769726","0.0-6.0-2.38","LF","9dovdyxkak","1280","720","de","er09us26","null","","","","learningBlock1","","","","<div style=""font-size:60px;""> </div>","null","LF","learning/Slide39.JPG","This is a bim:","",""
"","html-keyboard-response","124","770746","0.0-6.0-0.39","LF","9dovdyxkak","1280","720","de","er09us26","null","","","","learningBlock1","","","","This is a tob:","null","","","","",""
"","image-keyboard-response","125","771096","0.0-6.0-1.39","LF","9dovdyxkak","1280","720","de","er09us26","null","","","","","","","","learning/Slide40.JPG","null","","","","",""
"","html-keyboard-response","126","772107","0.0-6.0-2.39","LF","9dovdyxkak","1280","720","de","er09us26","null","","","","learningBlock1","","","","<div style=""font-size:60px;""> </div>","null","LF","learning/Slide40.JPG","This is a tob:","",""
"","html-keyboard-response","127","773116","0.0-6.0-0.40","LF","9dovdyxkak","1280","720","de","er09us26","null","","","","learningBlock1","","","","This is a bim:","null","","","","",""
"","image-keyboard-response","128","773465","0.0-6.0-1.40","LF","9dovdyxkak","1280","720","de","er09us26","null","","","","","","","","learning/Slide41.JPG","null","","","","",""
"","html-keyboard-response","129","774477","0.0-6.0-2.40","LF","9dovdyxkak","1280","720","de","er09us26","null","","","","learningBlock1","","","","<div style=""font-size:60px;""> </div>","null","LF","learning/Slide41.JPG","This is a bim:","",""
"","html-keyboard-response","130","775496","0.0-6.0-0.41","LF","9dovdyxkak","1280","720","de","er09us26","null","","","","learningBlock1","","","","This is a dep:","null","","","","",""
"","image-keyboard-response","131","775837","0.0-6.0-1.41","LF","9dovdyxkak","1280","720","de","er09us26","null","","","","","","","","learning/Slide42.JPG","null","","","","",""
"","html-keyboard-response","132","776856","0.0-6.0-2.41","LF","9dovdyxkak","1280","720","de","er09us26","null","","","","learningBlock1","","","","<div style=""font-size:60px;""> </div>","null","LF","learning/Slide42.JPG","This is a dep:","",""
"","html-keyboard-response","133","777876","0.0-6.0-0.42","LF","9dovdyxkak","1280","720","de","er09us26","null","","","","learningBlock1","","","","This is a wug:","null","","","","",""
"","image-keyboard-response","134","778217","0.0-6.0-1.42","LF","9dovdyxkak","1280","720","de","er09us26","null","","","","","","","","learning/Slide43.JPG","null","","","","",""
"","html-keyboard-response","135","779237","0.0-6.0-2.42","LF","9dovdyxkak","1280","720","de","er09us26","null","","","","learningBlock1","","","","<div style=""font-size:60px;""> </div>","null","LF","learning/Slide43.JPG","This is a wug:","",""
"","html-keyboard-response","136","780246","0.0-6.0-0.43","LF","9dovdyxkak","1280","720","de","er09us26","null","","","","learningBlock1","","","","This is a bim:","null","","","","",""
"","image-keyboard-response","137","780586","0.0-6.0-1.43","LF","9dovdyxkak","1280","720","de","er09us26","null","","","","","","","","learning/Slide44.JPG","null","","","","",""
"","html-keyboard-response","138","781595","0.0-6.0-2.43","LF","9dovdyxkak","1280","720","de","er09us26","null","","","","learningBlock1","","","","<div style=""font-size:60px;""> </div>","null","LF","learning/Slide44.JPG","This is a bim:","",""
"","html-keyboard-response","139","782617","0.0-6.0-0.44","LF","9dovdyxkak","1280","720","de","er09us26","null","","","","learningBlock1","","","","This is a wug:","null","","","","",""
"","image-keyboard-response","140","782956","0.0-6.0-1.44","LF","9dovdyxkak","1280","720","de","er09us26","null","","","","","","","","learning/Slide45.JPG","null","","","","",""
"","html-keyboard-response","141","783976","0.0-6.0-2.44","LF","9dovdyxkak","1280","720","de","er09us26","null","","","","learningBlock1","","","","<div style=""font-size:60px;""> </div>","null","LF","learning/Slide45.JPG","This is a wug:","",""
"","html-keyboard-response","142","784995","0.0-6.0-0.45","LF","9dovdyxkak","1280","720","de","er09us26","null","","","","learningBlock1","","","","This is a dep:","null","","","","",""
"","image-keyboard-response","143","785336","0.0-6.0-1.45","LF","9dovdyxkak","1280","720","de","er09us26","null","","","","","","","","learning/Slide46.JPG","null","","","","",""
"","html-keyboard-response","144","786356","0.0-6.0-2.45","LF","9dovdyxkak","1280","720","de","er09us26","null","","","","learningBlock1","","","","<div style=""font-size:60px;""> </div>","null","LF","learning/Slide46.JPG","This is a dep:","",""
"","html-keyboard-response","145","787376","0.0-6.0-0.46","LF","9dovdyxkak","1280","720","de","er09us26","null","","","","learningBlock1","","","","This is a tob:","null","","","","",""
"","image-keyboard-response","146","787727","0.0-6.0-1.46","LF","9dovdyxkak","1280","720","de","er09us26","null","","","","","","","","learning/Slide47.JPG","null","","","","",""
"","html-keyboard-response","147","788732","0.0-6.0-2.46","LF","9dovdyxkak","1280","720","de","er09us26","null","","","","learningBlock1","","","","<div style=""font-size:60px;""> </div>","null","LF","learning/Slide47.JPG","This is a tob:","",""
"","html-keyboard-response","148","789736","0.0-6.0-0.47","LF","9dovdyxkak","1280","720","de","er09us26","null","","","","learningBlock1","","","","This is a bim:","null","","","","",""
"","image-keyboard-response","149","790076","0.0-6.0-1.47","LF","9dovdyxkak","1280","720","de","er09us26","null","","","","","","","","learning/Slide48.JPG","null","","","","",""
"","html-keyboard-response","150","791096","0.0-6.0-2.47","LF","9dovdyxkak","1280","720","de","er09us26","null","","","","learningBlock1","","","","<div style=""font-size:60px;""> </div>","null","LF","learning/Slide48.JPG","This is a bim:","",""
"","html-keyboard-response","151","792106","0.0-6.0-0.48","LF","9dovdyxkak","1280","720","de","er09us26","null","","","","learningBlock1","","","","This is a dep:","null","","","","",""
"","image-keyboard-response","152","792446","0.0-6.0-1.48","LF","9dovdyxkak","1280","720","de","er09us26","null","","","","","","","","learning/Slide49.JPG","null","","","","",""
"","html-keyboard-response","153","793466","0.0-6.0-2.48","LF","9dovdyxkak","1280","720","de","er09us26","null","","","","learningBlock1","","","","<div style=""font-size:60px;""> </div>","null","LF","learning/Slide49.JPG","This is a dep:","",""
"","html-keyboard-response","154","794486","0.0-6.0-0.49","LF","9dovdyxkak","1280","720","de","er09us26","null","","","","learningBlock1","","","","This is a tob:","null","","","","",""
"","image-keyboard-response","155","794826","0.0-6.0-1.49","LF","9dovdyxkak","1280","720","de","er09us26","null","","","","","","","","learning/Slide50.JPG","null","","","","",""
"","html-keyboard-response","156","795837","0.0-6.0-2.49","LF","9dovdyxkak","1280","720","de","er09us26","null","","","","learningBlock1","","","","<div style=""font-size:60px;""> </div>","null","LF","learning/Slide50.JPG","This is a tob:","",""
"","html-keyboard-response","157","796856","0.0-6.0-0.50","LF","9dovdyxkak","1280","720","de","er09us26","null","","","","learningBlock1","","","","This is a bim:","null","","","","",""
"","image-keyboard-response","158","797207","0.0-6.0-1.50","LF","9dovdyxkak","1280","720","de","er09us26","null","","","","","","","","learning/Slide51.JPG","null","","","","",""
"","html-keyboard-response","159","798227","0.0-6.0-2.50","LF","9dovdyxkak","1280","720","de","er09us26","null","","","","learningBlock1","","","","<div style=""font-size:60px;""> </div>","null","LF","learning/Slide51.JPG","This is a bim:","",""
"","html-keyboard-response","160","799246","0.0-6.0-0.51","LF","9dovdyxkak","1280","720","de","er09us26","null","","","","learningBlock1","","","","This is a wug:","null","","","","",""
"","image-keyboard-response","161","799586","0.0-6.0-1.51","LF","9dovdyxkak","1280","720","de","er09us26","null","","","","","","","","learning/Slide52.JPG","null","","","","",""
"","html-keyboard-response","162","800606","0.0-6.0-2.51","LF","9dovdyxkak","1280","720","de","er09us26","null","","","","learningBlock1","","","","<div style=""font-size:60px;""> </div>","null","LF","learning/Slide52.JPG","This is a wug:","",""
"","html-keyboard-response","163","801616","0.0-6.0-0.52","LF","9dovdyxkak","1280","720","de","er09us26","null","","","","learningBlock1","","","","This is a tob:","null","","","","",""
"","image-keyboard-response","164","801957","0.0-6.0-1.52","LF","9dovdyxkak","1280","720","de","er09us26","null","","","","","","","","learning/Slide53.JPG","null","","","","",""
"","html-keyboard-response","165","802966","0.0-6.0-2.52","LF","9dovdyxkak","1280","720","de","er09us26","null","","","","learningBlock1","","","","<div style=""font-size:60px;""> </div>","null","LF","learning/Slide53.JPG","This is a tob:","",""
"","html-keyboard-response","166","803987","0.0-6.0-0.53","LF","9dovdyxkak","1280","720","de","er09us26","null","","","","learningBlock1","","","","This is a dep:","null","","","","",""
"","image-keyboard-response","167","804336","0.0-6.0-1.53","LF","9dovdyxkak","1280","720","de","er09us26","null","","","","","","","","learning/Slide54.JPG","null","","","","",""
"","html-keyboard-response","168","805357","0.0-6.0-2.53","LF","9dovdyxkak","1280","720","de","er09us26","null","","","","learningBlock1","","","","<div style=""font-size:60px;""> </div>","null","LF","learning/Slide54.JPG","This is a dep:","",""
"","html-keyboard-response","169","806376","0.0-6.0-0.54","LF","9dovdyxkak","1280","720","de","er09us26","null","","","","learningBlock1","","","","This is a bim:","null","","","","",""
"","image-keyboard-response","170","806726","0.0-6.0-1.54","LF","9dovdyxkak","1280","720","de","er09us26","null","","","","","","","","learning/Slide55.JPG","null","","","","",""
"","html-keyboard-response","171","807746","0.0-6.0-2.54","LF","9dovdyxkak","1280","720","de","er09us26","null","","","","learningBlock1","","","","<div style=""font-size:60px;""> </div>","null","LF","learning/Slide55.JPG","This is a bim:","",""
"","html-keyboard-response","172","808766","0.0-6.0-0.55","LF","9dovdyxkak","1280","720","de","er09us26","null","","","","learningBlock1","","","","This is a tob:","null","","","","",""
"","image-keyboard-response","173","809106","0.0-6.0-1.55","LF","9dovdyxkak","1280","720","de","er09us26","null","","","","","","","","learning/Slide56.JPG","null","","","","",""
"","html-keyboard-response","174","810115","0.0-6.0-2.55","LF","9dovdyxkak","1280","720","de","er09us26","null","","","","learningBlock1","","","","<div style=""font-size:60px;""> </div>","null","LF","learning/Slide56.JPG","This is a tob:","",""
"","html-keyboard-response","175","811127","0.0-6.0-0.56","LF","9dovdyxkak","1280","720","de","er09us26","null","","","","learningBlock1","","","","This is a dep:","null","","","","",""
"","image-keyboard-response","176","811477","0.0-6.0-1.56","LF","9dovdyxkak","1280","720","de","er09us26","null","","","","","","","","learning/Slide57.JPG","null","","","","",""
"","html-keyboard-response","177","812496","0.0-6.0-2.56","LF","9dovdyxkak","1280","720","de","er09us26","null","","","","learningBlock1","","","","<div style=""font-size:60px;""> </div>","null","LF","learning/Slide57.JPG","This is a dep:","",""
"","html-keyboard-response","178","813506","0.0-6.0-0.57","LF","9dovdyxkak","1280","720","de","er09us26","null","","","","learningBlock1","","","","This is a wug:","null","","","","",""
"","image-keyboard-response","179","813846","0.0-6.0-1.57","LF","9dovdyxkak","1280","720","de","er09us26","null","","","","","","","","learning/Slide58.JPG","null","","","","",""
"","html-keyboard-response","180","814857","0.0-6.0-2.57","LF","9dovdyxkak","1280","720","de","er09us26","null","","","","learningBlock1","","","","<div style=""font-size:60px;""> </div>","null","LF","learning/Slide58.JPG","This is a wug:","",""
"","html-keyboard-response","181","815876","0.0-6.0-0.58","LF","9dovdyxkak","1280","720","de","er09us26","null","","","","learningBlock1","","","","This is a dep:","null","","","","",""
"","image-keyboard-response","182","816217","0.0-6.0-1.58","LF","9dovdyxkak","1280","720","de","er09us26","null","","","","","","","","learning/Slide59.JPG","null","","","","",""
"","html-keyboard-response","183","817226","0.0-6.0-2.58","LF","9dovdyxkak","1280","720","de","er09us26","null","","","","learningBlock1","","","","<div style=""font-size:60px;""> </div>","null","LF","learning/Slide59.JPG","This is a dep:","",""
"","html-keyboard-response","184","818236","0.0-6.0-0.59","LF","9dovdyxkak","1280","720","de","er09us26","null","","","","learningBlock1","","","","This is a wug:","null","","","","",""
"","image-keyboard-response","185","818577","0.0-6.0-1.59","LF","9dovdyxkak","1280","720","de","er09us26","null","","","","","","","","learning/Slide60.JPG","null","","","","",""
"","html-keyboard-response","186","819586","0.0-6.0-2.59","LF","9dovdyxkak","1280","720","de","er09us26","null","","","","learningBlock1","","","","<div style=""font-size:60px;""> </div>","null","LF","learning/Slide60.JPG","This is a wug:","",""
"","html-keyboard-response","187","820597","0.0-6.0-0.60","LF","9dovdyxkak","1280","720","de","er09us26","null","","","","learningBlock1","","","","This is a bim:","null","","","","",""
"","image-keyboard-response","188","820937","0.0-6.0-1.60","LF","9dovdyxkak","1280","720","de","er09us26","null","","","","","","","","learning/Slide61.JPG","null","","","","",""
"","html-keyboard-response","189","821946","0.0-6.0-2.60","LF","9dovdyxkak","1280","720","de","er09us26","null","","","","learningBlock1","","","","<div style=""font-size:60px;""> </div>","null","LF","learning/Slide61.JPG","This is a bim:","",""
"","html-keyboard-response","190","822966","0.0-6.0-0.61","LF","9dovdyxkak","1280","720","de","er09us26","null","","","","learningBlock1","","","","This is a dep:","null","","","","",""
"","image-keyboard-response","191","823307","0.0-6.0-1.61","LF","9dovdyxkak","1280","720","de","er09us26","null","","","","","","","","learning/Slide62.JPG","null","","","","",""
"","html-keyboard-response","192","824326","0.0-6.0-2.61","LF","9dovdyxkak","1280","720","de","er09us26","null","","","","learningBlock1","","","","<div style=""font-size:60px;""> </div>","null","LF","learning/Slide62.JPG","This is a dep:","",""
"","html-keyboard-response","193","825337","0.0-6.0-0.62","LF","9dovdyxkak","1280","720","de","er09us26","null","","","","learningBlock1","","","","This is a bim:","null","","","","",""
"","image-keyboard-response","194","825685","0.0-6.0-1.62","LF","9dovdyxkak","1280","720","de","er09us26","null","","","","","","","","learning/Slide63.JPG","null","","","","",""
"","html-keyboard-response","195","826693","0.0-6.0-2.62","LF","9dovdyxkak","1280","720","de","er09us26","null","","","","learningBlock1","","","","<div style=""font-size:60px;""> </div>","null","LF","learning/Slide63.JPG","This is a bim:","",""
"","html-keyboard-response","196","827707","0.0-6.0-0.63","LF","9dovdyxkak","1280","720","de","er09us26","null","","","","learningBlock1","","","","This is a tob:","null","","","","",""
"","image-keyboard-response","197","828056","0.0-6.0-1.63","LF","9dovdyxkak","1280","720","de","er09us26","null","","","","","","","","learning/Slide64.JPG","null","","","","",""
"","html-keyboard-response","198","829066","0.0-6.0-2.63","LF","9dovdyxkak","1280","720","de","er09us26","null","","","","learningBlock1","","","","<div style=""font-size:60px;""> </div>","null","LF","learning/Slide64.JPG","This is a tob:","",""
"","html-keyboard-response","199","830081","0.0-6.0-0.64","LF","9dovdyxkak","1280","720","de","er09us26","null","","","","learningBlock1","","","","This is a wug:","null","","","","",""
"","image-keyboard-response","200","830437","0.0-6.0-1.64","LF","9dovdyxkak","1280","720","de","er09us26","null","","","","","","","","learning/Slide65.JPG","null","","","","",""
"","html-keyboard-response","201","831447","0.0-6.0-2.64","LF","9dovdyxkak","1280","720","de","er09us26","null","","","","learningBlock1","","","","<div style=""font-size:60px;""> </div>","null","LF","learning/Slide65.JPG","This is a wug:","",""
"","html-keyboard-response","202","832456","0.0-6.0-0.65","LF","9dovdyxkak","1280","720","de","er09us26","null","","","","learningBlock1","","","","This is a dep:","null","","","","",""
"","image-keyboard-response","203","832796","0.0-6.0-1.65","LF","9dovdyxkak","1280","720","de","er09us26","null","","","","","","","","learning/Slide66.JPG","null","","","","",""
"","html-keyboard-response","204","833816","0.0-6.0-2.65","LF","9dovdyxkak","1280","720","de","er09us26","null","","","","learningBlock1","","","","<div style=""font-size:60px;""> </div>","null","LF","learning/Slide66.JPG","This is a dep:","",""
"","html-keyboard-response","205","834827","0.0-6.0-0.66","LF","9dovdyxkak","1280","720","de","er09us26","null","","","","learningBlock1","","","","This is a tob:","null","","","","",""
"","image-keyboard-response","206","835166","0.0-6.0-1.66","LF","9dovdyxkak","1280","720","de","er09us26","null","","","","","","","","learning/Slide67.JPG","null","","","","",""
"","html-keyboard-response","207","836176","0.0-6.0-2.66","LF","9dovdyxkak","1280","720","de","er09us26","null","","","","learningBlock1","","","","<div style=""font-size:60px;""> </div>","null","LF","learning/Slide67.JPG","This is a tob:","",""
"","html-keyboard-response","208","837197","0.0-6.0-0.67","LF","9dovdyxkak","1280","720","de","er09us26","null","","","","learningBlock1","","","","This is a wug:","null","","","","",""
"","image-keyboard-response","209","837557","0.0-6.0-1.67","LF","9dovdyxkak","1280","720","de","er09us26","null","","","","","","","","learning/Slide68.JPG","null","","","","",""
"","html-keyboard-response","210","838567","0.0-6.0-2.67","LF","9dovdyxkak","1280","720","de","er09us26","null","","","","learningBlock1","","","","<div style=""font-size:60px;""> </div>","null","LF","learning/Slide68.JPG","This is a wug:","",""
"","html-keyboard-response","211","839576","0.0-6.0-0.68","LF","9dovdyxkak","1280","720","de","er09us26","null","","","","learningBlock1","","","","This is a tob:","null","","","","",""
"","image-keyboard-response","212","839927","0.0-6.0-1.68","LF","9dovdyxkak","1280","720","de","er09us26","null","","","","","","","","learning/Slide69.JPG","null","","","","",""
"","html-keyboard-response","213","840947","0.0-6.0-2.68","LF","9dovdyxkak","1280","720","de","er09us26","null","","","","learningBlock1","","","","<div style=""font-size:60px;""> </div>","null","LF","learning/Slide69.JPG","This is a tob:","",""
"","html-keyboard-response","214","841956","0.0-6.0-0.69","LF","9dovdyxkak","1280","720","de","er09us26","null","","","","learningBlock1","","","","This is a dep:","null","","","","",""
"","image-keyboard-response","215","842306","0.0-6.0-1.69","LF","9dovdyxkak","1280","720","de","er09us26","null","","","","","","","","learning/Slide70.JPG","null","","","","",""
"","html-keyboard-response","216","843327","0.0-6.0-2.69","LF","9dovdyxkak","1280","720","de","er09us26","null","","","","learningBlock1","","","","<div style=""font-size:60px;""> </div>","null","LF","learning/Slide70.JPG","This is a dep:","",""
"","html-keyboard-response","217","844336","0.0-6.0-0.70","LF","9dovdyxkak","1280","720","de","er09us26","null","","","","learningBlock1","","","","This is a wug:","null","","","","",""
"","image-keyboard-response","218","844676","0.0-6.0-1.70","LF","9dovdyxkak","1280","720","de","er09us26","null","","","","","","","","learning/Slide71.JPG","null","","","","",""
"","html-keyboard-response","219","845696","0.0-6.0-2.70","LF","9dovdyxkak","1280","720","de","er09us26","null","","","","learningBlock1","","","","<div style=""font-size:60px;""> </div>","null","LF","learning/Slide71.JPG","This is a wug:","",""
"","html-keyboard-response","220","846716","0.0-6.0-0.71","LF","9dovdyxkak","1280","720","de","er09us26","null","","","","learningBlock1","","","","This is a bim:","null","","","","",""
"","image-keyboard-response","221","847057","0.0-6.0-1.71","LF","9dovdyxkak","1280","720","de","er09us26","null","","","","","","","","learning/Slide72.JPG","null","","","","",""
"","html-keyboard-response","222","848064","0.0-6.0-2.71","LF","9dovdyxkak","1280","720","de","er09us26","null","","","","learningBlock1","","","","<div style=""font-size:60px;""> </div>","null","LF","learning/Slide72.JPG","This is a bim:","",""
"","html-keyboard-response","223","849077","0.0-6.0-0.72","LF","9dovdyxkak","1280","720","de","er09us26","null","","","","learningBlock1","","","","This is a wug:","null","","","","",""
"","image-keyboard-response","224","849436","0.0-6.0-1.72","LF","9dovdyxkak","1280","720","de","er09us26","null","","","","","","","","learning/Slide73.JPG","null","","","","",""
"","html-keyboard-response","225","850446","0.0-6.0-2.72","LF","9dovdyxkak","1280","720","de","er09us26","null","","","","learningBlock1","","","","<div style=""font-size:60px;""> </div>","null","LF","learning/Slide73.JPG","This is a wug:","",""
"","html-keyboard-response","226","851466","0.0-6.0-0.73","LF","9dovdyxkak","1280","720","de","er09us26","null","","","","learningBlock1","","","","This is a dep:","null","","","","",""
"","image-keyboard-response","227","851816","0.0-6.0-1.73","LF","9dovdyxkak","1280","720","de","er09us26","null","","","","","","","","learning/Slide74.JPG","null","","","","",""
"","html-keyboard-response","228","852836","0.0-6.0-2.73","LF","9dovdyxkak","1280","720","de","er09us26","null","","","","learningBlock1","","","","<div style=""font-size:60px;""> </div>","null","LF","learning/Slide74.JPG","This is a dep:","",""
"","html-keyboard-response","229","853847","0.0-6.0-0.74","LF","9dovdyxkak","1280","720","de","er09us26","null","","","","learningBlock1","","","","This is a tob:","null","","","","",""
"","image-keyboard-response","230","854206","0.0-6.0-1.74","LF","9dovdyxkak","1280","720","de","er09us26","null","","","","","","","","learning/Slide75.JPG","null","","","","",""
"","html-keyboard-response","231","855226","0.0-6.0-2.74","LF","9dovdyxkak","1280","720","de","er09us26","null","","","","learningBlock1","","","","<div style=""font-size:60px;""> </div>","null","LF","learning/Slide75.JPG","This is a tob:","",""
"","html-keyboard-response","232","856247","0.0-6.0-0.75","LF","9dovdyxkak","1280","720","de","er09us26","null","","","","learningBlock1","","","","This is a bim:","null","","","","",""
"","image-keyboard-response","233","856597","0.0-6.0-1.75","LF","9dovdyxkak","1280","720","de","er09us26","null","","","","","","","","learning/Slide76.JPG","null","","","","",""
"","html-keyboard-response","234","857617","0.0-6.0-2.75","LF","9dovdyxkak","1280","720","de","er09us26","null","","","","learningBlock1","","","","<div style=""font-size:60px;""> </div>","null","LF","learning/Slide76.JPG","This is a bim:","",""
"","html-keyboard-response","235","858627","0.0-6.0-0.76","LF","9dovdyxkak","1280","720","de","er09us26","null","","","","learningBlock1","","","","This is a tob:","null","","","","",""
"","image-keyboard-response","236","858976","0.0-6.0-1.76","LF","9dovdyxkak","1280","720","de","er09us26","null","","","","","","","","learning/Slide77.JPG","null","","","","",""
"","html-keyboard-response","237","859983","0.0-6.0-2.76","LF","9dovdyxkak","1280","720","de","er09us26","null","","","","learningBlock1","","","","<div style=""font-size:60px;""> </div>","null","LF","learning/Slide77.JPG","This is a tob:","",""
"","html-keyboard-response","238","860997","0.0-6.0-0.77","LF","9dovdyxkak","1280","720","de","er09us26","null","","","","learningBlock1","","","","This is a wug:","null","","","","",""
"","image-keyboard-response","239","861346","0.0-6.0-1.77","LF","9dovdyxkak","1280","720","de","er09us26","null","","","","","","","","learning/Slide78.JPG","null","","","","",""
"","html-keyboard-response","240","862359","0.0-6.0-2.77","LF","9dovdyxkak","1280","720","de","er09us26","null","","","","learningBlock1","","","","<div style=""font-size:60px;""> </div>","null","LF","learning/Slide78.JPG","This is a wug:","",""
"","html-keyboard-response","241","863366","0.0-6.0-0.78","LF","9dovdyxkak","1280","720","de","er09us26","null","","","","learningBlock1","","","","This is a bim:","null","","","","",""
"","image-keyboard-response","242","863727","0.0-6.0-1.78","LF","9dovdyxkak","1280","720","de","er09us26","null","","","","","","","","learning/Slide79.JPG","null","","","","",""
"","html-keyboard-response","243","864747","0.0-6.0-2.78","LF","9dovdyxkak","1280","720","de","er09us26","null","","","","learningBlock1","","","","<div style=""font-size:60px;""> </div>","null","LF","learning/Slide79.JPG","This is a bim:","",""
"","html-keyboard-response","244","865756","0.0-6.0-0.79","LF","9dovdyxkak","1280","720","de","er09us26","null","","","","learningBlock1","","","","This is a tob:","null","","","","",""
"","image-keyboard-response","245","866107","0.0-6.0-1.79","LF","9dovdyxkak","1280","720","de","er09us26","null","","","","","","","","learning/Slide80.JPG","null","","","","",""
"","html-keyboard-response","246","867117","0.0-6.0-2.79","LF","9dovdyxkak","1280","720","de","er09us26","null","","","","learningBlock1","","","","<div style=""font-size:60px;""> </div>","null","LF","learning/Slide80.JPG","This is a tob:","",""
"","instructions","247","969772","0.0-7.0","LF","9dovdyxkak","1280","720","de","er09us26","NA","","","[{""page_index"":0,""viewing_time"":102652}]","instructions","","","","","","","","","",""
"","html-keyboard-response","248","970777","0.0-8.0-0.0","LF","9dovdyxkak","1280","720","de","er09us26","null","","","","learningBlock2","","","","This is a wug:","null","","","","",""
"","image-keyboard-response","249","971126","0.0-8.0-1.0","LF","9dovdyxkak","1280","720","de","er09us26","null","","","","","","","","learning/Slide81.JPG","null","","","","",""
"","html-keyboard-response","250","972147","0.0-8.0-2.0","LF","9dovdyxkak","1280","720","de","er09us26","null","","","","learningBlock2","","","","<div style=""font-size:60px;""> </div>","null","LF","learning/Slide81.JPG","This is a wug:","",""
"","html-keyboard-response","251","973166","0.0-8.0-0.1","LF","9dovdyxkak","1280","720","de","er09us26","null","","","","learningBlock2","","","","This is a bim:","null","","","","",""
"","image-keyboard-response","252","973507","0.0-8.0-1.1","LF","9dovdyxkak","1280","720","de","er09us26","null","","","","","","","","learning/Slide82.JPG","null","","","","",""
"","html-keyboard-response","253","974517","0.0-8.0-2.1","LF","9dovdyxkak","1280","720","de","er09us26","null","","","","learningBlock2","","","","<div style=""font-size:60px;""> </div>","null","LF","learning/Slide82.JPG","This is a bim:","",""
"","html-keyboard-response","254","975536","0.0-8.0-0.2","LF","9dovdyxkak","1280","720","de","er09us26","null","","","","learningBlock2","","","","This is a wug:","null","","","","",""
"","image-keyboard-response","255","975873","0.0-8.0-1.2","LF","9dovdyxkak","1280","720","de","er09us26","null","","","","","","","","learning/Slide83.JPG","null","","","","",""
"","html-keyboard-response","256","976887","0.0-8.0-2.2","LF","9dovdyxkak","1280","720","de","er09us26","null","","","","learningBlock2","","","","<div style=""font-size:60px;""> </div>","null","LF","learning/Slide83.JPG","This is a wug:","",""
"","html-keyboard-response","257","977896","0.0-8.0-0.3","LF","9dovdyxkak","1280","720","de","er09us26","null","","","","learningBlock2","","","","This is a dep:","null","","","","",""
"","image-keyboard-response","258","978247","0.0-8.0-1.3","LF","9dovdyxkak","1280","720","de","er09us26","null","","","","","","","","learning/Slide84.JPG","null","","","","",""
"","html-keyboard-response","259","979256","0.0-8.0-2.3","LF","9dovdyxkak","1280","720","de","er09us26","null","","","","learningBlock2","","","","<div style=""font-size:60px;""> </div>","null","LF","learning/Slide84.JPG","This is a dep:","",""
"","html-keyboard-response","260","980267","0.0-8.0-0.4","LF","9dovdyxkak","1280","720","de","er09us26","null","","","","learningBlock2","","","","This is a bim:","null","","","","",""
"","image-keyboard-response","261","980607","0.0-8.0-1.4","LF","9dovdyxkak","1280","720","de","er09us26","null","","","","","","","","learning/Slide85.JPG","null","","","","",""
"","html-keyboard-response","262","981617","0.0-8.0-2.4","LF","9dovdyxkak","1280","720","de","er09us26","null","","","","learningBlock2","","","","<div style=""font-size:60px;""> </div>","null","LF","learning/Slide85.JPG","This is a bim:","",""
"","html-keyboard-response","263","982628","0.0-8.0-0.5","LF","9dovdyxkak","1280","720","de","er09us26","null","","","","learningBlock2","","","","This is a tob:","null","","","","",""
"","image-keyboard-response","264","982966","0.0-8.0-1.5","LF","9dovdyxkak","1280","720","de","er09us26","null","","","","","","","","learning/Slide86.JPG","null","","","","",""
"","html-keyboard-response","265","983976","0.0-8.0-2.5","LF","9dovdyxkak","1280","720","de","er09us26","null","","","","learningBlock2","","","","<div style=""font-size:60px;""> </div>","null","LF","learning/Slide86.JPG","This is a tob:","",""
"","html-keyboard-response","266","984986","0.0-8.0-0.6","LF","9dovdyxkak","1280","720","de","er09us26","null","","","","learningBlock2","","","","This is a wug:","null","","","","",""
"","image-keyboard-response","267","985326","0.0-8.0-1.6","LF","9dovdyxkak","1280","720","de","er09us26","null","","","","","","","","learning/Slide87.JPG","null","","","","",""
"","html-keyboard-response","268","986347","0.0-8.0-2.6","LF","9dovdyxkak","1280","720","de","er09us26","null","","","","learningBlock2","","","","<div style=""font-size:60px;""> </div>","null","LF","learning/Slide87.JPG","This is a wug:","",""
"","html-keyboard-response","269","987357","0.0-8.0-0.7","LF","9dovdyxkak","1280","720","de","er09us26","null","","","","learningBlock2","","","","This is a tob:","null","","","","",""
"","image-keyboard-response","270","987706","0.0-8.0-1.7","LF","9dovdyxkak","1280","720","de","er09us26","null","","","","","","","","learning/Slide88.JPG","null","","","","",""
"","html-keyboard-response","271","988727","0.0-8.0-2.7","LF","9dovdyxkak","1280","720","de","er09us26","null","","","","learningBlock2","","","","<div style=""font-size:60px;""> </div>","null","LF","learning/Slide88.JPG","This is a tob:","",""
"","html-keyboard-response","272","989736","0.0-8.0-0.8","LF","9dovdyxkak","1280","720","de","er09us26","null","","","","learningBlock2","","","","This is a bim:","null","","","","",""
"","image-keyboard-response","273","990086","0.0-8.0-1.8","LF","9dovdyxkak","1280","720","de","er09us26","null","","","","","","","","learning/Slide89.JPG","null","","","","",""
"","html-keyboard-response","274","991107","0.0-8.0-2.8","LF","9dovdyxkak","1280","720","de","er09us26","null","","","","learningBlock2","","","","<div style=""font-size:60px;""> </div>","null","LF","learning/Slide89.JPG","This is a bim:","",""
"","html-keyboard-response","275","992116","0.0-8.0-0.9","LF","9dovdyxkak","1280","720","de","er09us26","null","","","","learningBlock2","","","","This is a dep:","null","","","","",""
"","image-keyboard-response","276","992467","0.0-8.0-1.9","LF","9dovdyxkak","1280","720","de","er09us26","null","","","","","","","","learning/Slide90.JPG","null","","","","",""
"","html-keyboard-response","277","993487","0.0-8.0-2.9","LF","9dovdyxkak","1280","720","de","er09us26","null","","","","learningBlock2","","","","<div style=""font-size:60px;""> </div>","null","LF","learning/Slide90.JPG","This is a dep:","",""
"","html-keyboard-response","278","994497","0.0-8.0-0.10","LF","9dovdyxkak","1280","720","de","er09us26","null","","","","learningBlock2","","","","This is a wug:","null","","","","",""
"","image-keyboard-response","279","994836","0.0-8.0-1.10","LF","9dovdyxkak","1280","720","de","er09us26","null","","","","","","","","learning/Slide91.JPG","null","","","","",""
"","html-keyboard-response","280","995856","0.0-8.0-2.10","LF","9dovdyxkak","1280","720","de","er09us26","null","","","","learningBlock2","","","","<div style=""font-size:60px;""> </div>","null","LF","learning/Slide91.JPG","This is a wug:","",""
"","html-keyboard-response","281","996876","0.0-8.0-0.11","LF","9dovdyxkak","1280","720","de","er09us26","null","","","","learningBlock2","","","","This is a tob:","null","","","","",""
"","image-keyboard-response","282","997216","0.0-8.0-1.11","LF","9dovdyxkak","1280","720","de","er09us26","null","","","","","","","","learning/Slide92.JPG","null","","","","",""
"","html-keyboard-response","283","998237","0.0-8.0-2.11","LF","9dovdyxkak","1280","720","de","er09us26","null","","","","learningBlock2","","","","<div style=""font-size:60px;""> </div>","null","LF","learning/Slide92.JPG","This is a tob:","",""
"","html-keyboard-response","284","999247","0.0-8.0-0.12","LF","9dovdyxkak","1280","720","de","er09us26","null","","","","learningBlock2","","","","This is a bim:","null","","","","",""
"","image-keyboard-response","285","999596","0.0-8.0-1.12","LF","9dovdyxkak","1280","720","de","er09us26","null","","","","","","","","learning/Slide93.JPG","null","","","","",""
"","html-keyboard-response","286","1000606","0.0-8.0-2.12","LF","9dovdyxkak","1280","720","de","er09us26","null","","","","learningBlock2","","","","<div style=""font-size:60px;""> </div>","null","LF","learning/Slide93.JPG","This is a bim:","",""
"","html-keyboard-response","287","1001616","0.0-8.0-0.13","LF","9dovdyxkak","1280","720","de","er09us26","null","","","","learningBlock2","","","","This is a tob:","null","","","","",""
"","image-keyboard-response","288","1001956","0.0-8.0-1.13","LF","9dovdyxkak","1280","720","de","er09us26","null","","","","","","","","learning/Slide94.JPG","null","","","","",""
"","html-keyboard-response","289","1002968","0.0-8.0-2.13","LF","9dovdyxkak","1280","720","de","er09us26","null","","","","learningBlock2","","","","<div style=""font-size:60px;""> </div>","null","LF","learning/Slide94.JPG","This is a tob:","",""
"","html-keyboard-response","290","1003976","0.0-8.0-0.14","LF","9dovdyxkak","1280","720","de","er09us26","null","","","","learningBlock2","","","","This is a wug:","null","","","","",""
"","image-keyboard-response","291","1004316","0.0-8.0-1.14","LF","9dovdyxkak","1280","720","de","er09us26","null","","","","","","","","learning/Slide95.JPG","null","","","","",""
"","html-keyboard-response","292","1005326","0.0-8.0-2.14","LF","9dovdyxkak","1280","720","de","er09us26","null","","","","learningBlock2","","","","<div style=""font-size:60px;""> </div>","null","LF","learning/Slide95.JPG","This is a wug:","",""
"","html-keyboard-response","293","1006336","0.0-8.0-0.15","LF","9dovdyxkak","1280","720","de","er09us26","null","","","","learningBlock2","","","","This is a tob:","null","","","","",""
"","image-keyboard-response","294","1006687","0.0-8.0-1.15","LF","9dovdyxkak","1280","720","de","er09us26","null","","","","","","","","learning/Slide96.JPG","null","","","","",""
"","html-keyboard-response","295","1007696","0.0-8.0-2.15","LF","9dovdyxkak","1280","720","de","er09us26","null","","","","learningBlock2","","","","<div style=""font-size:60px;""> </div>","null","LF","learning/Slide96.JPG","This is a tob:","",""
"","html-keyboard-response","296","1008716","0.0-8.0-0.16","LF","9dovdyxkak","1280","720","de","er09us26","null","","","","learningBlock2","","","","This is a dep:","null","","","","",""
"","image-keyboard-response","297","1009066","0.0-8.0-1.16","LF","9dovdyxkak","1280","720","de","er09us26","null","","","","","","","","learning/Slide97.JPG","null","","","","",""
"","html-keyboard-response","298","1010076","0.0-8.0-2.16","LF","9dovdyxkak","1280","720","de","er09us26","null","","","","learningBlock2","","","","<div style=""font-size:60px;""> </div>","null","LF","learning/Slide97.JPG","This is a dep:","",""
"","html-keyboard-response","299","1011096","0.0-8.0-0.17","LF","9dovdyxkak","1280","720","de","er09us26","null","","","","learningBlock2","","","","This is a bim:","null","","","","",""
"","image-keyboard-response","300","1011436","0.0-8.0-1.17","LF","9dovdyxkak","1280","720","de","er09us26","null","","","","","","","","learning/Slide98.JPG","null","","","","",""
"","html-keyboard-response","301","1012456","0.0-8.0-2.17","LF","9dovdyxkak","1280","720","de","er09us26","null","","","","learningBlock2","","","","<div style=""font-size:60px;""> </div>","null","LF","learning/Slide98.JPG","This is a bim:","",""
"","html-keyboard-response","302","1013467","0.0-8.0-0.18","LF","9dovdyxkak","1280","720","de","er09us26","null","","","","learningBlock2","","","","This is a dep:","null","","","","",""
"","image-keyboard-response","303","1013804","0.0-8.0-1.18","LF","9dovdyxkak","1280","720","de","er09us26","null","","","","","","","","learning/Slide99.JPG","null","","","","",""
"","html-keyboard-response","304","1014807","0.0-8.0-2.18","LF","9dovdyxkak","1280","720","de","er09us26","null","","","","learningBlock2","","","","<div style=""font-size:60px;""> </div>","null","LF","learning/Slide99.JPG","This is a dep:","",""
"","html-keyboard-response","305","1015826","0.0-8.0-0.19","LF","9dovdyxkak","1280","720","de","er09us26","null","","","","learningBlock2","","","","This is a bim:","null","","","","",""
"","image-keyboard-response","306","1016176","0.0-8.0-1.19","LF","9dovdyxkak","1280","720","de","er09us26","null","","","","","","","","learning/Slide100.JPG","null","","","","",""
"","html-keyboard-response","307","1017197","0.0-8.0-2.19","LF","9dovdyxkak","1280","720","de","er09us26","null","","","","learningBlock2","","","","<div style=""font-size:60px;""> </div>","null","LF","learning/Slide100.JPG","This is a bim:","",""
"","html-keyboard-response","308","1018207","0.0-8.0-0.20","LF","9dovdyxkak","1280","720","de","er09us26","null","","","","learningBlock2","","","","This is a tob:","null","","","","",""
"","image-keyboard-response","309","1018546","0.0-8.0-1.20","LF","9dovdyxkak","1280","720","de","er09us26","null","","","","","","","","learning/Slide101.JPG","null","","","","",""
"","html-keyboard-response","310","1019557","0.0-8.0-2.20","LF","9dovdyxkak","1280","720","de","er09us26","null","","","","learningBlock2","","","","<div style=""font-size:60px;""> </div>","null","LF","learning/Slide101.JPG","This is a tob:","",""
"","html-keyboard-response","311","1020566","0.0-8.0-0.21","LF","9dovdyxkak","1280","720","de","er09us26","null","","","","learningBlock2","","","","This is a bim:","null","","","","",""
"","image-keyboard-response","312","1020926","0.0-8.0-1.21","LF","9dovdyxkak","1280","720","de","er09us26","null","","","","","","","","learning/Slide102.JPG","null","","","","",""
"","html-keyboard-response","313","1021946","0.0-8.0-2.21","LF","9dovdyxkak","1280","720","de","er09us26","null","","","","learningBlock2","","","","<div style=""font-size:60px;""> </div>","null","LF","learning/Slide102.JPG","This is a bim:","",""
"","html-keyboard-response","314","1022956","0.0-8.0-0.22","LF","9dovdyxkak","1280","720","de","er09us26","null","","","","learningBlock2","","","","This is a dep:","null","","","","",""
"","image-keyboard-response","315","1023297","0.0-8.0-1.22","LF","9dovdyxkak","1280","720","de","er09us26","null","","","","","","","","learning/Slide103.JPG","null","","","","",""
"","html-keyboard-response","316","1024317","0.0-8.0-2.22","LF","9dovdyxkak","1280","720","de","er09us26","null","","","","learningBlock2","","","","<div style=""font-size:60px;""> </div>","null","LF","learning/Slide103.JPG","This is a dep:","",""
"","html-keyboard-response","317","1025336","0.0-8.0-0.23","LF","9dovdyxkak","1280","720","de","er09us26","null","","","","learningBlock2","","","","This is a tob:","null","","","","",""
"","image-keyboard-response","318","1025676","0.0-8.0-1.23","LF","9dovdyxkak","1280","720","de","er09us26","null","","","","","","","","learning/Slide104.JPG","null","","","","",""
"","html-keyboard-response","319","1026694","0.0-8.0-2.23","LF","9dovdyxkak","1280","720","de","er09us26","null","","","","learningBlock2","","","","<div style=""font-size:60px;""> </div>","null","LF","learning/Slide104.JPG","This is a tob:","",""
"","html-keyboard-response","320","1027696","0.0-8.0-0.24","LF","9dovdyxkak","1280","720","de","er09us26","null","","","","learningBlock2","","","","This is a dep:","null","","","","",""
"","image-keyboard-response","321","1028037","0.0-8.0-1.24","LF","9dovdyxkak","1280","720","de","er09us26","null","","","","","","","","learning/Slide105.JPG","null","","","","",""
"","html-keyboard-response","322","1029046","0.0-8.0-2.24","LF","9dovdyxkak","1280","720","de","er09us26","null","","","","learningBlock2","","","","<div style=""font-size:60px;""> </div>","null","LF","learning/Slide105.JPG","This is a dep:","",""
"","html-keyboard-response","323","1030066","0.0-8.0-0.25","LF","9dovdyxkak","1280","720","de","er09us26","null","","","","learningBlock2","","","","This is a wug:","null","","","","",""
"","image-keyboard-response","324","1030407","0.0-8.0-1.25","LF","9dovdyxkak","1280","720","de","er09us26","null","","","","","","","","learning/Slide106.JPG","null","","","","",""
"","html-keyboard-response","325","1031427","0.0-8.0-2.25","LF","9dovdyxkak","1280","720","de","er09us26","null","","","","learningBlock2","","","","<div style=""font-size:60px;""> </div>","null","LF","learning/Slide106.JPG","This is a wug:","",""
"","html-keyboard-response","326","1032438","0.0-8.0-0.26","LF","9dovdyxkak","1280","720","de","er09us26","null","","","","learningBlock2","","","","This is a bim:","null","","","","",""
"","image-keyboard-response","327","1032786","0.0-8.0-1.26","LF","9dovdyxkak","1280","720","de","er09us26","null","","","","","","","","learning/Slide107.JPG","null","","","","",""
"","html-keyboard-response","328","1033797","0.0-8.0-2.26","LF","9dovdyxkak","1280","720","de","er09us26","null","","","","learningBlock2","","","","<div style=""font-size:60px;""> </div>","null","LF","learning/Slide107.JPG","This is a bim:","",""
"","html-keyboard-response","329","1034806","0.0-8.0-0.27","LF","9dovdyxkak","1280","720","de","er09us26","null","","","","learningBlock2","","","","This is a dep:","null","","","","",""
"","image-keyboard-response","330","1035167","0.0-8.0-1.27","LF","9dovdyxkak","1280","720","de","er09us26","null","","","","","","","","learning/Slide108.JPG","null","","","","",""
"","html-keyboard-response","331","1036186","0.0-8.0-2.27","LF","9dovdyxkak","1280","720","de","er09us26","null","","","","learningBlock2","","","","<div style=""font-size:60px;""> </div>","null","LF","learning/Slide108.JPG","This is a dep:","",""
"","html-keyboard-response","332","1037206","0.0-8.0-0.28","LF","9dovdyxkak","1280","720","de","er09us26","null","","","","learningBlock2","","","","This is a wug:","null","","","","",""
"","image-keyboard-response","333","1037564","0.0-8.0-1.28","LF","9dovdyxkak","1280","720","de","er09us26","null","","","","","","","","learning/Slide109.JPG","null","","","","",""
"","html-keyboard-response","334","1038567","0.0-8.0-2.28","LF","9dovdyxkak","1280","720","de","er09us26","null","","","","learningBlock2","","","","<div style=""font-size:60px;""> </div>","null","LF","learning/Slide109.JPG","This is a wug:","",""
"","html-keyboard-response","335","1039577","0.0-8.0-0.29","LF","9dovdyxkak","1280","720","de","er09us26","null","","","","learningBlock2","","","","This is a bim:","null","","","","",""
"","image-keyboard-response","336","1039917","0.0-8.0-1.29","LF","9dovdyxkak","1280","720","de","er09us26","null","","","","","","","","learning/Slide110.JPG","null","","","","",""
"","html-keyboard-response","337","1040927","0.0-8.0-2.29","LF","9dovdyxkak","1280","720","de","er09us26","null","","","","learningBlock2","","","","<div style=""font-size:60px;""> </div>","null","LF","learning/Slide110.JPG","This is a bim:","",""
"","html-keyboard-response","338","1041946","0.0-8.0-0.30","LF","9dovdyxkak","1280","720","de","er09us26","null","","","","learningBlock2","","","","This is a tob:","null","","","","",""
"","image-keyboard-response","339","1042294","0.0-8.0-1.30","LF","9dovdyxkak","1280","720","de","er09us26","null","","","","","","","","learning/Slide111.JPG","null","","","","",""
"","html-keyboard-response","340","1043306","0.0-8.0-2.30","LF","9dovdyxkak","1280","720","de","er09us26","null","","","","learningBlock2","","","","<div style=""font-size:60px;""> </div>","null","LF","learning/Slide111.JPG","This is a tob:","",""
"","html-keyboard-response","341","1044327","0.0-8.0-0.31","LF","9dovdyxkak","1280","720","de","er09us26","null","","","","learningBlock2","","","","This is a wug:","null","","","","",""
"","image-keyboard-response","342","1044676","0.0-8.0-1.31","LF","9dovdyxkak","1280","720","de","er09us26","null","","","","","","","","learning/Slide112.JPG","null","","","","",""
"","html-keyboard-response","343","1045697","0.0-8.0-2.31","LF","9dovdyxkak","1280","720","de","er09us26","null","","","","learningBlock2","","","","<div style=""font-size:60px;""> </div>","null","LF","learning/Slide112.JPG","This is a wug:","",""
"","html-keyboard-response","344","1046717","0.0-8.0-0.32","LF","9dovdyxkak","1280","720","de","er09us26","null","","","","learningBlock2","","","","This is a tob:","null","","","","",""
"","image-keyboard-response","345","1047057","0.0-8.0-1.32","LF","9dovdyxkak","1280","720","de","er09us26","null","","","","","","","","learning/Slide113.JPG","null","","","","",""
"","html-keyboard-response","346","1048066","0.0-8.0-2.32","LF","9dovdyxkak","1280","720","de","er09us26","null","","","","learningBlock2","","","","<div style=""font-size:60px;""> </div>","null","LF","learning/Slide113.JPG","This is a tob:","",""
"","html-keyboard-response","347","1049087","0.0-8.0-0.33","LF","9dovdyxkak","1280","720","de","er09us26","null","","","","learningBlock2","","","","This is a wug:","null","","","","",""
"","image-keyboard-response","348","1049426","0.0-8.0-1.33","LF","9dovdyxkak","1280","720","de","er09us26","null","","","","","","","","learning/Slide114.JPG","null","","","","",""
"","html-keyboard-response","349","1050447","0.0-8.0-2.33","LF","9dovdyxkak","1280","720","de","er09us26","null","","","","learningBlock2","","","","<div style=""font-size:60px;""> </div>","null","LF","learning/Slide114.JPG","This is a wug:","",""
"","html-keyboard-response","350","1051457","0.0-8.0-0.34","LF","9dovdyxkak","1280","720","de","er09us26","null","","","","learningBlock2","","","","This is a bim:","null","","","","",""
"","image-keyboard-response","351","1051816","0.0-8.0-1.34","LF","9dovdyxkak","1280","720","de","er09us26","null","","","","","","","","learning/Slide115.JPG","null","","","","",""
"","html-keyboard-response","352","1052827","0.0-8.0-2.34","LF","9dovdyxkak","1280","720","de","er09us26","null","","","","learningBlock2","","","","<div style=""font-size:60px;""> </div>","null","LF","learning/Slide115.JPG","This is a bim:","",""
"","html-keyboard-response","353","1053837","0.0-8.0-0.35","LF","9dovdyxkak","1280","720","de","er09us26","null","","","","learningBlock2","","","","This is a dep:","null","","","","",""
"","image-keyboard-response","354","1054186","0.0-8.0-1.35","LF","9dovdyxkak","1280","720","de","er09us26","null","","","","","","","","learning/Slide116.JPG","null","","","","",""
"","html-keyboard-response","355","1055196","0.0-8.0-2.35","LF","9dovdyxkak","1280","720","de","er09us26","null","","","","learningBlock2","","","","<div style=""font-size:60px;""> </div>","null","LF","learning/Slide116.JPG","This is a dep:","",""
"","html-keyboard-response","356","1056208","0.0-8.0-0.36","LF","9dovdyxkak","1280","720","de","er09us26","null","","","","learningBlock2","","","","This is a tob:","null","","","","",""
"","image-keyboard-response","357","1056556","0.0-8.0-1.36","LF","9dovdyxkak","1280","720","de","er09us26","null","","","","","","","","learning/Slide117.JPG","null","","","","",""
"","html-keyboard-response","358","1057567","0.0-8.0-2.36","LF","9dovdyxkak","1280","720","de","er09us26","null","","","","learningBlock2","","","","<div style=""font-size:60px;""> </div>","null","LF","learning/Slide117.JPG","This is a tob:","",""
"","html-keyboard-response","359","1058587","0.0-8.0-0.37","LF","9dovdyxkak","1280","720","de","er09us26","null","","","","learningBlock2","","","","This is a dep:","null","","","","",""
"","image-keyboard-response","360","1058927","0.0-8.0-1.37","LF","9dovdyxkak","1280","720","de","er09us26","null","","","","","","","","learning/Slide118.JPG","null","","","","",""
"","html-keyboard-response","361","1059947","0.0-8.0-2.37","LF","9dovdyxkak","1280","720","de","er09us26","null","","","","learningBlock2","","","","<div style=""font-size:60px;""> </div>","null","LF","learning/Slide118.JPG","This is a dep:","",""
"","html-keyboard-response","362","1060956","0.0-8.0-0.38","LF","9dovdyxkak","1280","720","de","er09us26","null","","","","learningBlock2","","","","This is a wug:","null","","","","",""
"","image-keyboard-response","363","1061307","0.0-8.0-1.38","LF","9dovdyxkak","1280","720","de","er09us26","null","","","","","","","","learning/Slide119.JPG","null","","","","",""
"","html-keyboard-response","364","1062327","0.0-8.0-2.38","LF","9dovdyxkak","1280","720","de","er09us26","null","","","","learningBlock2","","","","<div style=""font-size:60px;""> </div>","null","LF","learning/Slide119.JPG","This is a wug:","",""
"","html-keyboard-response","365","1063336","0.0-8.0-0.39","LF","9dovdyxkak","1280","720","de","er09us26","null","","","","learningBlock2","","","","This is a dep:","null","","","","",""
"","image-keyboard-response","366","1063687","0.0-8.0-1.39","LF","9dovdyxkak","1280","720","de","er09us26","null","","","","","","","","learning/Slide120.JPG","null","","","","",""
"","html-keyboard-response","367","1064707","0.0-8.0-2.39","LF","9dovdyxkak","1280","720","de","er09us26","null","","","","learningBlock2","","","","<div style=""font-size:60px;""> </div>","null","LF","learning/Slide120.JPG","This is a dep:","",""
"","html-keyboard-response","368","1065717","0.0-8.0-0.40","LF","9dovdyxkak","1280","720","de","er09us26","null","","","","learningBlock2","","","","This is a bim:","null","","","","",""
"","image-keyboard-response","369","1066057","0.0-8.0-1.40","LF","9dovdyxkak","1280","720","de","er09us26","null","","","","","","","","learning/Slide121.JPG","null","","","","",""
"","html-keyboard-response","370","1067064","0.0-8.0-2.40","LF","9dovdyxkak","1280","720","de","er09us26","null","","","","learningBlock2","","","","<div style=""font-size:60px;""> </div>","null","LF","learning/Slide121.JPG","This is a bim:","",""
"","html-keyboard-response","371","1068077","0.0-8.0-0.41","LF","9dovdyxkak","1280","720","de","er09us26","null","","","","learningBlock2","","","","This is a wug:","null","","","","",""
"","image-keyboard-response","372","1068427","0.0-8.0-1.41","LF","9dovdyxkak","1280","720","de","er09us26","null","","","","","","","","learning/Slide122.JPG","null","","","","",""
"","html-keyboard-response","373","1069447","0.0-8.0-2.41","LF","9dovdyxkak","1280","720","de","er09us26","null","","","","learningBlock2","","","","<div style=""font-size:60px;""> </div>","null","LF","learning/Slide122.JPG","This is a wug:","",""
"","html-keyboard-response","374","1070466","0.0-8.0-0.42","LF","9dovdyxkak","1280","720","de","er09us26","null","","","","learningBlock2","","","","This is a bim:","null","","","","",""
"","image-keyboard-response","375","1070806","0.0-8.0-1.42","LF","9dovdyxkak","1280","720","de","er09us26","null","","","","","","","","learning/Slide123.JPG","null","","","","",""
"","html-keyboard-response","376","1071826","0.0-8.0-2.42","LF","9dovdyxkak","1280","720","de","er09us26","null","","","","learningBlock2","","","","<div style=""font-size:60px;""> </div>","null","LF","learning/Slide123.JPG","This is a bim:","",""
"","html-keyboard-response","377","1072836","0.0-8.0-0.43","LF","9dovdyxkak","1280","720","de","er09us26","null","","","","learningBlock2","","","","This is a tob:","null","","","","",""
"","image-keyboard-response","378","1073177","0.0-8.0-1.43","LF","9dovdyxkak","1280","720","de","er09us26","null","","","","","","","","learning/Slide124.JPG","null","","","","",""
"","html-keyboard-response","379","1074193","0.0-8.0-2.43","LF","9dovdyxkak","1280","720","de","er09us26","null","","","","learningBlock2","","","","<div style=""font-size:60px;""> </div>","null","LF","learning/Slide124.JPG","This is a tob:","",""
"","html-keyboard-response","380","1075207","0.0-8.0-0.44","LF","9dovdyxkak","1280","720","de","er09us26","null","","","","learningBlock2","","","","This is a bim:","null","","","","",""
"","image-keyboard-response","381","1075557","0.0-8.0-1.44","LF","9dovdyxkak","1280","720","de","er09us26","null","","","","","","","","learning/Slide125.JPG","null","","","","",""
"","html-keyboard-response","382","1076576","0.0-8.0-2.44","LF","9dovdyxkak","1280","720","de","er09us26","null","","","","learningBlock2","","","","<div style=""font-size:60px;""> </div>","null","LF","learning/Slide125.JPG","This is a bim:","",""
"","html-keyboard-response","383","1077586","0.0-8.0-0.45","LF","9dovdyxkak","1280","720","de","er09us26","null","","","","learningBlock2","","","","This is a tob:","null","","","","",""
"","image-keyboard-response","384","1077927","0.0-8.0-1.45","LF","9dovdyxkak","1280","720","de","er09us26","null","","","","","","","","learning/Slide126.JPG","null","","","","",""
"","html-keyboard-response","385","1078946","0.0-8.0-2.45","LF","9dovdyxkak","1280","720","de","er09us26","null","","","","learningBlock2","","","","<div style=""font-size:60px;""> </div>","null","LF","learning/Slide126.JPG","This is a tob:","",""
"","html-keyboard-response","386","1079967","0.0-8.0-0.46","LF","9dovdyxkak","1280","720","de","er09us26","null","","","","learningBlock2","","","","This is a dep:","null","","","","",""
"","image-keyboard-response","387","1080306","0.0-8.0-1.46","LF","9dovdyxkak","1280","720","de","er09us26","null","","","","","","","","learning/Slide127.JPG","null","","","","",""
"","html-keyboard-response","388","1081327","0.0-8.0-2.46","LF","9dovdyxkak","1280","720","de","er09us26","null","","","","learningBlock2","","","","<div style=""font-size:60px;""> </div>","null","LF","learning/Slide127.JPG","This is a dep:","",""
"","html-keyboard-response","389","1082337","0.0-8.0-0.47","LF","9dovdyxkak","1280","720","de","er09us26","null","","","","learningBlock2","","","","This is a wug:","null","","","","",""
"","image-keyboard-response","390","1082676","0.0-8.0-1.47","LF","9dovdyxkak","1280","720","de","er09us26","null","","","","","","","","learning/Slide128.JPG","null","","","","",""
"","html-keyboard-response","391","1083696","0.0-8.0-2.47","LF","9dovdyxkak","1280","720","de","er09us26","null","","","","learningBlock2","","","","<div style=""font-size:60px;""> </div>","null","LF","learning/Slide128.JPG","This is a wug:","",""
"","html-keyboard-response","392","1084707","0.0-8.0-0.48","LF","9dovdyxkak","1280","720","de","er09us26","null","","","","learningBlock2","","","","This is a tob:","null","","","","",""
"","image-keyboard-response","393","1085047","0.0-8.0-1.48","LF","9dovdyxkak","1280","720","de","er09us26","null","","","","","","","","learning/Slide129.JPG","null","","","","",""
"","html-keyboard-response","394","1086067","0.0-8.0-2.48","LF","9dovdyxkak","1280","720","de","er09us26","null","","","","learningBlock2","","","","<div style=""font-size:60px;""> </div>","null","LF","learning/Slide129.JPG","This is a tob:","",""
"","html-keyboard-response","395","1087086","0.0-8.0-0.49","LF","9dovdyxkak","1280","720","de","er09us26","null","","","","learningBlock2","","","","This is a wug:","null","","","","",""
"","image-keyboard-response","396","1087427","0.0-8.0-1.49","LF","9dovdyxkak","1280","720","de","er09us26","null","","","","","","","","learning/Slide130.JPG","null","","","","",""
"","html-keyboard-response","397","1088447","0.0-8.0-2.49","LF","9dovdyxkak","1280","720","de","er09us26","null","","","","learningBlock2","","","","<div style=""font-size:60px;""> </div>","null","LF","learning/Slide130.JPG","This is a wug:","",""
"","html-keyboard-response","398","1089466","0.0-8.0-0.50","LF","9dovdyxkak","1280","720","de","er09us26","null","","","","learningBlock2","","","","This is a bim:","null","","","","",""
"","image-keyboard-response","399","1089807","0.0-8.0-1.50","LF","9dovdyxkak","1280","720","de","er09us26","null","","","","","","","","learning/Slide131.JPG","null","","","","",""
"","html-keyboard-response","400","1090816","0.0-8.0-2.50","LF","9dovdyxkak","1280","720","de","er09us26","null","","","","learningBlock2","","","","<div style=""font-size:60px;""> </div>","null","LF","learning/Slide131.JPG","This is a bim:","",""
"","html-keyboard-response","401","1091836","0.0-8.0-0.51","LF","9dovdyxkak","1280","720","de","er09us26","null","","","","learningBlock2","","","","This is a dep:","null","","","","",""
"","image-keyboard-response","402","1092176","0.0-8.0-1.51","LF","9dovdyxkak","1280","720","de","er09us26","null","","","","","","","","learning/Slide132.JPG","null","","","","",""
"","html-keyboard-response","403","1093196","0.0-8.0-2.51","LF","9dovdyxkak","1280","720","de","er09us26","null","","","","learningBlock2","","","","<div style=""font-size:60px;""> </div>","null","LF","learning/Slide132.JPG","This is a dep:","",""
"","html-keyboard-response","404","1094217","0.0-8.0-0.52","LF","9dovdyxkak","1280","720","de","er09us26","null","","","","learningBlock2","","","","This is a tob:","null","","","","",""
"","image-keyboard-response","405","1094556","0.0-8.0-1.52","LF","9dovdyxkak","1280","720","de","er09us26","null","","","","","","","","learning/Slide133.JPG","null","","","","",""
"","html-keyboard-response","406","1095577","0.0-8.0-2.52","LF","9dovdyxkak","1280","720","de","er09us26","null","","","","learningBlock2","","","","<div style=""font-size:60px;""> </div>","null","LF","learning/Slide133.JPG","This is a tob:","",""
"","html-keyboard-response","407","1096582","0.0-8.0-0.53","LF","9dovdyxkak","1280","720","de","er09us26","null","","","","learningBlock2","","","","This is a dep:","null","","","","",""
"","image-keyboard-response","408","1096937","0.0-8.0-1.53","LF","9dovdyxkak","1280","720","de","er09us26","null","","","","","","","","learning/Slide134.JPG","null","","","","",""
"","html-keyboard-response","409","1097947","0.0-8.0-2.53","LF","9dovdyxkak","1280","720","de","er09us26","null","","","","learningBlock2","","","","<div style=""font-size:60px;""> </div>","null","LF","learning/Slide134.JPG","This is a dep:","",""
"","html-keyboard-response","410","1098956","0.0-8.0-0.54","LF","9dovdyxkak","1280","720","de","er09us26","null","","","","learningBlock2","","","","This is a tob:","null","","","","",""
"","image-keyboard-response","411","1099307","0.0-8.0-1.54","LF","9dovdyxkak","1280","720","de","er09us26","null","","","","","","","","learning/Slide135.JPG","null","","","","",""
"","html-keyboard-response","412","1100316","0.0-8.0-2.54","LF","9dovdyxkak","1280","720","de","er09us26","null","","","","learningBlock2","","","","<div style=""font-size:60px;""> </div>","null","LF","learning/Slide135.JPG","This is a tob:","",""
"","html-keyboard-response","413","1101326","0.0-8.0-0.55","LF","9dovdyxkak","1280","720","de","er09us26","null","","","","learningBlock2","","","","This is a wug:","null","","","","",""
"","image-keyboard-response","414","1101676","0.0-8.0-1.55","LF","9dovdyxkak","1280","720","de","er09us26","null","","","","","","","","learning/Slide136.JPG","null","","","","",""
"","html-keyboard-response","415","1102687","0.0-8.0-2.55","LF","9dovdyxkak","1280","720","de","er09us26","null","","","","learningBlock2","","","","<div style=""font-size:60px;""> </div>","null","LF","learning/Slide136.JPG","This is a wug:","",""
"","html-keyboard-response","416","1103707","0.0-8.0-0.56","LF","9dovdyxkak","1280","720","de","er09us26","null","","","","learningBlock2","","","","This is a tob:","null","","","","",""
"","image-keyboard-response","417","1104046","0.0-8.0-1.56","LF","9dovdyxkak","1280","720","de","er09us26","null","","","","","","","","learning/Slide137.JPG","null","","","","",""
"","html-keyboard-response","418","1105056","0.0-8.0-2.56","LF","9dovdyxkak","1280","720","de","er09us26","null","","","","learningBlock2","","","","<div style=""font-size:60px;""> </div>","null","LF","learning/Slide137.JPG","This is a tob:","",""
"","html-keyboard-response","419","1106067","0.0-8.0-0.57","LF","9dovdyxkak","1280","720","de","er09us26","null","","","","learningBlock2","","","","This is a bim:","null","","","","",""
"","image-keyboard-response","420","1106416","0.0-8.0-1.57","LF","9dovdyxkak","1280","720","de","er09us26","null","","","","","","","","learning/Slide138.JPG","null","","","","",""
"","html-keyboard-response","421","1107437","0.0-8.0-2.57","LF","9dovdyxkak","1280","720","de","er09us26","null","","","","learningBlock2","","","","<div style=""font-size:60px;""> </div>","null","LF","learning/Slide138.JPG","This is a bim:","",""
"","html-keyboard-response","422","1108447","0.0-8.0-0.58","LF","9dovdyxkak","1280","720","de","er09us26","null","","","","learningBlock2","","","","This is a wug:","null","","","","",""
"","image-keyboard-response","423","1108787","0.0-8.0-1.58","LF","9dovdyxkak","1280","720","de","er09us26","null","","","","","","","","learning/Slide139.JPG","null","","","","",""
"","html-keyboard-response","424","1109796","0.0-8.0-2.58","LF","9dovdyxkak","1280","720","de","er09us26","null","","","","learningBlock2","","","","<div style=""font-size:60px;""> </div>","null","LF","learning/Slide139.JPG","This is a wug:","",""
"","html-keyboard-response","425","1110811","0.0-8.0-0.59","LF","9dovdyxkak","1280","720","de","er09us26","null","","","","learningBlock2","","","","This is a dep:","null","","","","",""
"","image-keyboard-response","426","1111147","0.0-8.0-1.59","LF","9dovdyxkak","1280","720","de","er09us26","null","","","","","","","","learning/Slide140.JPG","null","","","","",""
"","html-keyboard-response","427","1112167","0.0-8.0-2.59","LF","9dovdyxkak","1280","720","de","er09us26","null","","","","learningBlock2","","","","<div style=""font-size:60px;""> </div>","null","LF","learning/Slide140.JPG","This is a dep:","",""
"","html-keyboard-response","428","1113177","0.0-8.0-0.60","LF","9dovdyxkak","1280","720","de","er09us26","null","","","","learningBlock2","","","","This is a tob:","null","","","","",""
"","image-keyboard-response","429","1113527","0.0-8.0-1.60","LF","9dovdyxkak","1280","720","de","er09us26","null","","","","","","","","learning/Slide141.JPG","null","","","","",""
"","html-keyboard-response","430","1114547","0.0-8.0-2.60","LF","9dovdyxkak","1280","720","de","er09us26","null","","","","learningBlock2","","","","<div style=""font-size:60px;""> </div>","null","LF","learning/Slide141.JPG","This is a tob:","",""
"","html-keyboard-response","431","1115566","0.0-8.0-0.61","LF","9dovdyxkak","1280","720","de","er09us26","null","","","","learningBlock2","","","","This is a wug:","null","","","","",""
"","image-keyboard-response","432","1115919","0.0-8.0-1.61","LF","9dovdyxkak","1280","720","de","er09us26","null","","","","","","","","learning/Slide142.JPG","null","","","","",""
"","html-keyboard-response","433","1116927","0.0-8.0-2.61","LF","9dovdyxkak","1280","720","de","er09us26","null","","","","learningBlock2","","","","<div style=""font-size:60px;""> </div>","null","LF","learning/Slide142.JPG","This is a wug:","",""
"","html-keyboard-response","434","1117936","0.0-8.0-0.62","LF","9dovdyxkak","1280","720","de","er09us26","null","","","","learningBlock2","","","","This is a bim:","null","","","","",""
"","image-keyboard-response","435","1118287","0.0-8.0-1.62","LF","9dovdyxkak","1280","720","de","er09us26","null","","","","","","","","learning/Slide143.JPG","null","","","","",""
"","html-keyboard-response","436","1119297","0.0-8.0-2.62","LF","9dovdyxkak","1280","720","de","er09us26","null","","","","learningBlock2","","","","<div style=""font-size:60px;""> </div>","null","LF","learning/Slide143.JPG","This is a bim:","",""
"","html-keyboard-response","437","1120306","0.0-8.0-0.63","LF","9dovdyxkak","1280","720","de","er09us26","null","","","","learningBlock2","","","","This is a dep:","null","","","","",""
"","image-keyboard-response","438","1120656","0.0-8.0-1.63","LF","9dovdyxkak","1280","720","de","er09us26","null","","","","","","","","learning/Slide144.JPG","null","","","","",""
"","html-keyboard-response","439","1121667","0.0-8.0-2.63","LF","9dovdyxkak","1280","720","de","er09us26","null","","","","learningBlock2","","","","<div style=""font-size:60px;""> </div>","null","LF","learning/Slide144.JPG","This is a dep:","",""
"","html-keyboard-response","440","1122683","0.0-8.0-0.64","LF","9dovdyxkak","1280","720","de","er09us26","null","","","","learningBlock2","","","","This is a bim:","null","","","","",""
"","image-keyboard-response","441","1123027","0.0-8.0-1.64","LF","9dovdyxkak","1280","720","de","er09us26","null","","","","","","","","learning/Slide145.JPG","null","","","","",""
"","html-keyboard-response","442","1124047","0.0-8.0-2.64","LF","9dovdyxkak","1280","720","de","er09us26","null","","","","learningBlock2","","","","<div style=""font-size:60px;""> </div>","null","LF","learning/Slide145.JPG","This is a bim:","",""
"","html-keyboard-response","443","1125057","0.0-8.0-0.65","LF","9dovdyxkak","1280","720","de","er09us26","null","","","","learningBlock2","","","","This is a tob:","null","","","","",""
"","image-keyboard-response","444","1125407","0.0-8.0-1.65","LF","9dovdyxkak","1280","720","de","er09us26","null","","","","","","","","learning/Slide146.JPG","null","","","","",""
"","html-keyboard-response","445","1126417","0.0-8.0-2.65","LF","9dovdyxkak","1280","720","de","er09us26","null","","","","learningBlock2","","","","<div style=""font-size:60px;""> </div>","null","LF","learning/Slide146.JPG","This is a tob:","",""
"","html-keyboard-response","446","1127427","0.0-8.0-0.66","LF","9dovdyxkak","1280","720","de","er09us26","null","","","","learningBlock2","","","","This is a wug:","null","","","","",""
"","image-keyboard-response","447","1127787","0.0-8.0-1.66","LF","9dovdyxkak","1280","720","de","er09us26","null","","","","","","","","learning/Slide147.JPG","null","","","","",""
"","html-keyboard-response","448","1128806","0.0-8.0-2.66","LF","9dovdyxkak","1280","720","de","er09us26","null","","","","learningBlock2","","","","<div style=""font-size:60px;""> </div>","null","LF","learning/Slide147.JPG","This is a wug:","",""
"","html-keyboard-response","449","1129816","0.0-8.0-0.67","LF","9dovdyxkak","1280","720","de","er09us26","null","","","","learningBlock2","","","","This is a bim:","null","","","","",""
"","image-keyboard-response","450","1130157","0.0-8.0-1.67","LF","9dovdyxkak","1280","720","de","er09us26","null","","","","","","","","learning/Slide148.JPG","null","","","","",""
"","html-keyboard-response","451","1131161","0.0-8.0-2.67","LF","9dovdyxkak","1280","720","de","er09us26","null","","","","learningBlock2","","","","<div style=""font-size:60px;""> </div>","null","LF","learning/Slide148.JPG","This is a bim:","",""
"","html-keyboard-response","452","1132176","0.0-8.0-0.68","LF","9dovdyxkak","1280","720","de","er09us26","null","","","","learningBlock2","","","","This is a dep:","null","","","","",""
"","image-keyboard-response","453","1132517","0.0-8.0-1.68","LF","9dovdyxkak","1280","720","de","er09us26","null","","","","","","","","learning/Slide149.JPG","null","","","","",""
"","html-keyboard-response","454","1133537","0.0-8.0-2.68","LF","9dovdyxkak","1280","720","de","er09us26","null","","","","learningBlock2","","","","<div style=""font-size:60px;""> </div>","null","LF","learning/Slide149.JPG","This is a dep:","",""
"","html-keyboard-response","455","1134547","0.0-8.0-0.69","LF","9dovdyxkak","1280","720","de","er09us26","null","","","","learningBlock2","","","","This is a wug:","null","","","","",""
"","image-keyboard-response","456","1134887","0.0-8.0-1.69","LF","9dovdyxkak","1280","720","de","er09us26","null","","","","","","","","learning/Slide150.JPG","null","","","","",""
"","html-keyboard-response","457","1135897","0.0-8.0-2.69","LF","9dovdyxkak","1280","720","de","er09us26","null","","","","learningBlock2","","","","<div style=""font-size:60px;""> </div>","null","LF","learning/Slide150.JPG","This is a wug:","",""
"","html-keyboard-response","458","1136907","0.0-8.0-0.70","LF","9dovdyxkak","1280","720","de","er09us26","null","","","","learningBlock2","","","","This is a dep:","null","","","","",""
"","image-keyboard-response","459","1137257","0.0-8.0-1.70","LF","9dovdyxkak","1280","720","de","er09us26","null","","","","","","","","learning/Slide151.JPG","null","","","","",""
"","html-keyboard-response","460","1138267","0.0-8.0-2.70","LF","9dovdyxkak","1280","720","de","er09us26","null","","","","learningBlock2","","","","<div style=""font-size:60px;""> </div>","null","LF","learning/Slide151.JPG","This is a dep:","",""
"","html-keyboard-response","461","1139286","0.0-8.0-0.71","LF","9dovdyxkak","1280","720","de","er09us26","null","","","","learningBlock2","","","","This is a wug:","null","","","","",""
"","image-keyboard-response","462","1139628","0.0-8.0-1.71","LF","9dovdyxkak","1280","720","de","er09us26","null","","","","","","","","learning/Slide152.JPG","null","","","","",""
"","html-keyboard-response","463","1140637","0.0-8.0-2.71","LF","9dovdyxkak","1280","720","de","er09us26","null","","","","learningBlock2","","","","<div style=""font-size:60px;""> </div>","null","LF","learning/Slide152.JPG","This is a wug:","",""
"","html-keyboard-response","464","1141657","0.0-8.0-0.72","LF","9dovdyxkak","1280","720","de","er09us26","null","","","","learningBlock2","","","","This is a bim:","null","","","","",""
"","image-keyboard-response","465","1141997","0.0-8.0-1.72","LF","9dovdyxkak","1280","720","de","er09us26","null","","","","","","","","learning/Slide153.JPG","null","","","","",""
"","html-keyboard-response","466","1143017","0.0-8.0-2.72","LF","9dovdyxkak","1280","720","de","er09us26","null","","","","learningBlock2","","","","<div style=""font-size:60px;""> </div>","null","LF","learning/Slide153.JPG","This is a bim:","",""
"","html-keyboard-response","467","1144036","0.0-8.0-0.73","LF","9dovdyxkak","1280","720","de","er09us26","null","","","","learningBlock2","","","","This is a tob:","null","","","","",""
"","image-keyboard-response","468","1144376","0.0-8.0-1.73","LF","9dovdyxkak","1280","720","de","er09us26","null","","","","","","","","learning/Slide154.JPG","null","","","","",""
"","html-keyboard-response","469","1145387","0.0-8.0-2.73","LF","9dovdyxkak","1280","720","de","er09us26","null","","","","learningBlock2","","","","<div style=""font-size:60px;""> </div>","null","LF","learning/Slide154.JPG","This is a tob:","",""
"","html-keyboard-response","470","1146407","0.0-8.0-0.74","LF","9dovdyxkak","1280","720","de","er09us26","null","","","","learningBlock2","","","","This is a dep:","null","","","","",""
"","image-keyboard-response","471","1146746","0.0-8.0-1.74","LF","9dovdyxkak","1280","720","de","er09us26","null","","","","","","","","learning/Slide155.JPG","null","","","","",""
"","html-keyboard-response","472","1147768","0.0-8.0-2.74","LF","9dovdyxkak","1280","720","de","er09us26","null","","","","learningBlock2","","","","<div style=""font-size:60px;""> </div>","null","LF","learning/Slide155.JPG","This is a dep:","",""
"","html-keyboard-response","473","1148787","0.0-8.0-0.75","LF","9dovdyxkak","1280","720","de","er09us26","null","","","","learningBlock2","","","","This is a bim:","null","","","","",""
"","image-keyboard-response","474","1149126","0.0-8.0-1.75","LF","9dovdyxkak","1280","720","de","er09us26","null","","","","","","","","learning/Slide156.JPG","null","","","","",""
"","html-keyboard-response","475","1150137","0.0-8.0-2.75","LF","9dovdyxkak","1280","720","de","er09us26","null","","","","learningBlock2","","","","<div style=""font-size:60px;""> </div>","null","LF","learning/Slide156.JPG","This is a bim:","",""
"","html-keyboard-response","476","1151147","0.0-8.0-0.76","LF","9dovdyxkak","1280","720","de","er09us26","null","","","","learningBlock2","","","","This is a dep:","null","","","","",""
"","image-keyboard-response","477","1151487","0.0-8.0-1.76","LF","9dovdyxkak","1280","720","de","er09us26","null","","","","","","","","learning/Slide157.JPG","null","","","","",""
"","html-keyboard-response","478","1152506","0.0-8.0-2.76","LF","9dovdyxkak","1280","720","de","er09us26","null","","","","learningBlock2","","","","<div style=""font-size:60px;""> </div>","null","LF","learning/Slide157.JPG","This is a dep:","",""
"","html-keyboard-response","479","1153527","0.0-8.0-0.77","LF","9dovdyxkak","1280","720","de","er09us26","null","","","","learningBlock2","","","","This is a tob:","null","","","","",""
"","image-keyboard-response","480","1153877","0.0-8.0-1.77","LF","9dovdyxkak","1280","720","de","er09us26","null","","","","","","","","learning/Slide158.JPG","null","","","","",""
"","html-keyboard-response","481","1154886","0.0-8.0-2.77","LF","9dovdyxkak","1280","720","de","er09us26","null","","","","learningBlock2","","","","<div style=""font-size:60px;""> </div>","null","LF","learning/Slide158.JPG","This is a tob:","",""
"","html-keyboard-response","482","1155906","0.0-8.0-0.78","LF","9dovdyxkak","1280","720","de","er09us26","null","","","","learningBlock2","","","","This is a dep:","null","","","","",""
"","image-keyboard-response","483","1156256","0.0-8.0-1.78","LF","9dovdyxkak","1280","720","de","er09us26","null","","","","","","","","learning/Slide159.JPG","null","","","","",""
"","html-keyboard-response","484","1157267","0.0-8.0-2.78","LF","9dovdyxkak","1280","720","de","er09us26","null","","","","learningBlock2","","","","<div style=""font-size:60px;""> </div>","null","LF","learning/Slide159.JPG","This is a dep:","",""
"","html-keyboard-response","485","1158277","0.0-8.0-0.79","LF","9dovdyxkak","1280","720","de","er09us26","null","","","","learningBlock2","","","","This is a wug:","null","","","","",""
"","image-keyboard-response","486","1158637","0.0-8.0-1.79","LF","9dovdyxkak","1280","720","de","er09us26","null","","","","","","","","learning/Slide160.JPG","null","","","","",""
"","html-keyboard-response","487","1159646","0.0-8.0-2.79","LF","9dovdyxkak","1280","720","de","er09us26","null","","","","learningBlock2","","","","<div style=""font-size:60px;""> </div>","null","LF","learning/Slide160.JPG","This is a wug:","",""
"","resize2","488","1220734","0.0-9.0","LF","9dovdyxkak","1280","720","de","er09us26","","","","","","","104","1.04","","","","","","",""
"","instructions","489","1287083","0.0-10.0","LF","9dovdyxkak","1280","720","de","er09us26","NA","","","[{""page_index"":0,""viewing_time"":66348}]","instructions","","","","","","","","","",""
