"success","trial_type","trial_index","time_elapsed","internal_node_id","condition","subject","screen_width","screen_height","language","codeword","rt","responses","url","view_history","test_part","final_height_px","final_width_px","scale_factor","stimulus","key_press","learningType","presentedImage","presentedLabel","button_pressed","response"
"true","fullscreen","0","3199","0.0-0.0","FL","eyn4ys1wrs","1536","864","en","va07il15","","","","","","","","","","","","","","",""
"","survey-html-form","1","4546","0.0-1.0","FL","eyn4ys1wrs","1536","864","en","va07il15","1340.4650000011316","{""language"":""en""}","","","","","","","","","","","","",""
"","external-html","2","7995","0.0-3.0-0.0","FL","eyn4ys1wrs","1536","864","en","va07il15","3438.1049999938114","","text/information_english.html","","","","","","","","","","","",""
"","external-html","3","47443","0.0-3.0-1.0","FL","eyn4ys1wrs","1536","864","en","va07il15","39408.049999998184","","text/consent_english.html","","","","","","","","","","","",""
"","survey-html-form","4","129662","0.0-3.0-2.0","FL","eyn4ys1wrs","1536","864","en","va07il15","82215.2999999962","{""codeword_enter"":""va07il15""}","","","","","","","","","","","","",""
"","instructions","5","150477","0.0-4.0","FL","eyn4ys1wrs","1536","864","en","va07il15","NA","","","[{""page_index"":0,""viewing_time"":4011.480000001029},{""page_index"":1,""viewing_time"":15297.980000003008}]","instructions","","","","","","","","","",""
"","resize","6","233428","0.0-5.0","FL","eyn4ys1wrs","1536","864","en","va07il15","","","","","","","387","2.4571428571428573","","","","","","",""
"","image-keyboard-response","7","233608","0.0-6.0-0.0","FL","eyn4ys1wrs","1536","864","en","va07il15","null","","","","","","","","learning/Slide1.JPG","null","","","","",""
"","html-keyboard-response","8","234762","0.0-6.0-1.0","FL","eyn4ys1wrs","1536","864","en","va07il15","null","","","","learningBlock1","","","","That was a tob.","null","","","","",""
"","html-keyboard-response","9","235765","0.0-6.0-2.0","FL","eyn4ys1wrs","1536","864","en","va07il15","null","","","","learningBlock1","","","","<div style=""font-size:60px;""> </div>","null","FL","learning/Slide1.JPG","That was a tob.","",""
"","image-keyboard-response","10","235942","0.0-6.0-0.1","FL","eyn4ys1wrs","1536","864","en","va07il15","null","","","","","","","","learning/Slide2.JPG","null","","","","",""
"","html-keyboard-response","11","237095","0.0-6.0-1.1","FL","eyn4ys1wrs","1536","864","en","va07il15","null","","","","learningBlock1","","","","That was a wug.","null","","","","",""
"","html-keyboard-response","12","238097","0.0-6.0-2.1","FL","eyn4ys1wrs","1536","864","en","va07il15","null","","","","learningBlock1","","","","<div style=""font-size:60px;""> </div>","null","FL","learning/Slide2.JPG","That was a wug.","",""
"","image-keyboard-response","13","238275","0.0-6.0-0.2","FL","eyn4ys1wrs","1536","864","en","va07il15","null","","","","","","","","learning/Slide3.JPG","null","","","","",""
"","html-keyboard-response","14","239429","0.0-6.0-1.2","FL","eyn4ys1wrs","1536","864","en","va07il15","null","","","","learningBlock1","","","","That was a bim.","null","","","","",""
"","html-keyboard-response","15","240431","0.0-6.0-2.2","FL","eyn4ys1wrs","1536","864","en","va07il15","null","","","","learningBlock1","","","","<div style=""font-size:60px;""> </div>","null","FL","learning/Slide3.JPG","That was a bim.","",""
"","image-keyboard-response","16","240608","0.0-6.0-0.3","FL","eyn4ys1wrs","1536","864","en","va07il15","null","","","","","","","","learning/Slide4.JPG","null","","","","",""
"","html-keyboard-response","17","241762","0.0-6.0-1.3","FL","eyn4ys1wrs","1536","864","en","va07il15","null","","","","learningBlock1","","","","That was a dep.","null","","","","",""
"","html-keyboard-response","18","242765","0.0-6.0-2.3","FL","eyn4ys1wrs","1536","864","en","va07il15","null","","","","learningBlock1","","","","<div style=""font-size:60px;""> </div>","null","FL","learning/Slide4.JPG","That was a dep.","",""
"","image-keyboard-response","19","242945","0.0-6.0-0.4","FL","eyn4ys1wrs","1536","864","en","va07il15","null","","","","","","","","learning/Slide5.JPG","null","","","","",""
"","html-keyboard-response","20","244098","0.0-6.0-1.4","FL","eyn4ys1wrs","1536","864","en","va07il15","null","","","","learningBlock1","","","","That was a wug.","null","","","","",""
"","html-keyboard-response","21","245101","0.0-6.0-2.4","FL","eyn4ys1wrs","1536","864","en","va07il15","null","","","","learningBlock1","","","","<div style=""font-size:60px;""> </div>","null","FL","learning/Slide5.JPG","That was a wug.","",""
"","image-keyboard-response","22","245279","0.0-6.0-0.5","FL","eyn4ys1wrs","1536","864","en","va07il15","null","","","","","","","","learning/Slide6.JPG","null","","","","",""
"","html-keyboard-response","23","246432","0.0-6.0-1.5","FL","eyn4ys1wrs","1536","864","en","va07il15","null","","","","learningBlock1","","","","That was a dep.","null","","","","",""
"","html-keyboard-response","24","247434","0.0-6.0-2.5","FL","eyn4ys1wrs","1536","864","en","va07il15","null","","","","learningBlock1","","","","<div style=""font-size:60px;""> </div>","null","FL","learning/Slide6.JPG","That was a dep.","",""
"","image-keyboard-response","25","247612","0.0-6.0-0.6","FL","eyn4ys1wrs","1536","864","en","va07il15","null","","","","","","","","learning/Slide7.JPG","null","","","","",""
"","html-keyboard-response","26","248766","0.0-6.0-1.6","FL","eyn4ys1wrs","1536","864","en","va07il15","null","","","","learningBlock1","","","","That was a wug.","null","","","","",""
"","html-keyboard-response","27","249769","0.0-6.0-2.6","FL","eyn4ys1wrs","1536","864","en","va07il15","null","","","","learningBlock1","","","","<div style=""font-size:60px;""> </div>","null","FL","learning/Slide7.JPG","That was a wug.","",""
"","image-keyboard-response","28","249947","0.0-6.0-0.7","FL","eyn4ys1wrs","1536","864","en","va07il15","null","","","","","","","","learning/Slide8.JPG","null","","","","",""
"","html-keyboard-response","29","251100","0.0-6.0-1.7","FL","eyn4ys1wrs","1536","864","en","va07il15","null","","","","learningBlock1","","","","That was a bim.","null","","","","",""
"","html-keyboard-response","30","252102","0.0-6.0-2.7","FL","eyn4ys1wrs","1536","864","en","va07il15","null","","","","learningBlock1","","","","<div style=""font-size:60px;""> </div>","null","FL","learning/Slide8.JPG","That was a bim.","",""
"","image-keyboard-response","31","252281","0.0-6.0-0.8","FL","eyn4ys1wrs","1536","864","en","va07il15","null","","","","","","","","learning/Slide9.JPG","null","","","","",""
"","html-keyboard-response","32","253434","0.0-6.0-1.8","FL","eyn4ys1wrs","1536","864","en","va07il15","null","","","","learningBlock1","","","","That was a wug.","null","","","","",""
"","html-keyboard-response","33","254436","0.0-6.0-2.8","FL","eyn4ys1wrs","1536","864","en","va07il15","null","","","","learningBlock1","","","","<div style=""font-size:60px;""> </div>","null","FL","learning/Slide9.JPG","That was a wug.","",""
"","image-keyboard-response","34","254617","0.0-6.0-0.9","FL","eyn4ys1wrs","1536","864","en","va07il15","null","","","","","","","","learning/Slide10.JPG","null","","","","",""
"","html-keyboard-response","35","255769","0.0-6.0-1.9","FL","eyn4ys1wrs","1536","864","en","va07il15","null","","","","learningBlock1","","","","That was a dep.","null","","","","",""
"","html-keyboard-response","36","256772","0.0-6.0-2.9","FL","eyn4ys1wrs","1536","864","en","va07il15","null","","","","learningBlock1","","","","<div style=""font-size:60px;""> </div>","null","FL","learning/Slide10.JPG","That was a dep.","",""
"","image-keyboard-response","37","256950","0.0-6.0-0.10","FL","eyn4ys1wrs","1536","864","en","va07il15","null","","","","","","","","learning/Slide11.JPG","null","","","","",""
"","html-keyboard-response","38","258102","0.0-6.0-1.10","FL","eyn4ys1wrs","1536","864","en","va07il15","null","","","","learningBlock1","","","","That was a tob.","null","","","","",""
"","html-keyboard-response","39","259104","0.0-6.0-2.10","FL","eyn4ys1wrs","1536","864","en","va07il15","null","","","","learningBlock1","","","","<div style=""font-size:60px;""> </div>","null","FL","learning/Slide11.JPG","That was a tob.","",""
"","image-keyboard-response","40","259282","0.0-6.0-0.11","FL","eyn4ys1wrs","1536","864","en","va07il15","null","","","","","","","","learning/Slide12.JPG","null","","","","",""
"","html-keyboard-response","41","260435","0.0-6.0-1.11","FL","eyn4ys1wrs","1536","864","en","va07il15","null","","","","learningBlock1","","","","That was a dep.","null","","","","",""
"","html-keyboard-response","42","261437","0.0-6.0-2.11","FL","eyn4ys1wrs","1536","864","en","va07il15","null","","","","learningBlock1","","","","<div style=""font-size:60px;""> </div>","null","FL","learning/Slide12.JPG","That was a dep.","",""
"","image-keyboard-response","43","261614","0.0-6.0-0.12","FL","eyn4ys1wrs","1536","864","en","va07il15","null","","","","","","","","learning/Slide13.JPG","null","","","","",""
"","html-keyboard-response","44","262769","0.0-6.0-1.12","FL","eyn4ys1wrs","1536","864","en","va07il15","null","","","","learningBlock1","","","","That was a bim.","null","","","","",""
"","html-keyboard-response","45","263772","0.0-6.0-2.12","FL","eyn4ys1wrs","1536","864","en","va07il15","null","","","","learningBlock1","","","","<div style=""font-size:60px;""> </div>","null","FL","learning/Slide13.JPG","That was a bim.","",""
"","image-keyboard-response","46","263950","0.0-6.0-0.13","FL","eyn4ys1wrs","1536","864","en","va07il15","null","","","","","","","","learning/Slide14.JPG","null","","","","",""
"","html-keyboard-response","47","265103","0.0-6.0-1.13","FL","eyn4ys1wrs","1536","864","en","va07il15","null","","","","learningBlock1","","","","That was a wug.","null","","","","",""
"","html-keyboard-response","48","266107","0.0-6.0-2.13","FL","eyn4ys1wrs","1536","864","en","va07il15","null","","","","learningBlock1","","","","<div style=""font-size:60px;""> </div>","null","FL","learning/Slide14.JPG","That was a wug.","",""
"","image-keyboard-response","49","266284","0.0-6.0-0.14","FL","eyn4ys1wrs","1536","864","en","va07il15","null","","","","","","","","learning/Slide15.JPG","null","","","","",""
"","html-keyboard-response","50","267437","0.0-6.0-1.14","FL","eyn4ys1wrs","1536","864","en","va07il15","null","","","","learningBlock1","","","","That was a tob.","null","","","","",""
"","html-keyboard-response","51","268439","0.0-6.0-2.14","FL","eyn4ys1wrs","1536","864","en","va07il15","null","","","","learningBlock1","","","","<div style=""font-size:60px;""> </div>","null","FL","learning/Slide15.JPG","That was a tob.","",""
"","image-keyboard-response","52","268616","0.0-6.0-0.15","FL","eyn4ys1wrs","1536","864","en","va07il15","null","","","","","","","","learning/Slide16.JPG","null","","","","",""
"","html-keyboard-response","53","269771","0.0-6.0-1.15","FL","eyn4ys1wrs","1536","864","en","va07il15","null","","","","learningBlock1","","","","That was a dep.","null","","","","",""
"","html-keyboard-response","54","270773","0.0-6.0-2.15","FL","eyn4ys1wrs","1536","864","en","va07il15","null","","","","learningBlock1","","","","<div style=""font-size:60px;""> </div>","null","FL","learning/Slide16.JPG","That was a dep.","",""
"","image-keyboard-response","55","270950","0.0-6.0-0.16","FL","eyn4ys1wrs","1536","864","en","va07il15","null","","","","","","","","learning/Slide17.JPG","null","","","","",""
"","html-keyboard-response","56","272104","0.0-6.0-1.16","FL","eyn4ys1wrs","1536","864","en","va07il15","null","","","","learningBlock1","","","","That was a bim.","null","","","","",""
"","html-keyboard-response","57","273106","0.0-6.0-2.16","FL","eyn4ys1wrs","1536","864","en","va07il15","null","","","","learningBlock1","","","","<div style=""font-size:60px;""> </div>","null","FL","learning/Slide17.JPG","That was a bim.","",""
"","image-keyboard-response","58","273284","0.0-6.0-0.17","FL","eyn4ys1wrs","1536","864","en","va07il15","null","","","","","","","","learning/Slide18.JPG","null","","","","",""
"","html-keyboard-response","59","274437","0.0-6.0-1.17","FL","eyn4ys1wrs","1536","864","en","va07il15","null","","","","learningBlock1","","","","That was a tob.","null","","","","",""
"","html-keyboard-response","60","275439","0.0-6.0-2.17","FL","eyn4ys1wrs","1536","864","en","va07il15","null","","","","learningBlock1","","","","<div style=""font-size:60px;""> </div>","null","FL","learning/Slide18.JPG","That was a tob.","",""
"","image-keyboard-response","61","275616","0.0-6.0-0.18","FL","eyn4ys1wrs","1536","864","en","va07il15","null","","","","","","","","learning/Slide19.JPG","null","","","","",""
"","html-keyboard-response","62","276770","0.0-6.0-1.18","FL","eyn4ys1wrs","1536","864","en","va07il15","null","","","","learningBlock1","","","","That was a wug.","null","","","","",""
"","html-keyboard-response","63","277774","0.0-6.0-2.18","FL","eyn4ys1wrs","1536","864","en","va07il15","null","","","","learningBlock1","","","","<div style=""font-size:60px;""> </div>","null","FL","learning/Slide19.JPG","That was a wug.","",""
"","image-keyboard-response","64","277953","0.0-6.0-0.19","FL","eyn4ys1wrs","1536","864","en","va07il15","null","","","","","","","","learning/Slide20.JPG","null","","","","",""
"","html-keyboard-response","65","279106","0.0-6.0-1.19","FL","eyn4ys1wrs","1536","864","en","va07il15","null","","","","learningBlock1","","","","That was a bim.","null","","","","",""
"","html-keyboard-response","66","280108","0.0-6.0-2.19","FL","eyn4ys1wrs","1536","864","en","va07il15","null","","","","learningBlock1","","","","<div style=""font-size:60px;""> </div>","null","FL","learning/Slide20.JPG","That was a bim.","",""
"","image-keyboard-response","67","280285","0.0-6.0-0.20","FL","eyn4ys1wrs","1536","864","en","va07il15","null","","","","","","","","learning/Slide21.JPG","null","","","","",""
"","html-keyboard-response","68","281438","0.0-6.0-1.20","FL","eyn4ys1wrs","1536","864","en","va07il15","null","","","","learningBlock1","","","","That was a dep.","null","","","","",""
"","html-keyboard-response","69","282442","0.0-6.0-2.20","FL","eyn4ys1wrs","1536","864","en","va07il15","null","","","","learningBlock1","","","","<div style=""font-size:60px;""> </div>","null","FL","learning/Slide21.JPG","That was a dep.","",""
"","image-keyboard-response","70","282619","0.0-6.0-0.21","FL","eyn4ys1wrs","1536","864","en","va07il15","null","","","","","","","","learning/Slide22.JPG","null","","","","",""
"","html-keyboard-response","71","283773","0.0-6.0-1.21","FL","eyn4ys1wrs","1536","864","en","va07il15","null","","","","learningBlock1","","","","That was a bim.","null","","","","",""
"","html-keyboard-response","72","284775","0.0-6.0-2.21","FL","eyn4ys1wrs","1536","864","en","va07il15","null","","","","learningBlock1","","","","<div style=""font-size:60px;""> </div>","null","FL","learning/Slide22.JPG","That was a bim.","",""
"","image-keyboard-response","73","284952","0.0-6.0-0.22","FL","eyn4ys1wrs","1536","864","en","va07il15","null","","","","","","","","learning/Slide23.JPG","null","","","","",""
"","html-keyboard-response","74","286106","0.0-6.0-1.22","FL","eyn4ys1wrs","1536","864","en","va07il15","null","","","","learningBlock1","","","","That was a tob.","null","","","","",""
"","html-keyboard-response","75","287108","0.0-6.0-2.22","FL","eyn4ys1wrs","1536","864","en","va07il15","null","","","","learningBlock1","","","","<div style=""font-size:60px;""> </div>","null","FL","learning/Slide23.JPG","That was a tob.","",""
"","image-keyboard-response","76","287286","0.0-6.0-0.23","FL","eyn4ys1wrs","1536","864","en","va07il15","null","","","","","","","","learning/Slide24.JPG","null","","","","",""
"","html-keyboard-response","77","288439","0.0-6.0-1.23","FL","eyn4ys1wrs","1536","864","en","va07il15","null","","","","learningBlock1","","","","That was a wug.","null","","","","",""
"","html-keyboard-response","78","289441","0.0-6.0-2.23","FL","eyn4ys1wrs","1536","864","en","va07il15","null","","","","learningBlock1","","","","<div style=""font-size:60px;""> </div>","null","FL","learning/Slide24.JPG","That was a wug.","",""
"","image-keyboard-response","79","289619","0.0-6.0-0.24","FL","eyn4ys1wrs","1536","864","en","va07il15","null","","","","","","","","learning/Slide25.JPG","null","","","","",""
"","html-keyboard-response","80","290772","0.0-6.0-1.24","FL","eyn4ys1wrs","1536","864","en","va07il15","null","","","","learningBlock1","","","","That was a dep.","null","","","","",""
"","html-keyboard-response","81","291774","0.0-6.0-2.24","FL","eyn4ys1wrs","1536","864","en","va07il15","null","","","","learningBlock1","","","","<div style=""font-size:60px;""> </div>","null","FL","learning/Slide25.JPG","That was a dep.","",""
"","image-keyboard-response","82","291951","0.0-6.0-0.25","FL","eyn4ys1wrs","1536","864","en","va07il15","null","","","","","","","","learning/Slide26.JPG","null","","","","",""
"","html-keyboard-response","83","293107","0.0-6.0-1.25","FL","eyn4ys1wrs","1536","864","en","va07il15","null","","","","learningBlock1","","","","That was a wug.","null","","","","",""
"","html-keyboard-response","84","294111","0.0-6.0-2.25","FL","eyn4ys1wrs","1536","864","en","va07il15","null","","","","learningBlock1","","","","<div style=""font-size:60px;""> </div>","null","FL","learning/Slide26.JPG","That was a wug.","",""
"","image-keyboard-response","85","294288","0.0-6.0-0.26","FL","eyn4ys1wrs","1536","864","en","va07il15","null","","","","","","","","learning/Slide27.JPG","null","","","","",""
"","html-keyboard-response","86","295441","0.0-6.0-1.26","FL","eyn4ys1wrs","1536","864","en","va07il15","null","","","","learningBlock1","","","","That was a bim.","null","","","","",""
"","html-keyboard-response","87","296443","0.0-6.0-2.26","FL","eyn4ys1wrs","1536","864","en","va07il15","null","","","","learningBlock1","","","","<div style=""font-size:60px;""> </div>","null","FL","learning/Slide27.JPG","That was a bim.","",""
"","image-keyboard-response","88","296619","0.0-6.0-0.27","FL","eyn4ys1wrs","1536","864","en","va07il15","null","","","","","","","","learning/Slide28.JPG","null","","","","",""
"","html-keyboard-response","89","297773","0.0-6.0-1.27","FL","eyn4ys1wrs","1536","864","en","va07il15","null","","","","learningBlock1","","","","That was a dep.","null","","","","",""
"","html-keyboard-response","90","298776","0.0-6.0-2.27","FL","eyn4ys1wrs","1536","864","en","va07il15","null","","","","learningBlock1","","","","<div style=""font-size:60px;""> </div>","null","FL","learning/Slide28.JPG","That was a dep.","",""
"","image-keyboard-response","91","298954","0.0-6.0-0.28","FL","eyn4ys1wrs","1536","864","en","va07il15","null","","","","","","","","learning/Slide29.JPG","null","","","","",""
"","html-keyboard-response","92","300108","0.0-6.0-1.28","FL","eyn4ys1wrs","1536","864","en","va07il15","null","","","","learningBlock1","","","","That was a tob.","null","","","","",""
"","html-keyboard-response","93","301110","0.0-6.0-2.28","FL","eyn4ys1wrs","1536","864","en","va07il15","null","","","","learningBlock1","","","","<div style=""font-size:60px;""> </div>","null","FL","learning/Slide29.JPG","That was a tob.","",""
"","image-keyboard-response","94","301287","0.0-6.0-0.29","FL","eyn4ys1wrs","1536","864","en","va07il15","null","","","","","","","","learning/Slide30.JPG","null","","","","",""
"","html-keyboard-response","95","302439","0.0-6.0-1.29","FL","eyn4ys1wrs","1536","864","en","va07il15","null","","","","learningBlock1","","","","That was a dep.","null","","","","",""
"","html-keyboard-response","96","303441","0.0-6.0-2.29","FL","eyn4ys1wrs","1536","864","en","va07il15","null","","","","learningBlock1","","","","<div style=""font-size:60px;""> </div>","null","FL","learning/Slide30.JPG","That was a dep.","",""
"","image-keyboard-response","97","303618","0.0-6.0-0.30","FL","eyn4ys1wrs","1536","864","en","va07il15","null","","","","","","","","learning/Slide31.JPG","null","","","","",""
"","html-keyboard-response","98","304771","0.0-6.0-1.30","FL","eyn4ys1wrs","1536","864","en","va07il15","null","","","","learningBlock1","","","","That was a wug.","null","","","","",""
"","html-keyboard-response","99","305775","0.0-6.0-2.30","FL","eyn4ys1wrs","1536","864","en","va07il15","null","","","","learningBlock1","","","","<div style=""font-size:60px;""> </div>","null","FL","learning/Slide31.JPG","That was a wug.","",""
"","image-keyboard-response","100","305954","0.0-6.0-0.31","FL","eyn4ys1wrs","1536","864","en","va07il15","null","","","","","","","","learning/Slide32.JPG","null","","","","",""
"","html-keyboard-response","101","307107","0.0-6.0-1.31","FL","eyn4ys1wrs","1536","864","en","va07il15","null","","","","learningBlock1","","","","That was a tob.","null","","","","",""
"","html-keyboard-response","102","308109","0.0-6.0-2.31","FL","eyn4ys1wrs","1536","864","en","va07il15","null","","","","learningBlock1","","","","<div style=""font-size:60px;""> </div>","null","FL","learning/Slide32.JPG","That was a tob.","",""
"","image-keyboard-response","103","308286","0.0-6.0-0.32","FL","eyn4ys1wrs","1536","864","en","va07il15","null","","","","","","","","learning/Slide33.JPG","null","","","","",""
"","html-keyboard-response","104","309438","0.0-6.0-1.32","FL","eyn4ys1wrs","1536","864","en","va07il15","null","","","","learningBlock1","","","","That was a bim.","null","","","","",""
"","html-keyboard-response","105","310440","0.0-6.0-2.32","FL","eyn4ys1wrs","1536","864","en","va07il15","null","","","","learningBlock1","","","","<div style=""font-size:60px;""> </div>","null","FL","learning/Slide33.JPG","That was a bim.","",""
"","image-keyboard-response","106","310617","0.0-6.0-0.33","FL","eyn4ys1wrs","1536","864","en","va07il15","null","","","","","","","","learning/Slide34.JPG","null","","","","",""
"","html-keyboard-response","107","311771","0.0-6.0-1.33","FL","eyn4ys1wrs","1536","864","en","va07il15","null","","","","learningBlock1","","","","That was a tob.","null","","","","",""
"","html-keyboard-response","108","312773","0.0-6.0-2.33","FL","eyn4ys1wrs","1536","864","en","va07il15","null","","","","learningBlock1","","","","<div style=""font-size:60px;""> </div>","null","FL","learning/Slide34.JPG","That was a tob.","",""
"","image-keyboard-response","109","312950","0.0-6.0-0.34","FL","eyn4ys1wrs","1536","864","en","va07il15","null","","","","","","","","learning/Slide35.JPG","null","","","","",""
"","html-keyboard-response","110","314105","0.0-6.0-1.34","FL","eyn4ys1wrs","1536","864","en","va07il15","null","","","","learningBlock1","","","","That was a bim.","null","","","","",""
"","html-keyboard-response","111","315108","0.0-6.0-2.34","FL","eyn4ys1wrs","1536","864","en","va07il15","null","","","","learningBlock1","","","","<div style=""font-size:60px;""> </div>","null","FL","learning/Slide35.JPG","That was a bim.","",""
"","image-keyboard-response","112","315286","0.0-6.0-0.35","FL","eyn4ys1wrs","1536","864","en","va07il15","null","","","","","","","","learning/Slide36.JPG","null","","","","",""
"","html-keyboard-response","113","316438","0.0-6.0-1.35","FL","eyn4ys1wrs","1536","864","en","va07il15","null","","","","learningBlock1","","","","That was a dep.","null","","","","",""
"","html-keyboard-response","114","317440","0.0-6.0-2.35","FL","eyn4ys1wrs","1536","864","en","va07il15","null","","","","learningBlock1","","","","<div style=""font-size:60px;""> </div>","null","FL","learning/Slide36.JPG","That was a dep.","",""
"","image-keyboard-response","115","317617","0.0-6.0-0.36","FL","eyn4ys1wrs","1536","864","en","va07il15","null","","","","","","","","learning/Slide37.JPG","null","","","","",""
"","html-keyboard-response","116","318771","0.0-6.0-1.36","FL","eyn4ys1wrs","1536","864","en","va07il15","null","","","","learningBlock1","","","","That was a tob.","null","","","","",""
"","html-keyboard-response","117","319773","0.0-6.0-2.36","FL","eyn4ys1wrs","1536","864","en","va07il15","null","","","","learningBlock1","","","","<div style=""font-size:60px;""> </div>","null","FL","learning/Slide37.JPG","That was a tob.","",""
"","image-keyboard-response","118","319951","0.0-6.0-0.37","FL","eyn4ys1wrs","1536","864","en","va07il15","null","","","","","","","","learning/Slide38.JPG","null","","","","",""
"","html-keyboard-response","119","321104","0.0-6.0-1.37","FL","eyn4ys1wrs","1536","864","en","va07il15","null","","","","learningBlock1","","","","That was a wug.","null","","","","",""
"","html-keyboard-response","120","322106","0.0-6.0-2.37","FL","eyn4ys1wrs","1536","864","en","va07il15","null","","","","learningBlock1","","","","<div style=""font-size:60px;""> </div>","null","FL","learning/Slide38.JPG","That was a wug.","",""
"","image-keyboard-response","121","322283","0.0-6.0-0.38","FL","eyn4ys1wrs","1536","864","en","va07il15","null","","","","","","","","learning/Slide39.JPG","null","","","","",""
"","html-keyboard-response","122","323436","0.0-6.0-1.38","FL","eyn4ys1wrs","1536","864","en","va07il15","null","","","","learningBlock1","","","","That was a bim.","null","","","","",""
"","html-keyboard-response","123","324438","0.0-6.0-2.38","FL","eyn4ys1wrs","1536","864","en","va07il15","null","","","","learningBlock1","","","","<div style=""font-size:60px;""> </div>","null","FL","learning/Slide39.JPG","That was a bim.","",""
"","image-keyboard-response","124","324615","0.0-6.0-0.39","FL","eyn4ys1wrs","1536","864","en","va07il15","null","","","","","","","","learning/Slide40.JPG","null","","","","",""
"","html-keyboard-response","125","325769","0.0-6.0-1.39","FL","eyn4ys1wrs","1536","864","en","va07il15","null","","","","learningBlock1","","","","That was a tob.","null","","","","",""
"","html-keyboard-response","126","326772","0.0-6.0-2.39","FL","eyn4ys1wrs","1536","864","en","va07il15","null","","","","learningBlock1","","","","<div style=""font-size:60px;""> </div>","null","FL","learning/Slide40.JPG","That was a tob.","",""
"","image-keyboard-response","127","326949","0.0-6.0-0.40","FL","eyn4ys1wrs","1536","864","en","va07il15","null","","","","","","","","learning/Slide41.JPG","null","","","","",""
"","html-keyboard-response","128","328104","0.0-6.0-1.40","FL","eyn4ys1wrs","1536","864","en","va07il15","null","","","","learningBlock1","","","","That was a bim.","null","","","","",""
"","html-keyboard-response","129","329111","0.0-6.0-2.40","FL","eyn4ys1wrs","1536","864","en","va07il15","null","","","","learningBlock1","","","","<div style=""font-size:60px;""> </div>","null","FL","learning/Slide41.JPG","That was a bim.","",""
"","image-keyboard-response","130","329287","0.0-6.0-0.41","FL","eyn4ys1wrs","1536","864","en","va07il15","null","","","","","","","","learning/Slide42.JPG","null","","","","",""
"","html-keyboard-response","131","330441","0.0-6.0-1.41","FL","eyn4ys1wrs","1536","864","en","va07il15","null","","","","learningBlock1","","","","That was a dep.","null","","","","",""
"","html-keyboard-response","132","331443","0.0-6.0-2.41","FL","eyn4ys1wrs","1536","864","en","va07il15","null","","","","learningBlock1","","","","<div style=""font-size:60px;""> </div>","null","FL","learning/Slide42.JPG","That was a dep.","",""
"","image-keyboard-response","133","331621","0.0-6.0-0.42","FL","eyn4ys1wrs","1536","864","en","va07il15","null","","","","","","","","learning/Slide43.JPG","null","","","","",""
"","html-keyboard-response","134","332774","0.0-6.0-1.42","FL","eyn4ys1wrs","1536","864","en","va07il15","null","","","","learningBlock1","","","","That was a wug.","null","","","","",""
"","html-keyboard-response","135","333777","0.0-6.0-2.42","FL","eyn4ys1wrs","1536","864","en","va07il15","null","","","","learningBlock1","","","","<div style=""font-size:60px;""> </div>","null","FL","learning/Slide43.JPG","That was a wug.","",""
"","image-keyboard-response","136","333955","0.0-6.0-0.43","FL","eyn4ys1wrs","1536","864","en","va07il15","null","","","","","","","","learning/Slide44.JPG","null","","","","",""
"","html-keyboard-response","137","335107","0.0-6.0-1.43","FL","eyn4ys1wrs","1536","864","en","va07il15","null","","","","learningBlock1","","","","That was a bim.","null","","","","",""
"","html-keyboard-response","138","336109","0.0-6.0-2.43","FL","eyn4ys1wrs","1536","864","en","va07il15","null","","","","learningBlock1","","","","<div style=""font-size:60px;""> </div>","null","FL","learning/Slide44.JPG","That was a bim.","",""
"","image-keyboard-response","139","336287","0.0-6.0-0.44","FL","eyn4ys1wrs","1536","864","en","va07il15","null","","","","","","","","learning/Slide45.JPG","null","","","","",""
"","html-keyboard-response","140","337439","0.0-6.0-1.44","FL","eyn4ys1wrs","1536","864","en","va07il15","null","","","","learningBlock1","","","","That was a wug.","null","","","","",""
"","html-keyboard-response","141","338440","0.0-6.0-2.44","FL","eyn4ys1wrs","1536","864","en","va07il15","null","","","","learningBlock1","","","","<div style=""font-size:60px;""> </div>","null","FL","learning/Slide45.JPG","That was a wug.","",""
"","image-keyboard-response","142","338617","0.0-6.0-0.45","FL","eyn4ys1wrs","1536","864","en","va07il15","null","","","","","","","","learning/Slide46.JPG","null","","","","",""
"","html-keyboard-response","143","339770","0.0-6.0-1.45","FL","eyn4ys1wrs","1536","864","en","va07il15","null","","","","learningBlock1","","","","That was a dep.","null","","","","",""
"","html-keyboard-response","144","340772","0.0-6.0-2.45","FL","eyn4ys1wrs","1536","864","en","va07il15","null","","","","learningBlock1","","","","<div style=""font-size:60px;""> </div>","null","FL","learning/Slide46.JPG","That was a dep.","",""
"","image-keyboard-response","145","340949","0.0-6.0-0.46","FL","eyn4ys1wrs","1536","864","en","va07il15","null","","","","","","","","learning/Slide47.JPG","null","","","","",""
"","html-keyboard-response","146","342103","0.0-6.0-1.46","FL","eyn4ys1wrs","1536","864","en","va07il15","null","","","","learningBlock1","","","","That was a tob.","null","","","","",""
"","html-keyboard-response","147","343106","0.0-6.0-2.46","FL","eyn4ys1wrs","1536","864","en","va07il15","null","","","","learningBlock1","","","","<div style=""font-size:60px;""> </div>","null","FL","learning/Slide47.JPG","That was a tob.","",""
"","image-keyboard-response","148","343284","0.0-6.0-0.47","FL","eyn4ys1wrs","1536","864","en","va07il15","null","","","","","","","","learning/Slide48.JPG","null","","","","",""
"","html-keyboard-response","149","344436","0.0-6.0-1.47","FL","eyn4ys1wrs","1536","864","en","va07il15","null","","","","learningBlock1","","","","That was a bim.","null","","","","",""
"","html-keyboard-response","150","345438","0.0-6.0-2.47","FL","eyn4ys1wrs","1536","864","en","va07il15","null","","","","learningBlock1","","","","<div style=""font-size:60px;""> </div>","null","FL","learning/Slide48.JPG","That was a bim.","",""
"","image-keyboard-response","151","345619","0.0-6.0-0.48","FL","eyn4ys1wrs","1536","864","en","va07il15","null","","","","","","","","learning/Slide49.JPG","null","","","","",""
"","html-keyboard-response","152","346772","0.0-6.0-1.48","FL","eyn4ys1wrs","1536","864","en","va07il15","null","","","","learningBlock1","","","","That was a dep.","null","","","","",""
"","html-keyboard-response","153","347775","0.0-6.0-2.48","FL","eyn4ys1wrs","1536","864","en","va07il15","null","","","","learningBlock1","","","","<div style=""font-size:60px;""> </div>","null","FL","learning/Slide49.JPG","That was a dep.","",""
"","image-keyboard-response","154","347952","0.0-6.0-0.49","FL","eyn4ys1wrs","1536","864","en","va07il15","null","","","","","","","","learning/Slide50.JPG","null","","","","",""
"","html-keyboard-response","155","349105","0.0-6.0-1.49","FL","eyn4ys1wrs","1536","864","en","va07il15","null","","","","learningBlock1","","","","That was a tob.","null","","","","",""
"","html-keyboard-response","156","350109","0.0-6.0-2.49","FL","eyn4ys1wrs","1536","864","en","va07il15","null","","","","learningBlock1","","","","<div style=""font-size:60px;""> </div>","null","FL","learning/Slide50.JPG","That was a tob.","",""
"","image-keyboard-response","157","350286","0.0-6.0-0.50","FL","eyn4ys1wrs","1536","864","en","va07il15","null","","","","","","","","learning/Slide51.JPG","null","","","","",""
"","html-keyboard-response","158","351438","0.0-6.0-1.50","FL","eyn4ys1wrs","1536","864","en","va07il15","null","","","","learningBlock1","","","","That was a bim.","null","","","","",""
"","html-keyboard-response","159","352440","0.0-6.0-2.50","FL","eyn4ys1wrs","1536","864","en","va07il15","null","","","","learningBlock1","","","","<div style=""font-size:60px;""> </div>","null","FL","learning/Slide51.JPG","That was a bim.","",""
"","image-keyboard-response","160","352618","0.0-6.0-0.51","FL","eyn4ys1wrs","1536","864","en","va07il15","null","","","","","","","","learning/Slide52.JPG","null","","","","",""
"","html-keyboard-response","161","353771","0.0-6.0-1.51","FL","eyn4ys1wrs","1536","864","en","va07il15","null","","","","learningBlock1","","","","That was a wug.","null","","","","",""
"","html-keyboard-response","162","354772","0.0-6.0-2.51","FL","eyn4ys1wrs","1536","864","en","va07il15","null","","","","learningBlock1","","","","<div style=""font-size:60px;""> </div>","null","FL","learning/Slide52.JPG","That was a wug.","",""
"","image-keyboard-response","163","354951","0.0-6.0-0.52","FL","eyn4ys1wrs","1536","864","en","va07il15","null","","","","","","","","learning/Slide53.JPG","null","","","","",""
"","html-keyboard-response","164","356104","0.0-6.0-1.52","FL","eyn4ys1wrs","1536","864","en","va07il15","null","","","","learningBlock1","","","","That was a tob.","null","","","","",""
"","html-keyboard-response","165","357106","0.0-6.0-2.52","FL","eyn4ys1wrs","1536","864","en","va07il15","null","","","","learningBlock1","","","","<div style=""font-size:60px;""> </div>","null","FL","learning/Slide53.JPG","That was a tob.","",""
"","image-keyboard-response","166","357288","0.0-6.0-0.53","FL","eyn4ys1wrs","1536","864","en","va07il15","null","","","","","","","","learning/Slide54.JPG","null","","","","",""
"","html-keyboard-response","167","358441","0.0-6.0-1.53","FL","eyn4ys1wrs","1536","864","en","va07il15","null","","","","learningBlock1","","","","That was a dep.","null","","","","",""
"","html-keyboard-response","168","359444","0.0-6.0-2.53","FL","eyn4ys1wrs","1536","864","en","va07il15","null","","","","learningBlock1","","","","<div style=""font-size:60px;""> </div>","null","FL","learning/Slide54.JPG","That was a dep.","",""
"","image-keyboard-response","169","359620","0.0-6.0-0.54","FL","eyn4ys1wrs","1536","864","en","va07il15","null","","","","","","","","learning/Slide55.JPG","null","","","","",""
"","html-keyboard-response","170","360773","0.0-6.0-1.54","FL","eyn4ys1wrs","1536","864","en","va07il15","null","","","","learningBlock1","","","","That was a bim.","null","","","","",""
"","html-keyboard-response","171","361776","0.0-6.0-2.54","FL","eyn4ys1wrs","1536","864","en","va07il15","null","","","","learningBlock1","","","","<div style=""font-size:60px;""> </div>","null","FL","learning/Slide55.JPG","That was a bim.","",""
"","image-keyboard-response","172","361954","0.0-6.0-0.55","FL","eyn4ys1wrs","1536","864","en","va07il15","null","","","","","","","","learning/Slide56.JPG","null","","","","",""
"","html-keyboard-response","173","363107","0.0-6.0-1.55","FL","eyn4ys1wrs","1536","864","en","va07il15","null","","","","learningBlock1","","","","That was a tob.","null","","","","",""
"","html-keyboard-response","174","364109","0.0-6.0-2.55","FL","eyn4ys1wrs","1536","864","en","va07il15","null","","","","learningBlock1","","","","<div style=""font-size:60px;""> </div>","null","FL","learning/Slide56.JPG","That was a tob.","",""
"","image-keyboard-response","175","364286","0.0-6.0-0.56","FL","eyn4ys1wrs","1536","864","en","va07il15","null","","","","","","","","learning/Slide57.JPG","null","","","","",""
"","html-keyboard-response","176","365439","0.0-6.0-1.56","FL","eyn4ys1wrs","1536","864","en","va07il15","null","","","","learningBlock1","","","","That was a dep.","null","","","","",""
"","html-keyboard-response","177","366441","0.0-6.0-2.56","FL","eyn4ys1wrs","1536","864","en","va07il15","null","","","","learningBlock1","","","","<div style=""font-size:60px;""> </div>","null","FL","learning/Slide57.JPG","That was a dep.","",""
"","image-keyboard-response","178","366618","0.0-6.0-0.57","FL","eyn4ys1wrs","1536","864","en","va07il15","null","","","","","","","","learning/Slide58.JPG","null","","","","",""
"","html-keyboard-response","179","367771","0.0-6.0-1.57","FL","eyn4ys1wrs","1536","864","en","va07il15","null","","","","learningBlock1","","","","That was a wug.","null","","","","",""
"","html-keyboard-response","180","368773","0.0-6.0-2.57","FL","eyn4ys1wrs","1536","864","en","va07il15","null","","","","learningBlock1","","","","<div style=""font-size:60px;""> </div>","null","FL","learning/Slide58.JPG","That was a wug.","",""
"","image-keyboard-response","181","368950","0.0-6.0-0.58","FL","eyn4ys1wrs","1536","864","en","va07il15","null","","","","","","","","learning/Slide59.JPG","null","","","","",""
"","html-keyboard-response","182","370104","0.0-6.0-1.58","FL","eyn4ys1wrs","1536","864","en","va07il15","null","","","","learningBlock1","","","","That was a dep.","null","","","","",""
"","html-keyboard-response","183","371106","0.0-6.0-2.58","FL","eyn4ys1wrs","1536","864","en","va07il15","null","","","","learningBlock1","","","","<div style=""font-size:60px;""> </div>","null","FL","learning/Slide59.JPG","That was a dep.","",""
"","image-keyboard-response","184","371285","0.0-6.0-0.59","FL","eyn4ys1wrs","1536","864","en","va07il15","null","","","","","","","","learning/Slide60.JPG","null","","","","",""
"","html-keyboard-response","185","372439","0.0-6.0-1.59","FL","eyn4ys1wrs","1536","864","en","va07il15","null","","","","learningBlock1","","","","That was a wug.","null","","","","",""
"","html-keyboard-response","186","373441","0.0-6.0-2.59","FL","eyn4ys1wrs","1536","864","en","va07il15","null","","","","learningBlock1","","","","<div style=""font-size:60px;""> </div>","null","FL","learning/Slide60.JPG","That was a wug.","",""
"","image-keyboard-response","187","373619","0.0-6.0-0.60","FL","eyn4ys1wrs","1536","864","en","va07il15","null","","","","","","","","learning/Slide61.JPG","null","","","","",""
"","html-keyboard-response","188","374772","0.0-6.0-1.60","FL","eyn4ys1wrs","1536","864","en","va07il15","null","","","","learningBlock1","","","","That was a bim.","null","","","","",""
"","html-keyboard-response","189","375775","0.0-6.0-2.60","FL","eyn4ys1wrs","1536","864","en","va07il15","null","","","","learningBlock1","","","","<div style=""font-size:60px;""> </div>","null","FL","learning/Slide61.JPG","That was a bim.","",""
"","image-keyboard-response","190","375953","0.0-6.0-0.61","FL","eyn4ys1wrs","1536","864","en","va07il15","null","","","","","","","","learning/Slide62.JPG","null","","","","",""
"","html-keyboard-response","191","377107","0.0-6.0-1.61","FL","eyn4ys1wrs","1536","864","en","va07il15","null","","","","learningBlock1","","","","That was a dep.","null","","","","",""
"","html-keyboard-response","192","378109","0.0-6.0-2.61","FL","eyn4ys1wrs","1536","864","en","va07il15","null","","","","learningBlock1","","","","<div style=""font-size:60px;""> </div>","null","FL","learning/Slide62.JPG","That was a dep.","",""
"","image-keyboard-response","193","378286","0.0-6.0-0.62","FL","eyn4ys1wrs","1536","864","en","va07il15","null","","","","","","","","learning/Slide63.JPG","null","","","","",""
"","html-keyboard-response","194","379439","0.0-6.0-1.62","FL","eyn4ys1wrs","1536","864","en","va07il15","null","","","","learningBlock1","","","","That was a bim.","null","","","","",""
"","html-keyboard-response","195","380440","0.0-6.0-2.62","FL","eyn4ys1wrs","1536","864","en","va07il15","null","","","","learningBlock1","","","","<div style=""font-size:60px;""> </div>","null","FL","learning/Slide63.JPG","That was a bim.","",""
"","image-keyboard-response","196","380618","0.0-6.0-0.63","FL","eyn4ys1wrs","1536","864","en","va07il15","null","","","","","","","","learning/Slide64.JPG","null","","","","",""
"","html-keyboard-response","197","381771","0.0-6.0-1.63","FL","eyn4ys1wrs","1536","864","en","va07il15","null","","","","learningBlock1","","","","That was a tob.","null","","","","",""
"","html-keyboard-response","198","382774","0.0-6.0-2.63","FL","eyn4ys1wrs","1536","864","en","va07il15","null","","","","learningBlock1","","","","<div style=""font-size:60px;""> </div>","null","FL","learning/Slide64.JPG","That was a tob.","",""
"","image-keyboard-response","199","382951","0.0-6.0-0.64","FL","eyn4ys1wrs","1536","864","en","va07il15","null","","","","","","","","learning/Slide65.JPG","null","","","","",""
"","html-keyboard-response","200","384106","0.0-6.0-1.64","FL","eyn4ys1wrs","1536","864","en","va07il15","null","","","","learningBlock1","","","","That was a wug.","null","","","","",""
"","html-keyboard-response","201","385108","0.0-6.0-2.64","FL","eyn4ys1wrs","1536","864","en","va07il15","null","","","","learningBlock1","","","","<div style=""font-size:60px;""> </div>","null","FL","learning/Slide65.JPG","That was a wug.","",""
"","image-keyboard-response","202","385285","0.0-6.0-0.65","FL","eyn4ys1wrs","1536","864","en","va07il15","null","","","","","","","","learning/Slide66.JPG","null","","","","",""
"","html-keyboard-response","203","386439","0.0-6.0-1.65","FL","eyn4ys1wrs","1536","864","en","va07il15","null","","","","learningBlock1","","","","That was a dep.","null","","","","",""
"","html-keyboard-response","204","387440","0.0-6.0-2.65","FL","eyn4ys1wrs","1536","864","en","va07il15","null","","","","learningBlock1","","","","<div style=""font-size:60px;""> </div>","null","FL","learning/Slide66.JPG","That was a dep.","",""
"","image-keyboard-response","205","387617","0.0-6.0-0.66","FL","eyn4ys1wrs","1536","864","en","va07il15","null","","","","","","","","learning/Slide67.JPG","null","","","","",""
"","html-keyboard-response","206","388771","0.0-6.0-1.66","FL","eyn4ys1wrs","1536","864","en","va07il15","null","","","","learningBlock1","","","","That was a tob.","null","","","","",""
"","html-keyboard-response","207","389773","0.0-6.0-2.66","FL","eyn4ys1wrs","1536","864","en","va07il15","null","","","","learningBlock1","","","","<div style=""font-size:60px;""> </div>","null","FL","learning/Slide67.JPG","That was a tob.","",""
"","image-keyboard-response","208","389950","0.0-6.0-0.67","FL","eyn4ys1wrs","1536","864","en","va07il15","null","","","","","","","","learning/Slide68.JPG","null","","","","",""
"","html-keyboard-response","209","391102","0.0-6.0-1.67","FL","eyn4ys1wrs","1536","864","en","va07il15","null","","","","learningBlock1","","","","That was a wug.","null","","","","",""
"","html-keyboard-response","210","392104","0.0-6.0-2.67","FL","eyn4ys1wrs","1536","864","en","va07il15","null","","","","learningBlock1","","","","<div style=""font-size:60px;""> </div>","null","FL","learning/Slide68.JPG","That was a wug.","",""
"","image-keyboard-response","211","392282","0.0-6.0-0.68","FL","eyn4ys1wrs","1536","864","en","va07il15","null","","","","","","","","learning/Slide69.JPG","null","","","","",""
"","html-keyboard-response","212","393435","0.0-6.0-1.68","FL","eyn4ys1wrs","1536","864","en","va07il15","null","","","","learningBlock1","","","","That was a tob.","null","","","","",""
"","html-keyboard-response","213","394438","0.0-6.0-2.68","FL","eyn4ys1wrs","1536","864","en","va07il15","null","","","","learningBlock1","","","","<div style=""font-size:60px;""> </div>","null","FL","learning/Slide69.JPG","That was a tob.","",""
"","image-keyboard-response","214","394615","0.0-6.0-0.69","FL","eyn4ys1wrs","1536","864","en","va07il15","null","","","","","","","","learning/Slide70.JPG","null","","","","",""
"","html-keyboard-response","215","395768","0.0-6.0-1.69","FL","eyn4ys1wrs","1536","864","en","va07il15","null","","","","learningBlock1","","","","That was a dep.","null","","","","",""
"","html-keyboard-response","216","396771","0.0-6.0-2.69","FL","eyn4ys1wrs","1536","864","en","va07il15","null","","","","learningBlock1","","","","<div style=""font-size:60px;""> </div>","null","FL","learning/Slide70.JPG","That was a dep.","",""
"","image-keyboard-response","217","396948","0.0-6.0-0.70","FL","eyn4ys1wrs","1536","864","en","va07il15","null","","","","","","","","learning/Slide71.JPG","null","","","","",""
"","html-keyboard-response","218","398103","0.0-6.0-1.70","FL","eyn4ys1wrs","1536","864","en","va07il15","null","","","","learningBlock1","","","","That was a wug.","null","","","","",""
"","html-keyboard-response","219","399106","0.0-6.0-2.70","FL","eyn4ys1wrs","1536","864","en","va07il15","null","","","","learningBlock1","","","","<div style=""font-size:60px;""> </div>","null","FL","learning/Slide71.JPG","That was a wug.","",""
"","image-keyboard-response","220","399283","0.0-6.0-0.71","FL","eyn4ys1wrs","1536","864","en","va07il15","null","","","","","","","","learning/Slide72.JPG","null","","","","",""
"","html-keyboard-response","221","400436","0.0-6.0-1.71","FL","eyn4ys1wrs","1536","864","en","va07il15","null","","","","learningBlock1","","","","That was a bim.","null","","","","",""
"","html-keyboard-response","222","401438","0.0-6.0-2.71","FL","eyn4ys1wrs","1536","864","en","va07il15","null","","","","learningBlock1","","","","<div style=""font-size:60px;""> </div>","null","FL","learning/Slide72.JPG","That was a bim.","",""
"","image-keyboard-response","223","401616","0.0-6.0-0.72","FL","eyn4ys1wrs","1536","864","en","va07il15","null","","","","","","","","learning/Slide73.JPG","null","","","","",""
"","html-keyboard-response","224","402768","0.0-6.0-1.72","FL","eyn4ys1wrs","1536","864","en","va07il15","null","","","","learningBlock1","","","","That was a wug.","null","","","","",""
"","html-keyboard-response","225","403771","0.0-6.0-2.72","FL","eyn4ys1wrs","1536","864","en","va07il15","null","","","","learningBlock1","","","","<div style=""font-size:60px;""> </div>","null","FL","learning/Slide73.JPG","That was a wug.","",""
"","image-keyboard-response","226","403948","0.0-6.0-0.73","FL","eyn4ys1wrs","1536","864","en","va07il15","null","","","","","","","","learning/Slide74.JPG","null","","","","",""
"","html-keyboard-response","227","405101","0.0-6.0-1.73","FL","eyn4ys1wrs","1536","864","en","va07il15","null","","","","learningBlock1","","","","That was a dep.","null","","","","",""
"","html-keyboard-response","228","406104","0.0-6.0-2.73","FL","eyn4ys1wrs","1536","864","en","va07il15","null","","","","learningBlock1","","","","<div style=""font-size:60px;""> </div>","null","FL","learning/Slide74.JPG","That was a dep.","",""
"","image-keyboard-response","229","406281","0.0-6.0-0.74","FL","eyn4ys1wrs","1536","864","en","va07il15","null","","","","","","","","learning/Slide75.JPG","null","","","","",""
"","html-keyboard-response","230","407432","0.0-6.0-1.74","FL","eyn4ys1wrs","1536","864","en","va07il15","null","","","","learningBlock1","","","","That was a tob.","null","","","","",""
"","html-keyboard-response","231","408434","0.0-6.0-2.74","FL","eyn4ys1wrs","1536","864","en","va07il15","null","","","","learningBlock1","","","","<div style=""font-size:60px;""> </div>","null","FL","learning/Slide75.JPG","That was a tob.","",""
"","image-keyboard-response","232","408612","0.0-6.0-0.75","FL","eyn4ys1wrs","1536","864","en","va07il15","null","","","","","","","","learning/Slide76.JPG","null","","","","",""
"","html-keyboard-response","233","409765","0.0-6.0-1.75","FL","eyn4ys1wrs","1536","864","en","va07il15","null","","","","learningBlock1","","","","That was a bim.","null","","","","",""
"","html-keyboard-response","234","410767","0.0-6.0-2.75","FL","eyn4ys1wrs","1536","864","en","va07il15","null","","","","learningBlock1","","","","<div style=""font-size:60px;""> </div>","null","FL","learning/Slide76.JPG","That was a bim.","",""
"","image-keyboard-response","235","410945","0.0-6.0-0.76","FL","eyn4ys1wrs","1536","864","en","va07il15","null","","","","","","","","learning/Slide77.JPG","null","","","","",""
"","html-keyboard-response","236","412098","0.0-6.0-1.76","FL","eyn4ys1wrs","1536","864","en","va07il15","null","","","","learningBlock1","","","","That was a tob.","null","","","","",""
"","html-keyboard-response","237","413100","0.0-6.0-2.76","FL","eyn4ys1wrs","1536","864","en","va07il15","null","","","","learningBlock1","","","","<div style=""font-size:60px;""> </div>","null","FL","learning/Slide77.JPG","That was a tob.","",""
"","image-keyboard-response","238","413278","0.0-6.0-0.77","FL","eyn4ys1wrs","1536","864","en","va07il15","null","","","","","","","","learning/Slide78.JPG","null","","","","",""
"","html-keyboard-response","239","414431","0.0-6.0-1.77","FL","eyn4ys1wrs","1536","864","en","va07il15","null","","","","learningBlock1","","","","That was a wug.","null","","","","",""
"","html-keyboard-response","240","415433","0.0-6.0-2.77","FL","eyn4ys1wrs","1536","864","en","va07il15","null","","","","learningBlock1","","","","<div style=""font-size:60px;""> </div>","null","FL","learning/Slide78.JPG","That was a wug.","",""
"","image-keyboard-response","241","415611","0.0-6.0-0.78","FL","eyn4ys1wrs","1536","864","en","va07il15","null","","","","","","","","learning/Slide79.JPG","null","","","","",""
"","html-keyboard-response","242","416765","0.0-6.0-1.78","FL","eyn4ys1wrs","1536","864","en","va07il15","null","","","","learningBlock1","","","","That was a bim.","null","","","","",""
"","html-keyboard-response","243","417768","0.0-6.0-2.78","FL","eyn4ys1wrs","1536","864","en","va07il15","null","","","","learningBlock1","","","","<div style=""font-size:60px;""> </div>","null","FL","learning/Slide79.JPG","That was a bim.","",""
"","image-keyboard-response","244","417945","0.0-6.0-0.79","FL","eyn4ys1wrs","1536","864","en","va07il15","null","","","","","","","","learning/Slide80.JPG","null","","","","",""
"","html-keyboard-response","245","419098","0.0-6.0-1.79","FL","eyn4ys1wrs","1536","864","en","va07il15","null","","","","learningBlock1","","","","That was a tob.","null","","","","",""
"","html-keyboard-response","246","420100","0.0-6.0-2.79","FL","eyn4ys1wrs","1536","864","en","va07il15","null","","","","learningBlock1","","","","<div style=""font-size:60px;""> </div>","null","FL","learning/Slide80.JPG","That was a tob.","",""
"","instructions","247","538688","0.0-7.0","FL","eyn4ys1wrs","1536","864","en","va07il15","NA","","","[{""page_index"":0,""viewing_time"":118587.68499999132}]","instructions","","","","","","","","","",""
"","image-keyboard-response","248","538866","0.0-8.0-0.0","FL","eyn4ys1wrs","1536","864","en","va07il15","null","","","","","","","","learning/Slide81.JPG","null","","","","",""
"","html-keyboard-response","249","540019","0.0-8.0-1.0","FL","eyn4ys1wrs","1536","864","en","va07il15","null","","","","learningBlock2","","","","That was a wug.","null","","","","",""
"","html-keyboard-response","250","541022","0.0-8.0-2.0","FL","eyn4ys1wrs","1536","864","en","va07il15","null","","","","learningBlock2","","","","<div style=""font-size:60px;""> </div>","null","FL","learning/Slide81.JPG","That was a wug.","",""
"","image-keyboard-response","251","541199","0.0-8.0-0.1","FL","eyn4ys1wrs","1536","864","en","va07il15","null","","","","","","","","learning/Slide82.JPG","null","","","","",""
"","html-keyboard-response","252","542351","0.0-8.0-1.1","FL","eyn4ys1wrs","1536","864","en","va07il15","null","","","","learningBlock2","","","","That was a bim.","null","","","","",""
"","html-keyboard-response","253","543353","0.0-8.0-2.1","FL","eyn4ys1wrs","1536","864","en","va07il15","null","","","","learningBlock2","","","","<div style=""font-size:60px;""> </div>","null","FL","learning/Slide82.JPG","That was a bim.","",""
"","image-keyboard-response","254","543530","0.0-8.0-0.2","FL","eyn4ys1wrs","1536","864","en","va07il15","null","","","","","","","","learning/Slide83.JPG","null","","","","",""
"","html-keyboard-response","255","544683","0.0-8.0-1.2","FL","eyn4ys1wrs","1536","864","en","va07il15","null","","","","learningBlock2","","","","That was a wug.","null","","","","",""
"","html-keyboard-response","256","545686","0.0-8.0-2.2","FL","eyn4ys1wrs","1536","864","en","va07il15","null","","","","learningBlock2","","","","<div style=""font-size:60px;""> </div>","null","FL","learning/Slide83.JPG","That was a wug.","",""
"","image-keyboard-response","257","545864","0.0-8.0-0.3","FL","eyn4ys1wrs","1536","864","en","va07il15","null","","","","","","","","learning/Slide84.JPG","null","","","","",""
"","html-keyboard-response","258","547016","0.0-8.0-1.3","FL","eyn4ys1wrs","1536","864","en","va07il15","null","","","","learningBlock2","","","","That was a dep.","null","","","","",""
"","html-keyboard-response","259","548018","0.0-8.0-2.3","FL","eyn4ys1wrs","1536","864","en","va07il15","null","","","","learningBlock2","","","","<div style=""font-size:60px;""> </div>","null","FL","learning/Slide84.JPG","That was a dep.","",""
"","image-keyboard-response","260","548196","0.0-8.0-0.4","FL","eyn4ys1wrs","1536","864","en","va07il15","null","","","","","","","","learning/Slide85.JPG","null","","","","",""
"","html-keyboard-response","261","549348","0.0-8.0-1.4","FL","eyn4ys1wrs","1536","864","en","va07il15","null","","","","learningBlock2","","","","That was a bim.","null","","","","",""
"","html-keyboard-response","262","550350","0.0-8.0-2.4","FL","eyn4ys1wrs","1536","864","en","va07il15","null","","","","learningBlock2","","","","<div style=""font-size:60px;""> </div>","null","FL","learning/Slide85.JPG","That was a bim.","",""
"","image-keyboard-response","263","550527","0.0-8.0-0.5","FL","eyn4ys1wrs","1536","864","en","va07il15","null","","","","","","","","learning/Slide86.JPG","null","","","","",""
"","html-keyboard-response","264","551679","0.0-8.0-1.5","FL","eyn4ys1wrs","1536","864","en","va07il15","null","","","","learningBlock2","","","","That was a tob.","null","","","","",""
"","html-keyboard-response","265","552682","0.0-8.0-2.5","FL","eyn4ys1wrs","1536","864","en","va07il15","null","","","","learningBlock2","","","","<div style=""font-size:60px;""> </div>","null","FL","learning/Slide86.JPG","That was a tob.","",""
"","image-keyboard-response","266","552859","0.0-8.0-0.6","FL","eyn4ys1wrs","1536","864","en","va07il15","null","","","","","","","","learning/Slide87.JPG","null","","","","",""
"","html-keyboard-response","267","554011","0.0-8.0-1.6","FL","eyn4ys1wrs","1536","864","en","va07il15","null","","","","learningBlock2","","","","That was a wug.","null","","","","",""
"","html-keyboard-response","268","555013","0.0-8.0-2.6","FL","eyn4ys1wrs","1536","864","en","va07il15","null","","","","learningBlock2","","","","<div style=""font-size:60px;""> </div>","null","FL","learning/Slide87.JPG","That was a wug.","",""
"","image-keyboard-response","269","555190","0.0-8.0-0.7","FL","eyn4ys1wrs","1536","864","en","va07il15","null","","","","","","","","learning/Slide88.JPG","null","","","","",""
"","html-keyboard-response","270","556342","0.0-8.0-1.7","FL","eyn4ys1wrs","1536","864","en","va07il15","null","","","","learningBlock2","","","","That was a tob.","null","","","","",""
"","html-keyboard-response","271","557346","0.0-8.0-2.7","FL","eyn4ys1wrs","1536","864","en","va07il15","null","","","","learningBlock2","","","","<div style=""font-size:60px;""> </div>","null","FL","learning/Slide88.JPG","That was a tob.","",""
"","image-keyboard-response","272","557525","0.0-8.0-0.8","FL","eyn4ys1wrs","1536","864","en","va07il15","null","","","","","","","","learning/Slide89.JPG","null","","","","",""
"","html-keyboard-response","273","558678","0.0-8.0-1.8","FL","eyn4ys1wrs","1536","864","en","va07il15","null","","","","learningBlock2","","","","That was a bim.","null","","","","",""
"","html-keyboard-response","274","559680","0.0-8.0-2.8","FL","eyn4ys1wrs","1536","864","en","va07il15","null","","","","learningBlock2","","","","<div style=""font-size:60px;""> </div>","null","FL","learning/Slide89.JPG","That was a bim.","",""
"","image-keyboard-response","275","559856","0.0-8.0-0.9","FL","eyn4ys1wrs","1536","864","en","va07il15","null","","","","","","","","learning/Slide90.JPG","null","","","","",""
"","html-keyboard-response","276","561010","0.0-8.0-1.9","FL","eyn4ys1wrs","1536","864","en","va07il15","null","","","","learningBlock2","","","","That was a dep.","null","","","","",""
"","html-keyboard-response","277","562014","0.0-8.0-2.9","FL","eyn4ys1wrs","1536","864","en","va07il15","null","","","","learningBlock2","","","","<div style=""font-size:60px;""> </div>","null","FL","learning/Slide90.JPG","That was a dep.","",""
"","image-keyboard-response","278","562191","0.0-8.0-0.10","FL","eyn4ys1wrs","1536","864","en","va07il15","null","","","","","","","","learning/Slide91.JPG","null","","","","",""
"","html-keyboard-response","279","563344","0.0-8.0-1.10","FL","eyn4ys1wrs","1536","864","en","va07il15","null","","","","learningBlock2","","","","That was a wug.","null","","","","",""
"","html-keyboard-response","280","564347","0.0-8.0-2.10","FL","eyn4ys1wrs","1536","864","en","va07il15","null","","","","learningBlock2","","","","<div style=""font-size:60px;""> </div>","null","FL","learning/Slide91.JPG","That was a wug.","",""
"","image-keyboard-response","281","564524","0.0-8.0-0.11","FL","eyn4ys1wrs","1536","864","en","va07il15","null","","","","","","","","learning/Slide92.JPG","null","","","","",""
"","html-keyboard-response","282","565678","0.0-8.0-1.11","FL","eyn4ys1wrs","1536","864","en","va07il15","null","","","","learningBlock2","","","","That was a tob.","null","","","","",""
"","html-keyboard-response","283","566681","0.0-8.0-2.11","FL","eyn4ys1wrs","1536","864","en","va07il15","null","","","","learningBlock2","","","","<div style=""font-size:60px;""> </div>","null","FL","learning/Slide92.JPG","That was a tob.","",""
"","image-keyboard-response","284","566859","0.0-8.0-0.12","FL","eyn4ys1wrs","1536","864","en","va07il15","null","","","","","","","","learning/Slide93.JPG","null","","","","",""
"","html-keyboard-response","285","568011","0.0-8.0-1.12","FL","eyn4ys1wrs","1536","864","en","va07il15","null","","","","learningBlock2","","","","That was a bim.","null","","","","",""
"","html-keyboard-response","286","569013","0.0-8.0-2.12","FL","eyn4ys1wrs","1536","864","en","va07il15","null","","","","learningBlock2","","","","<div style=""font-size:60px;""> </div>","null","FL","learning/Slide93.JPG","That was a bim.","",""
"","image-keyboard-response","287","569192","0.0-8.0-0.13","FL","eyn4ys1wrs","1536","864","en","va07il15","null","","","","","","","","learning/Slide94.JPG","null","","","","",""
"","html-keyboard-response","288","570346","0.0-8.0-1.13","FL","eyn4ys1wrs","1536","864","en","va07il15","null","","","","learningBlock2","","","","That was a tob.","null","","","","",""
"","html-keyboard-response","289","571348","0.0-8.0-2.13","FL","eyn4ys1wrs","1536","864","en","va07il15","null","","","","learningBlock2","","","","<div style=""font-size:60px;""> </div>","null","FL","learning/Slide94.JPG","That was a tob.","",""
"","image-keyboard-response","290","571526","0.0-8.0-0.14","FL","eyn4ys1wrs","1536","864","en","va07il15","null","","","","","","","","learning/Slide95.JPG","null","","","","",""
"","html-keyboard-response","291","572680","0.0-8.0-1.14","FL","eyn4ys1wrs","1536","864","en","va07il15","null","","","","learningBlock2","","","","That was a wug.","null","","","","",""
"","html-keyboard-response","292","573682","0.0-8.0-2.14","FL","eyn4ys1wrs","1536","864","en","va07il15","null","","","","learningBlock2","","","","<div style=""font-size:60px;""> </div>","null","FL","learning/Slide95.JPG","That was a wug.","",""
"","image-keyboard-response","293","573860","0.0-8.0-0.15","FL","eyn4ys1wrs","1536","864","en","va07il15","null","","","","","","","","learning/Slide96.JPG","null","","","","",""
"","html-keyboard-response","294","575013","0.0-8.0-1.15","FL","eyn4ys1wrs","1536","864","en","va07il15","null","","","","learningBlock2","","","","That was a tob.","null","","","","",""
"","html-keyboard-response","295","576017","0.0-8.0-2.15","FL","eyn4ys1wrs","1536","864","en","va07il15","null","","","","learningBlock2","","","","<div style=""font-size:60px;""> </div>","null","FL","learning/Slide96.JPG","That was a tob.","",""
"","image-keyboard-response","296","576195","0.0-8.0-0.16","FL","eyn4ys1wrs","1536","864","en","va07il15","null","","","","","","","","learning/Slide97.JPG","null","","","","",""
"","html-keyboard-response","297","577349","0.0-8.0-1.16","FL","eyn4ys1wrs","1536","864","en","va07il15","null","","","","learningBlock2","","","","That was a dep.","null","","","","",""
"","html-keyboard-response","298","578352","0.0-8.0-2.16","FL","eyn4ys1wrs","1536","864","en","va07il15","null","","","","learningBlock2","","","","<div style=""font-size:60px;""> </div>","null","FL","learning/Slide97.JPG","That was a dep.","",""
"","image-keyboard-response","299","578528","0.0-8.0-0.17","FL","eyn4ys1wrs","1536","864","en","va07il15","null","","","","","","","","learning/Slide98.JPG","null","","","","",""
"","html-keyboard-response","300","579681","0.0-8.0-1.17","FL","eyn4ys1wrs","1536","864","en","va07il15","null","","","","learningBlock2","","","","That was a bim.","null","","","","",""
"","html-keyboard-response","301","580684","0.0-8.0-2.17","FL","eyn4ys1wrs","1536","864","en","va07il15","null","","","","learningBlock2","","","","<div style=""font-size:60px;""> </div>","null","FL","learning/Slide98.JPG","That was a bim.","",""
"","image-keyboard-response","302","580861","0.0-8.0-0.18","FL","eyn4ys1wrs","1536","864","en","va07il15","null","","","","","","","","learning/Slide99.JPG","null","","","","",""
"","html-keyboard-response","303","582013","0.0-8.0-1.18","FL","eyn4ys1wrs","1536","864","en","va07il15","null","","","","learningBlock2","","","","That was a dep.","null","","","","",""
"","html-keyboard-response","304","583016","0.0-8.0-2.18","FL","eyn4ys1wrs","1536","864","en","va07il15","null","","","","learningBlock2","","","","<div style=""font-size:60px;""> </div>","null","FL","learning/Slide99.JPG","That was a dep.","",""
"","image-keyboard-response","305","583193","0.0-8.0-0.19","FL","eyn4ys1wrs","1536","864","en","va07il15","null","","","","","","","","learning/Slide100.JPG","null","","","","",""
"","html-keyboard-response","306","584347","0.0-8.0-1.19","FL","eyn4ys1wrs","1536","864","en","va07il15","null","","","","learningBlock2","","","","That was a bim.","null","","","","",""
"","html-keyboard-response","307","585348","0.0-8.0-2.19","FL","eyn4ys1wrs","1536","864","en","va07il15","null","","","","learningBlock2","","","","<div style=""font-size:60px;""> </div>","null","FL","learning/Slide100.JPG","That was a bim.","",""
"","image-keyboard-response","308","585527","0.0-8.0-0.20","FL","eyn4ys1wrs","1536","864","en","va07il15","null","","","","","","","","learning/Slide101.JPG","null","","","","",""
"","html-keyboard-response","309","586679","0.0-8.0-1.20","FL","eyn4ys1wrs","1536","864","en","va07il15","null","","","","learningBlock2","","","","That was a tob.","null","","","","",""
"","html-keyboard-response","310","587682","0.0-8.0-2.20","FL","eyn4ys1wrs","1536","864","en","va07il15","null","","","","learningBlock2","","","","<div style=""font-size:60px;""> </div>","null","FL","learning/Slide101.JPG","That was a tob.","",""
"","image-keyboard-response","311","587860","0.0-8.0-0.21","FL","eyn4ys1wrs","1536","864","en","va07il15","null","","","","","","","","learning/Slide102.JPG","null","","","","",""
"","html-keyboard-response","312","589014","0.0-8.0-1.21","FL","eyn4ys1wrs","1536","864","en","va07il15","null","","","","learningBlock2","","","","That was a bim.","null","","","","",""
"","html-keyboard-response","313","590016","0.0-8.0-2.21","FL","eyn4ys1wrs","1536","864","en","va07il15","null","","","","learningBlock2","","","","<div style=""font-size:60px;""> </div>","null","FL","learning/Slide102.JPG","That was a bim.","",""
"","image-keyboard-response","314","590193","0.0-8.0-0.22","FL","eyn4ys1wrs","1536","864","en","va07il15","null","","","","","","","","learning/Slide103.JPG","null","","","","",""
"","html-keyboard-response","315","591345","0.0-8.0-1.22","FL","eyn4ys1wrs","1536","864","en","va07il15","null","","","","learningBlock2","","","","That was a dep.","null","","","","",""
"","html-keyboard-response","316","592347","0.0-8.0-2.22","FL","eyn4ys1wrs","1536","864","en","va07il15","null","","","","learningBlock2","","","","<div style=""font-size:60px;""> </div>","null","FL","learning/Slide103.JPG","That was a dep.","",""
"","image-keyboard-response","317","592525","0.0-8.0-0.23","FL","eyn4ys1wrs","1536","864","en","va07il15","null","","","","","","","","learning/Slide104.JPG","null","","","","",""
"","html-keyboard-response","318","593678","0.0-8.0-1.23","FL","eyn4ys1wrs","1536","864","en","va07il15","null","","","","learningBlock2","","","","That was a tob.","null","","","","",""
"","html-keyboard-response","319","594680","0.0-8.0-2.23","FL","eyn4ys1wrs","1536","864","en","va07il15","null","","","","learningBlock2","","","","<div style=""font-size:60px;""> </div>","null","FL","learning/Slide104.JPG","That was a tob.","",""
"","image-keyboard-response","320","594857","0.0-8.0-0.24","FL","eyn4ys1wrs","1536","864","en","va07il15","null","","","","","","","","learning/Slide105.JPG","null","","","","",""
"","html-keyboard-response","321","596009","0.0-8.0-1.24","FL","eyn4ys1wrs","1536","864","en","va07il15","null","","","","learningBlock2","","","","That was a dep.","null","","","","",""
"","html-keyboard-response","322","597011","0.0-8.0-2.24","FL","eyn4ys1wrs","1536","864","en","va07il15","null","","","","learningBlock2","","","","<div style=""font-size:60px;""> </div>","null","FL","learning/Slide105.JPG","That was a dep.","",""
"","image-keyboard-response","323","597191","0.0-8.0-0.25","FL","eyn4ys1wrs","1536","864","en","va07il15","null","","","","","","","","learning/Slide106.JPG","null","","","","",""
"","html-keyboard-response","324","598343","0.0-8.0-1.25","FL","eyn4ys1wrs","1536","864","en","va07il15","null","","","","learningBlock2","","","","That was a wug.","null","","","","",""
"","html-keyboard-response","325","599346","0.0-8.0-2.25","FL","eyn4ys1wrs","1536","864","en","va07il15","null","","","","learningBlock2","","","","<div style=""font-size:60px;""> </div>","null","FL","learning/Slide106.JPG","That was a wug.","",""
"","image-keyboard-response","326","599525","0.0-8.0-0.26","FL","eyn4ys1wrs","1536","864","en","va07il15","null","","","","","","","","learning/Slide107.JPG","null","","","","",""
"","html-keyboard-response","327","600679","0.0-8.0-1.26","FL","eyn4ys1wrs","1536","864","en","va07il15","null","","","","learningBlock2","","","","That was a bim.","null","","","","",""
"","html-keyboard-response","328","601681","0.0-8.0-2.26","FL","eyn4ys1wrs","1536","864","en","va07il15","null","","","","learningBlock2","","","","<div style=""font-size:60px;""> </div>","null","FL","learning/Slide107.JPG","That was a bim.","",""
"","image-keyboard-response","329","601860","0.0-8.0-0.27","FL","eyn4ys1wrs","1536","864","en","va07il15","null","","","","","","","","learning/Slide108.JPG","null","","","","",""
"","html-keyboard-response","330","603013","0.0-8.0-1.27","FL","eyn4ys1wrs","1536","864","en","va07il15","null","","","","learningBlock2","","","","That was a dep.","null","","","","",""
"","html-keyboard-response","331","604016","0.0-8.0-2.27","FL","eyn4ys1wrs","1536","864","en","va07il15","null","","","","learningBlock2","","","","<div style=""font-size:60px;""> </div>","null","FL","learning/Slide108.JPG","That was a dep.","",""
"","image-keyboard-response","332","604194","0.0-8.0-0.28","FL","eyn4ys1wrs","1536","864","en","va07il15","null","","","","","","","","learning/Slide109.JPG","null","","","","",""
"","html-keyboard-response","333","605348","0.0-8.0-1.28","FL","eyn4ys1wrs","1536","864","en","va07il15","null","","","","learningBlock2","","","","That was a wug.","null","","","","",""
"","html-keyboard-response","334","606349","0.0-8.0-2.28","FL","eyn4ys1wrs","1536","864","en","va07il15","null","","","","learningBlock2","","","","<div style=""font-size:60px;""> </div>","null","FL","learning/Slide109.JPG","That was a wug.","",""
"","image-keyboard-response","335","606527","0.0-8.0-0.29","FL","eyn4ys1wrs","1536","864","en","va07il15","null","","","","","","","","learning/Slide110.JPG","null","","","","",""
"","html-keyboard-response","336","607680","0.0-8.0-1.29","FL","eyn4ys1wrs","1536","864","en","va07il15","null","","","","learningBlock2","","","","That was a bim.","null","","","","",""
"","html-keyboard-response","337","608683","0.0-8.0-2.29","FL","eyn4ys1wrs","1536","864","en","va07il15","null","","","","learningBlock2","","","","<div style=""font-size:60px;""> </div>","null","FL","learning/Slide110.JPG","That was a bim.","",""
"","image-keyboard-response","338","608860","0.0-8.0-0.30","FL","eyn4ys1wrs","1536","864","en","va07il15","null","","","","","","","","learning/Slide111.JPG","null","","","","",""
"","html-keyboard-response","339","610012","0.0-8.0-1.30","FL","eyn4ys1wrs","1536","864","en","va07il15","null","","","","learningBlock2","","","","That was a tob.","null","","","","",""
"","html-keyboard-response","340","611015","0.0-8.0-2.30","FL","eyn4ys1wrs","1536","864","en","va07il15","null","","","","learningBlock2","","","","<div style=""font-size:60px;""> </div>","null","FL","learning/Slide111.JPG","That was a tob.","",""
"","image-keyboard-response","341","611193","0.0-8.0-0.31","FL","eyn4ys1wrs","1536","864","en","va07il15","null","","","","","","","","learning/Slide112.JPG","null","","","","",""
"","html-keyboard-response","342","612345","0.0-8.0-1.31","FL","eyn4ys1wrs","1536","864","en","va07il15","null","","","","learningBlock2","","","","That was a wug.","null","","","","",""
"","html-keyboard-response","343","613347","0.0-8.0-2.31","FL","eyn4ys1wrs","1536","864","en","va07il15","null","","","","learningBlock2","","","","<div style=""font-size:60px;""> </div>","null","FL","learning/Slide112.JPG","That was a wug.","",""
"","image-keyboard-response","344","613523","0.0-8.0-0.32","FL","eyn4ys1wrs","1536","864","en","va07il15","null","","","","","","","","learning/Slide113.JPG","null","","","","",""
"","html-keyboard-response","345","614676","0.0-8.0-1.32","FL","eyn4ys1wrs","1536","864","en","va07il15","null","","","","learningBlock2","","","","That was a tob.","null","","","","",""
"","html-keyboard-response","346","615679","0.0-8.0-2.32","FL","eyn4ys1wrs","1536","864","en","va07il15","null","","","","learningBlock2","","","","<div style=""font-size:60px;""> </div>","null","FL","learning/Slide113.JPG","That was a tob.","",""
"","image-keyboard-response","347","615857","0.0-8.0-0.33","FL","eyn4ys1wrs","1536","864","en","va07il15","null","","","","","","","","learning/Slide114.JPG","null","","","","",""
"","html-keyboard-response","348","617009","0.0-8.0-1.33","FL","eyn4ys1wrs","1536","864","en","va07il15","null","","","","learningBlock2","","","","That was a wug.","null","","","","",""
"","html-keyboard-response","349","618011","0.0-8.0-2.33","FL","eyn4ys1wrs","1536","864","en","va07il15","null","","","","learningBlock2","","","","<div style=""font-size:60px;""> </div>","null","FL","learning/Slide114.JPG","That was a wug.","",""
"","image-keyboard-response","350","618187","0.0-8.0-0.34","FL","eyn4ys1wrs","1536","864","en","va07il15","null","","","","","","","","learning/Slide115.JPG","null","","","","",""
"","html-keyboard-response","351","619340","0.0-8.0-1.34","FL","eyn4ys1wrs","1536","864","en","va07il15","null","","","","learningBlock2","","","","That was a bim.","null","","","","",""
"","html-keyboard-response","352","620341","0.0-8.0-2.34","FL","eyn4ys1wrs","1536","864","en","va07il15","null","","","","learningBlock2","","","","<div style=""font-size:60px;""> </div>","null","FL","learning/Slide115.JPG","That was a bim.","",""
"","image-keyboard-response","353","620518","0.0-8.0-0.35","FL","eyn4ys1wrs","1536","864","en","va07il15","null","","","","","","","","learning/Slide116.JPG","null","","","","",""
"","html-keyboard-response","354","621671","0.0-8.0-1.35","FL","eyn4ys1wrs","1536","864","en","va07il15","null","","","","learningBlock2","","","","That was a dep.","null","","","","",""
"","html-keyboard-response","355","622673","0.0-8.0-2.35","FL","eyn4ys1wrs","1536","864","en","va07il15","null","","","","learningBlock2","","","","<div style=""font-size:60px;""> </div>","null","FL","learning/Slide116.JPG","That was a dep.","",""
"","image-keyboard-response","356","622851","0.0-8.0-0.36","FL","eyn4ys1wrs","1536","864","en","va07il15","null","","","","","","","","learning/Slide117.JPG","null","","","","",""
"","html-keyboard-response","357","624004","0.0-8.0-1.36","FL","eyn4ys1wrs","1536","864","en","va07il15","null","","","","learningBlock2","","","","That was a tob.","null","","","","",""
"","html-keyboard-response","358","625007","0.0-8.0-2.36","FL","eyn4ys1wrs","1536","864","en","va07il15","null","","","","learningBlock2","","","","<div style=""font-size:60px;""> </div>","null","FL","learning/Slide117.JPG","That was a tob.","",""
"","image-keyboard-response","359","625184","0.0-8.0-0.37","FL","eyn4ys1wrs","1536","864","en","va07il15","null","","","","","","","","learning/Slide118.JPG","null","","","","",""
"","html-keyboard-response","360","626339","0.0-8.0-1.37","FL","eyn4ys1wrs","1536","864","en","va07il15","null","","","","learningBlock2","","","","That was a dep.","null","","","","",""
"","html-keyboard-response","361","627341","0.0-8.0-2.37","FL","eyn4ys1wrs","1536","864","en","va07il15","null","","","","learningBlock2","","","","<div style=""font-size:60px;""> </div>","null","FL","learning/Slide118.JPG","That was a dep.","",""
"","image-keyboard-response","362","627519","0.0-8.0-0.38","FL","eyn4ys1wrs","1536","864","en","va07il15","null","","","","","","","","learning/Slide119.JPG","null","","","","",""
"","html-keyboard-response","363","628672","0.0-8.0-1.38","FL","eyn4ys1wrs","1536","864","en","va07il15","null","","","","learningBlock2","","","","That was a wug.","null","","","","",""
"","html-keyboard-response","364","629673","0.0-8.0-2.38","FL","eyn4ys1wrs","1536","864","en","va07il15","null","","","","learningBlock2","","","","<div style=""font-size:60px;""> </div>","null","FL","learning/Slide119.JPG","That was a wug.","",""
"","image-keyboard-response","365","629850","0.0-8.0-0.39","FL","eyn4ys1wrs","1536","864","en","va07il15","null","","","","","","","","learning/Slide120.JPG","null","","","","",""
"","html-keyboard-response","366","631004","0.0-8.0-1.39","FL","eyn4ys1wrs","1536","864","en","va07il15","null","","","","learningBlock2","","","","That was a dep.","null","","","","",""
"","html-keyboard-response","367","632009","0.0-8.0-2.39","FL","eyn4ys1wrs","1536","864","en","va07il15","null","","","","learningBlock2","","","","<div style=""font-size:60px;""> </div>","null","FL","learning/Slide120.JPG","That was a dep.","",""
"","image-keyboard-response","368","632186","0.0-8.0-0.40","FL","eyn4ys1wrs","1536","864","en","va07il15","null","","","","","","","","learning/Slide121.JPG","null","","","","",""
"","html-keyboard-response","369","633341","0.0-8.0-1.40","FL","eyn4ys1wrs","1536","864","en","va07il15","null","","","","learningBlock2","","","","That was a bim.","null","","","","",""
"","html-keyboard-response","370","634344","0.0-8.0-2.40","FL","eyn4ys1wrs","1536","864","en","va07il15","null","","","","learningBlock2","","","","<div style=""font-size:60px;""> </div>","null","FL","learning/Slide121.JPG","That was a bim.","",""
"","image-keyboard-response","371","634521","0.0-8.0-0.41","FL","eyn4ys1wrs","1536","864","en","va07il15","null","","","","","","","","learning/Slide122.JPG","null","","","","",""
"","html-keyboard-response","372","635674","0.0-8.0-1.41","FL","eyn4ys1wrs","1536","864","en","va07il15","null","","","","learningBlock2","","","","That was a wug.","null","","","","",""
"","html-keyboard-response","373","636677","0.0-8.0-2.41","FL","eyn4ys1wrs","1536","864","en","va07il15","null","","","","learningBlock2","","","","<div style=""font-size:60px;""> </div>","null","FL","learning/Slide122.JPG","That was a wug.","",""
"","image-keyboard-response","374","636854","0.0-8.0-0.42","FL","eyn4ys1wrs","1536","864","en","va07il15","null","","","","","","","","learning/Slide123.JPG","null","","","","",""
"","html-keyboard-response","375","638007","0.0-8.0-1.42","FL","eyn4ys1wrs","1536","864","en","va07il15","null","","","","learningBlock2","","","","That was a bim.","null","","","","",""
"","html-keyboard-response","376","639010","0.0-8.0-2.42","FL","eyn4ys1wrs","1536","864","en","va07il15","null","","","","learningBlock2","","","","<div style=""font-size:60px;""> </div>","null","FL","learning/Slide123.JPG","That was a bim.","",""
"","image-keyboard-response","377","639188","0.0-8.0-0.43","FL","eyn4ys1wrs","1536","864","en","va07il15","null","","","","","","","","learning/Slide124.JPG","null","","","","",""
"","html-keyboard-response","378","640341","0.0-8.0-1.43","FL","eyn4ys1wrs","1536","864","en","va07il15","null","","","","learningBlock2","","","","That was a tob.","null","","","","",""
"","html-keyboard-response","379","641344","0.0-8.0-2.43","FL","eyn4ys1wrs","1536","864","en","va07il15","null","","","","learningBlock2","","","","<div style=""font-size:60px;""> </div>","null","FL","learning/Slide124.JPG","That was a tob.","",""
"","image-keyboard-response","380","641525","0.0-8.0-0.44","FL","eyn4ys1wrs","1536","864","en","va07il15","null","","","","","","","","learning/Slide125.JPG","null","","","","",""
"","html-keyboard-response","381","642677","0.0-8.0-1.44","FL","eyn4ys1wrs","1536","864","en","va07il15","null","","","","learningBlock2","","","","That was a bim.","null","","","","",""
"","html-keyboard-response","382","643679","0.0-8.0-2.44","FL","eyn4ys1wrs","1536","864","en","va07il15","null","","","","learningBlock2","","","","<div style=""font-size:60px;""> </div>","null","FL","learning/Slide125.JPG","That was a bim.","",""
"","image-keyboard-response","383","643856","0.0-8.0-0.45","FL","eyn4ys1wrs","1536","864","en","va07il15","null","","","","","","","","learning/Slide126.JPG","null","","","","",""
"","html-keyboard-response","384","645009","0.0-8.0-1.45","FL","eyn4ys1wrs","1536","864","en","va07il15","null","","","","learningBlock2","","","","That was a tob.","null","","","","",""
"","html-keyboard-response","385","646012","0.0-8.0-2.45","FL","eyn4ys1wrs","1536","864","en","va07il15","null","","","","learningBlock2","","","","<div style=""font-size:60px;""> </div>","null","FL","learning/Slide126.JPG","That was a tob.","",""
"","image-keyboard-response","386","646189","0.0-8.0-0.46","FL","eyn4ys1wrs","1536","864","en","va07il15","null","","","","","","","","learning/Slide127.JPG","null","","","","",""
"","html-keyboard-response","387","647341","0.0-8.0-1.46","FL","eyn4ys1wrs","1536","864","en","va07il15","null","","","","learningBlock2","","","","That was a dep.","null","","","","",""
"","html-keyboard-response","388","648347","0.0-8.0-2.46","FL","eyn4ys1wrs","1536","864","en","va07il15","null","","","","learningBlock2","","","","<div style=""font-size:60px;""> </div>","null","FL","learning/Slide127.JPG","That was a dep.","",""
"","image-keyboard-response","389","648526","0.0-8.0-0.47","FL","eyn4ys1wrs","1536","864","en","va07il15","null","","","","","","","","learning/Slide128.JPG","null","","","","",""
"","html-keyboard-response","390","649678","0.0-8.0-1.47","FL","eyn4ys1wrs","1536","864","en","va07il15","null","","","","learningBlock2","","","","That was a wug.","null","","","","",""
"","html-keyboard-response","391","650681","0.0-8.0-2.47","FL","eyn4ys1wrs","1536","864","en","va07il15","null","","","","learningBlock2","","","","<div style=""font-size:60px;""> </div>","null","FL","learning/Slide128.JPG","That was a wug.","",""
"","image-keyboard-response","392","650859","0.0-8.0-0.48","FL","eyn4ys1wrs","1536","864","en","va07il15","null","","","","","","","","learning/Slide129.JPG","null","","","","",""
"","html-keyboard-response","393","652012","0.0-8.0-1.48","FL","eyn4ys1wrs","1536","864","en","va07il15","null","","","","learningBlock2","","","","That was a tob.","null","","","","",""
"","html-keyboard-response","394","653014","0.0-8.0-2.48","FL","eyn4ys1wrs","1536","864","en","va07il15","null","","","","learningBlock2","","","","<div style=""font-size:60px;""> </div>","null","FL","learning/Slide129.JPG","That was a tob.","",""
"","image-keyboard-response","395","653192","0.0-8.0-0.49","FL","eyn4ys1wrs","1536","864","en","va07il15","null","","","","","","","","learning/Slide130.JPG","null","","","","",""
"","html-keyboard-response","396","654347","0.0-8.0-1.49","FL","eyn4ys1wrs","1536","864","en","va07il15","null","","","","learningBlock2","","","","That was a wug.","null","","","","",""
"","html-keyboard-response","397","655348","0.0-8.0-2.49","FL","eyn4ys1wrs","1536","864","en","va07il15","null","","","","learningBlock2","","","","<div style=""font-size:60px;""> </div>","null","FL","learning/Slide130.JPG","That was a wug.","",""
"","image-keyboard-response","398","655525","0.0-8.0-0.50","FL","eyn4ys1wrs","1536","864","en","va07il15","null","","","","","","","","learning/Slide131.JPG","null","","","","",""
"","html-keyboard-response","399","656677","0.0-8.0-1.50","FL","eyn4ys1wrs","1536","864","en","va07il15","null","","","","learningBlock2","","","","That was a bim.","null","","","","",""
"","html-keyboard-response","400","657679","0.0-8.0-2.50","FL","eyn4ys1wrs","1536","864","en","va07il15","null","","","","learningBlock2","","","","<div style=""font-size:60px;""> </div>","null","FL","learning/Slide131.JPG","That was a bim.","",""
"","image-keyboard-response","401","657857","0.0-8.0-0.51","FL","eyn4ys1wrs","1536","864","en","va07il15","null","","","","","","","","learning/Slide132.JPG","null","","","","",""
"","html-keyboard-response","402","659010","0.0-8.0-1.51","FL","eyn4ys1wrs","1536","864","en","va07il15","null","","","","learningBlock2","","","","That was a dep.","null","","","","",""
"","html-keyboard-response","403","660012","0.0-8.0-2.51","FL","eyn4ys1wrs","1536","864","en","va07il15","null","","","","learningBlock2","","","","<div style=""font-size:60px;""> </div>","null","FL","learning/Slide132.JPG","That was a dep.","",""
"","image-keyboard-response","404","660191","0.0-8.0-0.52","FL","eyn4ys1wrs","1536","864","en","va07il15","null","","","","","","","","learning/Slide133.JPG","null","","","","",""
"","html-keyboard-response","405","661343","0.0-8.0-1.52","FL","eyn4ys1wrs","1536","864","en","va07il15","null","","","","learningBlock2","","","","That was a tob.","null","","","","",""
"","html-keyboard-response","406","662346","0.0-8.0-2.52","FL","eyn4ys1wrs","1536","864","en","va07il15","null","","","","learningBlock2","","","","<div style=""font-size:60px;""> </div>","null","FL","learning/Slide133.JPG","That was a tob.","",""
"","image-keyboard-response","407","662524","0.0-8.0-0.53","FL","eyn4ys1wrs","1536","864","en","va07il15","null","","","","","","","","learning/Slide134.JPG","null","","","","",""
"","html-keyboard-response","408","663677","0.0-8.0-1.53","FL","eyn4ys1wrs","1536","864","en","va07il15","null","","","","learningBlock2","","","","That was a dep.","null","","","","",""
"","html-keyboard-response","409","664679","0.0-8.0-2.53","FL","eyn4ys1wrs","1536","864","en","va07il15","null","","","","learningBlock2","","","","<div style=""font-size:60px;""> </div>","null","FL","learning/Slide134.JPG","That was a dep.","",""
"","image-keyboard-response","410","664858","0.0-8.0-0.54","FL","eyn4ys1wrs","1536","864","en","va07il15","null","","","","","","","","learning/Slide135.JPG","null","","","","",""
"","html-keyboard-response","411","666011","0.0-8.0-1.54","FL","eyn4ys1wrs","1536","864","en","va07il15","null","","","","learningBlock2","","","","That was a tob.","null","","","","",""
"","html-keyboard-response","412","667014","0.0-8.0-2.54","FL","eyn4ys1wrs","1536","864","en","va07il15","null","","","","learningBlock2","","","","<div style=""font-size:60px;""> </div>","null","FL","learning/Slide135.JPG","That was a tob.","",""
"","image-keyboard-response","413","667190","0.0-8.0-0.55","FL","eyn4ys1wrs","1536","864","en","va07il15","null","","","","","","","","learning/Slide136.JPG","null","","","","",""
"","html-keyboard-response","414","668345","0.0-8.0-1.55","FL","eyn4ys1wrs","1536","864","en","va07il15","null","","","","learningBlock2","","","","That was a wug.","null","","","","",""
"","html-keyboard-response","415","669347","0.0-8.0-2.55","FL","eyn4ys1wrs","1536","864","en","va07il15","null","","","","learningBlock2","","","","<div style=""font-size:60px;""> </div>","null","FL","learning/Slide136.JPG","That was a wug.","",""
"","image-keyboard-response","416","669525","0.0-8.0-0.56","FL","eyn4ys1wrs","1536","864","en","va07il15","null","","","","","","","","learning/Slide137.JPG","null","","","","",""
"","html-keyboard-response","417","670678","0.0-8.0-1.56","FL","eyn4ys1wrs","1536","864","en","va07il15","null","","","","learningBlock2","","","","That was a tob.","null","","","","",""
"","html-keyboard-response","418","671681","0.0-8.0-2.56","FL","eyn4ys1wrs","1536","864","en","va07il15","null","","","","learningBlock2","","","","<div style=""font-size:60px;""> </div>","null","FL","learning/Slide137.JPG","That was a tob.","",""
"","image-keyboard-response","419","671860","0.0-8.0-0.57","FL","eyn4ys1wrs","1536","864","en","va07il15","null","","","","","","","","learning/Slide138.JPG","null","","","","",""
"","html-keyboard-response","420","673012","0.0-8.0-1.57","FL","eyn4ys1wrs","1536","864","en","va07il15","null","","","","learningBlock2","","","","That was a bim.","null","","","","",""
"","html-keyboard-response","421","674015","0.0-8.0-2.57","FL","eyn4ys1wrs","1536","864","en","va07il15","null","","","","learningBlock2","","","","<div style=""font-size:60px;""> </div>","null","FL","learning/Slide138.JPG","That was a bim.","",""
"","image-keyboard-response","422","674193","0.0-8.0-0.58","FL","eyn4ys1wrs","1536","864","en","va07il15","null","","","","","","","","learning/Slide139.JPG","null","","","","",""
"","html-keyboard-response","423","675347","0.0-8.0-1.58","FL","eyn4ys1wrs","1536","864","en","va07il15","null","","","","learningBlock2","","","","That was a wug.","null","","","","",""
"","html-keyboard-response","424","676350","0.0-8.0-2.58","FL","eyn4ys1wrs","1536","864","en","va07il15","null","","","","learningBlock2","","","","<div style=""font-size:60px;""> </div>","null","FL","learning/Slide139.JPG","That was a wug.","",""
"","image-keyboard-response","425","676526","0.0-8.0-0.59","FL","eyn4ys1wrs","1536","864","en","va07il15","null","","","","","","","","learning/Slide140.JPG","null","","","","",""
"","html-keyboard-response","426","677678","0.0-8.0-1.59","FL","eyn4ys1wrs","1536","864","en","va07il15","null","","","","learningBlock2","","","","That was a dep.","null","","","","",""
"","html-keyboard-response","427","678681","0.0-8.0-2.59","FL","eyn4ys1wrs","1536","864","en","va07il15","null","","","","learningBlock2","","","","<div style=""font-size:60px;""> </div>","null","FL","learning/Slide140.JPG","That was a dep.","",""
"","image-keyboard-response","428","678859","0.0-8.0-0.60","FL","eyn4ys1wrs","1536","864","en","va07il15","null","","","","","","","","learning/Slide141.JPG","null","","","","",""
"","html-keyboard-response","429","680015","0.0-8.0-1.60","FL","eyn4ys1wrs","1536","864","en","va07il15","null","","","","learningBlock2","","","","That was a tob.","null","","","","",""
"","html-keyboard-response","430","681017","0.0-8.0-2.60","FL","eyn4ys1wrs","1536","864","en","va07il15","null","","","","learningBlock2","","","","<div style=""font-size:60px;""> </div>","null","FL","learning/Slide141.JPG","That was a tob.","",""
"","image-keyboard-response","431","681195","0.0-8.0-0.61","FL","eyn4ys1wrs","1536","864","en","va07il15","null","","","","","","","","learning/Slide142.JPG","null","","","","",""
"","html-keyboard-response","432","682347","0.0-8.0-1.61","FL","eyn4ys1wrs","1536","864","en","va07il15","null","","","","learningBlock2","","","","That was a wug.","null","","","","",""
"","html-keyboard-response","433","683349","0.0-8.0-2.61","FL","eyn4ys1wrs","1536","864","en","va07il15","null","","","","learningBlock2","","","","<div style=""font-size:60px;""> </div>","null","FL","learning/Slide142.JPG","That was a wug.","",""
"","image-keyboard-response","434","683526","0.0-8.0-0.62","FL","eyn4ys1wrs","1536","864","en","va07il15","null","","","","","","","","learning/Slide143.JPG","null","","","","",""
"","html-keyboard-response","435","684678","0.0-8.0-1.62","FL","eyn4ys1wrs","1536","864","en","va07il15","null","","","","learningBlock2","","","","That was a bim.","null","","","","",""
"","html-keyboard-response","436","685680","0.0-8.0-2.62","FL","eyn4ys1wrs","1536","864","en","va07il15","null","","","","learningBlock2","","","","<div style=""font-size:60px;""> </div>","null","FL","learning/Slide143.JPG","That was a bim.","",""
"","image-keyboard-response","437","685856","0.0-8.0-0.63","FL","eyn4ys1wrs","1536","864","en","va07il15","null","","","","","","","","learning/Slide144.JPG","null","","","","",""
"","html-keyboard-response","438","687010","0.0-8.0-1.63","FL","eyn4ys1wrs","1536","864","en","va07il15","null","","","","learningBlock2","","","","That was a dep.","null","","","","",""
"","html-keyboard-response","439","688012","0.0-8.0-2.63","FL","eyn4ys1wrs","1536","864","en","va07il15","null","","","","learningBlock2","","","","<div style=""font-size:60px;""> </div>","null","FL","learning/Slide144.JPG","That was a dep.","",""
"","image-keyboard-response","440","688190","0.0-8.0-0.64","FL","eyn4ys1wrs","1536","864","en","va07il15","null","","","","","","","","learning/Slide145.JPG","null","","","","",""
"","html-keyboard-response","441","689345","0.0-8.0-1.64","FL","eyn4ys1wrs","1536","864","en","va07il15","null","","","","learningBlock2","","","","That was a bim.","null","","","","",""
"","html-keyboard-response","442","690346","0.0-8.0-2.64","FL","eyn4ys1wrs","1536","864","en","va07il15","null","","","","learningBlock2","","","","<div style=""font-size:60px;""> </div>","null","FL","learning/Slide145.JPG","That was a bim.","",""
"","image-keyboard-response","443","690523","0.0-8.0-0.65","FL","eyn4ys1wrs","1536","864","en","va07il15","null","","","","","","","","learning/Slide146.JPG","null","","","","",""
"","html-keyboard-response","444","691677","0.0-8.0-1.65","FL","eyn4ys1wrs","1536","864","en","va07il15","null","","","","learningBlock2","","","","That was a tob.","null","","","","",""
"","html-keyboard-response","445","692679","0.0-8.0-2.65","FL","eyn4ys1wrs","1536","864","en","va07il15","null","","","","learningBlock2","","","","<div style=""font-size:60px;""> </div>","null","FL","learning/Slide146.JPG","That was a tob.","",""
"","image-keyboard-response","446","692857","0.0-8.0-0.66","FL","eyn4ys1wrs","1536","864","en","va07il15","null","","","","","","","","learning/Slide147.JPG","null","","","","",""
"","html-keyboard-response","447","694010","0.0-8.0-1.66","FL","eyn4ys1wrs","1536","864","en","va07il15","null","","","","learningBlock2","","","","That was a wug.","null","","","","",""
"","html-keyboard-response","448","695013","0.0-8.0-2.66","FL","eyn4ys1wrs","1536","864","en","va07il15","null","","","","learningBlock2","","","","<div style=""font-size:60px;""> </div>","null","FL","learning/Slide147.JPG","That was a wug.","",""
"","image-keyboard-response","449","695191","0.0-8.0-0.67","FL","eyn4ys1wrs","1536","864","en","va07il15","null","","","","","","","","learning/Slide148.JPG","null","","","","",""
"","html-keyboard-response","450","696344","0.0-8.0-1.67","FL","eyn4ys1wrs","1536","864","en","va07il15","null","","","","learningBlock2","","","","That was a bim.","null","","","","",""
"","html-keyboard-response","451","697346","0.0-8.0-2.67","FL","eyn4ys1wrs","1536","864","en","va07il15","null","","","","learningBlock2","","","","<div style=""font-size:60px;""> </div>","null","FL","learning/Slide148.JPG","That was a bim.","",""
"","image-keyboard-response","452","697524","0.0-8.0-0.68","FL","eyn4ys1wrs","1536","864","en","va07il15","null","","","","","","","","learning/Slide149.JPG","null","","","","",""
"","html-keyboard-response","453","698676","0.0-8.0-1.68","FL","eyn4ys1wrs","1536","864","en","va07il15","null","","","","learningBlock2","","","","That was a dep.","null","","","","",""
"","html-keyboard-response","454","699679","0.0-8.0-2.68","FL","eyn4ys1wrs","1536","864","en","va07il15","null","","","","learningBlock2","","","","<div style=""font-size:60px;""> </div>","null","FL","learning/Slide149.JPG","That was a dep.","",""
"","image-keyboard-response","455","699856","0.0-8.0-0.69","FL","eyn4ys1wrs","1536","864","en","va07il15","null","","","","","","","","learning/Slide150.JPG","null","","","","",""
"","html-keyboard-response","456","701009","0.0-8.0-1.69","FL","eyn4ys1wrs","1536","864","en","va07il15","null","","","","learningBlock2","","","","That was a wug.","null","","","","",""
"","html-keyboard-response","457","702011","0.0-8.0-2.69","FL","eyn4ys1wrs","1536","864","en","va07il15","null","","","","learningBlock2","","","","<div style=""font-size:60px;""> </div>","null","FL","learning/Slide150.JPG","That was a wug.","",""
"","image-keyboard-response","458","702190","0.0-8.0-0.70","FL","eyn4ys1wrs","1536","864","en","va07il15","null","","","","","","","","learning/Slide151.JPG","null","","","","",""
"","html-keyboard-response","459","703345","0.0-8.0-1.70","FL","eyn4ys1wrs","1536","864","en","va07il15","null","","","","learningBlock2","","","","That was a dep.","null","","","","",""
"","html-keyboard-response","460","704347","0.0-8.0-2.70","FL","eyn4ys1wrs","1536","864","en","va07il15","null","","","","learningBlock2","","","","<div style=""font-size:60px;""> </div>","null","FL","learning/Slide151.JPG","That was a dep.","",""
"","image-keyboard-response","461","704524","0.0-8.0-0.71","FL","eyn4ys1wrs","1536","864","en","va07il15","null","","","","","","","","learning/Slide152.JPG","null","","","","",""
"","html-keyboard-response","462","705677","0.0-8.0-1.71","FL","eyn4ys1wrs","1536","864","en","va07il15","null","","","","learningBlock2","","","","That was a wug.","null","","","","",""
"","html-keyboard-response","463","706680","0.0-8.0-2.71","FL","eyn4ys1wrs","1536","864","en","va07il15","null","","","","learningBlock2","","","","<div style=""font-size:60px;""> </div>","null","FL","learning/Slide152.JPG","That was a wug.","",""
"","image-keyboard-response","464","706858","0.0-8.0-0.72","FL","eyn4ys1wrs","1536","864","en","va07il15","null","","","","","","","","learning/Slide153.JPG","null","","","","",""
"","html-keyboard-response","465","708011","0.0-8.0-1.72","FL","eyn4ys1wrs","1536","864","en","va07il15","null","","","","learningBlock2","","","","That was a bim.","null","","","","",""
"","html-keyboard-response","466","709013","0.0-8.0-2.72","FL","eyn4ys1wrs","1536","864","en","va07il15","null","","","","learningBlock2","","","","<div style=""font-size:60px;""> </div>","null","FL","learning/Slide153.JPG","That was a bim.","",""
"","image-keyboard-response","467","709191","0.0-8.0-0.73","FL","eyn4ys1wrs","1536","864","en","va07il15","null","","","","","","","","learning/Slide154.JPG","null","","","","",""
"","html-keyboard-response","468","710344","0.0-8.0-1.73","FL","eyn4ys1wrs","1536","864","en","va07il15","null","","","","learningBlock2","","","","That was a tob.","null","","","","",""
"","html-keyboard-response","469","711347","0.0-8.0-2.73","FL","eyn4ys1wrs","1536","864","en","va07il15","null","","","","learningBlock2","","","","<div style=""font-size:60px;""> </div>","null","FL","learning/Slide154.JPG","That was a tob.","",""
"","image-keyboard-response","470","711525","0.0-8.0-0.74","FL","eyn4ys1wrs","1536","864","en","va07il15","null","","","","","","","","learning/Slide155.JPG","null","","","","",""
"","html-keyboard-response","471","712678","0.0-8.0-1.74","FL","eyn4ys1wrs","1536","864","en","va07il15","null","","","","learningBlock2","","","","That was a dep.","null","","","","",""
"","html-keyboard-response","472","713682","0.0-8.0-2.74","FL","eyn4ys1wrs","1536","864","en","va07il15","null","","","","learningBlock2","","","","<div style=""font-size:60px;""> </div>","null","FL","learning/Slide155.JPG","That was a dep.","",""
"","image-keyboard-response","473","713859","0.0-8.0-0.75","FL","eyn4ys1wrs","1536","864","en","va07il15","null","","","","","","","","learning/Slide156.JPG","null","","","","",""
"","html-keyboard-response","474","715012","0.0-8.0-1.75","FL","eyn4ys1wrs","1536","864","en","va07il15","null","","","","learningBlock2","","","","That was a bim.","null","","","","",""
"","html-keyboard-response","475","716014","0.0-8.0-2.75","FL","eyn4ys1wrs","1536","864","en","va07il15","null","","","","learningBlock2","","","","<div style=""font-size:60px;""> </div>","null","FL","learning/Slide156.JPG","That was a bim.","",""
"","image-keyboard-response","476","716191","0.0-8.0-0.76","FL","eyn4ys1wrs","1536","864","en","va07il15","null","","","","","","","","learning/Slide157.JPG","null","","","","",""
"","html-keyboard-response","477","717343","0.0-8.0-1.76","FL","eyn4ys1wrs","1536","864","en","va07il15","null","","","","learningBlock2","","","","That was a dep.","null","","","","",""
"","html-keyboard-response","478","718347","0.0-8.0-2.76","FL","eyn4ys1wrs","1536","864","en","va07il15","null","","","","learningBlock2","","","","<div style=""font-size:60px;""> </div>","null","FL","learning/Slide157.JPG","That was a dep.","",""
"","image-keyboard-response","479","718525","0.0-8.0-0.77","FL","eyn4ys1wrs","1536","864","en","va07il15","null","","","","","","","","learning/Slide158.JPG","null","","","","",""
"","html-keyboard-response","480","719678","0.0-8.0-1.77","FL","eyn4ys1wrs","1536","864","en","va07il15","null","","","","learningBlock2","","","","That was a tob.","null","","","","",""
"","html-keyboard-response","481","720680","0.0-8.0-2.77","FL","eyn4ys1wrs","1536","864","en","va07il15","null","","","","learningBlock2","","","","<div style=""font-size:60px;""> </div>","null","FL","learning/Slide158.JPG","That was a tob.","",""
"","image-keyboard-response","482","720857","0.0-8.0-0.78","FL","eyn4ys1wrs","1536","864","en","va07il15","null","","","","","","","","learning/Slide159.JPG","null","","","","",""
"","html-keyboard-response","483","722009","0.0-8.0-1.78","FL","eyn4ys1wrs","1536","864","en","va07il15","null","","","","learningBlock2","","","","That was a dep.","null","","","","",""
"","html-keyboard-response","484","723011","0.0-8.0-2.78","FL","eyn4ys1wrs","1536","864","en","va07il15","null","","","","learningBlock2","","","","<div style=""font-size:60px;""> </div>","null","FL","learning/Slide159.JPG","That was a dep.","",""
"","image-keyboard-response","485","723189","0.0-8.0-0.79","FL","eyn4ys1wrs","1536","864","en","va07il15","null","","","","","","","","learning/Slide160.JPG","null","","","","",""
"","html-keyboard-response","486","724342","0.0-8.0-1.79","FL","eyn4ys1wrs","1536","864","en","va07il15","null","","","","learningBlock2","","","","That was a wug.","null","","","","",""
"","html-keyboard-response","487","725345","0.0-8.0-2.79","FL","eyn4ys1wrs","1536","864","en","va07il15","null","","","","learningBlock2","","","","<div style=""font-size:60px;""> </div>","null","FL","learning/Slide160.JPG","That was a wug.","",""
"","resize2","488","806471","0.0-9.0","FL","eyn4ys1wrs","1536","864","en","va07il15","","","","","","","104","1.04","","","","","","",""
