"success","trial_type","trial_index","time_elapsed","internal_node_id","condition","subject","screen_width","screen_height","language","codeword","rt","responses","url","view_history","test_part","final_height_px","final_width_px","scale_factor","stimulus","key_press","learningType","presentedImage","presentedLabel","button_pressed","response"
"true","fullscreen","0","3049","0.0-0.0","LF","g4m3kbu4rq","1536","864","en","ER04LF09","","","","","","","","","","","","","","",""
"","survey-html-form","1","5896","0.0-1.0","LF","g4m3kbu4rq","1536","864","en","ER04LF09","2840.054999996937","{""language"":""en""}","","","","","","","","","","","","",""
"","external-html","2","139298","0.0-3.0-0.0","LF","g4m3kbu4rq","1536","864","en","ER04LF09","133392.9199999984","","text/information_english.html","","","","","","","","","","","",""
"","external-html","3","294543","0.0-3.0-1.0","LF","g4m3kbu4rq","1536","864","en","ER04LF09","155182.11000000153","","text/consent_english.html","","","","","","","","","","","",""
"","survey-html-form","4","362179","0.0-3.0-2.0","LF","g4m3kbu4rq","1536","864","en","ER04LF09","67632.82999999868","{""codeword_enter"":""ER04LF09""}","","","","","","","","","","","","",""
"","instructions","5","404889","0.0-4.0","LF","g4m3kbu4rq","1536","864","en","ER04LF09","NA","","","[{""page_index"":0,""viewing_time"":3951.2599999980303},{""page_index"":1,""viewing_time"":37255.60000000044}]","instructions","","","","","","","","","",""
"","resize","6","491441","0.0-5.0","LF","g4m3kbu4rq","1536","864","en","ER04LF09","","","","","","","386","2.450793650793651","","","","","","",""
"","html-keyboard-response","7","492448","0.0-6.0-0.0","LF","g4m3kbu4rq","1536","864","en","ER04LF09","null","","","","learningBlock1","","","","This is a tob:","null","","","","",""
"","image-keyboard-response","8","492779","0.0-6.0-1.0","LF","g4m3kbu4rq","1536","864","en","ER04LF09","null","","","","","","","","learning/Slide1.JPG","null","","","","",""
"","html-keyboard-response","9","493784","0.0-6.0-2.0","LF","g4m3kbu4rq","1536","864","en","ER04LF09","null","","","","learningBlock1","","","","<div style=""font-size:60px;""> </div>","null","LF","learning/Slide1.JPG","This is a tob:","",""
"","html-keyboard-response","10","494789","0.0-6.0-0.1","LF","g4m3kbu4rq","1536","864","en","ER04LF09","null","","","","learningBlock1","","","","This is a wug:","null","","","","",""
"","image-keyboard-response","11","495119","0.0-6.0-1.1","LF","g4m3kbu4rq","1536","864","en","ER04LF09","null","","","","","","","","learning/Slide2.JPG","null","","","","",""
"","html-keyboard-response","12","496124","0.0-6.0-2.1","LF","g4m3kbu4rq","1536","864","en","ER04LF09","null","","","","learningBlock1","","","","<div style=""font-size:60px;""> </div>","null","LF","learning/Slide2.JPG","This is a wug:","",""
"","html-keyboard-response","13","497128","0.0-6.0-0.2","LF","g4m3kbu4rq","1536","864","en","ER04LF09","null","","","","learningBlock1","","","","This is a bim:","null","","","","",""
"","image-keyboard-response","14","497458","0.0-6.0-1.2","LF","g4m3kbu4rq","1536","864","en","ER04LF09","null","","","","","","","","learning/Slide3.JPG","null","","","","",""
"","html-keyboard-response","15","498461","0.0-6.0-2.2","LF","g4m3kbu4rq","1536","864","en","ER04LF09","null","","","","learningBlock1","","","","<div style=""font-size:60px;""> </div>","null","LF","learning/Slide3.JPG","This is a bim:","",""
"","html-keyboard-response","16","499465","0.0-6.0-0.3","LF","g4m3kbu4rq","1536","864","en","ER04LF09","null","","","","learningBlock1","","","","This is a dep:","null","","","","",""
"","image-keyboard-response","17","499796","0.0-6.0-1.3","LF","g4m3kbu4rq","1536","864","en","ER04LF09","null","","","","","","","","learning/Slide4.JPG","null","","","","",""
"","html-keyboard-response","18","500801","0.0-6.0-2.3","LF","g4m3kbu4rq","1536","864","en","ER04LF09","null","","","","learningBlock1","","","","<div style=""font-size:60px;""> </div>","null","LF","learning/Slide4.JPG","This is a dep:","",""
"","html-keyboard-response","19","501803","0.0-6.0-0.4","LF","g4m3kbu4rq","1536","864","en","ER04LF09","null","","","","learningBlock1","","","","This is a wug:","null","","","","",""
"","image-keyboard-response","20","502135","0.0-6.0-1.4","LF","g4m3kbu4rq","1536","864","en","ER04LF09","null","","","","","","","","learning/Slide5.JPG","null","","","","",""
"","html-keyboard-response","21","503141","0.0-6.0-2.4","LF","g4m3kbu4rq","1536","864","en","ER04LF09","null","","","","learningBlock1","","","","<div style=""font-size:60px;""> </div>","null","LF","learning/Slide5.JPG","This is a wug:","",""
"","html-keyboard-response","22","504144","0.0-6.0-0.5","LF","g4m3kbu4rq","1536","864","en","ER04LF09","null","","","","learningBlock1","","","","This is a dep:","null","","","","",""
"","image-keyboard-response","23","504474","0.0-6.0-1.5","LF","g4m3kbu4rq","1536","864","en","ER04LF09","null","","","","","","","","learning/Slide6.JPG","null","","","","",""
"","html-keyboard-response","24","505478","0.0-6.0-2.5","LF","g4m3kbu4rq","1536","864","en","ER04LF09","null","","","","learningBlock1","","","","<div style=""font-size:60px;""> </div>","null","LF","learning/Slide6.JPG","This is a dep:","",""
"","html-keyboard-response","25","506480","0.0-6.0-0.6","LF","g4m3kbu4rq","1536","864","en","ER04LF09","null","","","","learningBlock1","","","","This is a wug:","null","","","","",""
"","image-keyboard-response","26","506810","0.0-6.0-1.6","LF","g4m3kbu4rq","1536","864","en","ER04LF09","null","","","","","","","","learning/Slide7.JPG","null","","","","",""
"","html-keyboard-response","27","507813","0.0-6.0-2.6","LF","g4m3kbu4rq","1536","864","en","ER04LF09","null","","","","learningBlock1","","","","<div style=""font-size:60px;""> </div>","null","LF","learning/Slide7.JPG","This is a wug:","",""
"","html-keyboard-response","28","508818","0.0-6.0-0.7","LF","g4m3kbu4rq","1536","864","en","ER04LF09","null","","","","learningBlock1","","","","This is a bim:","null","","","","",""
"","image-keyboard-response","29","509147","0.0-6.0-1.7","LF","g4m3kbu4rq","1536","864","en","ER04LF09","null","","","","","","","","learning/Slide8.JPG","null","","","","",""
"","html-keyboard-response","30","510150","0.0-6.0-2.7","LF","g4m3kbu4rq","1536","864","en","ER04LF09","null","","","","learningBlock1","","","","<div style=""font-size:60px;""> </div>","null","LF","learning/Slide8.JPG","This is a bim:","",""
"","html-keyboard-response","31","511155","0.0-6.0-0.8","LF","g4m3kbu4rq","1536","864","en","ER04LF09","null","","","","learningBlock1","","","","This is a wug:","null","","","","",""
"","image-keyboard-response","32","511486","0.0-6.0-1.8","LF","g4m3kbu4rq","1536","864","en","ER04LF09","null","","","","","","","","learning/Slide9.JPG","null","","","","",""
"","html-keyboard-response","33","512489","0.0-6.0-2.8","LF","g4m3kbu4rq","1536","864","en","ER04LF09","null","","","","learningBlock1","","","","<div style=""font-size:60px;""> </div>","null","LF","learning/Slide9.JPG","This is a wug:","",""
"","html-keyboard-response","34","513492","0.0-6.0-0.9","LF","g4m3kbu4rq","1536","864","en","ER04LF09","null","","","","learningBlock1","","","","This is a dep:","null","","","","",""
"","image-keyboard-response","35","513824","0.0-6.0-1.9","LF","g4m3kbu4rq","1536","864","en","ER04LF09","null","","","","","","","","learning/Slide10.JPG","null","","","","",""
"","html-keyboard-response","36","514827","0.0-6.0-2.9","LF","g4m3kbu4rq","1536","864","en","ER04LF09","null","","","","learningBlock1","","","","<div style=""font-size:60px;""> </div>","null","LF","learning/Slide10.JPG","This is a dep:","",""
"","html-keyboard-response","37","515829","0.0-6.0-0.10","LF","g4m3kbu4rq","1536","864","en","ER04LF09","null","","","","learningBlock1","","","","This is a tob:","null","","","","",""
"","image-keyboard-response","38","516159","0.0-6.0-1.10","LF","g4m3kbu4rq","1536","864","en","ER04LF09","null","","","","","","","","learning/Slide11.JPG","null","","","","",""
"","html-keyboard-response","39","517164","0.0-6.0-2.10","LF","g4m3kbu4rq","1536","864","en","ER04LF09","null","","","","learningBlock1","","","","<div style=""font-size:60px;""> </div>","null","LF","learning/Slide11.JPG","This is a tob:","",""
"","html-keyboard-response","40","518168","0.0-6.0-0.11","LF","g4m3kbu4rq","1536","864","en","ER04LF09","null","","","","learningBlock1","","","","This is a dep:","null","","","","",""
"","image-keyboard-response","41","518500","0.0-6.0-1.11","LF","g4m3kbu4rq","1536","864","en","ER04LF09","null","","","","","","","","learning/Slide12.JPG","null","","","","",""
"","html-keyboard-response","42","519504","0.0-6.0-2.11","LF","g4m3kbu4rq","1536","864","en","ER04LF09","null","","","","learningBlock1","","","","<div style=""font-size:60px;""> </div>","null","LF","learning/Slide12.JPG","This is a dep:","",""
"","html-keyboard-response","43","520507","0.0-6.0-0.12","LF","g4m3kbu4rq","1536","864","en","ER04LF09","null","","","","learningBlock1","","","","This is a bim:","null","","","","",""
"","image-keyboard-response","44","520838","0.0-6.0-1.12","LF","g4m3kbu4rq","1536","864","en","ER04LF09","null","","","","","","","","learning/Slide13.JPG","null","","","","",""
"","html-keyboard-response","45","521841","0.0-6.0-2.12","LF","g4m3kbu4rq","1536","864","en","ER04LF09","null","","","","learningBlock1","","","","<div style=""font-size:60px;""> </div>","null","LF","learning/Slide13.JPG","This is a bim:","",""
"","html-keyboard-response","46","522845","0.0-6.0-0.13","LF","g4m3kbu4rq","1536","864","en","ER04LF09","null","","","","learningBlock1","","","","This is a wug:","null","","","","",""
"","image-keyboard-response","47","523172","0.0-6.0-1.13","LF","g4m3kbu4rq","1536","864","en","ER04LF09","null","","","","","","","","learning/Slide14.JPG","null","","","","",""
"","html-keyboard-response","48","524176","0.0-6.0-2.13","LF","g4m3kbu4rq","1536","864","en","ER04LF09","null","","","","learningBlock1","","","","<div style=""font-size:60px;""> </div>","null","LF","learning/Slide14.JPG","This is a wug:","",""
"","html-keyboard-response","49","525179","0.0-6.0-0.14","LF","g4m3kbu4rq","1536","864","en","ER04LF09","null","","","","learningBlock1","","","","This is a tob:","null","","","","",""
"","image-keyboard-response","50","525507","0.0-6.0-1.14","LF","g4m3kbu4rq","1536","864","en","ER04LF09","null","","","","","","","","learning/Slide15.JPG","null","","","","",""
"","html-keyboard-response","51","526513","0.0-6.0-2.14","LF","g4m3kbu4rq","1536","864","en","ER04LF09","null","","","","learningBlock1","","","","<div style=""font-size:60px;""> </div>","null","LF","learning/Slide15.JPG","This is a tob:","",""
"","html-keyboard-response","52","527517","0.0-6.0-0.15","LF","g4m3kbu4rq","1536","864","en","ER04LF09","null","","","","learningBlock1","","","","This is a dep:","null","","","","",""
"","image-keyboard-response","53","527848","0.0-6.0-1.15","LF","g4m3kbu4rq","1536","864","en","ER04LF09","null","","","","","","","","learning/Slide16.JPG","null","","","","",""
"","html-keyboard-response","54","528852","0.0-6.0-2.15","LF","g4m3kbu4rq","1536","864","en","ER04LF09","null","","","","learningBlock1","","","","<div style=""font-size:60px;""> </div>","null","LF","learning/Slide16.JPG","This is a dep:","",""
"","html-keyboard-response","55","529855","0.0-6.0-0.16","LF","g4m3kbu4rq","1536","864","en","ER04LF09","null","","","","learningBlock1","","","","This is a bim:","null","","","","",""
"","image-keyboard-response","56","530188","0.0-6.0-1.16","LF","g4m3kbu4rq","1536","864","en","ER04LF09","null","","","","","","","","learning/Slide17.JPG","null","","","","",""
"","html-keyboard-response","57","531190","0.0-6.0-2.16","LF","g4m3kbu4rq","1536","864","en","ER04LF09","null","","","","learningBlock1","","","","<div style=""font-size:60px;""> </div>","null","LF","learning/Slide17.JPG","This is a bim:","",""
"","html-keyboard-response","58","532194","0.0-6.0-0.17","LF","g4m3kbu4rq","1536","864","en","ER04LF09","null","","","","learningBlock1","","","","This is a tob:","null","","","","",""
"","image-keyboard-response","59","532525","0.0-6.0-1.17","LF","g4m3kbu4rq","1536","864","en","ER04LF09","null","","","","","","","","learning/Slide18.JPG","null","","","","",""
"","html-keyboard-response","60","533527","0.0-6.0-2.17","LF","g4m3kbu4rq","1536","864","en","ER04LF09","null","","","","learningBlock1","","","","<div style=""font-size:60px;""> </div>","null","LF","learning/Slide18.JPG","This is a tob:","",""
"","html-keyboard-response","61","534532","0.0-6.0-0.18","LF","g4m3kbu4rq","1536","864","en","ER04LF09","null","","","","learningBlock1","","","","This is a wug:","null","","","","",""
"","image-keyboard-response","62","534862","0.0-6.0-1.18","LF","g4m3kbu4rq","1536","864","en","ER04LF09","null","","","","","","","","learning/Slide19.JPG","null","","","","",""
"","html-keyboard-response","63","535866","0.0-6.0-2.18","LF","g4m3kbu4rq","1536","864","en","ER04LF09","null","","","","learningBlock1","","","","<div style=""font-size:60px;""> </div>","null","LF","learning/Slide19.JPG","This is a wug:","",""
"","html-keyboard-response","64","536869","0.0-6.0-0.19","LF","g4m3kbu4rq","1536","864","en","ER04LF09","null","","","","learningBlock1","","","","This is a bim:","null","","","","",""
"","image-keyboard-response","65","537199","0.0-6.0-1.19","LF","g4m3kbu4rq","1536","864","en","ER04LF09","null","","","","","","","","learning/Slide20.JPG","null","","","","",""
"","html-keyboard-response","66","538206","0.0-6.0-2.19","LF","g4m3kbu4rq","1536","864","en","ER04LF09","null","","","","learningBlock1","","","","<div style=""font-size:60px;""> </div>","null","LF","learning/Slide20.JPG","This is a bim:","",""
"","html-keyboard-response","67","539208","0.0-6.0-0.20","LF","g4m3kbu4rq","1536","864","en","ER04LF09","null","","","","learningBlock1","","","","This is a dep:","null","","","","",""
"","image-keyboard-response","68","539541","0.0-6.0-1.20","LF","g4m3kbu4rq","1536","864","en","ER04LF09","null","","","","","","","","learning/Slide21.JPG","null","","","","",""
"","html-keyboard-response","69","540550","0.0-6.0-2.20","LF","g4m3kbu4rq","1536","864","en","ER04LF09","null","","","","learningBlock1","","","","<div style=""font-size:60px;""> </div>","null","LF","learning/Slide21.JPG","This is a dep:","",""
"","html-keyboard-response","70","541554","0.0-6.0-0.21","LF","g4m3kbu4rq","1536","864","en","ER04LF09","null","","","","learningBlock1","","","","This is a bim:","null","","","","",""
"","image-keyboard-response","71","541885","0.0-6.0-1.21","LF","g4m3kbu4rq","1536","864","en","ER04LF09","null","","","","","","","","learning/Slide22.JPG","null","","","","",""
"","html-keyboard-response","72","542887","0.0-6.0-2.21","LF","g4m3kbu4rq","1536","864","en","ER04LF09","null","","","","learningBlock1","","","","<div style=""font-size:60px;""> </div>","null","LF","learning/Slide22.JPG","This is a bim:","",""
"","html-keyboard-response","73","543890","0.0-6.0-0.22","LF","g4m3kbu4rq","1536","864","en","ER04LF09","null","","","","learningBlock1","","","","This is a tob:","null","","","","",""
"","image-keyboard-response","74","544220","0.0-6.0-1.22","LF","g4m3kbu4rq","1536","864","en","ER04LF09","null","","","","","","","","learning/Slide23.JPG","null","","","","",""
"","html-keyboard-response","75","545222","0.0-6.0-2.22","LF","g4m3kbu4rq","1536","864","en","ER04LF09","null","","","","learningBlock1","","","","<div style=""font-size:60px;""> </div>","null","LF","learning/Slide23.JPG","This is a tob:","",""
"","html-keyboard-response","76","546225","0.0-6.0-0.23","LF","g4m3kbu4rq","1536","864","en","ER04LF09","null","","","","learningBlock1","","","","This is a wug:","null","","","","",""
"","image-keyboard-response","77","546555","0.0-6.0-1.23","LF","g4m3kbu4rq","1536","864","en","ER04LF09","null","","","","","","","","learning/Slide24.JPG","null","","","","",""
"","html-keyboard-response","78","547559","0.0-6.0-2.23","LF","g4m3kbu4rq","1536","864","en","ER04LF09","null","","","","learningBlock1","","","","<div style=""font-size:60px;""> </div>","null","LF","learning/Slide24.JPG","This is a wug:","",""
"","html-keyboard-response","79","548563","0.0-6.0-0.24","LF","g4m3kbu4rq","1536","864","en","ER04LF09","null","","","","learningBlock1","","","","This is a dep:","null","","","","",""
"","image-keyboard-response","80","548892","0.0-6.0-1.24","LF","g4m3kbu4rq","1536","864","en","ER04LF09","null","","","","","","","","learning/Slide25.JPG","null","","","","",""
"","html-keyboard-response","81","549897","0.0-6.0-2.24","LF","g4m3kbu4rq","1536","864","en","ER04LF09","null","","","","learningBlock1","","","","<div style=""font-size:60px;""> </div>","null","LF","learning/Slide25.JPG","This is a dep:","",""
"","html-keyboard-response","82","550900","0.0-6.0-0.25","LF","g4m3kbu4rq","1536","864","en","ER04LF09","null","","","","learningBlock1","","","","This is a wug:","null","","","","",""
"","image-keyboard-response","83","551230","0.0-6.0-1.25","LF","g4m3kbu4rq","1536","864","en","ER04LF09","null","","","","","","","","learning/Slide26.JPG","null","","","","",""
"","html-keyboard-response","84","552234","0.0-6.0-2.25","LF","g4m3kbu4rq","1536","864","en","ER04LF09","null","","","","learningBlock1","","","","<div style=""font-size:60px;""> </div>","null","LF","learning/Slide26.JPG","This is a wug:","",""
"","html-keyboard-response","85","553237","0.0-6.0-0.26","LF","g4m3kbu4rq","1536","864","en","ER04LF09","null","","","","learningBlock1","","","","This is a bim:","null","","","","",""
"","image-keyboard-response","86","553568","0.0-6.0-1.26","LF","g4m3kbu4rq","1536","864","en","ER04LF09","null","","","","","","","","learning/Slide27.JPG","null","","","","",""
"","html-keyboard-response","87","554572","0.0-6.0-2.26","LF","g4m3kbu4rq","1536","864","en","ER04LF09","null","","","","learningBlock1","","","","<div style=""font-size:60px;""> </div>","null","LF","learning/Slide27.JPG","This is a bim:","",""
"","html-keyboard-response","88","555577","0.0-6.0-0.27","LF","g4m3kbu4rq","1536","864","en","ER04LF09","null","","","","learningBlock1","","","","This is a dep:","null","","","","",""
"","image-keyboard-response","89","555909","0.0-6.0-1.27","LF","g4m3kbu4rq","1536","864","en","ER04LF09","null","","","","","","","","learning/Slide28.JPG","null","","","","",""
"","html-keyboard-response","90","556914","0.0-6.0-2.27","LF","g4m3kbu4rq","1536","864","en","ER04LF09","null","","","","learningBlock1","","","","<div style=""font-size:60px;""> </div>","null","LF","learning/Slide28.JPG","This is a dep:","",""
"","html-keyboard-response","91","557916","0.0-6.0-0.28","LF","g4m3kbu4rq","1536","864","en","ER04LF09","null","","","","learningBlock1","","","","This is a tob:","null","","","","",""
"","image-keyboard-response","92","558244","0.0-6.0-1.28","LF","g4m3kbu4rq","1536","864","en","ER04LF09","null","","","","","","","","learning/Slide29.JPG","null","","","","",""
"","html-keyboard-response","93","559250","0.0-6.0-2.28","LF","g4m3kbu4rq","1536","864","en","ER04LF09","null","","","","learningBlock1","","","","<div style=""font-size:60px;""> </div>","null","LF","learning/Slide29.JPG","This is a tob:","",""
"","html-keyboard-response","94","560254","0.0-6.0-0.29","LF","g4m3kbu4rq","1536","864","en","ER04LF09","null","","","","learningBlock1","","","","This is a dep:","null","","","","",""
"","image-keyboard-response","95","560585","0.0-6.0-1.29","LF","g4m3kbu4rq","1536","864","en","ER04LF09","null","","","","","","","","learning/Slide30.JPG","null","","","","",""
"","html-keyboard-response","96","561589","0.0-6.0-2.29","LF","g4m3kbu4rq","1536","864","en","ER04LF09","null","","","","learningBlock1","","","","<div style=""font-size:60px;""> </div>","null","LF","learning/Slide30.JPG","This is a dep:","",""
"","html-keyboard-response","97","562593","0.0-6.0-0.30","LF","g4m3kbu4rq","1536","864","en","ER04LF09","null","","","","learningBlock1","","","","This is a wug:","null","","","","",""
"","image-keyboard-response","98","562924","0.0-6.0-1.30","LF","g4m3kbu4rq","1536","864","en","ER04LF09","null","","","","","","","","learning/Slide31.JPG","null","","","","",""
"","html-keyboard-response","99","563931","0.0-6.0-2.30","LF","g4m3kbu4rq","1536","864","en","ER04LF09","null","","","","learningBlock1","","","","<div style=""font-size:60px;""> </div>","null","LF","learning/Slide31.JPG","This is a wug:","",""
"","html-keyboard-response","100","564934","0.0-6.0-0.31","LF","g4m3kbu4rq","1536","864","en","ER04LF09","null","","","","learningBlock1","","","","This is a tob:","null","","","","",""
"","image-keyboard-response","101","565262","0.0-6.0-1.31","LF","g4m3kbu4rq","1536","864","en","ER04LF09","null","","","","","","","","learning/Slide32.JPG","null","","","","",""
"","html-keyboard-response","102","566266","0.0-6.0-2.31","LF","g4m3kbu4rq","1536","864","en","ER04LF09","null","","","","learningBlock1","","","","<div style=""font-size:60px;""> </div>","null","LF","learning/Slide32.JPG","This is a tob:","",""
"","html-keyboard-response","103","567275","0.0-6.0-0.32","LF","g4m3kbu4rq","1536","864","en","ER04LF09","null","","","","learningBlock1","","","","This is a bim:","null","","","","",""
"","image-keyboard-response","104","567606","0.0-6.0-1.32","LF","g4m3kbu4rq","1536","864","en","ER04LF09","null","","","","","","","","learning/Slide33.JPG","null","","","","",""
"","html-keyboard-response","105","568610","0.0-6.0-2.32","LF","g4m3kbu4rq","1536","864","en","ER04LF09","null","","","","learningBlock1","","","","<div style=""font-size:60px;""> </div>","null","LF","learning/Slide33.JPG","This is a bim:","",""
"","html-keyboard-response","106","569614","0.0-6.0-0.33","LF","g4m3kbu4rq","1536","864","en","ER04LF09","null","","","","learningBlock1","","","","This is a tob:","null","","","","",""
"","image-keyboard-response","107","569943","0.0-6.0-1.33","LF","g4m3kbu4rq","1536","864","en","ER04LF09","null","","","","","","","","learning/Slide34.JPG","null","","","","",""
"","html-keyboard-response","108","570947","0.0-6.0-2.33","LF","g4m3kbu4rq","1536","864","en","ER04LF09","null","","","","learningBlock1","","","","<div style=""font-size:60px;""> </div>","null","LF","learning/Slide34.JPG","This is a tob:","",""
"","html-keyboard-response","109","571953","0.0-6.0-0.34","LF","g4m3kbu4rq","1536","864","en","ER04LF09","null","","","","learningBlock1","","","","This is a bim:","null","","","","",""
"","image-keyboard-response","110","572284","0.0-6.0-1.34","LF","g4m3kbu4rq","1536","864","en","ER04LF09","null","","","","","","","","learning/Slide35.JPG","null","","","","",""
"","html-keyboard-response","111","573286","0.0-6.0-2.34","LF","g4m3kbu4rq","1536","864","en","ER04LF09","null","","","","learningBlock1","","","","<div style=""font-size:60px;""> </div>","null","LF","learning/Slide35.JPG","This is a bim:","",""
"","html-keyboard-response","112","574289","0.0-6.0-0.35","LF","g4m3kbu4rq","1536","864","en","ER04LF09","null","","","","learningBlock1","","","","This is a dep:","null","","","","",""
"","image-keyboard-response","113","574619","0.0-6.0-1.35","LF","g4m3kbu4rq","1536","864","en","ER04LF09","null","","","","","","","","learning/Slide36.JPG","null","","","","",""
"","html-keyboard-response","114","575622","0.0-6.0-2.35","LF","g4m3kbu4rq","1536","864","en","ER04LF09","null","","","","learningBlock1","","","","<div style=""font-size:60px;""> </div>","null","LF","learning/Slide36.JPG","This is a dep:","",""
"","html-keyboard-response","115","576625","0.0-6.0-0.36","LF","g4m3kbu4rq","1536","864","en","ER04LF09","null","","","","learningBlock1","","","","This is a tob:","null","","","","",""
"","image-keyboard-response","116","576959","0.0-6.0-1.36","LF","g4m3kbu4rq","1536","864","en","ER04LF09","null","","","","","","","","learning/Slide37.JPG","null","","","","",""
"","html-keyboard-response","117","577962","0.0-6.0-2.36","LF","g4m3kbu4rq","1536","864","en","ER04LF09","null","","","","learningBlock1","","","","<div style=""font-size:60px;""> </div>","null","LF","learning/Slide37.JPG","This is a tob:","",""
"","html-keyboard-response","118","578966","0.0-6.0-0.37","LF","g4m3kbu4rq","1536","864","en","ER04LF09","null","","","","learningBlock1","","","","This is a wug:","null","","","","",""
"","image-keyboard-response","119","579296","0.0-6.0-1.37","LF","g4m3kbu4rq","1536","864","en","ER04LF09","null","","","","","","","","learning/Slide38.JPG","null","","","","",""
"","html-keyboard-response","120","580298","0.0-6.0-2.37","LF","g4m3kbu4rq","1536","864","en","ER04LF09","null","","","","learningBlock1","","","","<div style=""font-size:60px;""> </div>","null","LF","learning/Slide38.JPG","This is a wug:","",""
"","html-keyboard-response","121","581301","0.0-6.0-0.38","LF","g4m3kbu4rq","1536","864","en","ER04LF09","null","","","","learningBlock1","","","","This is a bim:","null","","","","",""
"","image-keyboard-response","122","581631","0.0-6.0-1.38","LF","g4m3kbu4rq","1536","864","en","ER04LF09","null","","","","","","","","learning/Slide39.JPG","null","","","","",""
"","html-keyboard-response","123","582636","0.0-6.0-2.38","LF","g4m3kbu4rq","1536","864","en","ER04LF09","null","","","","learningBlock1","","","","<div style=""font-size:60px;""> </div>","null","LF","learning/Slide39.JPG","This is a bim:","",""
"","html-keyboard-response","124","583640","0.0-6.0-0.39","LF","g4m3kbu4rq","1536","864","en","ER04LF09","null","","","","learningBlock1","","","","This is a tob:","null","","","","",""
"","image-keyboard-response","125","583972","0.0-6.0-1.39","LF","g4m3kbu4rq","1536","864","en","ER04LF09","null","","","","","","","","learning/Slide40.JPG","null","","","","",""
"","html-keyboard-response","126","584976","0.0-6.0-2.39","LF","g4m3kbu4rq","1536","864","en","ER04LF09","null","","","","learningBlock1","","","","<div style=""font-size:60px;""> </div>","null","LF","learning/Slide40.JPG","This is a tob:","",""
"","html-keyboard-response","127","585981","0.0-6.0-0.40","LF","g4m3kbu4rq","1536","864","en","ER04LF09","null","","","","learningBlock1","","","","This is a bim:","null","","","","",""
"","image-keyboard-response","128","586311","0.0-6.0-1.40","LF","g4m3kbu4rq","1536","864","en","ER04LF09","null","","","","","","","","learning/Slide41.JPG","null","","","","",""
"","html-keyboard-response","129","587315","0.0-6.0-2.40","LF","g4m3kbu4rq","1536","864","en","ER04LF09","null","","","","learningBlock1","","","","<div style=""font-size:60px;""> </div>","null","LF","learning/Slide41.JPG","This is a bim:","",""
"","html-keyboard-response","130","588319","0.0-6.0-0.41","LF","g4m3kbu4rq","1536","864","en","ER04LF09","null","","","","learningBlock1","","","","This is a dep:","null","","","","",""
"","image-keyboard-response","131","588651","0.0-6.0-1.41","LF","g4m3kbu4rq","1536","864","en","ER04LF09","null","","","","","","","","learning/Slide42.JPG","null","","","","",""
"","html-keyboard-response","132","589656","0.0-6.0-2.41","LF","g4m3kbu4rq","1536","864","en","ER04LF09","null","","","","learningBlock1","","","","<div style=""font-size:60px;""> </div>","null","LF","learning/Slide42.JPG","This is a dep:","",""
"","html-keyboard-response","133","590658","0.0-6.0-0.42","LF","g4m3kbu4rq","1536","864","en","ER04LF09","null","","","","learningBlock1","","","","This is a wug:","null","","","","",""
"","image-keyboard-response","134","590986","0.0-6.0-1.42","LF","g4m3kbu4rq","1536","864","en","ER04LF09","null","","","","","","","","learning/Slide43.JPG","null","","","","",""
"","html-keyboard-response","135","591989","0.0-6.0-2.42","LF","g4m3kbu4rq","1536","864","en","ER04LF09","null","","","","learningBlock1","","","","<div style=""font-size:60px;""> </div>","null","LF","learning/Slide43.JPG","This is a wug:","",""
"","html-keyboard-response","136","592994","0.0-6.0-0.43","LF","g4m3kbu4rq","1536","864","en","ER04LF09","null","","","","learningBlock1","","","","This is a bim:","null","","","","",""
"","image-keyboard-response","137","593325","0.0-6.0-1.43","LF","g4m3kbu4rq","1536","864","en","ER04LF09","null","","","","","","","","learning/Slide44.JPG","null","","","","",""
"","html-keyboard-response","138","594329","0.0-6.0-2.43","LF","g4m3kbu4rq","1536","864","en","ER04LF09","null","","","","learningBlock1","","","","<div style=""font-size:60px;""> </div>","null","LF","learning/Slide44.JPG","This is a bim:","",""
"","html-keyboard-response","139","595332","0.0-6.0-0.44","LF","g4m3kbu4rq","1536","864","en","ER04LF09","null","","","","learningBlock1","","","","This is a wug:","null","","","","",""
"","image-keyboard-response","140","595664","0.0-6.0-1.44","LF","g4m3kbu4rq","1536","864","en","ER04LF09","null","","","","","","","","learning/Slide45.JPG","null","","","","",""
"","html-keyboard-response","141","596666","0.0-6.0-2.44","LF","g4m3kbu4rq","1536","864","en","ER04LF09","null","","","","learningBlock1","","","","<div style=""font-size:60px;""> </div>","null","LF","learning/Slide45.JPG","This is a wug:","",""
"","html-keyboard-response","142","597671","0.0-6.0-0.45","LF","g4m3kbu4rq","1536","864","en","ER04LF09","null","","","","learningBlock1","","","","This is a dep:","null","","","","",""
"","image-keyboard-response","143","598002","0.0-6.0-1.45","LF","g4m3kbu4rq","1536","864","en","ER04LF09","null","","","","","","","","learning/Slide46.JPG","null","","","","",""
"","html-keyboard-response","144","599006","0.0-6.0-2.45","LF","g4m3kbu4rq","1536","864","en","ER04LF09","null","","","","learningBlock1","","","","<div style=""font-size:60px;""> </div>","null","LF","learning/Slide46.JPG","This is a dep:","",""
"","html-keyboard-response","145","600010","0.0-6.0-0.46","LF","g4m3kbu4rq","1536","864","en","ER04LF09","null","","","","learningBlock1","","","","This is a tob:","null","","","","",""
"","image-keyboard-response","146","600342","0.0-6.0-1.46","LF","g4m3kbu4rq","1536","864","en","ER04LF09","null","","","","","","","","learning/Slide47.JPG","null","","","","",""
"","html-keyboard-response","147","601348","0.0-6.0-2.46","LF","g4m3kbu4rq","1536","864","en","ER04LF09","null","","","","learningBlock1","","","","<div style=""font-size:60px;""> </div>","null","LF","learning/Slide47.JPG","This is a tob:","",""
"","html-keyboard-response","148","602351","0.0-6.0-0.47","LF","g4m3kbu4rq","1536","864","en","ER04LF09","null","","","","learningBlock1","","","","This is a bim:","null","","","","",""
"","image-keyboard-response","149","602680","0.0-6.0-1.47","LF","g4m3kbu4rq","1536","864","en","ER04LF09","null","","","","","","","","learning/Slide48.JPG","null","","","","",""
"","html-keyboard-response","150","603685","0.0-6.0-2.47","LF","g4m3kbu4rq","1536","864","en","ER04LF09","null","","","","learningBlock1","","","","<div style=""font-size:60px;""> </div>","null","LF","learning/Slide48.JPG","This is a bim:","",""
"","html-keyboard-response","151","604688","0.0-6.0-0.48","LF","g4m3kbu4rq","1536","864","en","ER04LF09","null","","","","learningBlock1","","","","This is a dep:","null","","","","",""
"","image-keyboard-response","152","605016","0.0-6.0-1.48","LF","g4m3kbu4rq","1536","864","en","ER04LF09","null","","","","","","","","learning/Slide49.JPG","null","","","","",""
"","html-keyboard-response","153","606020","0.0-6.0-2.48","LF","g4m3kbu4rq","1536","864","en","ER04LF09","null","","","","learningBlock1","","","","<div style=""font-size:60px;""> </div>","null","LF","learning/Slide49.JPG","This is a dep:","",""
"","html-keyboard-response","154","607024","0.0-6.0-0.49","LF","g4m3kbu4rq","1536","864","en","ER04LF09","null","","","","learningBlock1","","","","This is a tob:","null","","","","",""
"","image-keyboard-response","155","607353","0.0-6.0-1.49","LF","g4m3kbu4rq","1536","864","en","ER04LF09","null","","","","","","","","learning/Slide50.JPG","null","","","","",""
"","html-keyboard-response","156","608358","0.0-6.0-2.49","LF","g4m3kbu4rq","1536","864","en","ER04LF09","null","","","","learningBlock1","","","","<div style=""font-size:60px;""> </div>","null","LF","learning/Slide50.JPG","This is a tob:","",""
"","html-keyboard-response","157","609362","0.0-6.0-0.50","LF","g4m3kbu4rq","1536","864","en","ER04LF09","null","","","","learningBlock1","","","","This is a bim:","null","","","","",""
"","image-keyboard-response","158","609695","0.0-6.0-1.50","LF","g4m3kbu4rq","1536","864","en","ER04LF09","null","","","","","","","","learning/Slide51.JPG","null","","","","",""
"","html-keyboard-response","159","610696","0.0-6.0-2.50","LF","g4m3kbu4rq","1536","864","en","ER04LF09","null","","","","learningBlock1","","","","<div style=""font-size:60px;""> </div>","null","LF","learning/Slide51.JPG","This is a bim:","",""
"","html-keyboard-response","160","611703","0.0-6.0-0.51","LF","g4m3kbu4rq","1536","864","en","ER04LF09","null","","","","learningBlock1","","","","This is a wug:","null","","","","",""
"","image-keyboard-response","161","612034","0.0-6.0-1.51","LF","g4m3kbu4rq","1536","864","en","ER04LF09","null","","","","","","","","learning/Slide52.JPG","null","","","","",""
"","html-keyboard-response","162","613037","0.0-6.0-2.51","LF","g4m3kbu4rq","1536","864","en","ER04LF09","null","","","","learningBlock1","","","","<div style=""font-size:60px;""> </div>","null","LF","learning/Slide52.JPG","This is a wug:","",""
"","html-keyboard-response","163","614041","0.0-6.0-0.52","LF","g4m3kbu4rq","1536","864","en","ER04LF09","null","","","","learningBlock1","","","","This is a tob:","null","","","","",""
"","image-keyboard-response","164","614368","0.0-6.0-1.52","LF","g4m3kbu4rq","1536","864","en","ER04LF09","null","","","","","","","","learning/Slide53.JPG","null","","","","",""
"","html-keyboard-response","165","615373","0.0-6.0-2.52","LF","g4m3kbu4rq","1536","864","en","ER04LF09","null","","","","learningBlock1","","","","<div style=""font-size:60px;""> </div>","null","LF","learning/Slide53.JPG","This is a tob:","",""
"","html-keyboard-response","166","616379","0.0-6.0-0.53","LF","g4m3kbu4rq","1536","864","en","ER04LF09","null","","","","learningBlock1","","","","This is a dep:","null","","","","",""
"","image-keyboard-response","167","616711","0.0-6.0-1.53","LF","g4m3kbu4rq","1536","864","en","ER04LF09","null","","","","","","","","learning/Slide54.JPG","null","","","","",""
"","html-keyboard-response","168","617716","0.0-6.0-2.53","LF","g4m3kbu4rq","1536","864","en","ER04LF09","null","","","","learningBlock1","","","","<div style=""font-size:60px;""> </div>","null","LF","learning/Slide54.JPG","This is a dep:","",""
"","html-keyboard-response","169","618719","0.0-6.0-0.54","LF","g4m3kbu4rq","1536","864","en","ER04LF09","null","","","","learningBlock1","","","","This is a bim:","null","","","","",""
"","image-keyboard-response","170","619047","0.0-6.0-1.54","LF","g4m3kbu4rq","1536","864","en","ER04LF09","null","","","","","","","","learning/Slide55.JPG","null","","","","",""
"","html-keyboard-response","171","620050","0.0-6.0-2.54","LF","g4m3kbu4rq","1536","864","en","ER04LF09","null","","","","learningBlock1","","","","<div style=""font-size:60px;""> </div>","null","LF","learning/Slide55.JPG","This is a bim:","",""
"","html-keyboard-response","172","621055","0.0-6.0-0.55","LF","g4m3kbu4rq","1536","864","en","ER04LF09","null","","","","learningBlock1","","","","This is a tob:","null","","","","",""
"","image-keyboard-response","173","621384","0.0-6.0-1.55","LF","g4m3kbu4rq","1536","864","en","ER04LF09","null","","","","","","","","learning/Slide56.JPG","null","","","","",""
"","html-keyboard-response","174","622388","0.0-6.0-2.55","LF","g4m3kbu4rq","1536","864","en","ER04LF09","null","","","","learningBlock1","","","","<div style=""font-size:60px;""> </div>","null","LF","learning/Slide56.JPG","This is a tob:","",""
"","html-keyboard-response","175","623391","0.0-6.0-0.56","LF","g4m3kbu4rq","1536","864","en","ER04LF09","null","","","","learningBlock1","","","","This is a dep:","null","","","","",""
"","image-keyboard-response","176","623721","0.0-6.0-1.56","LF","g4m3kbu4rq","1536","864","en","ER04LF09","null","","","","","","","","learning/Slide57.JPG","null","","","","",""
"","html-keyboard-response","177","624725","0.0-6.0-2.56","LF","g4m3kbu4rq","1536","864","en","ER04LF09","null","","","","learningBlock1","","","","<div style=""font-size:60px;""> </div>","null","LF","learning/Slide57.JPG","This is a dep:","",""
"","html-keyboard-response","178","625728","0.0-6.0-0.57","LF","g4m3kbu4rq","1536","864","en","ER04LF09","null","","","","learningBlock1","","","","This is a wug:","null","","","","",""
"","image-keyboard-response","179","626059","0.0-6.0-1.57","LF","g4m3kbu4rq","1536","864","en","ER04LF09","null","","","","","","","","learning/Slide58.JPG","null","","","","",""
"","html-keyboard-response","180","627064","0.0-6.0-2.57","LF","g4m3kbu4rq","1536","864","en","ER04LF09","null","","","","learningBlock1","","","","<div style=""font-size:60px;""> </div>","null","LF","learning/Slide58.JPG","This is a wug:","",""
"","html-keyboard-response","181","628066","0.0-6.0-0.58","LF","g4m3kbu4rq","1536","864","en","ER04LF09","null","","","","learningBlock1","","","","This is a dep:","null","","","","",""
"","image-keyboard-response","182","628396","0.0-6.0-1.58","LF","g4m3kbu4rq","1536","864","en","ER04LF09","null","","","","","","","","learning/Slide59.JPG","null","","","","",""
"","html-keyboard-response","183","629401","0.0-6.0-2.58","LF","g4m3kbu4rq","1536","864","en","ER04LF09","null","","","","learningBlock1","","","","<div style=""font-size:60px;""> </div>","null","LF","learning/Slide59.JPG","This is a dep:","",""
"","html-keyboard-response","184","630407","0.0-6.0-0.59","LF","g4m3kbu4rq","1536","864","en","ER04LF09","null","","","","learningBlock1","","","","This is a wug:","null","","","","",""
"","image-keyboard-response","185","630735","0.0-6.0-1.59","LF","g4m3kbu4rq","1536","864","en","ER04LF09","null","","","","","","","","learning/Slide60.JPG","null","","","","",""
"","html-keyboard-response","186","631738","0.0-6.0-2.59","LF","g4m3kbu4rq","1536","864","en","ER04LF09","null","","","","learningBlock1","","","","<div style=""font-size:60px;""> </div>","null","LF","learning/Slide60.JPG","This is a wug:","",""
"","html-keyboard-response","187","632743","0.0-6.0-0.60","LF","g4m3kbu4rq","1536","864","en","ER04LF09","null","","","","learningBlock1","","","","This is a bim:","null","","","","",""
"","image-keyboard-response","188","633073","0.0-6.0-1.60","LF","g4m3kbu4rq","1536","864","en","ER04LF09","null","","","","","","","","learning/Slide61.JPG","null","","","","",""
"","html-keyboard-response","189","634079","0.0-6.0-2.60","LF","g4m3kbu4rq","1536","864","en","ER04LF09","null","","","","learningBlock1","","","","<div style=""font-size:60px;""> </div>","null","LF","learning/Slide61.JPG","This is a bim:","",""
"","html-keyboard-response","190","635083","0.0-6.0-0.61","LF","g4m3kbu4rq","1536","864","en","ER04LF09","null","","","","learningBlock1","","","","This is a dep:","null","","","","",""
"","image-keyboard-response","191","635413","0.0-6.0-1.61","LF","g4m3kbu4rq","1536","864","en","ER04LF09","null","","","","","","","","learning/Slide62.JPG","null","","","","",""
"","html-keyboard-response","192","636416","0.0-6.0-2.61","LF","g4m3kbu4rq","1536","864","en","ER04LF09","null","","","","learningBlock1","","","","<div style=""font-size:60px;""> </div>","null","LF","learning/Slide62.JPG","This is a dep:","",""
"","html-keyboard-response","193","637420","0.0-6.0-0.62","LF","g4m3kbu4rq","1536","864","en","ER04LF09","null","","","","learningBlock1","","","","This is a bim:","null","","","","",""
"","image-keyboard-response","194","637752","0.0-6.0-1.62","LF","g4m3kbu4rq","1536","864","en","ER04LF09","null","","","","","","","","learning/Slide63.JPG","null","","","","",""
"","html-keyboard-response","195","638757","0.0-6.0-2.62","LF","g4m3kbu4rq","1536","864","en","ER04LF09","null","","","","learningBlock1","","","","<div style=""font-size:60px;""> </div>","null","LF","learning/Slide63.JPG","This is a bim:","",""
"","html-keyboard-response","196","639763","0.0-6.0-0.63","LF","g4m3kbu4rq","1536","864","en","ER04LF09","null","","","","learningBlock1","","","","This is a tob:","null","","","","",""
"","image-keyboard-response","197","640094","0.0-6.0-1.63","LF","g4m3kbu4rq","1536","864","en","ER04LF09","null","","","","","","","","learning/Slide64.JPG","null","","","","",""
"","html-keyboard-response","198","641097","0.0-6.0-2.63","LF","g4m3kbu4rq","1536","864","en","ER04LF09","null","","","","learningBlock1","","","","<div style=""font-size:60px;""> </div>","null","LF","learning/Slide64.JPG","This is a tob:","",""
"","html-keyboard-response","199","642101","0.0-6.0-0.64","LF","g4m3kbu4rq","1536","864","en","ER04LF09","null","","","","learningBlock1","","","","This is a wug:","null","","","","",""
"","image-keyboard-response","200","642432","0.0-6.0-1.64","LF","g4m3kbu4rq","1536","864","en","ER04LF09","null","","","","","","","","learning/Slide65.JPG","null","","","","",""
"","html-keyboard-response","201","643438","0.0-6.0-2.64","LF","g4m3kbu4rq","1536","864","en","ER04LF09","null","","","","learningBlock1","","","","<div style=""font-size:60px;""> </div>","null","LF","learning/Slide65.JPG","This is a wug:","",""
"","html-keyboard-response","202","644441","0.0-6.0-0.65","LF","g4m3kbu4rq","1536","864","en","ER04LF09","null","","","","learningBlock1","","","","This is a dep:","null","","","","",""
"","image-keyboard-response","203","644770","0.0-6.0-1.65","LF","g4m3kbu4rq","1536","864","en","ER04LF09","null","","","","","","","","learning/Slide66.JPG","null","","","","",""
"","html-keyboard-response","204","645776","0.0-6.0-2.65","LF","g4m3kbu4rq","1536","864","en","ER04LF09","null","","","","learningBlock1","","","","<div style=""font-size:60px;""> </div>","null","LF","learning/Slide66.JPG","This is a dep:","",""
"","html-keyboard-response","205","646780","0.0-6.0-0.66","LF","g4m3kbu4rq","1536","864","en","ER04LF09","null","","","","learningBlock1","","","","This is a tob:","null","","","","",""
"","image-keyboard-response","206","647109","0.0-6.0-1.66","LF","g4m3kbu4rq","1536","864","en","ER04LF09","null","","","","","","","","learning/Slide67.JPG","null","","","","",""
"","html-keyboard-response","207","648113","0.0-6.0-2.66","LF","g4m3kbu4rq","1536","864","en","ER04LF09","null","","","","learningBlock1","","","","<div style=""font-size:60px;""> </div>","null","LF","learning/Slide67.JPG","This is a tob:","",""
"","html-keyboard-response","208","649117","0.0-6.0-0.67","LF","g4m3kbu4rq","1536","864","en","ER04LF09","null","","","","learningBlock1","","","","This is a wug:","null","","","","",""
"","image-keyboard-response","209","649448","0.0-6.0-1.67","LF","g4m3kbu4rq","1536","864","en","ER04LF09","null","","","","","","","","learning/Slide68.JPG","null","","","","",""
"","html-keyboard-response","210","650451","0.0-6.0-2.67","LF","g4m3kbu4rq","1536","864","en","ER04LF09","null","","","","learningBlock1","","","","<div style=""font-size:60px;""> </div>","null","LF","learning/Slide68.JPG","This is a wug:","",""
"","html-keyboard-response","211","651454","0.0-6.0-0.68","LF","g4m3kbu4rq","1536","864","en","ER04LF09","null","","","","learningBlock1","","","","This is a tob:","null","","","","",""
"","image-keyboard-response","212","651784","0.0-6.0-1.68","LF","g4m3kbu4rq","1536","864","en","ER04LF09","null","","","","","","","","learning/Slide69.JPG","null","","","","",""
"","html-keyboard-response","213","652789","0.0-6.0-2.68","LF","g4m3kbu4rq","1536","864","en","ER04LF09","null","","","","learningBlock1","","","","<div style=""font-size:60px;""> </div>","null","LF","learning/Slide69.JPG","This is a tob:","",""
"","html-keyboard-response","214","653792","0.0-6.0-0.69","LF","g4m3kbu4rq","1536","864","en","ER04LF09","null","","","","learningBlock1","","","","This is a dep:","null","","","","",""
"","image-keyboard-response","215","654122","0.0-6.0-1.69","LF","g4m3kbu4rq","1536","864","en","ER04LF09","null","","","","","","","","learning/Slide70.JPG","null","","","","",""
"","html-keyboard-response","216","655129","0.0-6.0-2.69","LF","g4m3kbu4rq","1536","864","en","ER04LF09","null","","","","learningBlock1","","","","<div style=""font-size:60px;""> </div>","null","LF","learning/Slide70.JPG","This is a dep:","",""
"","html-keyboard-response","217","656132","0.0-6.0-0.70","LF","g4m3kbu4rq","1536","864","en","ER04LF09","null","","","","learningBlock1","","","","This is a wug:","null","","","","",""
"","image-keyboard-response","218","656462","0.0-6.0-1.70","LF","g4m3kbu4rq","1536","864","en","ER04LF09","null","","","","","","","","learning/Slide71.JPG","null","","","","",""
"","html-keyboard-response","219","657464","0.0-6.0-2.70","LF","g4m3kbu4rq","1536","864","en","ER04LF09","null","","","","learningBlock1","","","","<div style=""font-size:60px;""> </div>","null","LF","learning/Slide71.JPG","This is a wug:","",""
"","html-keyboard-response","220","658467","0.0-6.0-0.71","LF","g4m3kbu4rq","1536","864","en","ER04LF09","null","","","","learningBlock1","","","","This is a bim:","null","","","","",""
"","image-keyboard-response","221","658798","0.0-6.0-1.71","LF","g4m3kbu4rq","1536","864","en","ER04LF09","null","","","","","","","","learning/Slide72.JPG","null","","","","",""
"","html-keyboard-response","222","659803","0.0-6.0-2.71","LF","g4m3kbu4rq","1536","864","en","ER04LF09","null","","","","learningBlock1","","","","<div style=""font-size:60px;""> </div>","null","LF","learning/Slide72.JPG","This is a bim:","",""
"","html-keyboard-response","223","660806","0.0-6.0-0.72","LF","g4m3kbu4rq","1536","864","en","ER04LF09","null","","","","learningBlock1","","","","This is a wug:","null","","","","",""
"","image-keyboard-response","224","661137","0.0-6.0-1.72","LF","g4m3kbu4rq","1536","864","en","ER04LF09","null","","","","","","","","learning/Slide73.JPG","null","","","","",""
"","html-keyboard-response","225","662141","0.0-6.0-2.72","LF","g4m3kbu4rq","1536","864","en","ER04LF09","null","","","","learningBlock1","","","","<div style=""font-size:60px;""> </div>","null","LF","learning/Slide73.JPG","This is a wug:","",""
"","html-keyboard-response","226","663144","0.0-6.0-0.73","LF","g4m3kbu4rq","1536","864","en","ER04LF09","null","","","","learningBlock1","","","","This is a dep:","null","","","","",""
"","image-keyboard-response","227","663473","0.0-6.0-1.73","LF","g4m3kbu4rq","1536","864","en","ER04LF09","null","","","","","","","","learning/Slide74.JPG","null","","","","",""
"","html-keyboard-response","228","664477","0.0-6.0-2.73","LF","g4m3kbu4rq","1536","864","en","ER04LF09","null","","","","learningBlock1","","","","<div style=""font-size:60px;""> </div>","null","LF","learning/Slide74.JPG","This is a dep:","",""
"","html-keyboard-response","229","665479","0.0-6.0-0.74","LF","g4m3kbu4rq","1536","864","en","ER04LF09","null","","","","learningBlock1","","","","This is a tob:","null","","","","",""
"","image-keyboard-response","230","665808","0.0-6.0-1.74","LF","g4m3kbu4rq","1536","864","en","ER04LF09","null","","","","","","","","learning/Slide75.JPG","null","","","","",""
"","html-keyboard-response","231","666811","0.0-6.0-2.74","LF","g4m3kbu4rq","1536","864","en","ER04LF09","null","","","","learningBlock1","","","","<div style=""font-size:60px;""> </div>","null","LF","learning/Slide75.JPG","This is a tob:","",""
"","html-keyboard-response","232","667814","0.0-6.0-0.75","LF","g4m3kbu4rq","1536","864","en","ER04LF09","null","","","","learningBlock1","","","","This is a bim:","null","","","","",""
"","image-keyboard-response","233","668144","0.0-6.0-1.75","LF","g4m3kbu4rq","1536","864","en","ER04LF09","null","","","","","","","","learning/Slide76.JPG","null","","","","",""
"","html-keyboard-response","234","669148","0.0-6.0-2.75","LF","g4m3kbu4rq","1536","864","en","ER04LF09","null","","","","learningBlock1","","","","<div style=""font-size:60px;""> </div>","null","LF","learning/Slide76.JPG","This is a bim:","",""
"","html-keyboard-response","235","670151","0.0-6.0-0.76","LF","g4m3kbu4rq","1536","864","en","ER04LF09","null","","","","learningBlock1","","","","This is a tob:","null","","","","",""
"","image-keyboard-response","236","670483","0.0-6.0-1.76","LF","g4m3kbu4rq","1536","864","en","ER04LF09","null","","","","","","","","learning/Slide77.JPG","null","","","","",""
"","html-keyboard-response","237","671486","0.0-6.0-2.76","LF","g4m3kbu4rq","1536","864","en","ER04LF09","null","","","","learningBlock1","","","","<div style=""font-size:60px;""> </div>","null","LF","learning/Slide77.JPG","This is a tob:","",""
"","html-keyboard-response","238","672490","0.0-6.0-0.77","LF","g4m3kbu4rq","1536","864","en","ER04LF09","null","","","","learningBlock1","","","","This is a wug:","null","","","","",""
"","image-keyboard-response","239","672821","0.0-6.0-1.77","LF","g4m3kbu4rq","1536","864","en","ER04LF09","null","","","","","","","","learning/Slide78.JPG","null","","","","",""
"","html-keyboard-response","240","673825","0.0-6.0-2.77","LF","g4m3kbu4rq","1536","864","en","ER04LF09","null","","","","learningBlock1","","","","<div style=""font-size:60px;""> </div>","null","LF","learning/Slide78.JPG","This is a wug:","",""
"","html-keyboard-response","241","674828","0.0-6.0-0.78","LF","g4m3kbu4rq","1536","864","en","ER04LF09","null","","","","learningBlock1","","","","This is a bim:","null","","","","",""
"","image-keyboard-response","242","675160","0.0-6.0-1.78","LF","g4m3kbu4rq","1536","864","en","ER04LF09","null","","","","","","","","learning/Slide79.JPG","null","","","","",""
"","html-keyboard-response","243","676162","0.0-6.0-2.78","LF","g4m3kbu4rq","1536","864","en","ER04LF09","null","","","","learningBlock1","","","","<div style=""font-size:60px;""> </div>","null","LF","learning/Slide79.JPG","This is a bim:","",""
"","html-keyboard-response","244","677165","0.0-6.0-0.79","LF","g4m3kbu4rq","1536","864","en","ER04LF09","null","","","","learningBlock1","","","","This is a tob:","null","","","","",""
"","image-keyboard-response","245","677497","0.0-6.0-1.79","LF","g4m3kbu4rq","1536","864","en","ER04LF09","null","","","","","","","","learning/Slide80.JPG","null","","","","",""
"","html-keyboard-response","246","678501","0.0-6.0-2.79","LF","g4m3kbu4rq","1536","864","en","ER04LF09","null","","","","learningBlock1","","","","<div style=""font-size:60px;""> </div>","null","LF","learning/Slide80.JPG","This is a tob:","",""
"","instructions","247","687854","0.0-7.0","LF","g4m3kbu4rq","1536","864","en","ER04LF09","NA","","","[{""page_index"":0,""viewing_time"":9350.210000000545}]","instructions","","","","","","","","","",""
"","html-keyboard-response","248","688859","0.0-8.0-0.0","LF","g4m3kbu4rq","1536","864","en","ER04LF09","null","","","","learningBlock2","","","","This is a wug:","null","","","","",""
"","image-keyboard-response","249","689188","0.0-8.0-1.0","LF","g4m3kbu4rq","1536","864","en","ER04LF09","null","","","","","","","","learning/Slide81.JPG","null","","","","",""
"","html-keyboard-response","250","690192","0.0-8.0-2.0","LF","g4m3kbu4rq","1536","864","en","ER04LF09","null","","","","learningBlock2","","","","<div style=""font-size:60px;""> </div>","null","LF","learning/Slide81.JPG","This is a wug:","",""
"","html-keyboard-response","251","691197","0.0-8.0-0.1","LF","g4m3kbu4rq","1536","864","en","ER04LF09","null","","","","learningBlock2","","","","This is a bim:","null","","","","",""
"","image-keyboard-response","252","691529","0.0-8.0-1.1","LF","g4m3kbu4rq","1536","864","en","ER04LF09","null","","","","","","","","learning/Slide82.JPG","null","","","","",""
"","html-keyboard-response","253","692534","0.0-8.0-2.1","LF","g4m3kbu4rq","1536","864","en","ER04LF09","null","","","","learningBlock2","","","","<div style=""font-size:60px;""> </div>","null","LF","learning/Slide82.JPG","This is a bim:","",""
"","html-keyboard-response","254","693538","0.0-8.0-0.2","LF","g4m3kbu4rq","1536","864","en","ER04LF09","null","","","","learningBlock2","","","","This is a wug:","null","","","","",""
"","image-keyboard-response","255","693868","0.0-8.0-1.2","LF","g4m3kbu4rq","1536","864","en","ER04LF09","null","","","","","","","","learning/Slide83.JPG","null","","","","",""
"","html-keyboard-response","256","694871","0.0-8.0-2.2","LF","g4m3kbu4rq","1536","864","en","ER04LF09","null","","","","learningBlock2","","","","<div style=""font-size:60px;""> </div>","null","LF","learning/Slide83.JPG","This is a wug:","",""
"","html-keyboard-response","257","695875","0.0-8.0-0.3","LF","g4m3kbu4rq","1536","864","en","ER04LF09","null","","","","learningBlock2","","","","This is a dep:","null","","","","",""
"","image-keyboard-response","258","696205","0.0-8.0-1.3","LF","g4m3kbu4rq","1536","864","en","ER04LF09","null","","","","","","","","learning/Slide84.JPG","null","","","","",""
"","html-keyboard-response","259","697208","0.0-8.0-2.3","LF","g4m3kbu4rq","1536","864","en","ER04LF09","null","","","","learningBlock2","","","","<div style=""font-size:60px;""> </div>","null","LF","learning/Slide84.JPG","This is a dep:","",""
"","html-keyboard-response","260","698211","0.0-8.0-0.4","LF","g4m3kbu4rq","1536","864","en","ER04LF09","null","","","","learningBlock2","","","","This is a bim:","null","","","","",""
"","image-keyboard-response","261","698541","0.0-8.0-1.4","LF","g4m3kbu4rq","1536","864","en","ER04LF09","null","","","","","","","","learning/Slide85.JPG","null","","","","",""
"","html-keyboard-response","262","699543","0.0-8.0-2.4","LF","g4m3kbu4rq","1536","864","en","ER04LF09","null","","","","learningBlock2","","","","<div style=""font-size:60px;""> </div>","null","LF","learning/Slide85.JPG","This is a bim:","",""
"","html-keyboard-response","263","700545","0.0-8.0-0.5","LF","g4m3kbu4rq","1536","864","en","ER04LF09","null","","","","learningBlock2","","","","This is a tob:","null","","","","",""
"","image-keyboard-response","264","700877","0.0-8.0-1.5","LF","g4m3kbu4rq","1536","864","en","ER04LF09","null","","","","","","","","learning/Slide86.JPG","null","","","","",""
"","html-keyboard-response","265","701881","0.0-8.0-2.5","LF","g4m3kbu4rq","1536","864","en","ER04LF09","null","","","","learningBlock2","","","","<div style=""font-size:60px;""> </div>","null","LF","learning/Slide86.JPG","This is a tob:","",""
"","html-keyboard-response","266","702885","0.0-8.0-0.6","LF","g4m3kbu4rq","1536","864","en","ER04LF09","null","","","","learningBlock2","","","","This is a wug:","null","","","","",""
"","image-keyboard-response","267","703214","0.0-8.0-1.6","LF","g4m3kbu4rq","1536","864","en","ER04LF09","null","","","","","","","","learning/Slide87.JPG","null","","","","",""
"","html-keyboard-response","268","704216","0.0-8.0-2.6","LF","g4m3kbu4rq","1536","864","en","ER04LF09","null","","","","learningBlock2","","","","<div style=""font-size:60px;""> </div>","null","LF","learning/Slide87.JPG","This is a wug:","",""
"","html-keyboard-response","269","705219","0.0-8.0-0.7","LF","g4m3kbu4rq","1536","864","en","ER04LF09","null","","","","learningBlock2","","","","This is a tob:","null","","","","",""
"","image-keyboard-response","270","705547","0.0-8.0-1.7","LF","g4m3kbu4rq","1536","864","en","ER04LF09","null","","","","","","","","learning/Slide88.JPG","null","","","","",""
"","html-keyboard-response","271","706549","0.0-8.0-2.7","LF","g4m3kbu4rq","1536","864","en","ER04LF09","null","","","","learningBlock2","","","","<div style=""font-size:60px;""> </div>","null","LF","learning/Slide88.JPG","This is a tob:","",""
"","html-keyboard-response","272","707554","0.0-8.0-0.8","LF","g4m3kbu4rq","1536","864","en","ER04LF09","null","","","","learningBlock2","","","","This is a bim:","null","","","","",""
"","image-keyboard-response","273","707883","0.0-8.0-1.8","LF","g4m3kbu4rq","1536","864","en","ER04LF09","null","","","","","","","","learning/Slide89.JPG","null","","","","",""
"","html-keyboard-response","274","708888","0.0-8.0-2.8","LF","g4m3kbu4rq","1536","864","en","ER04LF09","null","","","","learningBlock2","","","","<div style=""font-size:60px;""> </div>","null","LF","learning/Slide89.JPG","This is a bim:","",""
"","html-keyboard-response","275","709893","0.0-8.0-0.9","LF","g4m3kbu4rq","1536","864","en","ER04LF09","null","","","","learningBlock2","","","","This is a dep:","null","","","","",""
"","image-keyboard-response","276","710226","0.0-8.0-1.9","LF","g4m3kbu4rq","1536","864","en","ER04LF09","null","","","","","","","","learning/Slide90.JPG","null","","","","",""
"","html-keyboard-response","277","711229","0.0-8.0-2.9","LF","g4m3kbu4rq","1536","864","en","ER04LF09","null","","","","learningBlock2","","","","<div style=""font-size:60px;""> </div>","null","LF","learning/Slide90.JPG","This is a dep:","",""
"","html-keyboard-response","278","712232","0.0-8.0-0.10","LF","g4m3kbu4rq","1536","864","en","ER04LF09","null","","","","learningBlock2","","","","This is a wug:","null","","","","",""
"","image-keyboard-response","279","712563","0.0-8.0-1.10","LF","g4m3kbu4rq","1536","864","en","ER04LF09","null","","","","","","","","learning/Slide91.JPG","null","","","","",""
"","html-keyboard-response","280","713570","0.0-8.0-2.10","LF","g4m3kbu4rq","1536","864","en","ER04LF09","null","","","","learningBlock2","","","","<div style=""font-size:60px;""> </div>","null","LF","learning/Slide91.JPG","This is a wug:","",""
"","html-keyboard-response","281","714572","0.0-8.0-0.11","LF","g4m3kbu4rq","1536","864","en","ER04LF09","null","","","","learningBlock2","","","","This is a tob:","null","","","","",""
"","image-keyboard-response","282","714902","0.0-8.0-1.11","LF","g4m3kbu4rq","1536","864","en","ER04LF09","null","","","","","","","","learning/Slide92.JPG","null","","","","",""
"","html-keyboard-response","283","715908","0.0-8.0-2.11","LF","g4m3kbu4rq","1536","864","en","ER04LF09","null","","","","learningBlock2","","","","<div style=""font-size:60px;""> </div>","null","LF","learning/Slide92.JPG","This is a tob:","",""
"","html-keyboard-response","284","716910","0.0-8.0-0.12","LF","g4m3kbu4rq","1536","864","en","ER04LF09","null","","","","learningBlock2","","","","This is a bim:","null","","","","",""
"","image-keyboard-response","285","717240","0.0-8.0-1.12","LF","g4m3kbu4rq","1536","864","en","ER04LF09","null","","","","","","","","learning/Slide93.JPG","null","","","","",""
"","html-keyboard-response","286","718242","0.0-8.0-2.12","LF","g4m3kbu4rq","1536","864","en","ER04LF09","null","","","","learningBlock2","","","","<div style=""font-size:60px;""> </div>","null","LF","learning/Slide93.JPG","This is a bim:","",""
"","html-keyboard-response","287","719246","0.0-8.0-0.13","LF","g4m3kbu4rq","1536","864","en","ER04LF09","null","","","","learningBlock2","","","","This is a tob:","null","","","","",""
"","image-keyboard-response","288","719576","0.0-8.0-1.13","LF","g4m3kbu4rq","1536","864","en","ER04LF09","null","","","","","","","","learning/Slide94.JPG","null","","","","",""
"","html-keyboard-response","289","720579","0.0-8.0-2.13","LF","g4m3kbu4rq","1536","864","en","ER04LF09","null","","","","learningBlock2","","","","<div style=""font-size:60px;""> </div>","null","LF","learning/Slide94.JPG","This is a tob:","",""
"","html-keyboard-response","290","721591","0.0-8.0-0.14","LF","g4m3kbu4rq","1536","864","en","ER04LF09","null","","","","learningBlock2","","","","This is a wug:","null","","","","",""
"","image-keyboard-response","291","721920","0.0-8.0-1.14","LF","g4m3kbu4rq","1536","864","en","ER04LF09","null","","","","","","","","learning/Slide95.JPG","null","","","","",""
"","html-keyboard-response","292","722922","0.0-8.0-2.14","LF","g4m3kbu4rq","1536","864","en","ER04LF09","null","","","","learningBlock2","","","","<div style=""font-size:60px;""> </div>","null","LF","learning/Slide95.JPG","This is a wug:","",""
"","html-keyboard-response","293","723928","0.0-8.0-0.15","LF","g4m3kbu4rq","1536","864","en","ER04LF09","null","","","","learningBlock2","","","","This is a tob:","null","","","","",""
"","image-keyboard-response","294","724258","0.0-8.0-1.15","LF","g4m3kbu4rq","1536","864","en","ER04LF09","null","","","","","","","","learning/Slide96.JPG","null","","","","",""
"","html-keyboard-response","295","725263","0.0-8.0-2.15","LF","g4m3kbu4rq","1536","864","en","ER04LF09","null","","","","learningBlock2","","","","<div style=""font-size:60px;""> </div>","null","LF","learning/Slide96.JPG","This is a tob:","",""
"","html-keyboard-response","296","726266","0.0-8.0-0.16","LF","g4m3kbu4rq","1536","864","en","ER04LF09","null","","","","learningBlock2","","","","This is a dep:","null","","","","",""
"","image-keyboard-response","297","726598","0.0-8.0-1.16","LF","g4m3kbu4rq","1536","864","en","ER04LF09","null","","","","","","","","learning/Slide97.JPG","null","","","","",""
"","html-keyboard-response","298","727605","0.0-8.0-2.16","LF","g4m3kbu4rq","1536","864","en","ER04LF09","null","","","","learningBlock2","","","","<div style=""font-size:60px;""> </div>","null","LF","learning/Slide97.JPG","This is a dep:","",""
"","html-keyboard-response","299","728608","0.0-8.0-0.17","LF","g4m3kbu4rq","1536","864","en","ER04LF09","null","","","","learningBlock2","","","","This is a bim:","null","","","","",""
"","image-keyboard-response","300","728939","0.0-8.0-1.17","LF","g4m3kbu4rq","1536","864","en","ER04LF09","null","","","","","","","","learning/Slide98.JPG","null","","","","",""
"","html-keyboard-response","301","729942","0.0-8.0-2.17","LF","g4m3kbu4rq","1536","864","en","ER04LF09","null","","","","learningBlock2","","","","<div style=""font-size:60px;""> </div>","null","LF","learning/Slide98.JPG","This is a bim:","",""
"","html-keyboard-response","302","730945","0.0-8.0-0.18","LF","g4m3kbu4rq","1536","864","en","ER04LF09","null","","","","learningBlock2","","","","This is a dep:","null","","","","",""
"","image-keyboard-response","303","731275","0.0-8.0-1.18","LF","g4m3kbu4rq","1536","864","en","ER04LF09","null","","","","","","","","learning/Slide99.JPG","null","","","","",""
"","html-keyboard-response","304","732279","0.0-8.0-2.18","LF","g4m3kbu4rq","1536","864","en","ER04LF09","null","","","","learningBlock2","","","","<div style=""font-size:60px;""> </div>","null","LF","learning/Slide99.JPG","This is a dep:","",""
"","html-keyboard-response","305","733283","0.0-8.0-0.19","LF","g4m3kbu4rq","1536","864","en","ER04LF09","null","","","","learningBlock2","","","","This is a bim:","null","","","","",""
"","image-keyboard-response","306","733612","0.0-8.0-1.19","LF","g4m3kbu4rq","1536","864","en","ER04LF09","null","","","","","","","","learning/Slide100.JPG","null","","","","",""
"","html-keyboard-response","307","734617","0.0-8.0-2.19","LF","g4m3kbu4rq","1536","864","en","ER04LF09","null","","","","learningBlock2","","","","<div style=""font-size:60px;""> </div>","null","LF","learning/Slide100.JPG","This is a bim:","",""
"","html-keyboard-response","308","735621","0.0-8.0-0.20","LF","g4m3kbu4rq","1536","864","en","ER04LF09","null","","","","learningBlock2","","","","This is a tob:","null","","","","",""
"","image-keyboard-response","309","735952","0.0-8.0-1.20","LF","g4m3kbu4rq","1536","864","en","ER04LF09","null","","","","","","","","learning/Slide101.JPG","null","","","","",""
"","html-keyboard-response","310","736955","0.0-8.0-2.20","LF","g4m3kbu4rq","1536","864","en","ER04LF09","null","","","","learningBlock2","","","","<div style=""font-size:60px;""> </div>","null","LF","learning/Slide101.JPG","This is a tob:","",""
"","html-keyboard-response","311","737959","0.0-8.0-0.21","LF","g4m3kbu4rq","1536","864","en","ER04LF09","null","","","","learningBlock2","","","","This is a bim:","null","","","","",""
"","image-keyboard-response","312","738292","0.0-8.0-1.21","LF","g4m3kbu4rq","1536","864","en","ER04LF09","null","","","","","","","","learning/Slide102.JPG","null","","","","",""
"","html-keyboard-response","313","739295","0.0-8.0-2.21","LF","g4m3kbu4rq","1536","864","en","ER04LF09","null","","","","learningBlock2","","","","<div style=""font-size:60px;""> </div>","null","LF","learning/Slide102.JPG","This is a bim:","",""
"","html-keyboard-response","314","740299","0.0-8.0-0.22","LF","g4m3kbu4rq","1536","864","en","ER04LF09","null","","","","learningBlock2","","","","This is a dep:","null","","","","",""
"","image-keyboard-response","315","740630","0.0-8.0-1.22","LF","g4m3kbu4rq","1536","864","en","ER04LF09","null","","","","","","","","learning/Slide103.JPG","null","","","","",""
"","html-keyboard-response","316","741635","0.0-8.0-2.22","LF","g4m3kbu4rq","1536","864","en","ER04LF09","null","","","","learningBlock2","","","","<div style=""font-size:60px;""> </div>","null","LF","learning/Slide103.JPG","This is a dep:","",""
"","html-keyboard-response","317","742638","0.0-8.0-0.23","LF","g4m3kbu4rq","1536","864","en","ER04LF09","null","","","","learningBlock2","","","","This is a tob:","null","","","","",""
"","image-keyboard-response","318","742967","0.0-8.0-1.23","LF","g4m3kbu4rq","1536","864","en","ER04LF09","null","","","","","","","","learning/Slide104.JPG","null","","","","",""
"","html-keyboard-response","319","743972","0.0-8.0-2.23","LF","g4m3kbu4rq","1536","864","en","ER04LF09","null","","","","learningBlock2","","","","<div style=""font-size:60px;""> </div>","null","LF","learning/Slide104.JPG","This is a tob:","",""
"","html-keyboard-response","320","744976","0.0-8.0-0.24","LF","g4m3kbu4rq","1536","864","en","ER04LF09","null","","","","learningBlock2","","","","This is a dep:","null","","","","",""
"","image-keyboard-response","321","745305","0.0-8.0-1.24","LF","g4m3kbu4rq","1536","864","en","ER04LF09","null","","","","","","","","learning/Slide105.JPG","null","","","","",""
"","html-keyboard-response","322","746308","0.0-8.0-2.24","LF","g4m3kbu4rq","1536","864","en","ER04LF09","null","","","","learningBlock2","","","","<div style=""font-size:60px;""> </div>","null","LF","learning/Slide105.JPG","This is a dep:","",""
"","html-keyboard-response","323","747310","0.0-8.0-0.25","LF","g4m3kbu4rq","1536","864","en","ER04LF09","null","","","","learningBlock2","","","","This is a wug:","null","","","","",""
"","image-keyboard-response","324","747642","0.0-8.0-1.25","LF","g4m3kbu4rq","1536","864","en","ER04LF09","null","","","","","","","","learning/Slide106.JPG","null","","","","",""
"","html-keyboard-response","325","748645","0.0-8.0-2.25","LF","g4m3kbu4rq","1536","864","en","ER04LF09","null","","","","learningBlock2","","","","<div style=""font-size:60px;""> </div>","null","LF","learning/Slide106.JPG","This is a wug:","",""
"","html-keyboard-response","326","749648","0.0-8.0-0.26","LF","g4m3kbu4rq","1536","864","en","ER04LF09","null","","","","learningBlock2","","","","This is a bim:","null","","","","",""
"","image-keyboard-response","327","749976","0.0-8.0-1.26","LF","g4m3kbu4rq","1536","864","en","ER04LF09","null","","","","","","","","learning/Slide107.JPG","null","","","","",""
"","html-keyboard-response","328","750980","0.0-8.0-2.26","LF","g4m3kbu4rq","1536","864","en","ER04LF09","null","","","","learningBlock2","","","","<div style=""font-size:60px;""> </div>","null","LF","learning/Slide107.JPG","This is a bim:","",""
"","html-keyboard-response","329","751984","0.0-8.0-0.27","LF","g4m3kbu4rq","1536","864","en","ER04LF09","null","","","","learningBlock2","","","","This is a dep:","null","","","","",""
"","image-keyboard-response","330","752315","0.0-8.0-1.27","LF","g4m3kbu4rq","1536","864","en","ER04LF09","null","","","","","","","","learning/Slide108.JPG","null","","","","",""
"","html-keyboard-response","331","753320","0.0-8.0-2.27","LF","g4m3kbu4rq","1536","864","en","ER04LF09","null","","","","learningBlock2","","","","<div style=""font-size:60px;""> </div>","null","LF","learning/Slide108.JPG","This is a dep:","",""
"","html-keyboard-response","332","754322","0.0-8.0-0.28","LF","g4m3kbu4rq","1536","864","en","ER04LF09","null","","","","learningBlock2","","","","This is a wug:","null","","","","",""
"","image-keyboard-response","333","754653","0.0-8.0-1.28","LF","g4m3kbu4rq","1536","864","en","ER04LF09","null","","","","","","","","learning/Slide109.JPG","null","","","","",""
"","html-keyboard-response","334","755655","0.0-8.0-2.28","LF","g4m3kbu4rq","1536","864","en","ER04LF09","null","","","","learningBlock2","","","","<div style=""font-size:60px;""> </div>","null","LF","learning/Slide109.JPG","This is a wug:","",""
"","html-keyboard-response","335","756657","0.0-8.0-0.29","LF","g4m3kbu4rq","1536","864","en","ER04LF09","null","","","","learningBlock2","","","","This is a bim:","null","","","","",""
"","image-keyboard-response","336","756988","0.0-8.0-1.29","LF","g4m3kbu4rq","1536","864","en","ER04LF09","null","","","","","","","","learning/Slide110.JPG","null","","","","",""
"","html-keyboard-response","337","757993","0.0-8.0-2.29","LF","g4m3kbu4rq","1536","864","en","ER04LF09","null","","","","learningBlock2","","","","<div style=""font-size:60px;""> </div>","null","LF","learning/Slide110.JPG","This is a bim:","",""
"","html-keyboard-response","338","758996","0.0-8.0-0.30","LF","g4m3kbu4rq","1536","864","en","ER04LF09","null","","","","learningBlock2","","","","This is a tob:","null","","","","",""
"","image-keyboard-response","339","759328","0.0-8.0-1.30","LF","g4m3kbu4rq","1536","864","en","ER04LF09","null","","","","","","","","learning/Slide111.JPG","null","","","","",""
"","html-keyboard-response","340","760332","0.0-8.0-2.30","LF","g4m3kbu4rq","1536","864","en","ER04LF09","null","","","","learningBlock2","","","","<div style=""font-size:60px;""> </div>","null","LF","learning/Slide111.JPG","This is a tob:","",""
"","html-keyboard-response","341","761337","0.0-8.0-0.31","LF","g4m3kbu4rq","1536","864","en","ER04LF09","null","","","","learningBlock2","","","","This is a wug:","null","","","","",""
"","image-keyboard-response","342","761667","0.0-8.0-1.31","LF","g4m3kbu4rq","1536","864","en","ER04LF09","null","","","","","","","","learning/Slide112.JPG","null","","","","",""
"","html-keyboard-response","343","762673","0.0-8.0-2.31","LF","g4m3kbu4rq","1536","864","en","ER04LF09","null","","","","learningBlock2","","","","<div style=""font-size:60px;""> </div>","null","LF","learning/Slide112.JPG","This is a wug:","",""
"","html-keyboard-response","344","763677","0.0-8.0-0.32","LF","g4m3kbu4rq","1536","864","en","ER04LF09","null","","","","learningBlock2","","","","This is a tob:","null","","","","",""
"","image-keyboard-response","345","764007","0.0-8.0-1.32","LF","g4m3kbu4rq","1536","864","en","ER04LF09","null","","","","","","","","learning/Slide113.JPG","null","","","","",""
"","html-keyboard-response","346","765010","0.0-8.0-2.32","LF","g4m3kbu4rq","1536","864","en","ER04LF09","null","","","","learningBlock2","","","","<div style=""font-size:60px;""> </div>","null","LF","learning/Slide113.JPG","This is a tob:","",""
"","html-keyboard-response","347","766014","0.0-8.0-0.33","LF","g4m3kbu4rq","1536","864","en","ER04LF09","null","","","","learningBlock2","","","","This is a wug:","null","","","","",""
"","image-keyboard-response","348","766348","0.0-8.0-1.33","LF","g4m3kbu4rq","1536","864","en","ER04LF09","null","","","","","","","","learning/Slide114.JPG","null","","","","",""
"","html-keyboard-response","349","767353","0.0-8.0-2.33","LF","g4m3kbu4rq","1536","864","en","ER04LF09","null","","","","learningBlock2","","","","<div style=""font-size:60px;""> </div>","null","LF","learning/Slide114.JPG","This is a wug:","",""
"","html-keyboard-response","350","768356","0.0-8.0-0.34","LF","g4m3kbu4rq","1536","864","en","ER04LF09","null","","","","learningBlock2","","","","This is a bim:","null","","","","",""
"","image-keyboard-response","351","768687","0.0-8.0-1.34","LF","g4m3kbu4rq","1536","864","en","ER04LF09","null","","","","","","","","learning/Slide115.JPG","null","","","","",""
"","html-keyboard-response","352","769690","0.0-8.0-2.34","LF","g4m3kbu4rq","1536","864","en","ER04LF09","null","","","","learningBlock2","","","","<div style=""font-size:60px;""> </div>","null","LF","learning/Slide115.JPG","This is a bim:","",""
"","html-keyboard-response","353","770695","0.0-8.0-0.35","LF","g4m3kbu4rq","1536","864","en","ER04LF09","null","","","","learningBlock2","","","","This is a dep:","null","","","","",""
"","image-keyboard-response","354","771024","0.0-8.0-1.35","LF","g4m3kbu4rq","1536","864","en","ER04LF09","null","","","","","","","","learning/Slide116.JPG","null","","","","",""
"","html-keyboard-response","355","772029","0.0-8.0-2.35","LF","g4m3kbu4rq","1536","864","en","ER04LF09","null","","","","learningBlock2","","","","<div style=""font-size:60px;""> </div>","null","LF","learning/Slide116.JPG","This is a dep:","",""
"","html-keyboard-response","356","773032","0.0-8.0-0.36","LF","g4m3kbu4rq","1536","864","en","ER04LF09","null","","","","learningBlock2","","","","This is a tob:","null","","","","",""
"","image-keyboard-response","357","773361","0.0-8.0-1.36","LF","g4m3kbu4rq","1536","864","en","ER04LF09","null","","","","","","","","learning/Slide117.JPG","null","","","","",""
"","html-keyboard-response","358","774366","0.0-8.0-2.36","LF","g4m3kbu4rq","1536","864","en","ER04LF09","null","","","","learningBlock2","","","","<div style=""font-size:60px;""> </div>","null","LF","learning/Slide117.JPG","This is a tob:","",""
"","html-keyboard-response","359","775369","0.0-8.0-0.37","LF","g4m3kbu4rq","1536","864","en","ER04LF09","null","","","","learningBlock2","","","","This is a dep:","null","","","","",""
"","image-keyboard-response","360","775699","0.0-8.0-1.37","LF","g4m3kbu4rq","1536","864","en","ER04LF09","null","","","","","","","","learning/Slide118.JPG","null","","","","",""
"","html-keyboard-response","361","776703","0.0-8.0-2.37","LF","g4m3kbu4rq","1536","864","en","ER04LF09","null","","","","learningBlock2","","","","<div style=""font-size:60px;""> </div>","null","LF","learning/Slide118.JPG","This is a dep:","",""
"","html-keyboard-response","362","777706","0.0-8.0-0.38","LF","g4m3kbu4rq","1536","864","en","ER04LF09","null","","","","learningBlock2","","","","This is a wug:","null","","","","",""
"","image-keyboard-response","363","778039","0.0-8.0-1.38","LF","g4m3kbu4rq","1536","864","en","ER04LF09","null","","","","","","","","learning/Slide119.JPG","null","","","","",""
"","html-keyboard-response","364","779043","0.0-8.0-2.38","LF","g4m3kbu4rq","1536","864","en","ER04LF09","null","","","","learningBlock2","","","","<div style=""font-size:60px;""> </div>","null","LF","learning/Slide119.JPG","This is a wug:","",""
"","html-keyboard-response","365","780046","0.0-8.0-0.39","LF","g4m3kbu4rq","1536","864","en","ER04LF09","null","","","","learningBlock2","","","","This is a dep:","null","","","","",""
"","image-keyboard-response","366","780379","0.0-8.0-1.39","LF","g4m3kbu4rq","1536","864","en","ER04LF09","null","","","","","","","","learning/Slide120.JPG","null","","","","",""
"","html-keyboard-response","367","781384","0.0-8.0-2.39","LF","g4m3kbu4rq","1536","864","en","ER04LF09","null","","","","learningBlock2","","","","<div style=""font-size:60px;""> </div>","null","LF","learning/Slide120.JPG","This is a dep:","",""
"","html-keyboard-response","368","782386","0.0-8.0-0.40","LF","g4m3kbu4rq","1536","864","en","ER04LF09","null","","","","learningBlock2","","","","This is a bim:","null","","","","",""
"","image-keyboard-response","369","782716","0.0-8.0-1.40","LF","g4m3kbu4rq","1536","864","en","ER04LF09","null","","","","","","","","learning/Slide121.JPG","null","","","","",""
"","html-keyboard-response","370","783720","0.0-8.0-2.40","LF","g4m3kbu4rq","1536","864","en","ER04LF09","null","","","","learningBlock2","","","","<div style=""font-size:60px;""> </div>","null","LF","learning/Slide121.JPG","This is a bim:","",""
"","html-keyboard-response","371","784723","0.0-8.0-0.41","LF","g4m3kbu4rq","1536","864","en","ER04LF09","null","","","","learningBlock2","","","","This is a wug:","null","","","","",""
"","image-keyboard-response","372","785054","0.0-8.0-1.41","LF","g4m3kbu4rq","1536","864","en","ER04LF09","null","","","","","","","","learning/Slide122.JPG","null","","","","",""
"","html-keyboard-response","373","786058","0.0-8.0-2.41","LF","g4m3kbu4rq","1536","864","en","ER04LF09","null","","","","learningBlock2","","","","<div style=""font-size:60px;""> </div>","null","LF","learning/Slide122.JPG","This is a wug:","",""
"","html-keyboard-response","374","787062","0.0-8.0-0.42","LF","g4m3kbu4rq","1536","864","en","ER04LF09","null","","","","learningBlock2","","","","This is a bim:","null","","","","",""
"","image-keyboard-response","375","787392","0.0-8.0-1.42","LF","g4m3kbu4rq","1536","864","en","ER04LF09","null","","","","","","","","learning/Slide123.JPG","null","","","","",""
"","html-keyboard-response","376","788394","0.0-8.0-2.42","LF","g4m3kbu4rq","1536","864","en","ER04LF09","null","","","","learningBlock2","","","","<div style=""font-size:60px;""> </div>","null","LF","learning/Slide123.JPG","This is a bim:","",""
"","html-keyboard-response","377","789397","0.0-8.0-0.43","LF","g4m3kbu4rq","1536","864","en","ER04LF09","null","","","","learningBlock2","","","","This is a tob:","null","","","","",""
"","image-keyboard-response","378","789728","0.0-8.0-1.43","LF","g4m3kbu4rq","1536","864","en","ER04LF09","null","","","","","","","","learning/Slide124.JPG","null","","","","",""
"","html-keyboard-response","379","790731","0.0-8.0-2.43","LF","g4m3kbu4rq","1536","864","en","ER04LF09","null","","","","learningBlock2","","","","<div style=""font-size:60px;""> </div>","null","LF","learning/Slide124.JPG","This is a tob:","",""
"","html-keyboard-response","380","791733","0.0-8.0-0.44","LF","g4m3kbu4rq","1536","864","en","ER04LF09","null","","","","learningBlock2","","","","This is a bim:","null","","","","",""
"","image-keyboard-response","381","792064","0.0-8.0-1.44","LF","g4m3kbu4rq","1536","864","en","ER04LF09","null","","","","","","","","learning/Slide125.JPG","null","","","","",""
"","html-keyboard-response","382","793067","0.0-8.0-2.44","LF","g4m3kbu4rq","1536","864","en","ER04LF09","null","","","","learningBlock2","","","","<div style=""font-size:60px;""> </div>","null","LF","learning/Slide125.JPG","This is a bim:","",""
"","html-keyboard-response","383","794070","0.0-8.0-0.45","LF","g4m3kbu4rq","1536","864","en","ER04LF09","null","","","","learningBlock2","","","","This is a tob:","null","","","","",""
"","image-keyboard-response","384","794399","0.0-8.0-1.45","LF","g4m3kbu4rq","1536","864","en","ER04LF09","null","","","","","","","","learning/Slide126.JPG","null","","","","",""
"","html-keyboard-response","385","795402","0.0-8.0-2.45","LF","g4m3kbu4rq","1536","864","en","ER04LF09","null","","","","learningBlock2","","","","<div style=""font-size:60px;""> </div>","null","LF","learning/Slide126.JPG","This is a tob:","",""
"","html-keyboard-response","386","796405","0.0-8.0-0.46","LF","g4m3kbu4rq","1536","864","en","ER04LF09","null","","","","learningBlock2","","","","This is a dep:","null","","","","",""
"","image-keyboard-response","387","796737","0.0-8.0-1.46","LF","g4m3kbu4rq","1536","864","en","ER04LF09","null","","","","","","","","learning/Slide127.JPG","null","","","","",""
"","html-keyboard-response","388","797745","0.0-8.0-2.46","LF","g4m3kbu4rq","1536","864","en","ER04LF09","null","","","","learningBlock2","","","","<div style=""font-size:60px;""> </div>","null","LF","learning/Slide127.JPG","This is a dep:","",""
"","html-keyboard-response","389","798747","0.0-8.0-0.47","LF","g4m3kbu4rq","1536","864","en","ER04LF09","null","","","","learningBlock2","","","","This is a wug:","null","","","","",""
"","image-keyboard-response","390","799077","0.0-8.0-1.47","LF","g4m3kbu4rq","1536","864","en","ER04LF09","null","","","","","","","","learning/Slide128.JPG","null","","","","",""
"","html-keyboard-response","391","800081","0.0-8.0-2.47","LF","g4m3kbu4rq","1536","864","en","ER04LF09","null","","","","learningBlock2","","","","<div style=""font-size:60px;""> </div>","null","LF","learning/Slide128.JPG","This is a wug:","",""
"","html-keyboard-response","392","801085","0.0-8.0-0.48","LF","g4m3kbu4rq","1536","864","en","ER04LF09","null","","","","learningBlock2","","","","This is a tob:","null","","","","",""
"","image-keyboard-response","393","801417","0.0-8.0-1.48","LF","g4m3kbu4rq","1536","864","en","ER04LF09","null","","","","","","","","learning/Slide129.JPG","null","","","","",""
"","html-keyboard-response","394","802421","0.0-8.0-2.48","LF","g4m3kbu4rq","1536","864","en","ER04LF09","null","","","","learningBlock2","","","","<div style=""font-size:60px;""> </div>","null","LF","learning/Slide129.JPG","This is a tob:","",""
"","html-keyboard-response","395","803425","0.0-8.0-0.49","LF","g4m3kbu4rq","1536","864","en","ER04LF09","null","","","","learningBlock2","","","","This is a wug:","null","","","","",""
"","image-keyboard-response","396","803753","0.0-8.0-1.49","LF","g4m3kbu4rq","1536","864","en","ER04LF09","null","","","","","","","","learning/Slide130.JPG","null","","","","",""
"","html-keyboard-response","397","804757","0.0-8.0-2.49","LF","g4m3kbu4rq","1536","864","en","ER04LF09","null","","","","learningBlock2","","","","<div style=""font-size:60px;""> </div>","null","LF","learning/Slide130.JPG","This is a wug:","",""
"","html-keyboard-response","398","805760","0.0-8.0-0.50","LF","g4m3kbu4rq","1536","864","en","ER04LF09","null","","","","learningBlock2","","","","This is a bim:","null","","","","",""
"","image-keyboard-response","399","806091","0.0-8.0-1.50","LF","g4m3kbu4rq","1536","864","en","ER04LF09","null","","","","","","","","learning/Slide131.JPG","null","","","","",""
"","html-keyboard-response","400","807094","0.0-8.0-2.50","LF","g4m3kbu4rq","1536","864","en","ER04LF09","null","","","","learningBlock2","","","","<div style=""font-size:60px;""> </div>","null","LF","learning/Slide131.JPG","This is a bim:","",""
"","html-keyboard-response","401","808097","0.0-8.0-0.51","LF","g4m3kbu4rq","1536","864","en","ER04LF09","null","","","","learningBlock2","","","","This is a dep:","null","","","","",""
"","image-keyboard-response","402","808426","0.0-8.0-1.51","LF","g4m3kbu4rq","1536","864","en","ER04LF09","null","","","","","","","","learning/Slide132.JPG","null","","","","",""
"","html-keyboard-response","403","809429","0.0-8.0-2.51","LF","g4m3kbu4rq","1536","864","en","ER04LF09","null","","","","learningBlock2","","","","<div style=""font-size:60px;""> </div>","null","LF","learning/Slide132.JPG","This is a dep:","",""
"","html-keyboard-response","404","810437","0.0-8.0-0.52","LF","g4m3kbu4rq","1536","864","en","ER04LF09","null","","","","learningBlock2","","","","This is a tob:","null","","","","",""
"","image-keyboard-response","405","810769","0.0-8.0-1.52","LF","g4m3kbu4rq","1536","864","en","ER04LF09","null","","","","","","","","learning/Slide133.JPG","null","","","","",""
"","html-keyboard-response","406","811772","0.0-8.0-2.52","LF","g4m3kbu4rq","1536","864","en","ER04LF09","null","","","","learningBlock2","","","","<div style=""font-size:60px;""> </div>","null","LF","learning/Slide133.JPG","This is a tob:","",""
"","html-keyboard-response","407","812776","0.0-8.0-0.53","LF","g4m3kbu4rq","1536","864","en","ER04LF09","null","","","","learningBlock2","","","","This is a dep:","null","","","","",""
"","image-keyboard-response","408","813106","0.0-8.0-1.53","LF","g4m3kbu4rq","1536","864","en","ER04LF09","null","","","","","","","","learning/Slide134.JPG","null","","","","",""
"","html-keyboard-response","409","814110","0.0-8.0-2.53","LF","g4m3kbu4rq","1536","864","en","ER04LF09","null","","","","learningBlock2","","","","<div style=""font-size:60px;""> </div>","null","LF","learning/Slide134.JPG","This is a dep:","",""
"","html-keyboard-response","410","815113","0.0-8.0-0.54","LF","g4m3kbu4rq","1536","864","en","ER04LF09","null","","","","learningBlock2","","","","This is a tob:","null","","","","",""
"","image-keyboard-response","411","815443","0.0-8.0-1.54","LF","g4m3kbu4rq","1536","864","en","ER04LF09","null","","","","","","","","learning/Slide135.JPG","null","","","","",""
"","html-keyboard-response","412","816447","0.0-8.0-2.54","LF","g4m3kbu4rq","1536","864","en","ER04LF09","null","","","","learningBlock2","","","","<div style=""font-size:60px;""> </div>","null","LF","learning/Slide135.JPG","This is a tob:","",""
"","html-keyboard-response","413","817450","0.0-8.0-0.55","LF","g4m3kbu4rq","1536","864","en","ER04LF09","null","","","","learningBlock2","","","","This is a wug:","null","","","","",""
"","image-keyboard-response","414","817781","0.0-8.0-1.55","LF","g4m3kbu4rq","1536","864","en","ER04LF09","null","","","","","","","","learning/Slide136.JPG","null","","","","",""
"","html-keyboard-response","415","818785","0.0-8.0-2.55","LF","g4m3kbu4rq","1536","864","en","ER04LF09","null","","","","learningBlock2","","","","<div style=""font-size:60px;""> </div>","null","LF","learning/Slide136.JPG","This is a wug:","",""
"","html-keyboard-response","416","819787","0.0-8.0-0.56","LF","g4m3kbu4rq","1536","864","en","ER04LF09","null","","","","learningBlock2","","","","This is a tob:","null","","","","",""
"","image-keyboard-response","417","820117","0.0-8.0-1.56","LF","g4m3kbu4rq","1536","864","en","ER04LF09","null","","","","","","","","learning/Slide137.JPG","null","","","","",""
"","html-keyboard-response","418","821121","0.0-8.0-2.56","LF","g4m3kbu4rq","1536","864","en","ER04LF09","null","","","","learningBlock2","","","","<div style=""font-size:60px;""> </div>","null","LF","learning/Slide137.JPG","This is a tob:","",""
"","html-keyboard-response","419","822125","0.0-8.0-0.57","LF","g4m3kbu4rq","1536","864","en","ER04LF09","null","","","","learningBlock2","","","","This is a bim:","null","","","","",""
"","image-keyboard-response","420","822457","0.0-8.0-1.57","LF","g4m3kbu4rq","1536","864","en","ER04LF09","null","","","","","","","","learning/Slide138.JPG","null","","","","",""
"","html-keyboard-response","421","823463","0.0-8.0-2.57","LF","g4m3kbu4rq","1536","864","en","ER04LF09","null","","","","learningBlock2","","","","<div style=""font-size:60px;""> </div>","null","LF","learning/Slide138.JPG","This is a bim:","",""
"","html-keyboard-response","422","824467","0.0-8.0-0.58","LF","g4m3kbu4rq","1536","864","en","ER04LF09","null","","","","learningBlock2","","","","This is a wug:","null","","","","",""
"","image-keyboard-response","423","824797","0.0-8.0-1.58","LF","g4m3kbu4rq","1536","864","en","ER04LF09","null","","","","","","","","learning/Slide139.JPG","null","","","","",""
"","html-keyboard-response","424","825802","0.0-8.0-2.58","LF","g4m3kbu4rq","1536","864","en","ER04LF09","null","","","","learningBlock2","","","","<div style=""font-size:60px;""> </div>","null","LF","learning/Slide139.JPG","This is a wug:","",""
"","html-keyboard-response","425","826804","0.0-8.0-0.59","LF","g4m3kbu4rq","1536","864","en","ER04LF09","null","","","","learningBlock2","","","","This is a dep:","null","","","","",""
"","image-keyboard-response","426","827135","0.0-8.0-1.59","LF","g4m3kbu4rq","1536","864","en","ER04LF09","null","","","","","","","","learning/Slide140.JPG","null","","","","",""
"","html-keyboard-response","427","828139","0.0-8.0-2.59","LF","g4m3kbu4rq","1536","864","en","ER04LF09","null","","","","learningBlock2","","","","<div style=""font-size:60px;""> </div>","null","LF","learning/Slide140.JPG","This is a dep:","",""
"","html-keyboard-response","428","829141","0.0-8.0-0.60","LF","g4m3kbu4rq","1536","864","en","ER04LF09","null","","","","learningBlock2","","","","This is a tob:","null","","","","",""
"","image-keyboard-response","429","829475","0.0-8.0-1.60","LF","g4m3kbu4rq","1536","864","en","ER04LF09","null","","","","","","","","learning/Slide141.JPG","null","","","","",""
"","html-keyboard-response","430","830479","0.0-8.0-2.60","LF","g4m3kbu4rq","1536","864","en","ER04LF09","null","","","","learningBlock2","","","","<div style=""font-size:60px;""> </div>","null","LF","learning/Slide141.JPG","This is a tob:","",""
"","html-keyboard-response","431","831482","0.0-8.0-0.61","LF","g4m3kbu4rq","1536","864","en","ER04LF09","null","","","","learningBlock2","","","","This is a wug:","null","","","","",""
"","image-keyboard-response","432","831813","0.0-8.0-1.61","LF","g4m3kbu4rq","1536","864","en","ER04LF09","null","","","","","","","","learning/Slide142.JPG","null","","","","",""
"","html-keyboard-response","433","832817","0.0-8.0-2.61","LF","g4m3kbu4rq","1536","864","en","ER04LF09","null","","","","learningBlock2","","","","<div style=""font-size:60px;""> </div>","null","LF","learning/Slide142.JPG","This is a wug:","",""
"","html-keyboard-response","434","833821","0.0-8.0-0.62","LF","g4m3kbu4rq","1536","864","en","ER04LF09","null","","","","learningBlock2","","","","This is a bim:","null","","","","",""
"","image-keyboard-response","435","834152","0.0-8.0-1.62","LF","g4m3kbu4rq","1536","864","en","ER04LF09","null","","","","","","","","learning/Slide143.JPG","null","","","","",""
"","html-keyboard-response","436","835157","0.0-8.0-2.62","LF","g4m3kbu4rq","1536","864","en","ER04LF09","null","","","","learningBlock2","","","","<div style=""font-size:60px;""> </div>","null","LF","learning/Slide143.JPG","This is a bim:","",""
"","html-keyboard-response","437","836160","0.0-8.0-0.63","LF","g4m3kbu4rq","1536","864","en","ER04LF09","null","","","","learningBlock2","","","","This is a dep:","null","","","","",""
"","image-keyboard-response","438","836491","0.0-8.0-1.63","LF","g4m3kbu4rq","1536","864","en","ER04LF09","null","","","","","","","","learning/Slide144.JPG","null","","","","",""
"","html-keyboard-response","439","837495","0.0-8.0-2.63","LF","g4m3kbu4rq","1536","864","en","ER04LF09","null","","","","learningBlock2","","","","<div style=""font-size:60px;""> </div>","null","LF","learning/Slide144.JPG","This is a dep:","",""
"","html-keyboard-response","440","838498","0.0-8.0-0.64","LF","g4m3kbu4rq","1536","864","en","ER04LF09","null","","","","learningBlock2","","","","This is a bim:","null","","","","",""
"","image-keyboard-response","441","838831","0.0-8.0-1.64","LF","g4m3kbu4rq","1536","864","en","ER04LF09","null","","","","","","","","learning/Slide145.JPG","null","","","","",""
"","html-keyboard-response","442","839836","0.0-8.0-2.64","LF","g4m3kbu4rq","1536","864","en","ER04LF09","null","","","","learningBlock2","","","","<div style=""font-size:60px;""> </div>","null","LF","learning/Slide145.JPG","This is a bim:","",""
"","html-keyboard-response","443","840839","0.0-8.0-0.65","LF","g4m3kbu4rq","1536","864","en","ER04LF09","null","","","","learningBlock2","","","","This is a tob:","null","","","","",""
"","image-keyboard-response","444","841169","0.0-8.0-1.65","LF","g4m3kbu4rq","1536","864","en","ER04LF09","null","","","","","","","","learning/Slide146.JPG","null","","","","",""
"","html-keyboard-response","445","842172","0.0-8.0-2.65","LF","g4m3kbu4rq","1536","864","en","ER04LF09","null","","","","learningBlock2","","","","<div style=""font-size:60px;""> </div>","null","LF","learning/Slide146.JPG","This is a tob:","",""
"","html-keyboard-response","446","843175","0.0-8.0-0.66","LF","g4m3kbu4rq","1536","864","en","ER04LF09","null","","","","learningBlock2","","","","This is a wug:","null","","","","",""
"","image-keyboard-response","447","843505","0.0-8.0-1.66","LF","g4m3kbu4rq","1536","864","en","ER04LF09","null","","","","","","","","learning/Slide147.JPG","null","","","","",""
"","html-keyboard-response","448","844509","0.0-8.0-2.66","LF","g4m3kbu4rq","1536","864","en","ER04LF09","null","","","","learningBlock2","","","","<div style=""font-size:60px;""> </div>","null","LF","learning/Slide147.JPG","This is a wug:","",""
"","html-keyboard-response","449","845512","0.0-8.0-0.67","LF","g4m3kbu4rq","1536","864","en","ER04LF09","null","","","","learningBlock2","","","","This is a bim:","null","","","","",""
"","image-keyboard-response","450","845842","0.0-8.0-1.67","LF","g4m3kbu4rq","1536","864","en","ER04LF09","null","","","","","","","","learning/Slide148.JPG","null","","","","",""
"","html-keyboard-response","451","846847","0.0-8.0-2.67","LF","g4m3kbu4rq","1536","864","en","ER04LF09","null","","","","learningBlock2","","","","<div style=""font-size:60px;""> </div>","null","LF","learning/Slide148.JPG","This is a bim:","",""
"","html-keyboard-response","452","847852","0.0-8.0-0.68","LF","g4m3kbu4rq","1536","864","en","ER04LF09","null","","","","learningBlock2","","","","This is a dep:","null","","","","",""
"","image-keyboard-response","453","848182","0.0-8.0-1.68","LF","g4m3kbu4rq","1536","864","en","ER04LF09","null","","","","","","","","learning/Slide149.JPG","null","","","","",""
"","html-keyboard-response","454","849185","0.0-8.0-2.68","LF","g4m3kbu4rq","1536","864","en","ER04LF09","null","","","","learningBlock2","","","","<div style=""font-size:60px;""> </div>","null","LF","learning/Slide149.JPG","This is a dep:","",""
"","html-keyboard-response","455","850189","0.0-8.0-0.69","LF","g4m3kbu4rq","1536","864","en","ER04LF09","null","","","","learningBlock2","","","","This is a wug:","null","","","","",""
"","image-keyboard-response","456","850520","0.0-8.0-1.69","LF","g4m3kbu4rq","1536","864","en","ER04LF09","null","","","","","","","","learning/Slide150.JPG","null","","","","",""
"","html-keyboard-response","457","851523","0.0-8.0-2.69","LF","g4m3kbu4rq","1536","864","en","ER04LF09","null","","","","learningBlock2","","","","<div style=""font-size:60px;""> </div>","null","LF","learning/Slide150.JPG","This is a wug:","",""
"","html-keyboard-response","458","852527","0.0-8.0-0.70","LF","g4m3kbu4rq","1536","864","en","ER04LF09","null","","","","learningBlock2","","","","This is a dep:","null","","","","",""
"","image-keyboard-response","459","852856","0.0-8.0-1.70","LF","g4m3kbu4rq","1536","864","en","ER04LF09","null","","","","","","","","learning/Slide151.JPG","null","","","","",""
"","html-keyboard-response","460","853859","0.0-8.0-2.70","LF","g4m3kbu4rq","1536","864","en","ER04LF09","null","","","","learningBlock2","","","","<div style=""font-size:60px;""> </div>","null","LF","learning/Slide151.JPG","This is a dep:","",""
"","html-keyboard-response","461","854864","0.0-8.0-0.71","LF","g4m3kbu4rq","1536","864","en","ER04LF09","null","","","","learningBlock2","","","","This is a wug:","null","","","","",""
"","image-keyboard-response","462","855195","0.0-8.0-1.71","LF","g4m3kbu4rq","1536","864","en","ER04LF09","null","","","","","","","","learning/Slide152.JPG","null","","","","",""
"","html-keyboard-response","463","856198","0.0-8.0-2.71","LF","g4m3kbu4rq","1536","864","en","ER04LF09","null","","","","learningBlock2","","","","<div style=""font-size:60px;""> </div>","null","LF","learning/Slide152.JPG","This is a wug:","",""
"","html-keyboard-response","464","857202","0.0-8.0-0.72","LF","g4m3kbu4rq","1536","864","en","ER04LF09","null","","","","learningBlock2","","","","This is a bim:","null","","","","",""
"","image-keyboard-response","465","857534","0.0-8.0-1.72","LF","g4m3kbu4rq","1536","864","en","ER04LF09","null","","","","","","","","learning/Slide153.JPG","null","","","","",""
"","html-keyboard-response","466","858536","0.0-8.0-2.72","LF","g4m3kbu4rq","1536","864","en","ER04LF09","null","","","","learningBlock2","","","","<div style=""font-size:60px;""> </div>","null","LF","learning/Slide153.JPG","This is a bim:","",""
"","html-keyboard-response","467","859538","0.0-8.0-0.73","LF","g4m3kbu4rq","1536","864","en","ER04LF09","null","","","","learningBlock2","","","","This is a tob:","null","","","","",""
"","image-keyboard-response","468","859875","0.0-8.0-1.73","LF","g4m3kbu4rq","1536","864","en","ER04LF09","null","","","","","","","","learning/Slide154.JPG","null","","","","",""
"","html-keyboard-response","469","860879","0.0-8.0-2.73","LF","g4m3kbu4rq","1536","864","en","ER04LF09","null","","","","learningBlock2","","","","<div style=""font-size:60px;""> </div>","null","LF","learning/Slide154.JPG","This is a tob:","",""
"","html-keyboard-response","470","861884","0.0-8.0-0.74","LF","g4m3kbu4rq","1536","864","en","ER04LF09","null","","","","learningBlock2","","","","This is a dep:","null","","","","",""
"","image-keyboard-response","471","862211","0.0-8.0-1.74","LF","g4m3kbu4rq","1536","864","en","ER04LF09","null","","","","","","","","learning/Slide155.JPG","null","","","","",""
"","html-keyboard-response","472","863216","0.0-8.0-2.74","LF","g4m3kbu4rq","1536","864","en","ER04LF09","null","","","","learningBlock2","","","","<div style=""font-size:60px;""> </div>","null","LF","learning/Slide155.JPG","This is a dep:","",""
"","html-keyboard-response","473","864219","0.0-8.0-0.75","LF","g4m3kbu4rq","1536","864","en","ER04LF09","null","","","","learningBlock2","","","","This is a bim:","null","","","","",""
"","image-keyboard-response","474","864553","0.0-8.0-1.75","LF","g4m3kbu4rq","1536","864","en","ER04LF09","null","","","","","","","","learning/Slide156.JPG","null","","","","",""
"","html-keyboard-response","475","865557","0.0-8.0-2.75","LF","g4m3kbu4rq","1536","864","en","ER04LF09","null","","","","learningBlock2","","","","<div style=""font-size:60px;""> </div>","null","LF","learning/Slide156.JPG","This is a bim:","",""
"","html-keyboard-response","476","866560","0.0-8.0-0.76","LF","g4m3kbu4rq","1536","864","en","ER04LF09","null","","","","learningBlock2","","","","This is a dep:","null","","","","",""
"","image-keyboard-response","477","866892","0.0-8.0-1.76","LF","g4m3kbu4rq","1536","864","en","ER04LF09","null","","","","","","","","learning/Slide157.JPG","null","","","","",""
"","html-keyboard-response","478","867897","0.0-8.0-2.76","LF","g4m3kbu4rq","1536","864","en","ER04LF09","null","","","","learningBlock2","","","","<div style=""font-size:60px;""> </div>","null","LF","learning/Slide157.JPG","This is a dep:","",""
"","html-keyboard-response","479","868900","0.0-8.0-0.77","LF","g4m3kbu4rq","1536","864","en","ER04LF09","null","","","","learningBlock2","","","","This is a tob:","null","","","","",""
"","image-keyboard-response","480","869230","0.0-8.0-1.77","LF","g4m3kbu4rq","1536","864","en","ER04LF09","null","","","","","","","","learning/Slide158.JPG","null","","","","",""
"","html-keyboard-response","481","870234","0.0-8.0-2.77","LF","g4m3kbu4rq","1536","864","en","ER04LF09","null","","","","learningBlock2","","","","<div style=""font-size:60px;""> </div>","null","LF","learning/Slide158.JPG","This is a tob:","",""
"","html-keyboard-response","482","871236","0.0-8.0-0.78","LF","g4m3kbu4rq","1536","864","en","ER04LF09","null","","","","learningBlock2","","","","This is a dep:","null","","","","",""
"","image-keyboard-response","483","871567","0.0-8.0-1.78","LF","g4m3kbu4rq","1536","864","en","ER04LF09","null","","","","","","","","learning/Slide159.JPG","null","","","","",""
"","html-keyboard-response","484","872572","0.0-8.0-2.78","LF","g4m3kbu4rq","1536","864","en","ER04LF09","null","","","","learningBlock2","","","","<div style=""font-size:60px;""> </div>","null","LF","learning/Slide159.JPG","This is a dep:","",""
"","html-keyboard-response","485","873574","0.0-8.0-0.79","LF","g4m3kbu4rq","1536","864","en","ER04LF09","null","","","","learningBlock2","","","","This is a wug:","null","","","","",""
"","image-keyboard-response","486","873906","0.0-8.0-1.79","LF","g4m3kbu4rq","1536","864","en","ER04LF09","null","","","","","","","","learning/Slide160.JPG","null","","","","",""
"","html-keyboard-response","487","874912","0.0-8.0-2.79","LF","g4m3kbu4rq","1536","864","en","ER04LF09","null","","","","learningBlock2","","","","<div style=""font-size:60px;""> </div>","null","LF","learning/Slide160.JPG","This is a wug:","",""
"","resize2","488","882545","0.0-9.0","LF","g4m3kbu4rq","1536","864","en","ER04LF09","","","","","","","104","1.04","","","","","","",""
"","instructions","489","893105","0.0-10.0","LF","g4m3kbu4rq","1536","864","en","ER04LF09","NA","","","[{""page_index"":0,""viewing_time"":10557.919999999227}]","instructions","","","","","","","","","",""
