"success","trial_type","trial_index","time_elapsed","internal_node_id","condition","subject","screen_width","screen_height","language","codeword","rt","responses","url","view_history","test_part","final_height_px","final_width_px","scale_factor","stimulus","key_press","learningType","presentedImage","presentedLabel","button_pressed","response"
"true","fullscreen","0","2474","0.0-0.0","FL","5jpxbwcfh4","1920","1080","de","el06as26","","","","","","","","","","","","","","",""
"","survey-html-form","1","9210","0.0-1.0","FL","5jpxbwcfh4","1920","1080","de","el06as26","6731.274999998277","{""language"":""de""}","","","","","","","","","","","","",""
"","external-html","2","28197","0.0-2.0-0.0","FL","5jpxbwcfh4","1920","1080","de","el06as26","18919.024999981048","","text/information.html","","","","","","","","","","","",""
"","external-html","3","38232","0.0-2.0-1.0","FL","5jpxbwcfh4","1920","1080","de","el06as26","9973.900000011781","","text/consent.html","","","","","","","","","","","",""
"","survey-html-form","4","103935","0.0-2.0-2.0","FL","5jpxbwcfh4","1920","1080","de","el06as26","65690.3099999763","{""codeword_enter"":""el06as26""}","","","","","","","","","","","","",""
"","instructions","5","112986","0.0-4.0","FL","5jpxbwcfh4","1920","1080","de","el06as26","NA","","","[{""page_index"":0,""viewing_time"":1302.819999982603},{""page_index"":1,""viewing_time"":6238.260000012815}]","instructions","","","","","","","","","",""
"","resize","6","167625","0.0-5.0","FL","5jpxbwcfh4","1920","1080","de","el06as26","","","","","","","428","2.7174603174603176","","","","","","",""
"","image-keyboard-response","7","167806","0.0-6.0-0.0","FL","5jpxbwcfh4","1920","1080","de","el06as26","null","","","","","","","","learning/Slide1.JPG","null","","","","",""
"","html-keyboard-response","8","168964","0.0-6.0-1.0","FL","5jpxbwcfh4","1920","1080","de","el06as26","null","","","","learningBlock1","","","","That was a tob.","null","","","","",""
"","html-keyboard-response","9","169966","0.0-6.0-2.0","FL","5jpxbwcfh4","1920","1080","de","el06as26","null","","","","learningBlock1","","","","<div style=""font-size:60px;""> </div>","null","FL","learning/Slide1.JPG","That was a tob.","",""
"","image-keyboard-response","10","170146","0.0-6.0-0.1","FL","5jpxbwcfh4","1920","1080","de","el06as26","null","","","","","","","","learning/Slide2.JPG","null","","","","",""
"","html-keyboard-response","11","171305","0.0-6.0-1.1","FL","5jpxbwcfh4","1920","1080","de","el06as26","null","","","","learningBlock1","","","","That was a wug.","null","","","","",""
"","html-keyboard-response","12","172310","0.0-6.0-2.1","FL","5jpxbwcfh4","1920","1080","de","el06as26","null","","","","learningBlock1","","","","<div style=""font-size:60px;""> </div>","null","FL","learning/Slide2.JPG","That was a wug.","",""
"","image-keyboard-response","13","172487","0.0-6.0-0.2","FL","5jpxbwcfh4","1920","1080","de","el06as26","null","","","","","","","","learning/Slide3.JPG","null","","","","",""
"","html-keyboard-response","14","173646","0.0-6.0-1.2","FL","5jpxbwcfh4","1920","1080","de","el06as26","null","","","","learningBlock1","","","","That was a bim.","null","","","","",""
"","html-keyboard-response","15","174653","0.0-6.0-2.2","FL","5jpxbwcfh4","1920","1080","de","el06as26","null","","","","learningBlock1","","","","<div style=""font-size:60px;""> </div>","null","FL","learning/Slide3.JPG","That was a bim.","",""
"","image-keyboard-response","16","174833","0.0-6.0-0.3","FL","5jpxbwcfh4","1920","1080","de","el06as26","null","","","","","","","","learning/Slide4.JPG","null","","","","",""
"","html-keyboard-response","17","175987","0.0-6.0-1.3","FL","5jpxbwcfh4","1920","1080","de","el06as26","null","","","","learningBlock1","","","","That was a dep.","null","","","","",""
"","html-keyboard-response","18","176992","0.0-6.0-2.3","FL","5jpxbwcfh4","1920","1080","de","el06as26","null","","","","learningBlock1","","","","<div style=""font-size:60px;""> </div>","null","FL","learning/Slide4.JPG","That was a dep.","",""
"","image-keyboard-response","19","177172","0.0-6.0-0.4","FL","5jpxbwcfh4","1920","1080","de","el06as26","null","","","","","","","","learning/Slide5.JPG","null","","","","",""
"","html-keyboard-response","20","178327","0.0-6.0-1.4","FL","5jpxbwcfh4","1920","1080","de","el06as26","null","","","","learningBlock1","","","","That was a wug.","null","","","","",""
"","html-keyboard-response","21","179331","0.0-6.0-2.4","FL","5jpxbwcfh4","1920","1080","de","el06as26","null","","","","learningBlock1","","","","<div style=""font-size:60px;""> </div>","null","FL","learning/Slide5.JPG","That was a wug.","",""
"","image-keyboard-response","22","179511","0.0-6.0-0.5","FL","5jpxbwcfh4","1920","1080","de","el06as26","null","","","","","","","","learning/Slide6.JPG","null","","","","",""
"","html-keyboard-response","23","180668","0.0-6.0-1.5","FL","5jpxbwcfh4","1920","1080","de","el06as26","null","","","","learningBlock1","","","","That was a dep.","null","","","","",""
"","html-keyboard-response","24","181675","0.0-6.0-2.5","FL","5jpxbwcfh4","1920","1080","de","el06as26","null","","","","learningBlock1","","","","<div style=""font-size:60px;""> </div>","null","FL","learning/Slide6.JPG","That was a dep.","",""
"","image-keyboard-response","25","181852","0.0-6.0-0.6","FL","5jpxbwcfh4","1920","1080","de","el06as26","null","","","","","","","","learning/Slide7.JPG","null","","","","",""
"","html-keyboard-response","26","183010","0.0-6.0-1.6","FL","5jpxbwcfh4","1920","1080","de","el06as26","null","","","","learningBlock1","","","","That was a wug.","null","","","","",""
"","html-keyboard-response","27","184012","0.0-6.0-2.6","FL","5jpxbwcfh4","1920","1080","de","el06as26","null","","","","learningBlock1","","","","<div style=""font-size:60px;""> </div>","null","FL","learning/Slide7.JPG","That was a wug.","",""
"","image-keyboard-response","28","184193","0.0-6.0-0.7","FL","5jpxbwcfh4","1920","1080","de","el06as26","null","","","","","","","","learning/Slide8.JPG","null","","","","",""
"","html-keyboard-response","29","185348","0.0-6.0-1.7","FL","5jpxbwcfh4","1920","1080","de","el06as26","null","","","","learningBlock1","","","","That was a bim.","null","","","","",""
"","html-keyboard-response","30","186353","0.0-6.0-2.7","FL","5jpxbwcfh4","1920","1080","de","el06as26","null","","","","learningBlock1","","","","<div style=""font-size:60px;""> </div>","null","FL","learning/Slide8.JPG","That was a bim.","",""
"","image-keyboard-response","31","186534","0.0-6.0-0.8","FL","5jpxbwcfh4","1920","1080","de","el06as26","null","","","","","","","","learning/Slide9.JPG","null","","","","",""
"","html-keyboard-response","32","187688","0.0-6.0-1.8","FL","5jpxbwcfh4","1920","1080","de","el06as26","null","","","","learningBlock1","","","","That was a wug.","null","","","","",""
"","html-keyboard-response","33","188692","0.0-6.0-2.8","FL","5jpxbwcfh4","1920","1080","de","el06as26","null","","","","learningBlock1","","","","<div style=""font-size:60px;""> </div>","null","FL","learning/Slide9.JPG","That was a wug.","",""
"","image-keyboard-response","34","188872","0.0-6.0-0.9","FL","5jpxbwcfh4","1920","1080","de","el06as26","null","","","","","","","","learning/Slide10.JPG","null","","","","",""
"","html-keyboard-response","35","190028","0.0-6.0-1.9","FL","5jpxbwcfh4","1920","1080","de","el06as26","null","","","","learningBlock1","","","","That was a dep.","null","","","","",""
"","html-keyboard-response","36","191032","0.0-6.0-2.9","FL","5jpxbwcfh4","1920","1080","de","el06as26","null","","","","learningBlock1","","","","<div style=""font-size:60px;""> </div>","null","FL","learning/Slide10.JPG","That was a dep.","",""
"","image-keyboard-response","37","191212","0.0-6.0-0.10","FL","5jpxbwcfh4","1920","1080","de","el06as26","null","","","","","","","","learning/Slide11.JPG","null","","","","",""
"","html-keyboard-response","38","192371","0.0-6.0-1.10","FL","5jpxbwcfh4","1920","1080","de","el06as26","null","","","","learningBlock1","","","","That was a tob.","null","","","","",""
"","html-keyboard-response","39","193374","0.0-6.0-2.10","FL","5jpxbwcfh4","1920","1080","de","el06as26","null","","","","learningBlock1","","","","<div style=""font-size:60px;""> </div>","null","FL","learning/Slide11.JPG","That was a tob.","",""
"","image-keyboard-response","40","193554","0.0-6.0-0.11","FL","5jpxbwcfh4","1920","1080","de","el06as26","null","","","","","","","","learning/Slide12.JPG","null","","","","",""
"","html-keyboard-response","41","194710","0.0-6.0-1.11","FL","5jpxbwcfh4","1920","1080","de","el06as26","null","","","","learningBlock1","","","","That was a dep.","null","","","","",""
"","html-keyboard-response","42","195716","0.0-6.0-2.11","FL","5jpxbwcfh4","1920","1080","de","el06as26","null","","","","learningBlock1","","","","<div style=""font-size:60px;""> </div>","null","FL","learning/Slide12.JPG","That was a dep.","",""
"","image-keyboard-response","43","195898","0.0-6.0-0.12","FL","5jpxbwcfh4","1920","1080","de","el06as26","null","","","","","","","","learning/Slide13.JPG","null","","","","",""
"","html-keyboard-response","44","197053","0.0-6.0-1.12","FL","5jpxbwcfh4","1920","1080","de","el06as26","null","","","","learningBlock1","","","","That was a bim.","null","","","","",""
"","html-keyboard-response","45","198060","0.0-6.0-2.12","FL","5jpxbwcfh4","1920","1080","de","el06as26","null","","","","learningBlock1","","","","<div style=""font-size:60px;""> </div>","null","FL","learning/Slide13.JPG","That was a bim.","",""
"","image-keyboard-response","46","198238","0.0-6.0-0.13","FL","5jpxbwcfh4","1920","1080","de","el06as26","null","","","","","","","","learning/Slide14.JPG","null","","","","",""
"","html-keyboard-response","47","199397","0.0-6.0-1.13","FL","5jpxbwcfh4","1920","1080","de","el06as26","null","","","","learningBlock1","","","","That was a wug.","null","","","","",""
"","html-keyboard-response","48","200404","0.0-6.0-2.13","FL","5jpxbwcfh4","1920","1080","de","el06as26","null","","","","learningBlock1","","","","<div style=""font-size:60px;""> </div>","null","FL","learning/Slide14.JPG","That was a wug.","",""
"","image-keyboard-response","49","200585","0.0-6.0-0.14","FL","5jpxbwcfh4","1920","1080","de","el06as26","null","","","","","","","","learning/Slide15.JPG","null","","","","",""
"","html-keyboard-response","50","201744","0.0-6.0-1.14","FL","5jpxbwcfh4","1920","1080","de","el06as26","null","","","","learningBlock1","","","","That was a tob.","null","","","","",""
"","html-keyboard-response","51","202748","0.0-6.0-2.14","FL","5jpxbwcfh4","1920","1080","de","el06as26","null","","","","learningBlock1","","","","<div style=""font-size:60px;""> </div>","null","FL","learning/Slide15.JPG","That was a tob.","",""
"","image-keyboard-response","52","202926","0.0-6.0-0.15","FL","5jpxbwcfh4","1920","1080","de","el06as26","null","","","","","","","","learning/Slide16.JPG","null","","","","",""
"","html-keyboard-response","53","204082","0.0-6.0-1.15","FL","5jpxbwcfh4","1920","1080","de","el06as26","null","","","","learningBlock1","","","","That was a dep.","null","","","","",""
"","html-keyboard-response","54","205084","0.0-6.0-2.15","FL","5jpxbwcfh4","1920","1080","de","el06as26","null","","","","learningBlock1","","","","<div style=""font-size:60px;""> </div>","null","FL","learning/Slide16.JPG","That was a dep.","",""
"","image-keyboard-response","55","205265","0.0-6.0-0.16","FL","5jpxbwcfh4","1920","1080","de","el06as26","null","","","","","","","","learning/Slide17.JPG","null","","","","",""
"","html-keyboard-response","56","206421","0.0-6.0-1.16","FL","5jpxbwcfh4","1920","1080","de","el06as26","null","","","","learningBlock1","","","","That was a bim.","null","","","","",""
"","html-keyboard-response","57","207425","0.0-6.0-2.16","FL","5jpxbwcfh4","1920","1080","de","el06as26","null","","","","learningBlock1","","","","<div style=""font-size:60px;""> </div>","null","FL","learning/Slide17.JPG","That was a bim.","",""
"","image-keyboard-response","58","207603","0.0-6.0-0.17","FL","5jpxbwcfh4","1920","1080","de","el06as26","null","","","","","","","","learning/Slide18.JPG","null","","","","",""
"","html-keyboard-response","59","208757","0.0-6.0-1.17","FL","5jpxbwcfh4","1920","1080","de","el06as26","null","","","","learningBlock1","","","","That was a tob.","null","","","","",""
"","html-keyboard-response","60","209761","0.0-6.0-2.17","FL","5jpxbwcfh4","1920","1080","de","el06as26","null","","","","learningBlock1","","","","<div style=""font-size:60px;""> </div>","null","FL","learning/Slide18.JPG","That was a tob.","",""
"","image-keyboard-response","61","209941","0.0-6.0-0.18","FL","5jpxbwcfh4","1920","1080","de","el06as26","null","","","","","","","","learning/Slide19.JPG","null","","","","",""
"","html-keyboard-response","62","211096","0.0-6.0-1.18","FL","5jpxbwcfh4","1920","1080","de","el06as26","null","","","","learningBlock1","","","","That was a wug.","null","","","","",""
"","html-keyboard-response","63","212099","0.0-6.0-2.18","FL","5jpxbwcfh4","1920","1080","de","el06as26","null","","","","learningBlock1","","","","<div style=""font-size:60px;""> </div>","null","FL","learning/Slide19.JPG","That was a wug.","",""
"","image-keyboard-response","64","212278","0.0-6.0-0.19","FL","5jpxbwcfh4","1920","1080","de","el06as26","null","","","","","","","","learning/Slide20.JPG","null","","","","",""
"","html-keyboard-response","65","213435","0.0-6.0-1.19","FL","5jpxbwcfh4","1920","1080","de","el06as26","null","","","","learningBlock1","","","","That was a bim.","null","","","","",""
"","html-keyboard-response","66","214442","0.0-6.0-2.19","FL","5jpxbwcfh4","1920","1080","de","el06as26","null","","","","learningBlock1","","","","<div style=""font-size:60px;""> </div>","null","FL","learning/Slide20.JPG","That was a bim.","",""
"","image-keyboard-response","67","214620","0.0-6.0-0.20","FL","5jpxbwcfh4","1920","1080","de","el06as26","null","","","","","","","","learning/Slide21.JPG","null","","","","",""
"","html-keyboard-response","68","215777","0.0-6.0-1.20","FL","5jpxbwcfh4","1920","1080","de","el06as26","null","","","","learningBlock1","","","","That was a dep.","null","","","","",""
"","html-keyboard-response","69","216784","0.0-6.0-2.20","FL","5jpxbwcfh4","1920","1080","de","el06as26","null","","","","learningBlock1","","","","<div style=""font-size:60px;""> </div>","null","FL","learning/Slide21.JPG","That was a dep.","",""
"","image-keyboard-response","70","216961","0.0-6.0-0.21","FL","5jpxbwcfh4","1920","1080","de","el06as26","null","","","","","","","","learning/Slide22.JPG","null","","","","",""
"","html-keyboard-response","71","218116","0.0-6.0-1.21","FL","5jpxbwcfh4","1920","1080","de","el06as26","null","","","","learningBlock1","","","","That was a bim.","null","","","","",""
"","html-keyboard-response","72","219120","0.0-6.0-2.21","FL","5jpxbwcfh4","1920","1080","de","el06as26","null","","","","learningBlock1","","","","<div style=""font-size:60px;""> </div>","null","FL","learning/Slide22.JPG","That was a bim.","",""
"","image-keyboard-response","73","219301","0.0-6.0-0.22","FL","5jpxbwcfh4","1920","1080","de","el06as26","null","","","","","","","","learning/Slide23.JPG","null","","","","",""
"","html-keyboard-response","74","220457","0.0-6.0-1.22","FL","5jpxbwcfh4","1920","1080","de","el06as26","null","","","","learningBlock1","","","","That was a tob.","null","","","","",""
"","html-keyboard-response","75","221461","0.0-6.0-2.22","FL","5jpxbwcfh4","1920","1080","de","el06as26","null","","","","learningBlock1","","","","<div style=""font-size:60px;""> </div>","null","FL","learning/Slide23.JPG","That was a tob.","",""
"","image-keyboard-response","76","221644","0.0-6.0-0.23","FL","5jpxbwcfh4","1920","1080","de","el06as26","null","","","","","","","","learning/Slide24.JPG","null","","","","",""
"","html-keyboard-response","77","222798","0.0-6.0-1.23","FL","5jpxbwcfh4","1920","1080","de","el06as26","null","","","","learningBlock1","","","","That was a wug.","null","","","","",""
"","html-keyboard-response","78","223802","0.0-6.0-2.23","FL","5jpxbwcfh4","1920","1080","de","el06as26","null","","","","learningBlock1","","","","<div style=""font-size:60px;""> </div>","null","FL","learning/Slide24.JPG","That was a wug.","",""
"","image-keyboard-response","79","223982","0.0-6.0-0.24","FL","5jpxbwcfh4","1920","1080","de","el06as26","null","","","","","","","","learning/Slide25.JPG","null","","","","",""
"","html-keyboard-response","80","225137","0.0-6.0-1.24","FL","5jpxbwcfh4","1920","1080","de","el06as26","null","","","","learningBlock1","","","","That was a dep.","null","","","","",""
"","html-keyboard-response","81","226140","0.0-6.0-2.24","FL","5jpxbwcfh4","1920","1080","de","el06as26","null","","","","learningBlock1","","","","<div style=""font-size:60px;""> </div>","null","FL","learning/Slide25.JPG","That was a dep.","",""
"","image-keyboard-response","82","226322","0.0-6.0-0.25","FL","5jpxbwcfh4","1920","1080","de","el06as26","null","","","","","","","","learning/Slide26.JPG","null","","","","",""
"","html-keyboard-response","83","227477","0.0-6.0-1.25","FL","5jpxbwcfh4","1920","1080","de","el06as26","null","","","","learningBlock1","","","","That was a wug.","null","","","","",""
"","html-keyboard-response","84","228484","0.0-6.0-2.25","FL","5jpxbwcfh4","1920","1080","de","el06as26","null","","","","learningBlock1","","","","<div style=""font-size:60px;""> </div>","null","FL","learning/Slide26.JPG","That was a wug.","",""
"","image-keyboard-response","85","228661","0.0-6.0-0.26","FL","5jpxbwcfh4","1920","1080","de","el06as26","null","","","","","","","","learning/Slide27.JPG","null","","","","",""
"","html-keyboard-response","86","229821","0.0-6.0-1.26","FL","5jpxbwcfh4","1920","1080","de","el06as26","null","","","","learningBlock1","","","","That was a bim.","null","","","","",""
"","html-keyboard-response","87","230822","0.0-6.0-2.26","FL","5jpxbwcfh4","1920","1080","de","el06as26","null","","","","learningBlock1","","","","<div style=""font-size:60px;""> </div>","null","FL","learning/Slide27.JPG","That was a bim.","",""
"","image-keyboard-response","88","231001","0.0-6.0-0.27","FL","5jpxbwcfh4","1920","1080","de","el06as26","null","","","","","","","","learning/Slide28.JPG","null","","","","",""
"","html-keyboard-response","89","232158","0.0-6.0-1.27","FL","5jpxbwcfh4","1920","1080","de","el06as26","null","","","","learningBlock1","","","","That was a dep.","null","","","","",""
"","html-keyboard-response","90","233164","0.0-6.0-2.27","FL","5jpxbwcfh4","1920","1080","de","el06as26","null","","","","learningBlock1","","","","<div style=""font-size:60px;""> </div>","null","FL","learning/Slide28.JPG","That was a dep.","",""
"","image-keyboard-response","91","233342","0.0-6.0-0.28","FL","5jpxbwcfh4","1920","1080","de","el06as26","null","","","","","","","","learning/Slide29.JPG","null","","","","",""
"","html-keyboard-response","92","234495","0.0-6.0-1.28","FL","5jpxbwcfh4","1920","1080","de","el06as26","null","","","","learningBlock1","","","","That was a tob.","null","","","","",""
"","html-keyboard-response","93","235500","0.0-6.0-2.28","FL","5jpxbwcfh4","1920","1080","de","el06as26","null","","","","learningBlock1","","","","<div style=""font-size:60px;""> </div>","null","FL","learning/Slide29.JPG","That was a tob.","",""
"","image-keyboard-response","94","235678","0.0-6.0-0.29","FL","5jpxbwcfh4","1920","1080","de","el06as26","null","","","","","","","","learning/Slide30.JPG","null","","","","",""
"","html-keyboard-response","95","236832","0.0-6.0-1.29","FL","5jpxbwcfh4","1920","1080","de","el06as26","null","","","","learningBlock1","","","","That was a dep.","null","","","","",""
"","html-keyboard-response","96","237836","0.0-6.0-2.29","FL","5jpxbwcfh4","1920","1080","de","el06as26","null","","","","learningBlock1","","","","<div style=""font-size:60px;""> </div>","null","FL","learning/Slide30.JPG","That was a dep.","",""
"","image-keyboard-response","97","238015","0.0-6.0-0.30","FL","5jpxbwcfh4","1920","1080","de","el06as26","null","","","","","","","","learning/Slide31.JPG","null","","","","",""
"","html-keyboard-response","98","239171","0.0-6.0-1.30","FL","5jpxbwcfh4","1920","1080","de","el06as26","null","","","","learningBlock1","","","","That was a wug.","null","","","","",""
"","html-keyboard-response","99","240173","0.0-6.0-2.30","FL","5jpxbwcfh4","1920","1080","de","el06as26","null","","","","learningBlock1","","","","<div style=""font-size:60px;""> </div>","null","FL","learning/Slide31.JPG","That was a wug.","",""
"","image-keyboard-response","100","240351","0.0-6.0-0.31","FL","5jpxbwcfh4","1920","1080","de","el06as26","null","","","","","","","","learning/Slide32.JPG","null","","","","",""
"","html-keyboard-response","101","241508","0.0-6.0-1.31","FL","5jpxbwcfh4","1920","1080","de","el06as26","null","","","","learningBlock1","","","","That was a tob.","null","","","","",""
"","html-keyboard-response","102","242513","0.0-6.0-2.31","FL","5jpxbwcfh4","1920","1080","de","el06as26","null","","","","learningBlock1","","","","<div style=""font-size:60px;""> </div>","null","FL","learning/Slide32.JPG","That was a tob.","",""
"","image-keyboard-response","103","242692","0.0-6.0-0.32","FL","5jpxbwcfh4","1920","1080","de","el06as26","null","","","","","","","","learning/Slide33.JPG","null","","","","",""
"","html-keyboard-response","104","243852","0.0-6.0-1.32","FL","5jpxbwcfh4","1920","1080","de","el06as26","null","","","","learningBlock1","","","","That was a bim.","null","","","","",""
"","html-keyboard-response","105","244854","0.0-6.0-2.32","FL","5jpxbwcfh4","1920","1080","de","el06as26","null","","","","learningBlock1","","","","<div style=""font-size:60px;""> </div>","null","FL","learning/Slide33.JPG","That was a bim.","",""
"","image-keyboard-response","106","245034","0.0-6.0-0.33","FL","5jpxbwcfh4","1920","1080","de","el06as26","null","","","","","","","","learning/Slide34.JPG","null","","","","",""
"","html-keyboard-response","107","246192","0.0-6.0-1.33","FL","5jpxbwcfh4","1920","1080","de","el06as26","null","","","","learningBlock1","","","","That was a tob.","null","","","","",""
"","html-keyboard-response","108","247196","0.0-6.0-2.33","FL","5jpxbwcfh4","1920","1080","de","el06as26","null","","","","learningBlock1","","","","<div style=""font-size:60px;""> </div>","null","FL","learning/Slide34.JPG","That was a tob.","",""
"","image-keyboard-response","109","247377","0.0-6.0-0.34","FL","5jpxbwcfh4","1920","1080","de","el06as26","null","","","","","","","","learning/Slide35.JPG","null","","","","",""
"","html-keyboard-response","110","248535","0.0-6.0-1.34","FL","5jpxbwcfh4","1920","1080","de","el06as26","null","","","","learningBlock1","","","","That was a bim.","null","","","","",""
"","html-keyboard-response","111","249539","0.0-6.0-2.34","FL","5jpxbwcfh4","1920","1080","de","el06as26","null","","","","learningBlock1","","","","<div style=""font-size:60px;""> </div>","null","FL","learning/Slide35.JPG","That was a bim.","",""
"","image-keyboard-response","112","249716","0.0-6.0-0.35","FL","5jpxbwcfh4","1920","1080","de","el06as26","null","","","","","","","","learning/Slide36.JPG","null","","","","",""
"","html-keyboard-response","113","250873","0.0-6.0-1.35","FL","5jpxbwcfh4","1920","1080","de","el06as26","null","","","","learningBlock1","","","","That was a dep.","null","","","","",""
"","html-keyboard-response","114","251876","0.0-6.0-2.35","FL","5jpxbwcfh4","1920","1080","de","el06as26","null","","","","learningBlock1","","","","<div style=""font-size:60px;""> </div>","null","FL","learning/Slide36.JPG","That was a dep.","",""
"","image-keyboard-response","115","252054","0.0-6.0-0.36","FL","5jpxbwcfh4","1920","1080","de","el06as26","null","","","","","","","","learning/Slide37.JPG","null","","","","",""
"","html-keyboard-response","116","253212","0.0-6.0-1.36","FL","5jpxbwcfh4","1920","1080","de","el06as26","null","","","","learningBlock1","","","","That was a tob.","null","","","","",""
"","html-keyboard-response","117","254214","0.0-6.0-2.36","FL","5jpxbwcfh4","1920","1080","de","el06as26","null","","","","learningBlock1","","","","<div style=""font-size:60px;""> </div>","null","FL","learning/Slide37.JPG","That was a tob.","",""
"","image-keyboard-response","118","254391","0.0-6.0-0.37","FL","5jpxbwcfh4","1920","1080","de","el06as26","null","","","","","","","","learning/Slide38.JPG","null","","","","",""
"","html-keyboard-response","119","255547","0.0-6.0-1.37","FL","5jpxbwcfh4","1920","1080","de","el06as26","null","","","","learningBlock1","","","","That was a wug.","null","","","","",""
"","html-keyboard-response","120","256551","0.0-6.0-2.37","FL","5jpxbwcfh4","1920","1080","de","el06as26","null","","","","learningBlock1","","","","<div style=""font-size:60px;""> </div>","null","FL","learning/Slide38.JPG","That was a wug.","",""
"","image-keyboard-response","121","256732","0.0-6.0-0.38","FL","5jpxbwcfh4","1920","1080","de","el06as26","null","","","","","","","","learning/Slide39.JPG","null","","","","",""
"","html-keyboard-response","122","257891","0.0-6.0-1.38","FL","5jpxbwcfh4","1920","1080","de","el06as26","null","","","","learningBlock1","","","","That was a bim.","null","","","","",""
"","html-keyboard-response","123","258896","0.0-6.0-2.38","FL","5jpxbwcfh4","1920","1080","de","el06as26","null","","","","learningBlock1","","","","<div style=""font-size:60px;""> </div>","null","FL","learning/Slide39.JPG","That was a bim.","",""
"","image-keyboard-response","124","259074","0.0-6.0-0.39","FL","5jpxbwcfh4","1920","1080","de","el06as26","null","","","","","","","","learning/Slide40.JPG","null","","","","",""
"","html-keyboard-response","125","260227","0.0-6.0-1.39","FL","5jpxbwcfh4","1920","1080","de","el06as26","null","","","","learningBlock1","","","","That was a tob.","null","","","","",""
"","html-keyboard-response","126","261231","0.0-6.0-2.39","FL","5jpxbwcfh4","1920","1080","de","el06as26","null","","","","learningBlock1","","","","<div style=""font-size:60px;""> </div>","null","FL","learning/Slide40.JPG","That was a tob.","",""
"","image-keyboard-response","127","261413","0.0-6.0-0.40","FL","5jpxbwcfh4","1920","1080","de","el06as26","null","","","","","","","","learning/Slide41.JPG","null","","","","",""
"","html-keyboard-response","128","262568","0.0-6.0-1.40","FL","5jpxbwcfh4","1920","1080","de","el06as26","null","","","","learningBlock1","","","","That was a bim.","null","","","","",""
"","html-keyboard-response","129","263572","0.0-6.0-2.40","FL","5jpxbwcfh4","1920","1080","de","el06as26","null","","","","learningBlock1","","","","<div style=""font-size:60px;""> </div>","null","FL","learning/Slide41.JPG","That was a bim.","",""
"","image-keyboard-response","130","263750","0.0-6.0-0.41","FL","5jpxbwcfh4","1920","1080","de","el06as26","null","","","","","","","","learning/Slide42.JPG","null","","","","",""
"","html-keyboard-response","131","264906","0.0-6.0-1.41","FL","5jpxbwcfh4","1920","1080","de","el06as26","null","","","","learningBlock1","","","","That was a dep.","null","","","","",""
"","html-keyboard-response","132","265911","0.0-6.0-2.41","FL","5jpxbwcfh4","1920","1080","de","el06as26","null","","","","learningBlock1","","","","<div style=""font-size:60px;""> </div>","null","FL","learning/Slide42.JPG","That was a dep.","",""
"","image-keyboard-response","133","266094","0.0-6.0-0.42","FL","5jpxbwcfh4","1920","1080","de","el06as26","null","","","","","","","","learning/Slide43.JPG","null","","","","",""
"","html-keyboard-response","134","267251","0.0-6.0-1.42","FL","5jpxbwcfh4","1920","1080","de","el06as26","null","","","","learningBlock1","","","","That was a wug.","null","","","","",""
"","html-keyboard-response","135","268255","0.0-6.0-2.42","FL","5jpxbwcfh4","1920","1080","de","el06as26","null","","","","learningBlock1","","","","<div style=""font-size:60px;""> </div>","null","FL","learning/Slide43.JPG","That was a wug.","",""
"","image-keyboard-response","136","268435","0.0-6.0-0.43","FL","5jpxbwcfh4","1920","1080","de","el06as26","null","","","","","","","","learning/Slide44.JPG","null","","","","",""
"","html-keyboard-response","137","269591","0.0-6.0-1.43","FL","5jpxbwcfh4","1920","1080","de","el06as26","null","","","","learningBlock1","","","","That was a bim.","null","","","","",""
"","html-keyboard-response","138","270596","0.0-6.0-2.43","FL","5jpxbwcfh4","1920","1080","de","el06as26","null","","","","learningBlock1","","","","<div style=""font-size:60px;""> </div>","null","FL","learning/Slide44.JPG","That was a bim.","",""
"","image-keyboard-response","139","270774","0.0-6.0-0.44","FL","5jpxbwcfh4","1920","1080","de","el06as26","null","","","","","","","","learning/Slide45.JPG","null","","","","",""
"","html-keyboard-response","140","271934","0.0-6.0-1.44","FL","5jpxbwcfh4","1920","1080","de","el06as26","null","","","","learningBlock1","","","","That was a wug.","null","","","","",""
"","html-keyboard-response","141","272937","0.0-6.0-2.44","FL","5jpxbwcfh4","1920","1080","de","el06as26","null","","","","learningBlock1","","","","<div style=""font-size:60px;""> </div>","null","FL","learning/Slide45.JPG","That was a wug.","",""
"","image-keyboard-response","142","273117","0.0-6.0-0.45","FL","5jpxbwcfh4","1920","1080","de","el06as26","null","","","","","","","","learning/Slide46.JPG","null","","","","",""
"","html-keyboard-response","143","274277","0.0-6.0-1.45","FL","5jpxbwcfh4","1920","1080","de","el06as26","null","","","","learningBlock1","","","","That was a dep.","null","","","","",""
"","html-keyboard-response","144","275280","0.0-6.0-2.45","FL","5jpxbwcfh4","1920","1080","de","el06as26","null","","","","learningBlock1","","","","<div style=""font-size:60px;""> </div>","null","FL","learning/Slide46.JPG","That was a dep.","",""
"","image-keyboard-response","145","275460","0.0-6.0-0.46","FL","5jpxbwcfh4","1920","1080","de","el06as26","null","","","","","","","","learning/Slide47.JPG","null","","","","",""
"","html-keyboard-response","146","276616","0.0-6.0-1.46","FL","5jpxbwcfh4","1920","1080","de","el06as26","null","","","","learningBlock1","","","","That was a tob.","null","","","","",""
"","html-keyboard-response","147","277621","0.0-6.0-2.46","FL","5jpxbwcfh4","1920","1080","de","el06as26","null","","","","learningBlock1","","","","<div style=""font-size:60px;""> </div>","null","FL","learning/Slide47.JPG","That was a tob.","",""
"","image-keyboard-response","148","277803","0.0-6.0-0.47","FL","5jpxbwcfh4","1920","1080","de","el06as26","null","","","","","","","","learning/Slide48.JPG","null","","","","",""
"","html-keyboard-response","149","278961","0.0-6.0-1.47","FL","5jpxbwcfh4","1920","1080","de","el06as26","null","","","","learningBlock1","","","","That was a bim.","null","","","","",""
"","html-keyboard-response","150","279963","0.0-6.0-2.47","FL","5jpxbwcfh4","1920","1080","de","el06as26","null","","","","learningBlock1","","","","<div style=""font-size:60px;""> </div>","null","FL","learning/Slide48.JPG","That was a bim.","",""
"","image-keyboard-response","151","280142","0.0-6.0-0.48","FL","5jpxbwcfh4","1920","1080","de","el06as26","null","","","","","","","","learning/Slide49.JPG","null","","","","",""
"","html-keyboard-response","152","281297","0.0-6.0-1.48","FL","5jpxbwcfh4","1920","1080","de","el06as26","null","","","","learningBlock1","","","","That was a dep.","null","","","","",""
"","html-keyboard-response","153","282301","0.0-6.0-2.48","FL","5jpxbwcfh4","1920","1080","de","el06as26","null","","","","learningBlock1","","","","<div style=""font-size:60px;""> </div>","null","FL","learning/Slide49.JPG","That was a dep.","",""
"","image-keyboard-response","154","282479","0.0-6.0-0.49","FL","5jpxbwcfh4","1920","1080","de","el06as26","null","","","","","","","","learning/Slide50.JPG","null","","","","",""
"","html-keyboard-response","155","283634","0.0-6.0-1.49","FL","5jpxbwcfh4","1920","1080","de","el06as26","null","","","","learningBlock1","","","","That was a tob.","null","","","","",""
"","html-keyboard-response","156","284635","0.0-6.0-2.49","FL","5jpxbwcfh4","1920","1080","de","el06as26","null","","","","learningBlock1","","","","<div style=""font-size:60px;""> </div>","null","FL","learning/Slide50.JPG","That was a tob.","",""
"","image-keyboard-response","157","284813","0.0-6.0-0.50","FL","5jpxbwcfh4","1920","1080","de","el06as26","null","","","","","","","","learning/Slide51.JPG","null","","","","",""
"","html-keyboard-response","158","285969","0.0-6.0-1.50","FL","5jpxbwcfh4","1920","1080","de","el06as26","null","","","","learningBlock1","","","","That was a bim.","null","","","","",""
"","html-keyboard-response","159","286974","0.0-6.0-2.50","FL","5jpxbwcfh4","1920","1080","de","el06as26","null","","","","learningBlock1","","","","<div style=""font-size:60px;""> </div>","null","FL","learning/Slide51.JPG","That was a bim.","",""
"","image-keyboard-response","160","287153","0.0-6.0-0.51","FL","5jpxbwcfh4","1920","1080","de","el06as26","null","","","","","","","","learning/Slide52.JPG","null","","","","",""
"","html-keyboard-response","161","288314","0.0-6.0-1.51","FL","5jpxbwcfh4","1920","1080","de","el06as26","null","","","","learningBlock1","","","","That was a wug.","null","","","","",""
"","html-keyboard-response","162","289319","0.0-6.0-2.51","FL","5jpxbwcfh4","1920","1080","de","el06as26","null","","","","learningBlock1","","","","<div style=""font-size:60px;""> </div>","null","FL","learning/Slide52.JPG","That was a wug.","",""
"","image-keyboard-response","163","289497","0.0-6.0-0.52","FL","5jpxbwcfh4","1920","1080","de","el06as26","null","","","","","","","","learning/Slide53.JPG","null","","","","",""
"","html-keyboard-response","164","290655","0.0-6.0-1.52","FL","5jpxbwcfh4","1920","1080","de","el06as26","null","","","","learningBlock1","","","","That was a tob.","null","","","","",""
"","html-keyboard-response","165","291657","0.0-6.0-2.52","FL","5jpxbwcfh4","1920","1080","de","el06as26","null","","","","learningBlock1","","","","<div style=""font-size:60px;""> </div>","null","FL","learning/Slide53.JPG","That was a tob.","",""
"","image-keyboard-response","166","291836","0.0-6.0-0.53","FL","5jpxbwcfh4","1920","1080","de","el06as26","null","","","","","","","","learning/Slide54.JPG","null","","","","",""
"","html-keyboard-response","167","292991","0.0-6.0-1.53","FL","5jpxbwcfh4","1920","1080","de","el06as26","null","","","","learningBlock1","","","","That was a dep.","null","","","","",""
"","html-keyboard-response","168","293994","0.0-6.0-2.53","FL","5jpxbwcfh4","1920","1080","de","el06as26","null","","","","learningBlock1","","","","<div style=""font-size:60px;""> </div>","null","FL","learning/Slide54.JPG","That was a dep.","",""
"","image-keyboard-response","169","294174","0.0-6.0-0.54","FL","5jpxbwcfh4","1920","1080","de","el06as26","null","","","","","","","","learning/Slide55.JPG","null","","","","",""
"","html-keyboard-response","170","295332","0.0-6.0-1.54","FL","5jpxbwcfh4","1920","1080","de","el06as26","null","","","","learningBlock1","","","","That was a bim.","null","","","","",""
"","html-keyboard-response","171","296336","0.0-6.0-2.54","FL","5jpxbwcfh4","1920","1080","de","el06as26","null","","","","learningBlock1","","","","<div style=""font-size:60px;""> </div>","null","FL","learning/Slide55.JPG","That was a bim.","",""
"","image-keyboard-response","172","296515","0.0-6.0-0.55","FL","5jpxbwcfh4","1920","1080","de","el06as26","null","","","","","","","","learning/Slide56.JPG","null","","","","",""
"","html-keyboard-response","173","297673","0.0-6.0-1.55","FL","5jpxbwcfh4","1920","1080","de","el06as26","null","","","","learningBlock1","","","","That was a tob.","null","","","","",""
"","html-keyboard-response","174","298676","0.0-6.0-2.55","FL","5jpxbwcfh4","1920","1080","de","el06as26","null","","","","learningBlock1","","","","<div style=""font-size:60px;""> </div>","null","FL","learning/Slide56.JPG","That was a tob.","",""
"","image-keyboard-response","175","298854","0.0-6.0-0.56","FL","5jpxbwcfh4","1920","1080","de","el06as26","null","","","","","","","","learning/Slide57.JPG","null","","","","",""
"","html-keyboard-response","176","300012","0.0-6.0-1.56","FL","5jpxbwcfh4","1920","1080","de","el06as26","null","","","","learningBlock1","","","","That was a dep.","null","","","","",""
"","html-keyboard-response","177","301015","0.0-6.0-2.56","FL","5jpxbwcfh4","1920","1080","de","el06as26","null","","","","learningBlock1","","","","<div style=""font-size:60px;""> </div>","null","FL","learning/Slide57.JPG","That was a dep.","",""
"","image-keyboard-response","178","301194","0.0-6.0-0.57","FL","5jpxbwcfh4","1920","1080","de","el06as26","null","","","","","","","","learning/Slide58.JPG","null","","","","",""
"","html-keyboard-response","179","302354","0.0-6.0-1.57","FL","5jpxbwcfh4","1920","1080","de","el06as26","null","","","","learningBlock1","","","","That was a wug.","null","","","","",""
"","html-keyboard-response","180","303356","0.0-6.0-2.57","FL","5jpxbwcfh4","1920","1080","de","el06as26","null","","","","learningBlock1","","","","<div style=""font-size:60px;""> </div>","null","FL","learning/Slide58.JPG","That was a wug.","",""
"","image-keyboard-response","181","303538","0.0-6.0-0.58","FL","5jpxbwcfh4","1920","1080","de","el06as26","null","","","","","","","","learning/Slide59.JPG","null","","","","",""
"","html-keyboard-response","182","304695","0.0-6.0-1.58","FL","5jpxbwcfh4","1920","1080","de","el06as26","null","","","","learningBlock1","","","","That was a dep.","null","","","","",""
"","html-keyboard-response","183","305698","0.0-6.0-2.58","FL","5jpxbwcfh4","1920","1080","de","el06as26","null","","","","learningBlock1","","","","<div style=""font-size:60px;""> </div>","null","FL","learning/Slide59.JPG","That was a dep.","",""
"","image-keyboard-response","184","305875","0.0-6.0-0.59","FL","5jpxbwcfh4","1920","1080","de","el06as26","null","","","","","","","","learning/Slide60.JPG","null","","","","",""
"","html-keyboard-response","185","307031","0.0-6.0-1.59","FL","5jpxbwcfh4","1920","1080","de","el06as26","null","","","","learningBlock1","","","","That was a wug.","null","","","","",""
"","html-keyboard-response","186","308036","0.0-6.0-2.59","FL","5jpxbwcfh4","1920","1080","de","el06as26","null","","","","learningBlock1","","","","<div style=""font-size:60px;""> </div>","null","FL","learning/Slide60.JPG","That was a wug.","",""
"","image-keyboard-response","187","308214","0.0-6.0-0.60","FL","5jpxbwcfh4","1920","1080","de","el06as26","null","","","","","","","","learning/Slide61.JPG","null","","","","",""
"","html-keyboard-response","188","309372","0.0-6.0-1.60","FL","5jpxbwcfh4","1920","1080","de","el06as26","null","","","","learningBlock1","","","","That was a bim.","null","","","","",""
"","html-keyboard-response","189","310377","0.0-6.0-2.60","FL","5jpxbwcfh4","1920","1080","de","el06as26","null","","","","learningBlock1","","","","<div style=""font-size:60px;""> </div>","null","FL","learning/Slide61.JPG","That was a bim.","",""
"","image-keyboard-response","190","310554","0.0-6.0-0.61","FL","5jpxbwcfh4","1920","1080","de","el06as26","null","","","","","","","","learning/Slide62.JPG","null","","","","",""
"","html-keyboard-response","191","311713","0.0-6.0-1.61","FL","5jpxbwcfh4","1920","1080","de","el06as26","null","","","","learningBlock1","","","","That was a dep.","null","","","","",""
"","html-keyboard-response","192","312716","0.0-6.0-2.61","FL","5jpxbwcfh4","1920","1080","de","el06as26","null","","","","learningBlock1","","","","<div style=""font-size:60px;""> </div>","null","FL","learning/Slide62.JPG","That was a dep.","",""
"","image-keyboard-response","193","312893","0.0-6.0-0.62","FL","5jpxbwcfh4","1920","1080","de","el06as26","null","","","","","","","","learning/Slide63.JPG","null","","","","",""
"","html-keyboard-response","194","314052","0.0-6.0-1.62","FL","5jpxbwcfh4","1920","1080","de","el06as26","null","","","","learningBlock1","","","","That was a bim.","null","","","","",""
"","html-keyboard-response","195","315055","0.0-6.0-2.62","FL","5jpxbwcfh4","1920","1080","de","el06as26","null","","","","learningBlock1","","","","<div style=""font-size:60px;""> </div>","null","FL","learning/Slide63.JPG","That was a bim.","",""
"","image-keyboard-response","196","315235","0.0-6.0-0.63","FL","5jpxbwcfh4","1920","1080","de","el06as26","null","","","","","","","","learning/Slide64.JPG","null","","","","",""
"","html-keyboard-response","197","316390","0.0-6.0-1.63","FL","5jpxbwcfh4","1920","1080","de","el06as26","null","","","","learningBlock1","","","","That was a tob.","null","","","","",""
"","html-keyboard-response","198","317392","0.0-6.0-2.63","FL","5jpxbwcfh4","1920","1080","de","el06as26","null","","","","learningBlock1","","","","<div style=""font-size:60px;""> </div>","null","FL","learning/Slide64.JPG","That was a tob.","",""
"","image-keyboard-response","199","317571","0.0-6.0-0.64","FL","5jpxbwcfh4","1920","1080","de","el06as26","null","","","","","","","","learning/Slide65.JPG","null","","","","",""
"","html-keyboard-response","200","318731","0.0-6.0-1.64","FL","5jpxbwcfh4","1920","1080","de","el06as26","null","","","","learningBlock1","","","","That was a wug.","null","","","","",""
"","html-keyboard-response","201","319736","0.0-6.0-2.64","FL","5jpxbwcfh4","1920","1080","de","el06as26","null","","","","learningBlock1","","","","<div style=""font-size:60px;""> </div>","null","FL","learning/Slide65.JPG","That was a wug.","",""
"","image-keyboard-response","202","319915","0.0-6.0-0.65","FL","5jpxbwcfh4","1920","1080","de","el06as26","null","","","","","","","","learning/Slide66.JPG","null","","","","",""
"","html-keyboard-response","203","321072","0.0-6.0-1.65","FL","5jpxbwcfh4","1920","1080","de","el06as26","null","","","","learningBlock1","","","","That was a dep.","null","","","","",""
"","html-keyboard-response","204","322076","0.0-6.0-2.65","FL","5jpxbwcfh4","1920","1080","de","el06as26","null","","","","learningBlock1","","","","<div style=""font-size:60px;""> </div>","null","FL","learning/Slide66.JPG","That was a dep.","",""
"","image-keyboard-response","205","322255","0.0-6.0-0.66","FL","5jpxbwcfh4","1920","1080","de","el06as26","null","","","","","","","","learning/Slide67.JPG","null","","","","",""
"","html-keyboard-response","206","323411","0.0-6.0-1.66","FL","5jpxbwcfh4","1920","1080","de","el06as26","null","","","","learningBlock1","","","","That was a tob.","null","","","","",""
"","html-keyboard-response","207","324415","0.0-6.0-2.66","FL","5jpxbwcfh4","1920","1080","de","el06as26","null","","","","learningBlock1","","","","<div style=""font-size:60px;""> </div>","null","FL","learning/Slide67.JPG","That was a tob.","",""
"","image-keyboard-response","208","324593","0.0-6.0-0.67","FL","5jpxbwcfh4","1920","1080","de","el06as26","null","","","","","","","","learning/Slide68.JPG","null","","","","",""
"","html-keyboard-response","209","325750","0.0-6.0-1.67","FL","5jpxbwcfh4","1920","1080","de","el06as26","null","","","","learningBlock1","","","","That was a wug.","null","","","","",""
"","html-keyboard-response","210","326753","0.0-6.0-2.67","FL","5jpxbwcfh4","1920","1080","de","el06as26","null","","","","learningBlock1","","","","<div style=""font-size:60px;""> </div>","null","FL","learning/Slide68.JPG","That was a wug.","",""
"","image-keyboard-response","211","326930","0.0-6.0-0.68","FL","5jpxbwcfh4","1920","1080","de","el06as26","null","","","","","","","","learning/Slide69.JPG","null","","","","",""
"","html-keyboard-response","212","328089","0.0-6.0-1.68","FL","5jpxbwcfh4","1920","1080","de","el06as26","null","","","","learningBlock1","","","","That was a tob.","null","","","","",""
"","html-keyboard-response","213","329095","0.0-6.0-2.68","FL","5jpxbwcfh4","1920","1080","de","el06as26","null","","","","learningBlock1","","","","<div style=""font-size:60px;""> </div>","null","FL","learning/Slide69.JPG","That was a tob.","",""
"","image-keyboard-response","214","329273","0.0-6.0-0.69","FL","5jpxbwcfh4","1920","1080","de","el06as26","null","","","","","","","","learning/Slide70.JPG","null","","","","",""
"","html-keyboard-response","215","330431","0.0-6.0-1.69","FL","5jpxbwcfh4","1920","1080","de","el06as26","null","","","","learningBlock1","","","","That was a dep.","null","","","","",""
"","html-keyboard-response","216","331436","0.0-6.0-2.69","FL","5jpxbwcfh4","1920","1080","de","el06as26","null","","","","learningBlock1","","","","<div style=""font-size:60px;""> </div>","null","FL","learning/Slide70.JPG","That was a dep.","",""
"","image-keyboard-response","217","331616","0.0-6.0-0.70","FL","5jpxbwcfh4","1920","1080","de","el06as26","null","","","","","","","","learning/Slide71.JPG","null","","","","",""
"","html-keyboard-response","218","332775","0.0-6.0-1.70","FL","5jpxbwcfh4","1920","1080","de","el06as26","null","","","","learningBlock1","","","","That was a wug.","null","","","","",""
"","html-keyboard-response","219","333781","0.0-6.0-2.70","FL","5jpxbwcfh4","1920","1080","de","el06as26","null","","","","learningBlock1","","","","<div style=""font-size:60px;""> </div>","null","FL","learning/Slide71.JPG","That was a wug.","",""
"","image-keyboard-response","220","333962","0.0-6.0-0.71","FL","5jpxbwcfh4","1920","1080","de","el06as26","null","","","","","","","","learning/Slide72.JPG","null","","","","",""
"","html-keyboard-response","221","335116","0.0-6.0-1.71","FL","5jpxbwcfh4","1920","1080","de","el06as26","null","","","","learningBlock1","","","","That was a bim.","null","","","","",""
"","html-keyboard-response","222","336120","0.0-6.0-2.71","FL","5jpxbwcfh4","1920","1080","de","el06as26","null","","","","learningBlock1","","","","<div style=""font-size:60px;""> </div>","null","FL","learning/Slide72.JPG","That was a bim.","",""
"","image-keyboard-response","223","336301","0.0-6.0-0.72","FL","5jpxbwcfh4","1920","1080","de","el06as26","null","","","","","","","","learning/Slide73.JPG","null","","","","",""
"","html-keyboard-response","224","337453","0.0-6.0-1.72","FL","5jpxbwcfh4","1920","1080","de","el06as26","null","","","","learningBlock1","","","","That was a wug.","null","","","","",""
"","html-keyboard-response","225","338454","0.0-6.0-2.72","FL","5jpxbwcfh4","1920","1080","de","el06as26","null","","","","learningBlock1","","","","<div style=""font-size:60px;""> </div>","null","FL","learning/Slide73.JPG","That was a wug.","",""
"","image-keyboard-response","226","338634","0.0-6.0-0.73","FL","5jpxbwcfh4","1920","1080","de","el06as26","null","","","","","","","","learning/Slide74.JPG","null","","","","",""
"","html-keyboard-response","227","339786","0.0-6.0-1.73","FL","5jpxbwcfh4","1920","1080","de","el06as26","null","","","","learningBlock1","","","","That was a dep.","null","","","","",""
"","html-keyboard-response","228","340791","0.0-6.0-2.73","FL","5jpxbwcfh4","1920","1080","de","el06as26","null","","","","learningBlock1","","","","<div style=""font-size:60px;""> </div>","null","FL","learning/Slide74.JPG","That was a dep.","",""
"","image-keyboard-response","229","340973","0.0-6.0-0.74","FL","5jpxbwcfh4","1920","1080","de","el06as26","null","","","","","","","","learning/Slide75.JPG","null","","","","",""
"","html-keyboard-response","230","342134","0.0-6.0-1.74","FL","5jpxbwcfh4","1920","1080","de","el06as26","null","","","","learningBlock1","","","","That was a tob.","null","","","","",""
"","html-keyboard-response","231","343138","0.0-6.0-2.74","FL","5jpxbwcfh4","1920","1080","de","el06as26","null","","","","learningBlock1","","","","<div style=""font-size:60px;""> </div>","null","FL","learning/Slide75.JPG","That was a tob.","",""
"","image-keyboard-response","232","343317","0.0-6.0-0.75","FL","5jpxbwcfh4","1920","1080","de","el06as26","null","","","","","","","","learning/Slide76.JPG","null","","","","",""
"","html-keyboard-response","233","344476","0.0-6.0-1.75","FL","5jpxbwcfh4","1920","1080","de","el06as26","null","","","","learningBlock1","","","","That was a bim.","null","","","","",""
"","html-keyboard-response","234","345482","0.0-6.0-2.75","FL","5jpxbwcfh4","1920","1080","de","el06as26","null","","","","learningBlock1","","","","<div style=""font-size:60px;""> </div>","null","FL","learning/Slide76.JPG","That was a bim.","",""
"","image-keyboard-response","235","345661","0.0-6.0-0.76","FL","5jpxbwcfh4","1920","1080","de","el06as26","null","","","","","","","","learning/Slide77.JPG","null","","","","",""
"","html-keyboard-response","236","346822","0.0-6.0-1.76","FL","5jpxbwcfh4","1920","1080","de","el06as26","null","","","","learningBlock1","","","","That was a tob.","null","","","","",""
"","html-keyboard-response","237","347826","0.0-6.0-2.76","FL","5jpxbwcfh4","1920","1080","de","el06as26","null","","","","learningBlock1","","","","<div style=""font-size:60px;""> </div>","null","FL","learning/Slide77.JPG","That was a tob.","",""
"","image-keyboard-response","238","348003","0.0-6.0-0.77","FL","5jpxbwcfh4","1920","1080","de","el06as26","null","","","","","","","","learning/Slide78.JPG","null","","","","",""
"","html-keyboard-response","239","349161","0.0-6.0-1.77","FL","5jpxbwcfh4","1920","1080","de","el06as26","null","","","","learningBlock1","","","","That was a wug.","null","","","","",""
"","html-keyboard-response","240","350163","0.0-6.0-2.77","FL","5jpxbwcfh4","1920","1080","de","el06as26","null","","","","learningBlock1","","","","<div style=""font-size:60px;""> </div>","null","FL","learning/Slide78.JPG","That was a wug.","",""
"","image-keyboard-response","241","350343","0.0-6.0-0.78","FL","5jpxbwcfh4","1920","1080","de","el06as26","null","","","","","","","","learning/Slide79.JPG","null","","","","",""
"","html-keyboard-response","242","351502","0.0-6.0-1.78","FL","5jpxbwcfh4","1920","1080","de","el06as26","null","","","","learningBlock1","","","","That was a bim.","null","","","","",""
"","html-keyboard-response","243","352505","0.0-6.0-2.78","FL","5jpxbwcfh4","1920","1080","de","el06as26","null","","","","learningBlock1","","","","<div style=""font-size:60px;""> </div>","null","FL","learning/Slide79.JPG","That was a bim.","",""
"","image-keyboard-response","244","352682","0.0-6.0-0.79","FL","5jpxbwcfh4","1920","1080","de","el06as26","null","","","","","","","","learning/Slide80.JPG","null","","","","",""
"","html-keyboard-response","245","353839","0.0-6.0-1.79","FL","5jpxbwcfh4","1920","1080","de","el06as26","null","","","","learningBlock1","","","","That was a tob.","null","","","","",""
"","html-keyboard-response","246","354844","0.0-6.0-2.79","FL","5jpxbwcfh4","1920","1080","de","el06as26","null","","","","learningBlock1","","","","<div style=""font-size:60px;""> </div>","null","FL","learning/Slide80.JPG","That was a tob.","",""
"","instructions","247","358515","0.0-7.0","FL","5jpxbwcfh4","1920","1080","de","el06as26","NA","","","[{""page_index"":0,""viewing_time"":3669.0749999834225}]","instructions","","","","","","","","","",""
"","image-keyboard-response","248","358695","0.0-8.0-0.0","FL","5jpxbwcfh4","1920","1080","de","el06as26","null","","","","","","","","learning/Slide81.JPG","null","","","","",""
"","html-keyboard-response","249","359851","0.0-8.0-1.0","FL","5jpxbwcfh4","1920","1080","de","el06as26","null","","","","learningBlock2","","","","That was a wug.","null","","","","",""
"","html-keyboard-response","250","360856","0.0-8.0-2.0","FL","5jpxbwcfh4","1920","1080","de","el06as26","null","","","","learningBlock2","","","","<div style=""font-size:60px;""> </div>","null","FL","learning/Slide81.JPG","That was a wug.","",""
"","image-keyboard-response","251","361037","0.0-8.0-0.1","FL","5jpxbwcfh4","1920","1080","de","el06as26","null","","","","","","","","learning/Slide82.JPG","null","","","","",""
"","html-keyboard-response","252","362191","0.0-8.0-1.1","FL","5jpxbwcfh4","1920","1080","de","el06as26","null","","","","learningBlock2","","","","That was a bim.","null","","","","",""
"","html-keyboard-response","253","363194","0.0-8.0-2.1","FL","5jpxbwcfh4","1920","1080","de","el06as26","null","","","","learningBlock2","","","","<div style=""font-size:60px;""> </div>","null","FL","learning/Slide82.JPG","That was a bim.","",""
"","image-keyboard-response","254","363373","0.0-8.0-0.2","FL","5jpxbwcfh4","1920","1080","de","el06as26","null","","","","","","","","learning/Slide83.JPG","null","","","","",""
"","html-keyboard-response","255","364527","0.0-8.0-1.2","FL","5jpxbwcfh4","1920","1080","de","el06as26","null","","","","learningBlock2","","","","That was a wug.","null","","","","",""
"","html-keyboard-response","256","365533","0.0-8.0-2.2","FL","5jpxbwcfh4","1920","1080","de","el06as26","null","","","","learningBlock2","","","","<div style=""font-size:60px;""> </div>","null","FL","learning/Slide83.JPG","That was a wug.","",""
"","image-keyboard-response","257","365715","0.0-8.0-0.3","FL","5jpxbwcfh4","1920","1080","de","el06as26","null","","","","","","","","learning/Slide84.JPG","null","","","","",""
"","html-keyboard-response","258","366873","0.0-8.0-1.3","FL","5jpxbwcfh4","1920","1080","de","el06as26","null","","","","learningBlock2","","","","That was a dep.","null","","","","",""
"","html-keyboard-response","259","367878","0.0-8.0-2.3","FL","5jpxbwcfh4","1920","1080","de","el06as26","null","","","","learningBlock2","","","","<div style=""font-size:60px;""> </div>","null","FL","learning/Slide84.JPG","That was a dep.","",""
"","image-keyboard-response","260","368058","0.0-8.0-0.4","FL","5jpxbwcfh4","1920","1080","de","el06as26","null","","","","","","","","learning/Slide85.JPG","null","","","","",""
"","html-keyboard-response","261","369215","0.0-8.0-1.4","FL","5jpxbwcfh4","1920","1080","de","el06as26","null","","","","learningBlock2","","","","That was a bim.","null","","","","",""
"","html-keyboard-response","262","370217","0.0-8.0-2.4","FL","5jpxbwcfh4","1920","1080","de","el06as26","null","","","","learningBlock2","","","","<div style=""font-size:60px;""> </div>","null","FL","learning/Slide85.JPG","That was a bim.","",""
"","image-keyboard-response","263","370397","0.0-8.0-0.5","FL","5jpxbwcfh4","1920","1080","de","el06as26","null","","","","","","","","learning/Slide86.JPG","null","","","","",""
"","html-keyboard-response","264","371553","0.0-8.0-1.5","FL","5jpxbwcfh4","1920","1080","de","el06as26","null","","","","learningBlock2","","","","That was a tob.","null","","","","",""
"","html-keyboard-response","265","372556","0.0-8.0-2.5","FL","5jpxbwcfh4","1920","1080","de","el06as26","null","","","","learningBlock2","","","","<div style=""font-size:60px;""> </div>","null","FL","learning/Slide86.JPG","That was a tob.","",""
"","image-keyboard-response","266","372734","0.0-8.0-0.6","FL","5jpxbwcfh4","1920","1080","de","el06as26","null","","","","","","","","learning/Slide87.JPG","null","","","","",""
"","html-keyboard-response","267","373892","0.0-8.0-1.6","FL","5jpxbwcfh4","1920","1080","de","el06as26","null","","","","learningBlock2","","","","That was a wug.","null","","","","",""
"","html-keyboard-response","268","374895","0.0-8.0-2.6","FL","5jpxbwcfh4","1920","1080","de","el06as26","null","","","","learningBlock2","","","","<div style=""font-size:60px;""> </div>","null","FL","learning/Slide87.JPG","That was a wug.","",""
"","image-keyboard-response","269","375073","0.0-8.0-0.7","FL","5jpxbwcfh4","1920","1080","de","el06as26","null","","","","","","","","learning/Slide88.JPG","null","","","","",""
"","html-keyboard-response","270","376225","0.0-8.0-1.7","FL","5jpxbwcfh4","1920","1080","de","el06as26","null","","","","learningBlock2","","","","That was a tob.","null","","","","",""
"","html-keyboard-response","271","377228","0.0-8.0-2.7","FL","5jpxbwcfh4","1920","1080","de","el06as26","null","","","","learningBlock2","","","","<div style=""font-size:60px;""> </div>","null","FL","learning/Slide88.JPG","That was a tob.","",""
"","image-keyboard-response","272","377407","0.0-8.0-0.8","FL","5jpxbwcfh4","1920","1080","de","el06as26","null","","","","","","","","learning/Slide89.JPG","null","","","","",""
"","html-keyboard-response","273","378571","0.0-8.0-1.8","FL","5jpxbwcfh4","1920","1080","de","el06as26","null","","","","learningBlock2","","","","That was a bim.","null","","","","",""
"","html-keyboard-response","274","379573","0.0-8.0-2.8","FL","5jpxbwcfh4","1920","1080","de","el06as26","null","","","","learningBlock2","","","","<div style=""font-size:60px;""> </div>","null","FL","learning/Slide89.JPG","That was a bim.","",""
"","image-keyboard-response","275","379754","0.0-8.0-0.9","FL","5jpxbwcfh4","1920","1080","de","el06as26","null","","","","","","","","learning/Slide90.JPG","null","","","","",""
"","html-keyboard-response","276","380913","0.0-8.0-1.9","FL","5jpxbwcfh4","1920","1080","de","el06as26","null","","","","learningBlock2","","","","That was a dep.","null","","","","",""
"","html-keyboard-response","277","381917","0.0-8.0-2.9","FL","5jpxbwcfh4","1920","1080","de","el06as26","null","","","","learningBlock2","","","","<div style=""font-size:60px;""> </div>","null","FL","learning/Slide90.JPG","That was a dep.","",""
"","image-keyboard-response","278","382094","0.0-8.0-0.10","FL","5jpxbwcfh4","1920","1080","de","el06as26","null","","","","","","","","learning/Slide91.JPG","null","","","","",""
"","html-keyboard-response","279","383251","0.0-8.0-1.10","FL","5jpxbwcfh4","1920","1080","de","el06as26","null","","","","learningBlock2","","","","That was a wug.","null","","","","",""
"","html-keyboard-response","280","384254","0.0-8.0-2.10","FL","5jpxbwcfh4","1920","1080","de","el06as26","null","","","","learningBlock2","","","","<div style=""font-size:60px;""> </div>","null","FL","learning/Slide91.JPG","That was a wug.","",""
"","image-keyboard-response","281","384432","0.0-8.0-0.11","FL","5jpxbwcfh4","1920","1080","de","el06as26","null","","","","","","","","learning/Slide92.JPG","null","","","","",""
"","html-keyboard-response","282","385588","0.0-8.0-1.11","FL","5jpxbwcfh4","1920","1080","de","el06as26","null","","","","learningBlock2","","","","That was a tob.","null","","","","",""
"","html-keyboard-response","283","386590","0.0-8.0-2.11","FL","5jpxbwcfh4","1920","1080","de","el06as26","null","","","","learningBlock2","","","","<div style=""font-size:60px;""> </div>","null","FL","learning/Slide92.JPG","That was a tob.","",""
"","image-keyboard-response","284","386768","0.0-8.0-0.12","FL","5jpxbwcfh4","1920","1080","de","el06as26","null","","","","","","","","learning/Slide93.JPG","null","","","","",""
"","html-keyboard-response","285","387925","0.0-8.0-1.12","FL","5jpxbwcfh4","1920","1080","de","el06as26","null","","","","learningBlock2","","","","That was a bim.","null","","","","",""
"","html-keyboard-response","286","388930","0.0-8.0-2.12","FL","5jpxbwcfh4","1920","1080","de","el06as26","null","","","","learningBlock2","","","","<div style=""font-size:60px;""> </div>","null","FL","learning/Slide93.JPG","That was a bim.","",""
"","image-keyboard-response","287","389109","0.0-8.0-0.13","FL","5jpxbwcfh4","1920","1080","de","el06as26","null","","","","","","","","learning/Slide94.JPG","null","","","","",""
"","html-keyboard-response","288","390267","0.0-8.0-1.13","FL","5jpxbwcfh4","1920","1080","de","el06as26","null","","","","learningBlock2","","","","That was a tob.","null","","","","",""
"","html-keyboard-response","289","391271","0.0-8.0-2.13","FL","5jpxbwcfh4","1920","1080","de","el06as26","null","","","","learningBlock2","","","","<div style=""font-size:60px;""> </div>","null","FL","learning/Slide94.JPG","That was a tob.","",""
"","image-keyboard-response","290","391447","0.0-8.0-0.14","FL","5jpxbwcfh4","1920","1080","de","el06as26","null","","","","","","","","learning/Slide95.JPG","null","","","","",""
"","html-keyboard-response","291","392604","0.0-8.0-1.14","FL","5jpxbwcfh4","1920","1080","de","el06as26","null","","","","learningBlock2","","","","That was a wug.","null","","","","",""
"","html-keyboard-response","292","393611","0.0-8.0-2.14","FL","5jpxbwcfh4","1920","1080","de","el06as26","null","","","","learningBlock2","","","","<div style=""font-size:60px;""> </div>","null","FL","learning/Slide95.JPG","That was a wug.","",""
"","image-keyboard-response","293","393792","0.0-8.0-0.15","FL","5jpxbwcfh4","1920","1080","de","el06as26","null","","","","","","","","learning/Slide96.JPG","null","","","","",""
"","html-keyboard-response","294","394948","0.0-8.0-1.15","FL","5jpxbwcfh4","1920","1080","de","el06as26","null","","","","learningBlock2","","","","That was a tob.","null","","","","",""
"","html-keyboard-response","295","395953","0.0-8.0-2.15","FL","5jpxbwcfh4","1920","1080","de","el06as26","null","","","","learningBlock2","","","","<div style=""font-size:60px;""> </div>","null","FL","learning/Slide96.JPG","That was a tob.","",""
"","image-keyboard-response","296","396134","0.0-8.0-0.16","FL","5jpxbwcfh4","1920","1080","de","el06as26","null","","","","","","","","learning/Slide97.JPG","null","","","","",""
"","html-keyboard-response","297","397296","0.0-8.0-1.16","FL","5jpxbwcfh4","1920","1080","de","el06as26","null","","","","learningBlock2","","","","That was a dep.","null","","","","",""
"","html-keyboard-response","298","398299","0.0-8.0-2.16","FL","5jpxbwcfh4","1920","1080","de","el06as26","null","","","","learningBlock2","","","","<div style=""font-size:60px;""> </div>","null","FL","learning/Slide97.JPG","That was a dep.","",""
"","image-keyboard-response","299","398478","0.0-8.0-0.17","FL","5jpxbwcfh4","1920","1080","de","el06as26","null","","","","","","","","learning/Slide98.JPG","null","","","","",""
"","html-keyboard-response","300","399635","0.0-8.0-1.17","FL","5jpxbwcfh4","1920","1080","de","el06as26","null","","","","learningBlock2","","","","That was a bim.","null","","","","",""
"","html-keyboard-response","301","400638","0.0-8.0-2.17","FL","5jpxbwcfh4","1920","1080","de","el06as26","null","","","","learningBlock2","","","","<div style=""font-size:60px;""> </div>","null","FL","learning/Slide98.JPG","That was a bim.","",""
"","image-keyboard-response","302","400818","0.0-8.0-0.18","FL","5jpxbwcfh4","1920","1080","de","el06as26","null","","","","","","","","learning/Slide99.JPG","null","","","","",""
"","html-keyboard-response","303","401974","0.0-8.0-1.18","FL","5jpxbwcfh4","1920","1080","de","el06as26","null","","","","learningBlock2","","","","That was a dep.","null","","","","",""
"","html-keyboard-response","304","402978","0.0-8.0-2.18","FL","5jpxbwcfh4","1920","1080","de","el06as26","null","","","","learningBlock2","","","","<div style=""font-size:60px;""> </div>","null","FL","learning/Slide99.JPG","That was a dep.","",""
"","image-keyboard-response","305","403156","0.0-8.0-0.19","FL","5jpxbwcfh4","1920","1080","de","el06as26","null","","","","","","","","learning/Slide100.JPG","null","","","","",""
"","html-keyboard-response","306","404311","0.0-8.0-1.19","FL","5jpxbwcfh4","1920","1080","de","el06as26","null","","","","learningBlock2","","","","That was a bim.","null","","","","",""
"","html-keyboard-response","307","405314","0.0-8.0-2.19","FL","5jpxbwcfh4","1920","1080","de","el06as26","null","","","","learningBlock2","","","","<div style=""font-size:60px;""> </div>","null","FL","learning/Slide100.JPG","That was a bim.","",""
"","image-keyboard-response","308","405495","0.0-8.0-0.20","FL","5jpxbwcfh4","1920","1080","de","el06as26","null","","","","","","","","learning/Slide101.JPG","null","","","","",""
"","html-keyboard-response","309","406655","0.0-8.0-1.20","FL","5jpxbwcfh4","1920","1080","de","el06as26","null","","","","learningBlock2","","","","That was a tob.","null","","","","",""
"","html-keyboard-response","310","407658","0.0-8.0-2.20","FL","5jpxbwcfh4","1920","1080","de","el06as26","null","","","","learningBlock2","","","","<div style=""font-size:60px;""> </div>","null","FL","learning/Slide101.JPG","That was a tob.","",""
"","image-keyboard-response","311","407835","0.0-8.0-0.21","FL","5jpxbwcfh4","1920","1080","de","el06as26","null","","","","","","","","learning/Slide102.JPG","null","","","","",""
"","html-keyboard-response","312","408990","0.0-8.0-1.21","FL","5jpxbwcfh4","1920","1080","de","el06as26","null","","","","learningBlock2","","","","That was a bim.","null","","","","",""
"","html-keyboard-response","313","409993","0.0-8.0-2.21","FL","5jpxbwcfh4","1920","1080","de","el06as26","null","","","","learningBlock2","","","","<div style=""font-size:60px;""> </div>","null","FL","learning/Slide102.JPG","That was a bim.","",""
"","image-keyboard-response","314","410172","0.0-8.0-0.22","FL","5jpxbwcfh4","1920","1080","de","el06as26","null","","","","","","","","learning/Slide103.JPG","null","","","","",""
"","html-keyboard-response","315","411326","0.0-8.0-1.22","FL","5jpxbwcfh4","1920","1080","de","el06as26","null","","","","learningBlock2","","","","That was a dep.","null","","","","",""
"","html-keyboard-response","316","412331","0.0-8.0-2.22","FL","5jpxbwcfh4","1920","1080","de","el06as26","null","","","","learningBlock2","","","","<div style=""font-size:60px;""> </div>","null","FL","learning/Slide103.JPG","That was a dep.","",""
"","image-keyboard-response","317","412513","0.0-8.0-0.23","FL","5jpxbwcfh4","1920","1080","de","el06as26","null","","","","","","","","learning/Slide104.JPG","null","","","","",""
"","html-keyboard-response","318","413669","0.0-8.0-1.23","FL","5jpxbwcfh4","1920","1080","de","el06as26","null","","","","learningBlock2","","","","That was a tob.","null","","","","",""
"","html-keyboard-response","319","414672","0.0-8.0-2.23","FL","5jpxbwcfh4","1920","1080","de","el06as26","null","","","","learningBlock2","","","","<div style=""font-size:60px;""> </div>","null","FL","learning/Slide104.JPG","That was a tob.","",""
"","image-keyboard-response","320","414851","0.0-8.0-0.24","FL","5jpxbwcfh4","1920","1080","de","el06as26","null","","","","","","","","learning/Slide105.JPG","null","","","","",""
"","html-keyboard-response","321","416009","0.0-8.0-1.24","FL","5jpxbwcfh4","1920","1080","de","el06as26","null","","","","learningBlock2","","","","That was a dep.","null","","","","",""
"","html-keyboard-response","322","417013","0.0-8.0-2.24","FL","5jpxbwcfh4","1920","1080","de","el06as26","null","","","","learningBlock2","","","","<div style=""font-size:60px;""> </div>","null","FL","learning/Slide105.JPG","That was a dep.","",""
"","image-keyboard-response","323","417190","0.0-8.0-0.25","FL","5jpxbwcfh4","1920","1080","de","el06as26","null","","","","","","","","learning/Slide106.JPG","null","","","","",""
"","html-keyboard-response","324","418347","0.0-8.0-1.25","FL","5jpxbwcfh4","1920","1080","de","el06as26","null","","","","learningBlock2","","","","That was a wug.","null","","","","",""
"","html-keyboard-response","325","419352","0.0-8.0-2.25","FL","5jpxbwcfh4","1920","1080","de","el06as26","null","","","","learningBlock2","","","","<div style=""font-size:60px;""> </div>","null","FL","learning/Slide106.JPG","That was a wug.","",""
"","image-keyboard-response","326","419531","0.0-8.0-0.26","FL","5jpxbwcfh4","1920","1080","de","el06as26","null","","","","","","","","learning/Slide107.JPG","null","","","","",""
"","html-keyboard-response","327","420686","0.0-8.0-1.26","FL","5jpxbwcfh4","1920","1080","de","el06as26","null","","","","learningBlock2","","","","That was a bim.","null","","","","",""
"","html-keyboard-response","328","421692","0.0-8.0-2.26","FL","5jpxbwcfh4","1920","1080","de","el06as26","null","","","","learningBlock2","","","","<div style=""font-size:60px;""> </div>","null","FL","learning/Slide107.JPG","That was a bim.","",""
"","image-keyboard-response","329","421874","0.0-8.0-0.27","FL","5jpxbwcfh4","1920","1080","de","el06as26","null","","","","","","","","learning/Slide108.JPG","null","","","","",""
"","html-keyboard-response","330","423029","0.0-8.0-1.27","FL","5jpxbwcfh4","1920","1080","de","el06as26","null","","","","learningBlock2","","","","That was a dep.","null","","","","",""
"","html-keyboard-response","331","424031","0.0-8.0-2.27","FL","5jpxbwcfh4","1920","1080","de","el06as26","null","","","","learningBlock2","","","","<div style=""font-size:60px;""> </div>","null","FL","learning/Slide108.JPG","That was a dep.","",""
"","image-keyboard-response","332","424213","0.0-8.0-0.28","FL","5jpxbwcfh4","1920","1080","de","el06as26","null","","","","","","","","learning/Slide109.JPG","null","","","","",""
"","html-keyboard-response","333","425372","0.0-8.0-1.28","FL","5jpxbwcfh4","1920","1080","de","el06as26","null","","","","learningBlock2","","","","That was a wug.","null","","","","",""
"","html-keyboard-response","334","426373","0.0-8.0-2.28","FL","5jpxbwcfh4","1920","1080","de","el06as26","null","","","","learningBlock2","","","","<div style=""font-size:60px;""> </div>","null","FL","learning/Slide109.JPG","That was a wug.","",""
"","image-keyboard-response","335","426551","0.0-8.0-0.29","FL","5jpxbwcfh4","1920","1080","de","el06as26","null","","","","","","","","learning/Slide110.JPG","null","","","","",""
"","html-keyboard-response","336","427711","0.0-8.0-1.29","FL","5jpxbwcfh4","1920","1080","de","el06as26","null","","","","learningBlock2","","","","That was a bim.","null","","","","",""
"","html-keyboard-response","337","428713","0.0-8.0-2.29","FL","5jpxbwcfh4","1920","1080","de","el06as26","null","","","","learningBlock2","","","","<div style=""font-size:60px;""> </div>","null","FL","learning/Slide110.JPG","That was a bim.","",""
"","image-keyboard-response","338","428891","0.0-8.0-0.30","FL","5jpxbwcfh4","1920","1080","de","el06as26","null","","","","","","","","learning/Slide111.JPG","null","","","","",""
"","html-keyboard-response","339","430051","0.0-8.0-1.30","FL","5jpxbwcfh4","1920","1080","de","el06as26","null","","","","learningBlock2","","","","That was a tob.","null","","","","",""
"","html-keyboard-response","340","431055","0.0-8.0-2.30","FL","5jpxbwcfh4","1920","1080","de","el06as26","null","","","","learningBlock2","","","","<div style=""font-size:60px;""> </div>","null","FL","learning/Slide111.JPG","That was a tob.","",""
"","image-keyboard-response","341","431237","0.0-8.0-0.31","FL","5jpxbwcfh4","1920","1080","de","el06as26","null","","","","","","","","learning/Slide112.JPG","null","","","","",""
"","html-keyboard-response","342","432393","0.0-8.0-1.31","FL","5jpxbwcfh4","1920","1080","de","el06as26","null","","","","learningBlock2","","","","That was a wug.","null","","","","",""
"","html-keyboard-response","343","433401","0.0-8.0-2.31","FL","5jpxbwcfh4","1920","1080","de","el06as26","null","","","","learningBlock2","","","","<div style=""font-size:60px;""> </div>","null","FL","learning/Slide112.JPG","That was a wug.","",""
"","image-keyboard-response","344","433582","0.0-8.0-0.32","FL","5jpxbwcfh4","1920","1080","de","el06as26","null","","","","","","","","learning/Slide113.JPG","null","","","","",""
"","html-keyboard-response","345","434738","0.0-8.0-1.32","FL","5jpxbwcfh4","1920","1080","de","el06as26","null","","","","learningBlock2","","","","That was a tob.","null","","","","",""
"","html-keyboard-response","346","435741","0.0-8.0-2.32","FL","5jpxbwcfh4","1920","1080","de","el06as26","null","","","","learningBlock2","","","","<div style=""font-size:60px;""> </div>","null","FL","learning/Slide113.JPG","That was a tob.","",""
"","image-keyboard-response","347","435922","0.0-8.0-0.33","FL","5jpxbwcfh4","1920","1080","de","el06as26","null","","","","","","","","learning/Slide114.JPG","null","","","","",""
"","html-keyboard-response","348","437081","0.0-8.0-1.33","FL","5jpxbwcfh4","1920","1080","de","el06as26","null","","","","learningBlock2","","","","That was a wug.","null","","","","",""
"","html-keyboard-response","349","438084","0.0-8.0-2.33","FL","5jpxbwcfh4","1920","1080","de","el06as26","null","","","","learningBlock2","","","","<div style=""font-size:60px;""> </div>","null","FL","learning/Slide114.JPG","That was a wug.","",""
"","image-keyboard-response","350","438263","0.0-8.0-0.34","FL","5jpxbwcfh4","1920","1080","de","el06as26","null","","","","","","","","learning/Slide115.JPG","null","","","","",""
"","html-keyboard-response","351","439419","0.0-8.0-1.34","FL","5jpxbwcfh4","1920","1080","de","el06as26","null","","","","learningBlock2","","","","That was a bim.","null","","","","",""
"","html-keyboard-response","352","440423","0.0-8.0-2.34","FL","5jpxbwcfh4","1920","1080","de","el06as26","null","","","","learningBlock2","","","","<div style=""font-size:60px;""> </div>","null","FL","learning/Slide115.JPG","That was a bim.","",""
"","image-keyboard-response","353","440603","0.0-8.0-0.35","FL","5jpxbwcfh4","1920","1080","de","el06as26","null","","","","","","","","learning/Slide116.JPG","null","","","","",""
"","html-keyboard-response","354","441760","0.0-8.0-1.35","FL","5jpxbwcfh4","1920","1080","de","el06as26","null","","","","learningBlock2","","","","That was a dep.","null","","","","",""
"","html-keyboard-response","355","442765","0.0-8.0-2.35","FL","5jpxbwcfh4","1920","1080","de","el06as26","null","","","","learningBlock2","","","","<div style=""font-size:60px;""> </div>","null","FL","learning/Slide116.JPG","That was a dep.","",""
"","image-keyboard-response","356","442942","0.0-8.0-0.36","FL","5jpxbwcfh4","1920","1080","de","el06as26","null","","","","","","","","learning/Slide117.JPG","null","","","","",""
"","html-keyboard-response","357","444096","0.0-8.0-1.36","FL","5jpxbwcfh4","1920","1080","de","el06as26","null","","","","learningBlock2","","","","That was a tob.","null","","","","",""
"","html-keyboard-response","358","445102","0.0-8.0-2.36","FL","5jpxbwcfh4","1920","1080","de","el06as26","null","","","","learningBlock2","","","","<div style=""font-size:60px;""> </div>","null","FL","learning/Slide117.JPG","That was a tob.","",""
"","image-keyboard-response","359","445283","0.0-8.0-0.37","FL","5jpxbwcfh4","1920","1080","de","el06as26","null","","","","","","","","learning/Slide118.JPG","null","","","","",""
"","html-keyboard-response","360","446442","0.0-8.0-1.37","FL","5jpxbwcfh4","1920","1080","de","el06as26","null","","","","learningBlock2","","","","That was a dep.","null","","","","",""
"","html-keyboard-response","361","447448","0.0-8.0-2.37","FL","5jpxbwcfh4","1920","1080","de","el06as26","null","","","","learningBlock2","","","","<div style=""font-size:60px;""> </div>","null","FL","learning/Slide118.JPG","That was a dep.","",""
"","image-keyboard-response","362","447628","0.0-8.0-0.38","FL","5jpxbwcfh4","1920","1080","de","el06as26","null","","","","","","","","learning/Slide119.JPG","null","","","","",""
"","html-keyboard-response","363","448783","0.0-8.0-1.38","FL","5jpxbwcfh4","1920","1080","de","el06as26","null","","","","learningBlock2","","","","That was a wug.","null","","","","",""
"","html-keyboard-response","364","449787","0.0-8.0-2.38","FL","5jpxbwcfh4","1920","1080","de","el06as26","null","","","","learningBlock2","","","","<div style=""font-size:60px;""> </div>","null","FL","learning/Slide119.JPG","That was a wug.","",""
"","image-keyboard-response","365","449964","0.0-8.0-0.39","FL","5jpxbwcfh4","1920","1080","de","el06as26","null","","","","","","","","learning/Slide120.JPG","null","","","","",""
"","html-keyboard-response","366","451122","0.0-8.0-1.39","FL","5jpxbwcfh4","1920","1080","de","el06as26","null","","","","learningBlock2","","","","That was a dep.","null","","","","",""
"","html-keyboard-response","367","452124","0.0-8.0-2.39","FL","5jpxbwcfh4","1920","1080","de","el06as26","null","","","","learningBlock2","","","","<div style=""font-size:60px;""> </div>","null","FL","learning/Slide120.JPG","That was a dep.","",""
"","image-keyboard-response","368","452302","0.0-8.0-0.40","FL","5jpxbwcfh4","1920","1080","de","el06as26","null","","","","","","","","learning/Slide121.JPG","null","","","","",""
"","html-keyboard-response","369","453461","0.0-8.0-1.40","FL","5jpxbwcfh4","1920","1080","de","el06as26","null","","","","learningBlock2","","","","That was a bim.","null","","","","",""
"","html-keyboard-response","370","454465","0.0-8.0-2.40","FL","5jpxbwcfh4","1920","1080","de","el06as26","null","","","","learningBlock2","","","","<div style=""font-size:60px;""> </div>","null","FL","learning/Slide121.JPG","That was a bim.","",""
"","image-keyboard-response","371","454645","0.0-8.0-0.41","FL","5jpxbwcfh4","1920","1080","de","el06as26","null","","","","","","","","learning/Slide122.JPG","null","","","","",""
"","html-keyboard-response","372","455801","0.0-8.0-1.41","FL","5jpxbwcfh4","1920","1080","de","el06as26","null","","","","learningBlock2","","","","That was a wug.","null","","","","",""
"","html-keyboard-response","373","456804","0.0-8.0-2.41","FL","5jpxbwcfh4","1920","1080","de","el06as26","null","","","","learningBlock2","","","","<div style=""font-size:60px;""> </div>","null","FL","learning/Slide122.JPG","That was a wug.","",""
"","image-keyboard-response","374","456987","0.0-8.0-0.42","FL","5jpxbwcfh4","1920","1080","de","el06as26","null","","","","","","","","learning/Slide123.JPG","null","","","","",""
"","html-keyboard-response","375","458142","0.0-8.0-1.42","FL","5jpxbwcfh4","1920","1080","de","el06as26","null","","","","learningBlock2","","","","That was a bim.","null","","","","",""
"","html-keyboard-response","376","459144","0.0-8.0-2.42","FL","5jpxbwcfh4","1920","1080","de","el06as26","null","","","","learningBlock2","","","","<div style=""font-size:60px;""> </div>","null","FL","learning/Slide123.JPG","That was a bim.","",""
"","image-keyboard-response","377","459323","0.0-8.0-0.43","FL","5jpxbwcfh4","1920","1080","de","el06as26","null","","","","","","","","learning/Slide124.JPG","null","","","","",""
"","html-keyboard-response","378","460482","0.0-8.0-1.43","FL","5jpxbwcfh4","1920","1080","de","el06as26","null","","","","learningBlock2","","","","That was a tob.","null","","","","",""
"","html-keyboard-response","379","461487","0.0-8.0-2.43","FL","5jpxbwcfh4","1920","1080","de","el06as26","null","","","","learningBlock2","","","","<div style=""font-size:60px;""> </div>","null","FL","learning/Slide124.JPG","That was a tob.","",""
"","image-keyboard-response","380","461664","0.0-8.0-0.44","FL","5jpxbwcfh4","1920","1080","de","el06as26","null","","","","","","","","learning/Slide125.JPG","null","","","","",""
"","html-keyboard-response","381","462816","0.0-8.0-1.44","FL","5jpxbwcfh4","1920","1080","de","el06as26","null","","","","learningBlock2","","","","That was a bim.","null","","","","",""
"","html-keyboard-response","382","463821","0.0-8.0-2.44","FL","5jpxbwcfh4","1920","1080","de","el06as26","null","","","","learningBlock2","","","","<div style=""font-size:60px;""> </div>","null","FL","learning/Slide125.JPG","That was a bim.","",""
"","image-keyboard-response","383","464001","0.0-8.0-0.45","FL","5jpxbwcfh4","1920","1080","de","el06as26","null","","","","","","","","learning/Slide126.JPG","null","","","","",""
"","html-keyboard-response","384","465154","0.0-8.0-1.45","FL","5jpxbwcfh4","1920","1080","de","el06as26","null","","","","learningBlock2","","","","That was a tob.","null","","","","",""
"","html-keyboard-response","385","466158","0.0-8.0-2.45","FL","5jpxbwcfh4","1920","1080","de","el06as26","null","","","","learningBlock2","","","","<div style=""font-size:60px;""> </div>","null","FL","learning/Slide126.JPG","That was a tob.","",""
"","image-keyboard-response","386","466338","0.0-8.0-0.46","FL","5jpxbwcfh4","1920","1080","de","el06as26","null","","","","","","","","learning/Slide127.JPG","null","","","","",""
"","html-keyboard-response","387","467492","0.0-8.0-1.46","FL","5jpxbwcfh4","1920","1080","de","el06as26","null","","","","learningBlock2","","","","That was a dep.","null","","","","",""
"","html-keyboard-response","388","468495","0.0-8.0-2.46","FL","5jpxbwcfh4","1920","1080","de","el06as26","null","","","","learningBlock2","","","","<div style=""font-size:60px;""> </div>","null","FL","learning/Slide127.JPG","That was a dep.","",""
"","image-keyboard-response","389","468675","0.0-8.0-0.47","FL","5jpxbwcfh4","1920","1080","de","el06as26","null","","","","","","","","learning/Slide128.JPG","null","","","","",""
"","html-keyboard-response","390","469833","0.0-8.0-1.47","FL","5jpxbwcfh4","1920","1080","de","el06as26","null","","","","learningBlock2","","","","That was a wug.","null","","","","",""
"","html-keyboard-response","391","470837","0.0-8.0-2.47","FL","5jpxbwcfh4","1920","1080","de","el06as26","null","","","","learningBlock2","","","","<div style=""font-size:60px;""> </div>","null","FL","learning/Slide128.JPG","That was a wug.","",""
"","image-keyboard-response","392","471014","0.0-8.0-0.48","FL","5jpxbwcfh4","1920","1080","de","el06as26","null","","","","","","","","learning/Slide129.JPG","null","","","","",""
"","html-keyboard-response","393","472170","0.0-8.0-1.48","FL","5jpxbwcfh4","1920","1080","de","el06as26","null","","","","learningBlock2","","","","That was a tob.","null","","","","",""
"","html-keyboard-response","394","473174","0.0-8.0-2.48","FL","5jpxbwcfh4","1920","1080","de","el06as26","null","","","","learningBlock2","","","","<div style=""font-size:60px;""> </div>","null","FL","learning/Slide129.JPG","That was a tob.","",""
"","image-keyboard-response","395","473354","0.0-8.0-0.49","FL","5jpxbwcfh4","1920","1080","de","el06as26","null","","","","","","","","learning/Slide130.JPG","null","","","","",""
"","html-keyboard-response","396","474510","0.0-8.0-1.49","FL","5jpxbwcfh4","1920","1080","de","el06as26","null","","","","learningBlock2","","","","That was a wug.","null","","","","",""
"","html-keyboard-response","397","475514","0.0-8.0-2.49","FL","5jpxbwcfh4","1920","1080","de","el06as26","null","","","","learningBlock2","","","","<div style=""font-size:60px;""> </div>","null","FL","learning/Slide130.JPG","That was a wug.","",""
"","image-keyboard-response","398","475696","0.0-8.0-0.50","FL","5jpxbwcfh4","1920","1080","de","el06as26","null","","","","","","","","learning/Slide131.JPG","null","","","","",""
"","html-keyboard-response","399","476857","0.0-8.0-1.50","FL","5jpxbwcfh4","1920","1080","de","el06as26","null","","","","learningBlock2","","","","That was a bim.","null","","","","",""
"","html-keyboard-response","400","477864","0.0-8.0-2.50","FL","5jpxbwcfh4","1920","1080","de","el06as26","null","","","","learningBlock2","","","","<div style=""font-size:60px;""> </div>","null","FL","learning/Slide131.JPG","That was a bim.","",""
"","image-keyboard-response","401","478046","0.0-8.0-0.51","FL","5jpxbwcfh4","1920","1080","de","el06as26","null","","","","","","","","learning/Slide132.JPG","null","","","","",""
"","html-keyboard-response","402","479201","0.0-8.0-1.51","FL","5jpxbwcfh4","1920","1080","de","el06as26","null","","","","learningBlock2","","","","That was a dep.","null","","","","",""
"","html-keyboard-response","403","480203","0.0-8.0-2.51","FL","5jpxbwcfh4","1920","1080","de","el06as26","null","","","","learningBlock2","","","","<div style=""font-size:60px;""> </div>","null","FL","learning/Slide132.JPG","That was a dep.","",""
"","image-keyboard-response","404","480384","0.0-8.0-0.52","FL","5jpxbwcfh4","1920","1080","de","el06as26","null","","","","","","","","learning/Slide133.JPG","null","","","","",""
"","html-keyboard-response","405","481543","0.0-8.0-1.52","FL","5jpxbwcfh4","1920","1080","de","el06as26","null","","","","learningBlock2","","","","That was a tob.","null","","","","",""
"","html-keyboard-response","406","482546","0.0-8.0-2.52","FL","5jpxbwcfh4","1920","1080","de","el06as26","null","","","","learningBlock2","","","","<div style=""font-size:60px;""> </div>","null","FL","learning/Slide133.JPG","That was a tob.","",""
"","image-keyboard-response","407","482723","0.0-8.0-0.53","FL","5jpxbwcfh4","1920","1080","de","el06as26","null","","","","","","","","learning/Slide134.JPG","null","","","","",""
"","html-keyboard-response","408","483875","0.0-8.0-1.53","FL","5jpxbwcfh4","1920","1080","de","el06as26","null","","","","learningBlock2","","","","That was a dep.","null","","","","",""
"","html-keyboard-response","409","484881","0.0-8.0-2.53","FL","5jpxbwcfh4","1920","1080","de","el06as26","null","","","","learningBlock2","","","","<div style=""font-size:60px;""> </div>","null","FL","learning/Slide134.JPG","That was a dep.","",""
"","image-keyboard-response","410","485064","0.0-8.0-0.54","FL","5jpxbwcfh4","1920","1080","de","el06as26","null","","","","","","","","learning/Slide135.JPG","null","","","","",""
"","html-keyboard-response","411","486217","0.0-8.0-1.54","FL","5jpxbwcfh4","1920","1080","de","el06as26","null","","","","learningBlock2","","","","That was a tob.","null","","","","",""
"","html-keyboard-response","412","487223","0.0-8.0-2.54","FL","5jpxbwcfh4","1920","1080","de","el06as26","null","","","","learningBlock2","","","","<div style=""font-size:60px;""> </div>","null","FL","learning/Slide135.JPG","That was a tob.","",""
"","image-keyboard-response","413","487402","0.0-8.0-0.55","FL","5jpxbwcfh4","1920","1080","de","el06as26","null","","","","","","","","learning/Slide136.JPG","null","","","","",""
"","html-keyboard-response","414","488562","0.0-8.0-1.55","FL","5jpxbwcfh4","1920","1080","de","el06as26","null","","","","learningBlock2","","","","That was a wug.","null","","","","",""
"","html-keyboard-response","415","489565","0.0-8.0-2.55","FL","5jpxbwcfh4","1920","1080","de","el06as26","null","","","","learningBlock2","","","","<div style=""font-size:60px;""> </div>","null","FL","learning/Slide136.JPG","That was a wug.","",""
"","image-keyboard-response","416","489742","0.0-8.0-0.56","FL","5jpxbwcfh4","1920","1080","de","el06as26","null","","","","","","","","learning/Slide137.JPG","null","","","","",""
"","html-keyboard-response","417","490900","0.0-8.0-1.56","FL","5jpxbwcfh4","1920","1080","de","el06as26","null","","","","learningBlock2","","","","That was a tob.","null","","","","",""
"","html-keyboard-response","418","491906","0.0-8.0-2.56","FL","5jpxbwcfh4","1920","1080","de","el06as26","null","","","","learningBlock2","","","","<div style=""font-size:60px;""> </div>","null","FL","learning/Slide137.JPG","That was a tob.","",""
"","image-keyboard-response","419","492088","0.0-8.0-0.57","FL","5jpxbwcfh4","1920","1080","de","el06as26","null","","","","","","","","learning/Slide138.JPG","null","","","","",""
"","html-keyboard-response","420","493242","0.0-8.0-1.57","FL","5jpxbwcfh4","1920","1080","de","el06as26","null","","","","learningBlock2","","","","That was a bim.","null","","","","",""
"","html-keyboard-response","421","494246","0.0-8.0-2.57","FL","5jpxbwcfh4","1920","1080","de","el06as26","null","","","","learningBlock2","","","","<div style=""font-size:60px;""> </div>","null","FL","learning/Slide138.JPG","That was a bim.","",""
"","image-keyboard-response","422","494425","0.0-8.0-0.58","FL","5jpxbwcfh4","1920","1080","de","el06as26","null","","","","","","","","learning/Slide139.JPG","null","","","","",""
"","html-keyboard-response","423","495583","0.0-8.0-1.58","FL","5jpxbwcfh4","1920","1080","de","el06as26","null","","","","learningBlock2","","","","That was a wug.","null","","","","",""
"","html-keyboard-response","424","496585","0.0-8.0-2.58","FL","5jpxbwcfh4","1920","1080","de","el06as26","null","","","","learningBlock2","","","","<div style=""font-size:60px;""> </div>","null","FL","learning/Slide139.JPG","That was a wug.","",""
"","image-keyboard-response","425","496764","0.0-8.0-0.59","FL","5jpxbwcfh4","1920","1080","de","el06as26","null","","","","","","","","learning/Slide140.JPG","null","","","","",""
"","html-keyboard-response","426","497924","0.0-8.0-1.59","FL","5jpxbwcfh4","1920","1080","de","el06as26","null","","","","learningBlock2","","","","That was a dep.","null","","","","",""
"","html-keyboard-response","427","498930","0.0-8.0-2.59","FL","5jpxbwcfh4","1920","1080","de","el06as26","null","","","","learningBlock2","","","","<div style=""font-size:60px;""> </div>","null","FL","learning/Slide140.JPG","That was a dep.","",""
"","image-keyboard-response","428","499112","0.0-8.0-0.60","FL","5jpxbwcfh4","1920","1080","de","el06as26","null","","","","","","","","learning/Slide141.JPG","null","","","","",""
"","html-keyboard-response","429","500272","0.0-8.0-1.60","FL","5jpxbwcfh4","1920","1080","de","el06as26","null","","","","learningBlock2","","","","That was a tob.","null","","","","",""
"","html-keyboard-response","430","501275","0.0-8.0-2.60","FL","5jpxbwcfh4","1920","1080","de","el06as26","null","","","","learningBlock2","","","","<div style=""font-size:60px;""> </div>","null","FL","learning/Slide141.JPG","That was a tob.","",""
"","image-keyboard-response","431","501456","0.0-8.0-0.61","FL","5jpxbwcfh4","1920","1080","de","el06as26","null","","","","","","","","learning/Slide142.JPG","null","","","","",""
"","html-keyboard-response","432","502617","0.0-8.0-1.61","FL","5jpxbwcfh4","1920","1080","de","el06as26","null","","","","learningBlock2","","","","That was a wug.","null","","","","",""
"","html-keyboard-response","433","503624","0.0-8.0-2.61","FL","5jpxbwcfh4","1920","1080","de","el06as26","null","","","","learningBlock2","","","","<div style=""font-size:60px;""> </div>","null","FL","learning/Slide142.JPG","That was a wug.","",""
"","image-keyboard-response","434","503801","0.0-8.0-0.62","FL","5jpxbwcfh4","1920","1080","de","el06as26","null","","","","","","","","learning/Slide143.JPG","null","","","","",""
"","html-keyboard-response","435","504958","0.0-8.0-1.62","FL","5jpxbwcfh4","1920","1080","de","el06as26","null","","","","learningBlock2","","","","That was a bim.","null","","","","",""
"","html-keyboard-response","436","505962","0.0-8.0-2.62","FL","5jpxbwcfh4","1920","1080","de","el06as26","null","","","","learningBlock2","","","","<div style=""font-size:60px;""> </div>","null","FL","learning/Slide143.JPG","That was a bim.","",""
"","image-keyboard-response","437","506141","0.0-8.0-0.63","FL","5jpxbwcfh4","1920","1080","de","el06as26","null","","","","","","","","learning/Slide144.JPG","null","","","","",""
"","html-keyboard-response","438","507296","0.0-8.0-1.63","FL","5jpxbwcfh4","1920","1080","de","el06as26","null","","","","learningBlock2","","","","That was a dep.","null","","","","",""
"","html-keyboard-response","439","508301","0.0-8.0-2.63","FL","5jpxbwcfh4","1920","1080","de","el06as26","null","","","","learningBlock2","","","","<div style=""font-size:60px;""> </div>","null","FL","learning/Slide144.JPG","That was a dep.","",""
"","image-keyboard-response","440","508483","0.0-8.0-0.64","FL","5jpxbwcfh4","1920","1080","de","el06as26","null","","","","","","","","learning/Slide145.JPG","null","","","","",""
"","html-keyboard-response","441","509643","0.0-8.0-1.64","FL","5jpxbwcfh4","1920","1080","de","el06as26","null","","","","learningBlock2","","","","That was a bim.","null","","","","",""
"","html-keyboard-response","442","510646","0.0-8.0-2.64","FL","5jpxbwcfh4","1920","1080","de","el06as26","null","","","","learningBlock2","","","","<div style=""font-size:60px;""> </div>","null","FL","learning/Slide145.JPG","That was a bim.","",""
"","image-keyboard-response","443","510826","0.0-8.0-0.65","FL","5jpxbwcfh4","1920","1080","de","el06as26","null","","","","","","","","learning/Slide146.JPG","null","","","","",""
"","html-keyboard-response","444","511981","0.0-8.0-1.65","FL","5jpxbwcfh4","1920","1080","de","el06as26","null","","","","learningBlock2","","","","That was a tob.","null","","","","",""
"","html-keyboard-response","445","512983","0.0-8.0-2.65","FL","5jpxbwcfh4","1920","1080","de","el06as26","null","","","","learningBlock2","","","","<div style=""font-size:60px;""> </div>","null","FL","learning/Slide146.JPG","That was a tob.","",""
"","image-keyboard-response","446","513163","0.0-8.0-0.66","FL","5jpxbwcfh4","1920","1080","de","el06as26","null","","","","","","","","learning/Slide147.JPG","null","","","","",""
"","html-keyboard-response","447","514321","0.0-8.0-1.66","FL","5jpxbwcfh4","1920","1080","de","el06as26","null","","","","learningBlock2","","","","That was a wug.","null","","","","",""
"","html-keyboard-response","448","515326","0.0-8.0-2.66","FL","5jpxbwcfh4","1920","1080","de","el06as26","null","","","","learningBlock2","","","","<div style=""font-size:60px;""> </div>","null","FL","learning/Slide147.JPG","That was a wug.","",""
"","image-keyboard-response","449","515506","0.0-8.0-0.67","FL","5jpxbwcfh4","1920","1080","de","el06as26","null","","","","","","","","learning/Slide148.JPG","null","","","","",""
"","html-keyboard-response","450","516662","0.0-8.0-1.67","FL","5jpxbwcfh4","1920","1080","de","el06as26","null","","","","learningBlock2","","","","That was a bim.","null","","","","",""
"","html-keyboard-response","451","517663","0.0-8.0-2.67","FL","5jpxbwcfh4","1920","1080","de","el06as26","null","","","","learningBlock2","","","","<div style=""font-size:60px;""> </div>","null","FL","learning/Slide148.JPG","That was a bim.","",""
"","image-keyboard-response","452","517841","0.0-8.0-0.68","FL","5jpxbwcfh4","1920","1080","de","el06as26","null","","","","","","","","learning/Slide149.JPG","null","","","","",""
"","html-keyboard-response","453","518997","0.0-8.0-1.68","FL","5jpxbwcfh4","1920","1080","de","el06as26","null","","","","learningBlock2","","","","That was a dep.","null","","","","",""
"","html-keyboard-response","454","520000","0.0-8.0-2.68","FL","5jpxbwcfh4","1920","1080","de","el06as26","null","","","","learningBlock2","","","","<div style=""font-size:60px;""> </div>","null","FL","learning/Slide149.JPG","That was a dep.","",""
"","image-keyboard-response","455","520179","0.0-8.0-0.69","FL","5jpxbwcfh4","1920","1080","de","el06as26","null","","","","","","","","learning/Slide150.JPG","null","","","","",""
"","html-keyboard-response","456","521336","0.0-8.0-1.69","FL","5jpxbwcfh4","1920","1080","de","el06as26","null","","","","learningBlock2","","","","That was a wug.","null","","","","",""
"","html-keyboard-response","457","522339","0.0-8.0-2.69","FL","5jpxbwcfh4","1920","1080","de","el06as26","null","","","","learningBlock2","","","","<div style=""font-size:60px;""> </div>","null","FL","learning/Slide150.JPG","That was a wug.","",""
"","image-keyboard-response","458","522516","0.0-8.0-0.70","FL","5jpxbwcfh4","1920","1080","de","el06as26","null","","","","","","","","learning/Slide151.JPG","null","","","","",""
"","html-keyboard-response","459","523673","0.0-8.0-1.70","FL","5jpxbwcfh4","1920","1080","de","el06as26","null","","","","learningBlock2","","","","That was a dep.","null","","","","",""
"","html-keyboard-response","460","524676","0.0-8.0-2.70","FL","5jpxbwcfh4","1920","1080","de","el06as26","null","","","","learningBlock2","","","","<div style=""font-size:60px;""> </div>","null","FL","learning/Slide151.JPG","That was a dep.","",""
"","image-keyboard-response","461","524856","0.0-8.0-0.71","FL","5jpxbwcfh4","1920","1080","de","el06as26","null","","","","","","","","learning/Slide152.JPG","null","","","","",""
"","html-keyboard-response","462","526015","0.0-8.0-1.71","FL","5jpxbwcfh4","1920","1080","de","el06as26","null","","","","learningBlock2","","","","That was a wug.","null","","","","",""
"","html-keyboard-response","463","527018","0.0-8.0-2.71","FL","5jpxbwcfh4","1920","1080","de","el06as26","null","","","","learningBlock2","","","","<div style=""font-size:60px;""> </div>","null","FL","learning/Slide152.JPG","That was a wug.","",""
"","image-keyboard-response","464","527199","0.0-8.0-0.72","FL","5jpxbwcfh4","1920","1080","de","el06as26","null","","","","","","","","learning/Slide153.JPG","null","","","","",""
"","html-keyboard-response","465","528355","0.0-8.0-1.72","FL","5jpxbwcfh4","1920","1080","de","el06as26","null","","","","learningBlock2","","","","That was a bim.","null","","","","",""
"","html-keyboard-response","466","529358","0.0-8.0-2.72","FL","5jpxbwcfh4","1920","1080","de","el06as26","null","","","","learningBlock2","","","","<div style=""font-size:60px;""> </div>","null","FL","learning/Slide153.JPG","That was a bim.","",""
"","image-keyboard-response","467","529536","0.0-8.0-0.73","FL","5jpxbwcfh4","1920","1080","de","el06as26","null","","","","","","","","learning/Slide154.JPG","null","","","","",""
"","html-keyboard-response","468","530693","0.0-8.0-1.73","FL","5jpxbwcfh4","1920","1080","de","el06as26","null","","","","learningBlock2","","","","That was a tob.","null","","","","",""
"","html-keyboard-response","469","531696","0.0-8.0-2.73","FL","5jpxbwcfh4","1920","1080","de","el06as26","null","","","","learningBlock2","","","","<div style=""font-size:60px;""> </div>","null","FL","learning/Slide154.JPG","That was a tob.","",""
"","image-keyboard-response","470","531874","0.0-8.0-0.74","FL","5jpxbwcfh4","1920","1080","de","el06as26","null","","","","","","","","learning/Slide155.JPG","null","","","","",""
"","html-keyboard-response","471","533031","0.0-8.0-1.74","FL","5jpxbwcfh4","1920","1080","de","el06as26","null","","","","learningBlock2","","","","That was a dep.","null","","","","",""
"","html-keyboard-response","472","534034","0.0-8.0-2.74","FL","5jpxbwcfh4","1920","1080","de","el06as26","null","","","","learningBlock2","","","","<div style=""font-size:60px;""> </div>","null","FL","learning/Slide155.JPG","That was a dep.","",""
"","image-keyboard-response","473","534212","0.0-8.0-0.75","FL","5jpxbwcfh4","1920","1080","de","el06as26","null","","","","","","","","learning/Slide156.JPG","null","","","","",""
"","html-keyboard-response","474","535370","0.0-8.0-1.75","FL","5jpxbwcfh4","1920","1080","de","el06as26","null","","","","learningBlock2","","","","That was a bim.","null","","","","",""
"","html-keyboard-response","475","536375","0.0-8.0-2.75","FL","5jpxbwcfh4","1920","1080","de","el06as26","null","","","","learningBlock2","","","","<div style=""font-size:60px;""> </div>","null","FL","learning/Slide156.JPG","That was a bim.","",""
"","image-keyboard-response","476","536553","0.0-8.0-0.76","FL","5jpxbwcfh4","1920","1080","de","el06as26","null","","","","","","","","learning/Slide157.JPG","null","","","","",""
"","html-keyboard-response","477","537712","0.0-8.0-1.76","FL","5jpxbwcfh4","1920","1080","de","el06as26","null","","","","learningBlock2","","","","That was a dep.","null","","","","",""
"","html-keyboard-response","478","538717","0.0-8.0-2.76","FL","5jpxbwcfh4","1920","1080","de","el06as26","null","","","","learningBlock2","","","","<div style=""font-size:60px;""> </div>","null","FL","learning/Slide157.JPG","That was a dep.","",""
"","image-keyboard-response","479","538893","0.0-8.0-0.77","FL","5jpxbwcfh4","1920","1080","de","el06as26","null","","","","","","","","learning/Slide158.JPG","null","","","","",""
"","html-keyboard-response","480","540052","0.0-8.0-1.77","FL","5jpxbwcfh4","1920","1080","de","el06as26","null","","","","learningBlock2","","","","That was a tob.","null","","","","",""
"","html-keyboard-response","481","541056","0.0-8.0-2.77","FL","5jpxbwcfh4","1920","1080","de","el06as26","null","","","","learningBlock2","","","","<div style=""font-size:60px;""> </div>","null","FL","learning/Slide158.JPG","That was a tob.","",""
"","image-keyboard-response","482","541233","0.0-8.0-0.78","FL","5jpxbwcfh4","1920","1080","de","el06as26","null","","","","","","","","learning/Slide159.JPG","null","","","","",""
"","html-keyboard-response","483","542393","0.0-8.0-1.78","FL","5jpxbwcfh4","1920","1080","de","el06as26","null","","","","learningBlock2","","","","That was a dep.","null","","","","",""
"","html-keyboard-response","484","543397","0.0-8.0-2.78","FL","5jpxbwcfh4","1920","1080","de","el06as26","null","","","","learningBlock2","","","","<div style=""font-size:60px;""> </div>","null","FL","learning/Slide159.JPG","That was a dep.","",""
"","image-keyboard-response","485","543574","0.0-8.0-0.79","FL","5jpxbwcfh4","1920","1080","de","el06as26","null","","","","","","","","learning/Slide160.JPG","null","","","","",""
