"success","trial_type","trial_index","time_elapsed","internal_node_id","condition","subject","screen_width","screen_height","language","codeword","rt","responses","url","view_history","test_part","final_height_px","final_width_px","scale_factor","stimulus","key_press","learningType","presentedImage","presentedLabel","button_pressed","response"
"true","fullscreen","0","6054","0.0-0.0","LF","kk4adj1drx","1280","720","de","en05es25","","","","","","","","","","","","","","",""
"","survey-html-form","1","15998","0.0-1.0","LF","kk4adj1drx","1280","720","de","en05es25","9936.890000011772","{""language"":""de""}","","","","","","","","","","","","",""
"","external-html","2","106868","0.0-2.0-0.0","LF","kk4adj1drx","1280","720","de","en05es25","90338.73499999754","","text/information.html","","","","","","","","","","","",""
"","external-html","3","147835","0.0-2.0-1.0","LF","kk4adj1drx","1280","720","de","en05es25","40182.15499998769","","text/consent.html","","","","","","","","","","","",""
"","survey-html-form","4","252086","0.0-2.0-2.0","LF","kk4adj1drx","1280","720","de","en05es25","104234.48500002269","{""codeword_enter"":""en05es25""}","","","","","","","","","","","","",""
"","instructions","5","269513","0.0-4.0","LF","kk4adj1drx","1280","720","de","en05es25","NA","","","[{""page_index"":0,""viewing_time"":3364.174999995157},{""page_index"":1,""viewing_time"":12547.009999980219}]","instructions","","","","","","","","","",""
"","resize","6","320139","0.0-5.0","LF","kk4adj1drx","1280","720","de","en05es25","","","","","","","356","2.2603174603174603","","","","","","",""
"","html-keyboard-response","7","321146","0.0-6.0-0.0","LF","kk4adj1drx","1280","720","de","en05es25","null","","","","learningBlock1","","","","This is a tob:","null","","","","",""
"","image-keyboard-response","8","321481","0.0-6.0-1.0","LF","kk4adj1drx","1280","720","de","en05es25","null","","","","","","","","learning/Slide1.JPG","null","","","","",""
"","html-keyboard-response","9","322483","0.0-6.0-2.0","LF","kk4adj1drx","1280","720","de","en05es25","null","","","","learningBlock1","","","","<div style=""font-size:60px;""> </div>","null","LF","learning/Slide1.JPG","This is a tob:","",""
"","html-keyboard-response","10","323493","0.0-6.0-0.1","LF","kk4adj1drx","1280","720","de","en05es25","null","","","","learningBlock1","","","","This is a wug:","null","","","","",""
"","image-keyboard-response","11","323838","0.0-6.0-1.1","LF","kk4adj1drx","1280","720","de","en05es25","null","","","","","","","","learning/Slide2.JPG","null","","","","",""
"","html-keyboard-response","12","324846","0.0-6.0-2.1","LF","kk4adj1drx","1280","720","de","en05es25","null","","","","learningBlock1","","","","<div style=""font-size:60px;""> </div>","null","LF","learning/Slide2.JPG","This is a wug:","",""
"","html-keyboard-response","13","325849","0.0-6.0-0.2","LF","kk4adj1drx","1280","720","de","en05es25","null","","","","learningBlock1","","","","This is a bim:","null","","","","",""
"","image-keyboard-response","14","326184","0.0-6.0-1.2","LF","kk4adj1drx","1280","720","de","en05es25","null","","","","","","","","learning/Slide3.JPG","null","","","","",""
"","html-keyboard-response","15","327189","0.0-6.0-2.2","LF","kk4adj1drx","1280","720","de","en05es25","null","","","","learningBlock1","","","","<div style=""font-size:60px;""> </div>","null","LF","learning/Slide3.JPG","This is a bim:","",""
"","html-keyboard-response","16","328207","0.0-6.0-0.3","LF","kk4adj1drx","1280","720","de","en05es25","null","","","","learningBlock1","","","","This is a dep:","null","","","","",""
"","image-keyboard-response","17","328553","0.0-6.0-1.3","LF","kk4adj1drx","1280","720","de","en05es25","null","","","","","","","","learning/Slide4.JPG","null","","","","",""
"","html-keyboard-response","18","329558","0.0-6.0-2.3","LF","kk4adj1drx","1280","720","de","en05es25","null","","","","learningBlock1","","","","<div style=""font-size:60px;""> </div>","null","LF","learning/Slide4.JPG","This is a dep:","",""
"","html-keyboard-response","19","330569","0.0-6.0-0.4","LF","kk4adj1drx","1280","720","de","en05es25","null","","","","learningBlock1","","","","This is a wug:","null","","","","",""
"","image-keyboard-response","20","330906","0.0-6.0-1.4","LF","kk4adj1drx","1280","720","de","en05es25","null","","","","","","","","learning/Slide5.JPG","null","","","","",""
"","html-keyboard-response","21","331911","0.0-6.0-2.4","LF","kk4adj1drx","1280","720","de","en05es25","null","","","","learningBlock1","","","","<div style=""font-size:60px;""> </div>","null","LF","learning/Slide5.JPG","This is a wug:","",""
"","html-keyboard-response","22","332921","0.0-6.0-0.5","LF","kk4adj1drx","1280","720","de","en05es25","null","","","","learningBlock1","","","","This is a dep:","null","","","","",""
"","image-keyboard-response","23","333258","0.0-6.0-1.5","LF","kk4adj1drx","1280","720","de","en05es25","null","","","","","","","","learning/Slide6.JPG","null","","","","",""
"","html-keyboard-response","24","334266","0.0-6.0-2.5","LF","kk4adj1drx","1280","720","de","en05es25","null","","","","learningBlock1","","","","<div style=""font-size:60px;""> </div>","null","LF","learning/Slide6.JPG","This is a dep:","",""
"","html-keyboard-response","25","335272","0.0-6.0-0.6","LF","kk4adj1drx","1280","720","de","en05es25","null","","","","learningBlock1","","","","This is a wug:","null","","","","",""
"","image-keyboard-response","26","335613","0.0-6.0-1.6","LF","kk4adj1drx","1280","720","de","en05es25","null","","","","","","","","learning/Slide7.JPG","null","","","","",""
"","html-keyboard-response","27","336617","0.0-6.0-2.6","LF","kk4adj1drx","1280","720","de","en05es25","null","","","","learningBlock1","","","","<div style=""font-size:60px;""> </div>","null","LF","learning/Slide7.JPG","This is a wug:","",""
"","html-keyboard-response","28","337632","0.0-6.0-0.7","LF","kk4adj1drx","1280","720","de","en05es25","null","","","","learningBlock1","","","","This is a bim:","null","","","","",""
"","image-keyboard-response","29","337963","0.0-6.0-1.7","LF","kk4adj1drx","1280","720","de","en05es25","null","","","","","","","","learning/Slide8.JPG","null","","","","",""
"","html-keyboard-response","30","338972","0.0-6.0-2.7","LF","kk4adj1drx","1280","720","de","en05es25","null","","","","learningBlock1","","","","<div style=""font-size:60px;""> </div>","null","LF","learning/Slide8.JPG","This is a bim:","",""
"","html-keyboard-response","31","339982","0.0-6.0-0.8","LF","kk4adj1drx","1280","720","de","en05es25","null","","","","learningBlock1","","","","This is a wug:","null","","","","",""
"","image-keyboard-response","32","340320","0.0-6.0-1.8","LF","kk4adj1drx","1280","720","de","en05es25","null","","","","","","","","learning/Slide9.JPG","null","","","","",""
"","html-keyboard-response","33","341324","0.0-6.0-2.8","LF","kk4adj1drx","1280","720","de","en05es25","null","","","","learningBlock1","","","","<div style=""font-size:60px;""> </div>","null","LF","learning/Slide9.JPG","This is a wug:","",""
"","html-keyboard-response","34","342330","0.0-6.0-0.9","LF","kk4adj1drx","1280","720","de","en05es25","null","","","","learningBlock1","","","","This is a dep:","null","","","","",""
"","image-keyboard-response","35","342674","0.0-6.0-1.9","LF","kk4adj1drx","1280","720","de","en05es25","null","","","","","","","","learning/Slide10.JPG","null","","","","",""
"","html-keyboard-response","36","343689","0.0-6.0-2.9","LF","kk4adj1drx","1280","720","de","en05es25","null","","","","learningBlock1","","","","<div style=""font-size:60px;""> </div>","null","LF","learning/Slide10.JPG","This is a dep:","",""
"","html-keyboard-response","37","344692","0.0-6.0-0.10","LF","kk4adj1drx","1280","720","de","en05es25","null","","","","learningBlock1","","","","This is a tob:","null","","","","",""
"","image-keyboard-response","38","345038","0.0-6.0-1.10","LF","kk4adj1drx","1280","720","de","en05es25","null","","","","","","","","learning/Slide11.JPG","null","","","","",""
"","html-keyboard-response","39","346047","0.0-6.0-2.10","LF","kk4adj1drx","1280","720","de","en05es25","null","","","","learningBlock1","","","","<div style=""font-size:60px;""> </div>","null","LF","learning/Slide11.JPG","This is a tob:","",""
"","html-keyboard-response","40","347055","0.0-6.0-0.11","LF","kk4adj1drx","1280","720","de","en05es25","null","","","","learningBlock1","","","","This is a dep:","null","","","","",""
"","image-keyboard-response","41","347391","0.0-6.0-1.11","LF","kk4adj1drx","1280","720","de","en05es25","null","","","","","","","","learning/Slide12.JPG","null","","","","",""
"","html-keyboard-response","42","348401","0.0-6.0-2.11","LF","kk4adj1drx","1280","720","de","en05es25","null","","","","learningBlock1","","","","<div style=""font-size:60px;""> </div>","null","LF","learning/Slide12.JPG","This is a dep:","",""
"","html-keyboard-response","43","349412","0.0-6.0-0.12","LF","kk4adj1drx","1280","720","de","en05es25","null","","","","learningBlock1","","","","This is a bim:","null","","","","",""
"","image-keyboard-response","44","349756","0.0-6.0-1.12","LF","kk4adj1drx","1280","720","de","en05es25","null","","","","","","","","learning/Slide13.JPG","null","","","","",""
"","html-keyboard-response","45","350766","0.0-6.0-2.12","LF","kk4adj1drx","1280","720","de","en05es25","null","","","","learningBlock1","","","","<div style=""font-size:60px;""> </div>","null","LF","learning/Slide13.JPG","This is a bim:","",""
"","html-keyboard-response","46","351773","0.0-6.0-0.13","LF","kk4adj1drx","1280","720","de","en05es25","null","","","","learningBlock1","","","","This is a wug:","null","","","","",""
"","image-keyboard-response","47","352111","0.0-6.0-1.13","LF","kk4adj1drx","1280","720","de","en05es25","null","","","","","","","","learning/Slide14.JPG","null","","","","",""
"","html-keyboard-response","48","353118","0.0-6.0-2.13","LF","kk4adj1drx","1280","720","de","en05es25","null","","","","learningBlock1","","","","<div style=""font-size:60px;""> </div>","null","LF","learning/Slide14.JPG","This is a wug:","",""
"","html-keyboard-response","49","354127","0.0-6.0-0.14","LF","kk4adj1drx","1280","720","de","en05es25","null","","","","learningBlock1","","","","This is a tob:","null","","","","",""
"","image-keyboard-response","50","354461","0.0-6.0-1.14","LF","kk4adj1drx","1280","720","de","en05es25","null","","","","","","","","learning/Slide15.JPG","null","","","","",""
"","html-keyboard-response","51","355463","0.0-6.0-2.14","LF","kk4adj1drx","1280","720","de","en05es25","null","","","","learningBlock1","","","","<div style=""font-size:60px;""> </div>","null","LF","learning/Slide15.JPG","This is a tob:","",""
"","html-keyboard-response","52","356467","0.0-6.0-0.15","LF","kk4adj1drx","1280","720","de","en05es25","null","","","","learningBlock1","","","","This is a dep:","null","","","","",""
"","image-keyboard-response","53","356804","0.0-6.0-1.15","LF","kk4adj1drx","1280","720","de","en05es25","null","","","","","","","","learning/Slide16.JPG","null","","","","",""
"","html-keyboard-response","54","357810","0.0-6.0-2.15","LF","kk4adj1drx","1280","720","de","en05es25","null","","","","learningBlock1","","","","<div style=""font-size:60px;""> </div>","null","LF","learning/Slide16.JPG","This is a dep:","",""
"","html-keyboard-response","55","358816","0.0-6.0-0.16","LF","kk4adj1drx","1280","720","de","en05es25","null","","","","learningBlock1","","","","This is a bim:","null","","","","",""
"","image-keyboard-response","56","359163","0.0-6.0-1.16","LF","kk4adj1drx","1280","720","de","en05es25","null","","","","","","","","learning/Slide17.JPG","null","","","","",""
"","html-keyboard-response","57","360174","0.0-6.0-2.16","LF","kk4adj1drx","1280","720","de","en05es25","null","","","","learningBlock1","","","","<div style=""font-size:60px;""> </div>","null","LF","learning/Slide17.JPG","This is a bim:","",""
"","html-keyboard-response","58","361177","0.0-6.0-0.17","LF","kk4adj1drx","1280","720","de","en05es25","null","","","","learningBlock1","","","","This is a tob:","null","","","","",""
"","image-keyboard-response","59","361516","0.0-6.0-1.17","LF","kk4adj1drx","1280","720","de","en05es25","null","","","","","","","","learning/Slide18.JPG","null","","","","",""
"","html-keyboard-response","60","362523","0.0-6.0-2.17","LF","kk4adj1drx","1280","720","de","en05es25","null","","","","learningBlock1","","","","<div style=""font-size:60px;""> </div>","null","LF","learning/Slide18.JPG","This is a tob:","",""
"","html-keyboard-response","61","363532","0.0-6.0-0.18","LF","kk4adj1drx","1280","720","de","en05es25","null","","","","learningBlock1","","","","This is a wug:","null","","","","",""
"","image-keyboard-response","62","363871","0.0-6.0-1.18","LF","kk4adj1drx","1280","720","de","en05es25","null","","","","","","","","learning/Slide19.JPG","null","","","","",""
"","html-keyboard-response","63","364874","0.0-6.0-2.18","LF","kk4adj1drx","1280","720","de","en05es25","null","","","","learningBlock1","","","","<div style=""font-size:60px;""> </div>","null","LF","learning/Slide19.JPG","This is a wug:","",""
"","html-keyboard-response","64","365879","0.0-6.0-0.19","LF","kk4adj1drx","1280","720","de","en05es25","null","","","","learningBlock1","","","","This is a bim:","null","","","","",""
"","image-keyboard-response","65","366222","0.0-6.0-1.19","LF","kk4adj1drx","1280","720","de","en05es25","null","","","","","","","","learning/Slide20.JPG","null","","","","",""
"","html-keyboard-response","66","367226","0.0-6.0-2.19","LF","kk4adj1drx","1280","720","de","en05es25","null","","","","learningBlock1","","","","<div style=""font-size:60px;""> </div>","null","LF","learning/Slide20.JPG","This is a bim:","",""
"","html-keyboard-response","67","368230","0.0-6.0-0.20","LF","kk4adj1drx","1280","720","de","en05es25","null","","","","learningBlock1","","","","This is a dep:","null","","","","",""
"","image-keyboard-response","68","368571","0.0-6.0-1.20","LF","kk4adj1drx","1280","720","de","en05es25","null","","","","","","","","learning/Slide21.JPG","null","","","","",""
"","html-keyboard-response","69","369580","0.0-6.0-2.20","LF","kk4adj1drx","1280","720","de","en05es25","null","","","","learningBlock1","","","","<div style=""font-size:60px;""> </div>","null","LF","learning/Slide21.JPG","This is a dep:","",""
"","html-keyboard-response","70","370582","0.0-6.0-0.21","LF","kk4adj1drx","1280","720","de","en05es25","null","","","","learningBlock1","","","","This is a bim:","null","","","","",""
"","image-keyboard-response","71","370926","0.0-6.0-1.21","LF","kk4adj1drx","1280","720","de","en05es25","null","","","","","","","","learning/Slide22.JPG","null","","","","",""
"","html-keyboard-response","72","371937","0.0-6.0-2.21","LF","kk4adj1drx","1280","720","de","en05es25","null","","","","learningBlock1","","","","<div style=""font-size:60px;""> </div>","null","LF","learning/Slide22.JPG","This is a bim:","",""
"","html-keyboard-response","73","372947","0.0-6.0-0.22","LF","kk4adj1drx","1280","720","de","en05es25","null","","","","learningBlock1","","","","This is a tob:","null","","","","",""
"","image-keyboard-response","74","373282","0.0-6.0-1.22","LF","kk4adj1drx","1280","720","de","en05es25","null","","","","","","","","learning/Slide23.JPG","null","","","","",""
"","html-keyboard-response","75","374297","0.0-6.0-2.22","LF","kk4adj1drx","1280","720","de","en05es25","null","","","","learningBlock1","","","","<div style=""font-size:60px;""> </div>","null","LF","learning/Slide23.JPG","This is a tob:","",""
"","html-keyboard-response","76","375300","0.0-6.0-0.23","LF","kk4adj1drx","1280","720","de","en05es25","null","","","","learningBlock1","","","","This is a wug:","null","","","","",""
"","image-keyboard-response","77","375642","0.0-6.0-1.23","LF","kk4adj1drx","1280","720","de","en05es25","null","","","","","","","","learning/Slide24.JPG","null","","","","",""
"","html-keyboard-response","78","376646","0.0-6.0-2.23","LF","kk4adj1drx","1280","720","de","en05es25","null","","","","learningBlock1","","","","<div style=""font-size:60px;""> </div>","null","LF","learning/Slide24.JPG","This is a wug:","",""
"","html-keyboard-response","79","377654","0.0-6.0-0.24","LF","kk4adj1drx","1280","720","de","en05es25","null","","","","learningBlock1","","","","This is a dep:","null","","","","",""
"","image-keyboard-response","80","377994","0.0-6.0-1.24","LF","kk4adj1drx","1280","720","de","en05es25","null","","","","","","","","learning/Slide25.JPG","null","","","","",""
"","html-keyboard-response","81","379003","0.0-6.0-2.24","LF","kk4adj1drx","1280","720","de","en05es25","null","","","","learningBlock1","","","","<div style=""font-size:60px;""> </div>","null","LF","learning/Slide25.JPG","This is a dep:","",""
"","html-keyboard-response","82","380013","0.0-6.0-0.25","LF","kk4adj1drx","1280","720","de","en05es25","null","","","","learningBlock1","","","","This is a wug:","null","","","","",""
"","image-keyboard-response","83","380356","0.0-6.0-1.25","LF","kk4adj1drx","1280","720","de","en05es25","null","","","","","","","","learning/Slide26.JPG","null","","","","",""
"","html-keyboard-response","84","381370","0.0-6.0-2.25","LF","kk4adj1drx","1280","720","de","en05es25","null","","","","learningBlock1","","","","<div style=""font-size:60px;""> </div>","null","LF","learning/Slide26.JPG","This is a wug:","",""
"","html-keyboard-response","85","382375","0.0-6.0-0.26","LF","kk4adj1drx","1280","720","de","en05es25","null","","","","learningBlock1","","","","This is a bim:","null","","","","",""
"","image-keyboard-response","86","382709","0.0-6.0-1.26","LF","kk4adj1drx","1280","720","de","en05es25","null","","","","","","","","learning/Slide27.JPG","null","","","","",""
"","html-keyboard-response","87","383712","0.0-6.0-2.26","LF","kk4adj1drx","1280","720","de","en05es25","null","","","","learningBlock1","","","","<div style=""font-size:60px;""> </div>","null","LF","learning/Slide27.JPG","This is a bim:","",""
"","html-keyboard-response","88","384716","0.0-6.0-0.27","LF","kk4adj1drx","1280","720","de","en05es25","null","","","","learningBlock1","","","","This is a dep:","null","","","","",""
"","image-keyboard-response","89","385060","0.0-6.0-1.27","LF","kk4adj1drx","1280","720","de","en05es25","null","","","","","","","","learning/Slide28.JPG","null","","","","",""
"","html-keyboard-response","90","386069","0.0-6.0-2.27","LF","kk4adj1drx","1280","720","de","en05es25","null","","","","learningBlock1","","","","<div style=""font-size:60px;""> </div>","null","LF","learning/Slide28.JPG","This is a dep:","",""
"","html-keyboard-response","91","387078","0.0-6.0-0.28","LF","kk4adj1drx","1280","720","de","en05es25","null","","","","learningBlock1","","","","This is a tob:","null","","","","",""
"","image-keyboard-response","92","387419","0.0-6.0-1.28","LF","kk4adj1drx","1280","720","de","en05es25","null","","","","","","","","learning/Slide29.JPG","null","","","","",""
"","html-keyboard-response","93","388431","0.0-6.0-2.28","LF","kk4adj1drx","1280","720","de","en05es25","null","","","","learningBlock1","","","","<div style=""font-size:60px;""> </div>","null","LF","learning/Slide29.JPG","This is a tob:","",""
"","html-keyboard-response","94","389436","0.0-6.0-0.29","LF","kk4adj1drx","1280","720","de","en05es25","null","","","","learningBlock1","","","","This is a dep:","null","","","","",""
"","image-keyboard-response","95","389773","0.0-6.0-1.29","LF","kk4adj1drx","1280","720","de","en05es25","null","","","","","","","","learning/Slide30.JPG","null","","","","",""
"","html-keyboard-response","96","390784","0.0-6.0-2.29","LF","kk4adj1drx","1280","720","de","en05es25","null","","","","learningBlock1","","","","<div style=""font-size:60px;""> </div>","null","LF","learning/Slide30.JPG","This is a dep:","",""
"","html-keyboard-response","97","391792","0.0-6.0-0.30","LF","kk4adj1drx","1280","720","de","en05es25","null","","","","learningBlock1","","","","This is a wug:","null","","","","",""
"","image-keyboard-response","98","392136","0.0-6.0-1.30","LF","kk4adj1drx","1280","720","de","en05es25","null","","","","","","","","learning/Slide31.JPG","null","","","","",""
"","html-keyboard-response","99","393147","0.0-6.0-2.30","LF","kk4adj1drx","1280","720","de","en05es25","null","","","","learningBlock1","","","","<div style=""font-size:60px;""> </div>","null","LF","learning/Slide31.JPG","This is a wug:","",""
"","html-keyboard-response","100","394159","0.0-6.0-0.31","LF","kk4adj1drx","1280","720","de","en05es25","null","","","","learningBlock1","","","","This is a tob:","null","","","","",""
"","image-keyboard-response","101","394497","0.0-6.0-1.31","LF","kk4adj1drx","1280","720","de","en05es25","null","","","","","","","","learning/Slide32.JPG","null","","","","",""
"","html-keyboard-response","102","395508","0.0-6.0-2.31","LF","kk4adj1drx","1280","720","de","en05es25","null","","","","learningBlock1","","","","<div style=""font-size:60px;""> </div>","null","LF","learning/Slide32.JPG","This is a tob:","",""
"","html-keyboard-response","103","396516","0.0-6.0-0.32","LF","kk4adj1drx","1280","720","de","en05es25","null","","","","learningBlock1","","","","This is a bim:","null","","","","",""
"","image-keyboard-response","104","396855","0.0-6.0-1.32","LF","kk4adj1drx","1280","720","de","en05es25","null","","","","","","","","learning/Slide33.JPG","null","","","","",""
"","html-keyboard-response","105","397871","0.0-6.0-2.32","LF","kk4adj1drx","1280","720","de","en05es25","null","","","","learningBlock1","","","","<div style=""font-size:60px;""> </div>","null","LF","learning/Slide33.JPG","This is a bim:","",""
"","html-keyboard-response","106","398881","0.0-6.0-0.33","LF","kk4adj1drx","1280","720","de","en05es25","null","","","","learningBlock1","","","","This is a tob:","null","","","","",""
"","image-keyboard-response","107","399209","0.0-6.0-1.33","LF","kk4adj1drx","1280","720","de","en05es25","null","","","","","","","","learning/Slide34.JPG","null","","","","",""
"","html-keyboard-response","108","400219","0.0-6.0-2.33","LF","kk4adj1drx","1280","720","de","en05es25","null","","","","learningBlock1","","","","<div style=""font-size:60px;""> </div>","null","LF","learning/Slide34.JPG","This is a tob:","",""
"","html-keyboard-response","109","401229","0.0-6.0-0.34","LF","kk4adj1drx","1280","720","de","en05es25","null","","","","learningBlock1","","","","This is a bim:","null","","","","",""
"","image-keyboard-response","110","401573","0.0-6.0-1.34","LF","kk4adj1drx","1280","720","de","en05es25","null","","","","","","","","learning/Slide35.JPG","null","","","","",""
"","html-keyboard-response","111","402577","0.0-6.0-2.34","LF","kk4adj1drx","1280","720","de","en05es25","null","","","","learningBlock1","","","","<div style=""font-size:60px;""> </div>","null","LF","learning/Slide35.JPG","This is a bim:","",""
"","html-keyboard-response","112","403584","0.0-6.0-0.35","LF","kk4adj1drx","1280","720","de","en05es25","null","","","","learningBlock1","","","","This is a dep:","null","","","","",""
"","image-keyboard-response","113","403923","0.0-6.0-1.35","LF","kk4adj1drx","1280","720","de","en05es25","null","","","","","","","","learning/Slide36.JPG","null","","","","",""
"","html-keyboard-response","114","404936","0.0-6.0-2.35","LF","kk4adj1drx","1280","720","de","en05es25","null","","","","learningBlock1","","","","<div style=""font-size:60px;""> </div>","null","LF","learning/Slide36.JPG","This is a dep:","",""
"","html-keyboard-response","115","405944","0.0-6.0-0.36","LF","kk4adj1drx","1280","720","de","en05es25","null","","","","learningBlock1","","","","This is a tob:","null","","","","",""
"","image-keyboard-response","116","406287","0.0-6.0-1.36","LF","kk4adj1drx","1280","720","de","en05es25","null","","","","","","","","learning/Slide37.JPG","null","","","","",""
"","html-keyboard-response","117","407289","0.0-6.0-2.36","LF","kk4adj1drx","1280","720","de","en05es25","null","","","","learningBlock1","","","","<div style=""font-size:60px;""> </div>","null","LF","learning/Slide37.JPG","This is a tob:","",""
"","html-keyboard-response","118","408291","0.0-6.0-0.37","LF","kk4adj1drx","1280","720","de","en05es25","null","","","","learningBlock1","","","","This is a wug:","null","","","","",""
"","image-keyboard-response","119","408636","0.0-6.0-1.37","LF","kk4adj1drx","1280","720","de","en05es25","null","","","","","","","","learning/Slide38.JPG","null","","","","",""
"","html-keyboard-response","120","409639","0.0-6.0-2.37","LF","kk4adj1drx","1280","720","de","en05es25","null","","","","learningBlock1","","","","<div style=""font-size:60px;""> </div>","null","LF","learning/Slide38.JPG","This is a wug:","",""
"","html-keyboard-response","121","410645","0.0-6.0-0.38","LF","kk4adj1drx","1280","720","de","en05es25","null","","","","learningBlock1","","","","This is a bim:","null","","","","",""
"","image-keyboard-response","122","410994","0.0-6.0-1.38","LF","kk4adj1drx","1280","720","de","en05es25","null","","","","","","","","learning/Slide39.JPG","null","","","","",""
"","html-keyboard-response","123","411997","0.0-6.0-2.38","LF","kk4adj1drx","1280","720","de","en05es25","null","","","","learningBlock1","","","","<div style=""font-size:60px;""> </div>","null","LF","learning/Slide39.JPG","This is a bim:","",""
"","html-keyboard-response","124","413000","0.0-6.0-0.39","LF","kk4adj1drx","1280","720","de","en05es25","null","","","","learningBlock1","","","","This is a tob:","null","","","","",""
"","image-keyboard-response","125","413338","0.0-6.0-1.39","LF","kk4adj1drx","1280","720","de","en05es25","null","","","","","","","","learning/Slide40.JPG","null","","","","",""
"","html-keyboard-response","126","414340","0.0-6.0-2.39","LF","kk4adj1drx","1280","720","de","en05es25","null","","","","learningBlock1","","","","<div style=""font-size:60px;""> </div>","null","LF","learning/Slide40.JPG","This is a tob:","",""
"","html-keyboard-response","127","415347","0.0-6.0-0.40","LF","kk4adj1drx","1280","720","de","en05es25","null","","","","learningBlock1","","","","This is a bim:","null","","","","",""
"","image-keyboard-response","128","415686","0.0-6.0-1.40","LF","kk4adj1drx","1280","720","de","en05es25","null","","","","","","","","learning/Slide41.JPG","null","","","","",""
"","html-keyboard-response","129","416697","0.0-6.0-2.40","LF","kk4adj1drx","1280","720","de","en05es25","null","","","","learningBlock1","","","","<div style=""font-size:60px;""> </div>","null","LF","learning/Slide41.JPG","This is a bim:","",""
"","html-keyboard-response","130","417706","0.0-6.0-0.41","LF","kk4adj1drx","1280","720","de","en05es25","null","","","","learningBlock1","","","","This is a dep:","null","","","","",""
"","image-keyboard-response","131","418037","0.0-6.0-1.41","LF","kk4adj1drx","1280","720","de","en05es25","null","","","","","","","","learning/Slide42.JPG","null","","","","",""
"","html-keyboard-response","132","419049","0.0-6.0-2.41","LF","kk4adj1drx","1280","720","de","en05es25","null","","","","learningBlock1","","","","<div style=""font-size:60px;""> </div>","null","LF","learning/Slide42.JPG","This is a dep:","",""
"","html-keyboard-response","133","420054","0.0-6.0-0.42","LF","kk4adj1drx","1280","720","de","en05es25","null","","","","learningBlock1","","","","This is a wug:","null","","","","",""
"","image-keyboard-response","134","420394","0.0-6.0-1.42","LF","kk4adj1drx","1280","720","de","en05es25","null","","","","","","","","learning/Slide43.JPG","null","","","","",""
"","html-keyboard-response","135","421398","0.0-6.0-2.42","LF","kk4adj1drx","1280","720","de","en05es25","null","","","","learningBlock1","","","","<div style=""font-size:60px;""> </div>","null","LF","learning/Slide43.JPG","This is a wug:","",""
"","html-keyboard-response","136","422405","0.0-6.0-0.43","LF","kk4adj1drx","1280","720","de","en05es25","null","","","","learningBlock1","","","","This is a bim:","null","","","","",""
"","image-keyboard-response","137","422741","0.0-6.0-1.43","LF","kk4adj1drx","1280","720","de","en05es25","null","","","","","","","","learning/Slide44.JPG","null","","","","",""
"","html-keyboard-response","138","423749","0.0-6.0-2.43","LF","kk4adj1drx","1280","720","de","en05es25","null","","","","learningBlock1","","","","<div style=""font-size:60px;""> </div>","null","LF","learning/Slide44.JPG","This is a bim:","",""
"","html-keyboard-response","139","424758","0.0-6.0-0.44","LF","kk4adj1drx","1280","720","de","en05es25","null","","","","learningBlock1","","","","This is a wug:","null","","","","",""
"","image-keyboard-response","140","425103","0.0-6.0-1.44","LF","kk4adj1drx","1280","720","de","en05es25","null","","","","","","","","learning/Slide45.JPG","null","","","","",""
"","html-keyboard-response","141","426113","0.0-6.0-2.44","LF","kk4adj1drx","1280","720","de","en05es25","null","","","","learningBlock1","","","","<div style=""font-size:60px;""> </div>","null","LF","learning/Slide45.JPG","This is a wug:","",""
"","html-keyboard-response","142","427117","0.0-6.0-0.45","LF","kk4adj1drx","1280","720","de","en05es25","null","","","","learningBlock1","","","","This is a dep:","null","","","","",""
"","image-keyboard-response","143","427450","0.0-6.0-1.45","LF","kk4adj1drx","1280","720","de","en05es25","null","","","","","","","","learning/Slide46.JPG","null","","","","",""
"","html-keyboard-response","144","428460","0.0-6.0-2.45","LF","kk4adj1drx","1280","720","de","en05es25","null","","","","learningBlock1","","","","<div style=""font-size:60px;""> </div>","null","LF","learning/Slide46.JPG","This is a dep:","",""
"","html-keyboard-response","145","429462","0.0-6.0-0.46","LF","kk4adj1drx","1280","720","de","en05es25","null","","","","learningBlock1","","","","This is a tob:","null","","","","",""
"","image-keyboard-response","146","429801","0.0-6.0-1.46","LF","kk4adj1drx","1280","720","de","en05es25","null","","","","","","","","learning/Slide47.JPG","null","","","","",""
"","html-keyboard-response","147","430804","0.0-6.0-2.46","LF","kk4adj1drx","1280","720","de","en05es25","null","","","","learningBlock1","","","","<div style=""font-size:60px;""> </div>","null","LF","learning/Slide47.JPG","This is a tob:","",""
"","html-keyboard-response","148","431815","0.0-6.0-0.47","LF","kk4adj1drx","1280","720","de","en05es25","null","","","","learningBlock1","","","","This is a bim:","null","","","","",""
"","image-keyboard-response","149","432148","0.0-6.0-1.47","LF","kk4adj1drx","1280","720","de","en05es25","null","","","","","","","","learning/Slide48.JPG","null","","","","",""
"","html-keyboard-response","150","433153","0.0-6.0-2.47","LF","kk4adj1drx","1280","720","de","en05es25","null","","","","learningBlock1","","","","<div style=""font-size:60px;""> </div>","null","LF","learning/Slide48.JPG","This is a bim:","",""
"","html-keyboard-response","151","434164","0.0-6.0-0.48","LF","kk4adj1drx","1280","720","de","en05es25","null","","","","learningBlock1","","","","This is a dep:","null","","","","",""
"","image-keyboard-response","152","434512","0.0-6.0-1.48","LF","kk4adj1drx","1280","720","de","en05es25","null","","","","","","","","learning/Slide49.JPG","null","","","","",""
"","html-keyboard-response","153","435515","0.0-6.0-2.48","LF","kk4adj1drx","1280","720","de","en05es25","null","","","","learningBlock1","","","","<div style=""font-size:60px;""> </div>","null","LF","learning/Slide49.JPG","This is a dep:","",""
"","html-keyboard-response","154","436518","0.0-6.0-0.49","LF","kk4adj1drx","1280","720","de","en05es25","null","","","","learningBlock1","","","","This is a tob:","null","","","","",""
"","image-keyboard-response","155","436853","0.0-6.0-1.49","LF","kk4adj1drx","1280","720","de","en05es25","null","","","","","","","","learning/Slide50.JPG","null","","","","",""
"","html-keyboard-response","156","437860","0.0-6.0-2.49","LF","kk4adj1drx","1280","720","de","en05es25","null","","","","learningBlock1","","","","<div style=""font-size:60px;""> </div>","null","LF","learning/Slide50.JPG","This is a tob:","",""
"","html-keyboard-response","157","438870","0.0-6.0-0.50","LF","kk4adj1drx","1280","720","de","en05es25","null","","","","learningBlock1","","","","This is a bim:","null","","","","",""
"","image-keyboard-response","158","439206","0.0-6.0-1.50","LF","kk4adj1drx","1280","720","de","en05es25","null","","","","","","","","learning/Slide51.JPG","null","","","","",""
"","html-keyboard-response","159","440212","0.0-6.0-2.50","LF","kk4adj1drx","1280","720","de","en05es25","null","","","","learningBlock1","","","","<div style=""font-size:60px;""> </div>","null","LF","learning/Slide51.JPG","This is a bim:","",""
"","html-keyboard-response","160","441220","0.0-6.0-0.51","LF","kk4adj1drx","1280","720","de","en05es25","null","","","","learningBlock1","","","","This is a wug:","null","","","","",""
"","image-keyboard-response","161","441557","0.0-6.0-1.51","LF","kk4adj1drx","1280","720","de","en05es25","null","","","","","","","","learning/Slide52.JPG","null","","","","",""
"","html-keyboard-response","162","442567","0.0-6.0-2.51","LF","kk4adj1drx","1280","720","de","en05es25","null","","","","learningBlock1","","","","<div style=""font-size:60px;""> </div>","null","LF","learning/Slide52.JPG","This is a wug:","",""
"","html-keyboard-response","163","443576","0.0-6.0-0.52","LF","kk4adj1drx","1280","720","de","en05es25","null","","","","learningBlock1","","","","This is a tob:","null","","","","",""
"","image-keyboard-response","164","443914","0.0-6.0-1.52","LF","kk4adj1drx","1280","720","de","en05es25","null","","","","","","","","learning/Slide53.JPG","null","","","","",""
"","html-keyboard-response","165","444921","0.0-6.0-2.52","LF","kk4adj1drx","1280","720","de","en05es25","null","","","","learningBlock1","","","","<div style=""font-size:60px;""> </div>","null","LF","learning/Slide53.JPG","This is a tob:","",""
"","html-keyboard-response","166","445933","0.0-6.0-0.53","LF","kk4adj1drx","1280","720","de","en05es25","null","","","","learningBlock1","","","","This is a dep:","null","","","","",""
"","image-keyboard-response","167","446286","0.0-6.0-1.53","LF","kk4adj1drx","1280","720","de","en05es25","null","","","","","","","","learning/Slide54.JPG","null","","","","",""
"","html-keyboard-response","168","447296","0.0-6.0-2.53","LF","kk4adj1drx","1280","720","de","en05es25","null","","","","learningBlock1","","","","<div style=""font-size:60px;""> </div>","null","LF","learning/Slide54.JPG","This is a dep:","",""
"","html-keyboard-response","169","448301","0.0-6.0-0.54","LF","kk4adj1drx","1280","720","de","en05es25","null","","","","learningBlock1","","","","This is a bim:","null","","","","",""
"","image-keyboard-response","170","448637","0.0-6.0-1.54","LF","kk4adj1drx","1280","720","de","en05es25","null","","","","","","","","learning/Slide55.JPG","null","","","","",""
"","html-keyboard-response","171","449642","0.0-6.0-2.54","LF","kk4adj1drx","1280","720","de","en05es25","null","","","","learningBlock1","","","","<div style=""font-size:60px;""> </div>","null","LF","learning/Slide55.JPG","This is a bim:","",""
"","html-keyboard-response","172","450654","0.0-6.0-0.55","LF","kk4adj1drx","1280","720","de","en05es25","null","","","","learningBlock1","","","","This is a tob:","null","","","","",""
"","image-keyboard-response","173","450997","0.0-6.0-1.55","LF","kk4adj1drx","1280","720","de","en05es25","null","","","","","","","","learning/Slide56.JPG","null","","","","",""
"","html-keyboard-response","174","452004","0.0-6.0-2.55","LF","kk4adj1drx","1280","720","de","en05es25","null","","","","learningBlock1","","","","<div style=""font-size:60px;""> </div>","null","LF","learning/Slide56.JPG","This is a tob:","",""
"","html-keyboard-response","175","453008","0.0-6.0-0.56","LF","kk4adj1drx","1280","720","de","en05es25","null","","","","learningBlock1","","","","This is a dep:","null","","","","",""
"","image-keyboard-response","176","453356","0.0-6.0-1.56","LF","kk4adj1drx","1280","720","de","en05es25","null","","","","","","","","learning/Slide57.JPG","null","","","","",""
"","html-keyboard-response","177","454372","0.0-6.0-2.56","LF","kk4adj1drx","1280","720","de","en05es25","null","","","","learningBlock1","","","","<div style=""font-size:60px;""> </div>","null","LF","learning/Slide57.JPG","This is a dep:","",""
"","html-keyboard-response","178","455382","0.0-6.0-0.57","LF","kk4adj1drx","1280","720","de","en05es25","null","","","","learningBlock1","","","","This is a wug:","null","","","","",""
"","image-keyboard-response","179","455719","0.0-6.0-1.57","LF","kk4adj1drx","1280","720","de","en05es25","null","","","","","","","","learning/Slide58.JPG","null","","","","",""
"","html-keyboard-response","180","456722","0.0-6.0-2.57","LF","kk4adj1drx","1280","720","de","en05es25","null","","","","learningBlock1","","","","<div style=""font-size:60px;""> </div>","null","LF","learning/Slide58.JPG","This is a wug:","",""
"","html-keyboard-response","181","457728","0.0-6.0-0.58","LF","kk4adj1drx","1280","720","de","en05es25","null","","","","learningBlock1","","","","This is a dep:","null","","","","",""
"","image-keyboard-response","182","458068","0.0-6.0-1.58","LF","kk4adj1drx","1280","720","de","en05es25","null","","","","","","","","learning/Slide59.JPG","null","","","","",""
"","html-keyboard-response","183","459077","0.0-6.0-2.58","LF","kk4adj1drx","1280","720","de","en05es25","null","","","","learningBlock1","","","","<div style=""font-size:60px;""> </div>","null","LF","learning/Slide59.JPG","This is a dep:","",""
"","html-keyboard-response","184","460088","0.0-6.0-0.59","LF","kk4adj1drx","1280","720","de","en05es25","null","","","","learningBlock1","","","","This is a wug:","null","","","","",""
"","image-keyboard-response","185","460427","0.0-6.0-1.59","LF","kk4adj1drx","1280","720","de","en05es25","null","","","","","","","","learning/Slide60.JPG","null","","","","",""
"","html-keyboard-response","186","461437","0.0-6.0-2.59","LF","kk4adj1drx","1280","720","de","en05es25","null","","","","learningBlock1","","","","<div style=""font-size:60px;""> </div>","null","LF","learning/Slide60.JPG","This is a wug:","",""
"","html-keyboard-response","187","462449","0.0-6.0-0.60","LF","kk4adj1drx","1280","720","de","en05es25","null","","","","learningBlock1","","","","This is a bim:","null","","","","",""
"","image-keyboard-response","188","462781","0.0-6.0-1.60","LF","kk4adj1drx","1280","720","de","en05es25","null","","","","","","","","learning/Slide61.JPG","null","","","","",""
"","html-keyboard-response","189","463793","0.0-6.0-2.60","LF","kk4adj1drx","1280","720","de","en05es25","null","","","","learningBlock1","","","","<div style=""font-size:60px;""> </div>","null","LF","learning/Slide61.JPG","This is a bim:","",""
"","html-keyboard-response","190","464798","0.0-6.0-0.61","LF","kk4adj1drx","1280","720","de","en05es25","null","","","","learningBlock1","","","","This is a dep:","null","","","","",""
"","image-keyboard-response","191","465132","0.0-6.0-1.61","LF","kk4adj1drx","1280","720","de","en05es25","null","","","","","","","","learning/Slide62.JPG","null","","","","",""
"","html-keyboard-response","192","466136","0.0-6.0-2.61","LF","kk4adj1drx","1280","720","de","en05es25","null","","","","learningBlock1","","","","<div style=""font-size:60px;""> </div>","null","LF","learning/Slide62.JPG","This is a dep:","",""
"","html-keyboard-response","193","467148","0.0-6.0-0.62","LF","kk4adj1drx","1280","720","de","en05es25","null","","","","learningBlock1","","","","This is a bim:","null","","","","",""
"","image-keyboard-response","194","467481","0.0-6.0-1.62","LF","kk4adj1drx","1280","720","de","en05es25","null","","","","","","","","learning/Slide63.JPG","null","","","","",""
"","html-keyboard-response","195","468484","0.0-6.0-2.62","LF","kk4adj1drx","1280","720","de","en05es25","null","","","","learningBlock1","","","","<div style=""font-size:60px;""> </div>","null","LF","learning/Slide63.JPG","This is a bim:","",""
"","html-keyboard-response","196","469485","0.0-6.0-0.63","LF","kk4adj1drx","1280","720","de","en05es25","null","","","","learningBlock1","","","","This is a tob:","null","","","","",""
"","image-keyboard-response","197","469821","0.0-6.0-1.63","LF","kk4adj1drx","1280","720","de","en05es25","null","","","","","","","","learning/Slide64.JPG","null","","","","",""
"","html-keyboard-response","198","470826","0.0-6.0-2.63","LF","kk4adj1drx","1280","720","de","en05es25","null","","","","learningBlock1","","","","<div style=""font-size:60px;""> </div>","null","LF","learning/Slide64.JPG","This is a tob:","",""
"","html-keyboard-response","199","471837","0.0-6.0-0.64","LF","kk4adj1drx","1280","720","de","en05es25","null","","","","learningBlock1","","","","This is a wug:","null","","","","",""
"","image-keyboard-response","200","472171","0.0-6.0-1.64","LF","kk4adj1drx","1280","720","de","en05es25","null","","","","","","","","learning/Slide65.JPG","null","","","","",""
"","html-keyboard-response","201","473182","0.0-6.0-2.64","LF","kk4adj1drx","1280","720","de","en05es25","null","","","","learningBlock1","","","","<div style=""font-size:60px;""> </div>","null","LF","learning/Slide65.JPG","This is a wug:","",""
"","html-keyboard-response","202","474191","0.0-6.0-0.65","LF","kk4adj1drx","1280","720","de","en05es25","null","","","","learningBlock1","","","","This is a dep:","null","","","","",""
"","image-keyboard-response","203","474526","0.0-6.0-1.65","LF","kk4adj1drx","1280","720","de","en05es25","null","","","","","","","","learning/Slide66.JPG","null","","","","",""
"","html-keyboard-response","204","475533","0.0-6.0-2.65","LF","kk4adj1drx","1280","720","de","en05es25","null","","","","learningBlock1","","","","<div style=""font-size:60px;""> </div>","null","LF","learning/Slide66.JPG","This is a dep:","",""
"","html-keyboard-response","205","476535","0.0-6.0-0.66","LF","kk4adj1drx","1280","720","de","en05es25","null","","","","learningBlock1","","","","This is a tob:","null","","","","",""
"","image-keyboard-response","206","476864","0.0-6.0-1.66","LF","kk4adj1drx","1280","720","de","en05es25","null","","","","","","","","learning/Slide67.JPG","null","","","","",""
"","html-keyboard-response","207","477872","0.0-6.0-2.66","LF","kk4adj1drx","1280","720","de","en05es25","null","","","","learningBlock1","","","","<div style=""font-size:60px;""> </div>","null","LF","learning/Slide67.JPG","This is a tob:","",""
"","html-keyboard-response","208","478874","0.0-6.0-0.67","LF","kk4adj1drx","1280","720","de","en05es25","null","","","","learningBlock1","","","","This is a wug:","null","","","","",""
"","image-keyboard-response","209","479223","0.0-6.0-1.67","LF","kk4adj1drx","1280","720","de","en05es25","null","","","","","","","","learning/Slide68.JPG","null","","","","",""
"","html-keyboard-response","210","480227","0.0-6.0-2.67","LF","kk4adj1drx","1280","720","de","en05es25","null","","","","learningBlock1","","","","<div style=""font-size:60px;""> </div>","null","LF","learning/Slide68.JPG","This is a wug:","",""
"","html-keyboard-response","211","481246","0.0-6.0-0.68","LF","kk4adj1drx","1280","720","de","en05es25","null","","","","learningBlock1","","","","This is a tob:","null","","","","",""
"","image-keyboard-response","212","481592","0.0-6.0-1.68","LF","kk4adj1drx","1280","720","de","en05es25","null","","","","","","","","learning/Slide69.JPG","null","","","","",""
"","html-keyboard-response","213","482595","0.0-6.0-2.68","LF","kk4adj1drx","1280","720","de","en05es25","null","","","","learningBlock1","","","","<div style=""font-size:60px;""> </div>","null","LF","learning/Slide69.JPG","This is a tob:","",""
"","html-keyboard-response","214","483598","0.0-6.0-0.69","LF","kk4adj1drx","1280","720","de","en05es25","null","","","","learningBlock1","","","","This is a dep:","null","","","","",""
"","image-keyboard-response","215","483931","0.0-6.0-1.69","LF","kk4adj1drx","1280","720","de","en05es25","null","","","","","","","","learning/Slide70.JPG","null","","","","",""
"","html-keyboard-response","216","484934","0.0-6.0-2.69","LF","kk4adj1drx","1280","720","de","en05es25","null","","","","learningBlock1","","","","<div style=""font-size:60px;""> </div>","null","LF","learning/Slide70.JPG","This is a dep:","",""
"","html-keyboard-response","217","485943","0.0-6.0-0.70","LF","kk4adj1drx","1280","720","de","en05es25","null","","","","learningBlock1","","","","This is a wug:","null","","","","",""
"","image-keyboard-response","218","486281","0.0-6.0-1.70","LF","kk4adj1drx","1280","720","de","en05es25","null","","","","","","","","learning/Slide71.JPG","null","","","","",""
"","html-keyboard-response","219","487285","0.0-6.0-2.70","LF","kk4adj1drx","1280","720","de","en05es25","null","","","","learningBlock1","","","","<div style=""font-size:60px;""> </div>","null","LF","learning/Slide71.JPG","This is a wug:","",""
"","html-keyboard-response","220","488287","0.0-6.0-0.71","LF","kk4adj1drx","1280","720","de","en05es25","null","","","","learningBlock1","","","","This is a bim:","null","","","","",""
"","image-keyboard-response","221","488633","0.0-6.0-1.71","LF","kk4adj1drx","1280","720","de","en05es25","null","","","","","","","","learning/Slide72.JPG","null","","","","",""
"","html-keyboard-response","222","489643","0.0-6.0-2.71","LF","kk4adj1drx","1280","720","de","en05es25","null","","","","learningBlock1","","","","<div style=""font-size:60px;""> </div>","null","LF","learning/Slide72.JPG","This is a bim:","",""
"","html-keyboard-response","223","490650","0.0-6.0-0.72","LF","kk4adj1drx","1280","720","de","en05es25","null","","","","learningBlock1","","","","This is a wug:","null","","","","",""
"","image-keyboard-response","224","490986","0.0-6.0-1.72","LF","kk4adj1drx","1280","720","de","en05es25","null","","","","","","","","learning/Slide73.JPG","null","","","","",""
"","html-keyboard-response","225","491993","0.0-6.0-2.72","LF","kk4adj1drx","1280","720","de","en05es25","null","","","","learningBlock1","","","","<div style=""font-size:60px;""> </div>","null","LF","learning/Slide73.JPG","This is a wug:","",""
"","html-keyboard-response","226","493003","0.0-6.0-0.73","LF","kk4adj1drx","1280","720","de","en05es25","null","","","","learningBlock1","","","","This is a dep:","null","","","","",""
"","image-keyboard-response","227","493343","0.0-6.0-1.73","LF","kk4adj1drx","1280","720","de","en05es25","null","","","","","","","","learning/Slide74.JPG","null","","","","",""
"","html-keyboard-response","228","494358","0.0-6.0-2.73","LF","kk4adj1drx","1280","720","de","en05es25","null","","","","learningBlock1","","","","<div style=""font-size:60px;""> </div>","null","LF","learning/Slide74.JPG","This is a dep:","",""
"","html-keyboard-response","229","495364","0.0-6.0-0.74","LF","kk4adj1drx","1280","720","de","en05es25","null","","","","learningBlock1","","","","This is a tob:","null","","","","",""
"","image-keyboard-response","230","495695","0.0-6.0-1.74","LF","kk4adj1drx","1280","720","de","en05es25","null","","","","","","","","learning/Slide75.JPG","null","","","","",""
"","html-keyboard-response","231","496712","0.0-6.0-2.74","LF","kk4adj1drx","1280","720","de","en05es25","null","","","","learningBlock1","","","","<div style=""font-size:60px;""> </div>","null","LF","learning/Slide75.JPG","This is a tob:","",""
"","html-keyboard-response","232","497715","0.0-6.0-0.75","LF","kk4adj1drx","1280","720","de","en05es25","null","","","","learningBlock1","","","","This is a bim:","null","","","","",""
"","image-keyboard-response","233","498048","0.0-6.0-1.75","LF","kk4adj1drx","1280","720","de","en05es25","null","","","","","","","","learning/Slide76.JPG","null","","","","",""
"","html-keyboard-response","234","499060","0.0-6.0-2.75","LF","kk4adj1drx","1280","720","de","en05es25","null","","","","learningBlock1","","","","<div style=""font-size:60px;""> </div>","null","LF","learning/Slide76.JPG","This is a bim:","",""
"","html-keyboard-response","235","500062","0.0-6.0-0.76","LF","kk4adj1drx","1280","720","de","en05es25","null","","","","learningBlock1","","","","This is a tob:","null","","","","",""
"","image-keyboard-response","236","500399","0.0-6.0-1.76","LF","kk4adj1drx","1280","720","de","en05es25","null","","","","","","","","learning/Slide77.JPG","null","","","","",""
"","html-keyboard-response","237","501410","0.0-6.0-2.76","LF","kk4adj1drx","1280","720","de","en05es25","null","","","","learningBlock1","","","","<div style=""font-size:60px;""> </div>","null","LF","learning/Slide77.JPG","This is a tob:","",""
"","html-keyboard-response","238","502420","0.0-6.0-0.77","LF","kk4adj1drx","1280","720","de","en05es25","null","","","","learningBlock1","","","","This is a wug:","null","","","","",""
"","image-keyboard-response","239","502764","0.0-6.0-1.77","LF","kk4adj1drx","1280","720","de","en05es25","null","","","","","","","","learning/Slide78.JPG","null","","","","",""
"","html-keyboard-response","240","503772","0.0-6.0-2.77","LF","kk4adj1drx","1280","720","de","en05es25","null","","","","learningBlock1","","","","<div style=""font-size:60px;""> </div>","null","LF","learning/Slide78.JPG","This is a wug:","",""
"","html-keyboard-response","241","504782","0.0-6.0-0.78","LF","kk4adj1drx","1280","720","de","en05es25","null","","","","learningBlock1","","","","This is a bim:","null","","","","",""
"","image-keyboard-response","242","505124","0.0-6.0-1.78","LF","kk4adj1drx","1280","720","de","en05es25","null","","","","","","","","learning/Slide79.JPG","null","","","","",""
"","html-keyboard-response","243","506129","0.0-6.0-2.78","LF","kk4adj1drx","1280","720","de","en05es25","null","","","","learningBlock1","","","","<div style=""font-size:60px;""> </div>","null","LF","learning/Slide79.JPG","This is a bim:","",""
"","html-keyboard-response","244","507136","0.0-6.0-0.79","LF","kk4adj1drx","1280","720","de","en05es25","null","","","","learningBlock1","","","","This is a tob:","null","","","","",""
"","image-keyboard-response","245","507478","0.0-6.0-1.79","LF","kk4adj1drx","1280","720","de","en05es25","null","","","","","","","","learning/Slide80.JPG","null","","","","",""
"","html-keyboard-response","246","508485","0.0-6.0-2.79","LF","kk4adj1drx","1280","720","de","en05es25","null","","","","learningBlock1","","","","<div style=""font-size:60px;""> </div>","null","LF","learning/Slide80.JPG","This is a tob:","",""
"","instructions","247","541241","0.0-7.0","LF","kk4adj1drx","1280","720","de","en05es25","NA","","","[{""page_index"":0,""viewing_time"":32753.679999965243}]","instructions","","","","","","","","","",""
"","html-keyboard-response","248","542249","0.0-8.0-0.0","LF","kk4adj1drx","1280","720","de","en05es25","null","","","","learningBlock2","","","","This is a wug:","null","","","","",""
"","image-keyboard-response","249","542586","0.0-8.0-1.0","LF","kk4adj1drx","1280","720","de","en05es25","null","","","","","","","","learning/Slide81.JPG","null","","","","",""
"","html-keyboard-response","250","543596","0.0-8.0-2.0","LF","kk4adj1drx","1280","720","de","en05es25","null","","","","learningBlock2","","","","<div style=""font-size:60px;""> </div>","null","LF","learning/Slide81.JPG","This is a wug:","",""
"","html-keyboard-response","251","544603","0.0-8.0-0.1","LF","kk4adj1drx","1280","720","de","en05es25","null","","","","learningBlock2","","","","This is a bim:","null","","","","",""
"","image-keyboard-response","252","544936","0.0-8.0-1.1","LF","kk4adj1drx","1280","720","de","en05es25","null","","","","","","","","learning/Slide82.JPG","null","","","","",""
"","html-keyboard-response","253","545941","0.0-8.0-2.1","LF","kk4adj1drx","1280","720","de","en05es25","null","","","","learningBlock2","","","","<div style=""font-size:60px;""> </div>","null","LF","learning/Slide82.JPG","This is a bim:","",""
"","html-keyboard-response","254","546944","0.0-8.0-0.2","LF","kk4adj1drx","1280","720","de","en05es25","null","","","","learningBlock2","","","","This is a wug:","null","","","","",""
"","image-keyboard-response","255","547285","0.0-8.0-1.2","LF","kk4adj1drx","1280","720","de","en05es25","null","","","","","","","","learning/Slide83.JPG","null","","","","",""
"","html-keyboard-response","256","548289","0.0-8.0-2.2","LF","kk4adj1drx","1280","720","de","en05es25","null","","","","learningBlock2","","","","<div style=""font-size:60px;""> </div>","null","LF","learning/Slide83.JPG","This is a wug:","",""
"","html-keyboard-response","257","549296","0.0-8.0-0.3","LF","kk4adj1drx","1280","720","de","en05es25","null","","","","learningBlock2","","","","This is a dep:","null","","","","",""
"","image-keyboard-response","258","549640","0.0-8.0-1.3","LF","kk4adj1drx","1280","720","de","en05es25","null","","","","","","","","learning/Slide84.JPG","null","","","","",""
"","html-keyboard-response","259","550644","0.0-8.0-2.3","LF","kk4adj1drx","1280","720","de","en05es25","null","","","","learningBlock2","","","","<div style=""font-size:60px;""> </div>","null","LF","learning/Slide84.JPG","This is a dep:","",""
"","html-keyboard-response","260","551648","0.0-8.0-0.4","LF","kk4adj1drx","1280","720","de","en05es25","null","","","","learningBlock2","","","","This is a bim:","null","","","","",""
"","image-keyboard-response","261","551992","0.0-8.0-1.4","LF","kk4adj1drx","1280","720","de","en05es25","null","","","","","","","","learning/Slide85.JPG","null","","","","",""
"","html-keyboard-response","262","553000","0.0-8.0-2.4","LF","kk4adj1drx","1280","720","de","en05es25","null","","","","learningBlock2","","","","<div style=""font-size:60px;""> </div>","null","LF","learning/Slide85.JPG","This is a bim:","",""
"","html-keyboard-response","263","554002","0.0-8.0-0.5","LF","kk4adj1drx","1280","720","de","en05es25","null","","","","learningBlock2","","","","This is a tob:","null","","","","",""
"","image-keyboard-response","264","554348","0.0-8.0-1.5","LF","kk4adj1drx","1280","720","de","en05es25","null","","","","","","","","learning/Slide86.JPG","null","","","","",""
"","html-keyboard-response","265","555359","0.0-8.0-2.5","LF","kk4adj1drx","1280","720","de","en05es25","null","","","","learningBlock2","","","","<div style=""font-size:60px;""> </div>","null","LF","learning/Slide86.JPG","This is a tob:","",""
"","html-keyboard-response","266","556363","0.0-8.0-0.6","LF","kk4adj1drx","1280","720","de","en05es25","null","","","","learningBlock2","","","","This is a wug:","null","","","","",""
"","image-keyboard-response","267","556701","0.0-8.0-1.6","LF","kk4adj1drx","1280","720","de","en05es25","null","","","","","","","","learning/Slide87.JPG","null","","","","",""
"","html-keyboard-response","268","557703","0.0-8.0-2.6","LF","kk4adj1drx","1280","720","de","en05es25","null","","","","learningBlock2","","","","<div style=""font-size:60px;""> </div>","null","LF","learning/Slide87.JPG","This is a wug:","",""
"","html-keyboard-response","269","558713","0.0-8.0-0.7","LF","kk4adj1drx","1280","720","de","en05es25","null","","","","learningBlock2","","","","This is a tob:","null","","","","",""
"","image-keyboard-response","270","559057","0.0-8.0-1.7","LF","kk4adj1drx","1280","720","de","en05es25","null","","","","","","","","learning/Slide88.JPG","null","","","","",""
"","html-keyboard-response","271","560069","0.0-8.0-2.7","LF","kk4adj1drx","1280","720","de","en05es25","null","","","","learningBlock2","","","","<div style=""font-size:60px;""> </div>","null","LF","learning/Slide88.JPG","This is a tob:","",""
"","html-keyboard-response","272","561076","0.0-8.0-0.8","LF","kk4adj1drx","1280","720","de","en05es25","null","","","","learningBlock2","","","","This is a bim:","null","","","","",""
"","image-keyboard-response","273","561410","0.0-8.0-1.8","LF","kk4adj1drx","1280","720","de","en05es25","null","","","","","","","","learning/Slide89.JPG","null","","","","",""
"","html-keyboard-response","274","562421","0.0-8.0-2.8","LF","kk4adj1drx","1280","720","de","en05es25","null","","","","learningBlock2","","","","<div style=""font-size:60px;""> </div>","null","LF","learning/Slide89.JPG","This is a bim:","",""
"","html-keyboard-response","275","563424","0.0-8.0-0.9","LF","kk4adj1drx","1280","720","de","en05es25","null","","","","learningBlock2","","","","This is a dep:","null","","","","",""
"","image-keyboard-response","276","563764","0.0-8.0-1.9","LF","kk4adj1drx","1280","720","de","en05es25","null","","","","","","","","learning/Slide90.JPG","null","","","","",""
"","html-keyboard-response","277","564770","0.0-8.0-2.9","LF","kk4adj1drx","1280","720","de","en05es25","null","","","","learningBlock2","","","","<div style=""font-size:60px;""> </div>","null","LF","learning/Slide90.JPG","This is a dep:","",""
"","html-keyboard-response","278","565771","0.0-8.0-0.10","LF","kk4adj1drx","1280","720","de","en05es25","null","","","","learningBlock2","","","","This is a wug:","null","","","","",""
"","image-keyboard-response","279","566113","0.0-8.0-1.10","LF","kk4adj1drx","1280","720","de","en05es25","null","","","","","","","","learning/Slide91.JPG","null","","","","",""
"","html-keyboard-response","280","567132","0.0-8.0-2.10","LF","kk4adj1drx","1280","720","de","en05es25","null","","","","learningBlock2","","","","<div style=""font-size:60px;""> </div>","null","LF","learning/Slide91.JPG","This is a wug:","",""
"","html-keyboard-response","281","568141","0.0-8.0-0.11","LF","kk4adj1drx","1280","720","de","en05es25","null","","","","learningBlock2","","","","This is a tob:","null","","","","",""
"","image-keyboard-response","282","568474","0.0-8.0-1.11","LF","kk4adj1drx","1280","720","de","en05es25","null","","","","","","","","learning/Slide92.JPG","null","","","","",""
"","html-keyboard-response","283","569482","0.0-8.0-2.11","LF","kk4adj1drx","1280","720","de","en05es25","null","","","","learningBlock2","","","","<div style=""font-size:60px;""> </div>","null","LF","learning/Slide92.JPG","This is a tob:","",""
"","html-keyboard-response","284","570487","0.0-8.0-0.12","LF","kk4adj1drx","1280","720","de","en05es25","null","","","","learningBlock2","","","","This is a bim:","null","","","","",""
"","image-keyboard-response","285","570831","0.0-8.0-1.12","LF","kk4adj1drx","1280","720","de","en05es25","null","","","","","","","","learning/Slide93.JPG","null","","","","",""
"","html-keyboard-response","286","571842","0.0-8.0-2.12","LF","kk4adj1drx","1280","720","de","en05es25","null","","","","learningBlock2","","","","<div style=""font-size:60px;""> </div>","null","LF","learning/Slide93.JPG","This is a bim:","",""
"","html-keyboard-response","287","572848","0.0-8.0-0.13","LF","kk4adj1drx","1280","720","de","en05es25","null","","","","learningBlock2","","","","This is a tob:","null","","","","",""
"","image-keyboard-response","288","573190","0.0-8.0-1.13","LF","kk4adj1drx","1280","720","de","en05es25","null","","","","","","","","learning/Slide94.JPG","null","","","","",""
"","html-keyboard-response","289","574203","0.0-8.0-2.13","LF","kk4adj1drx","1280","720","de","en05es25","null","","","","learningBlock2","","","","<div style=""font-size:60px;""> </div>","null","LF","learning/Slide94.JPG","This is a tob:","",""
"","html-keyboard-response","290","575210","0.0-8.0-0.14","LF","kk4adj1drx","1280","720","de","en05es25","null","","","","learningBlock2","","","","This is a wug:","null","","","","",""
"","image-keyboard-response","291","575547","0.0-8.0-1.14","LF","kk4adj1drx","1280","720","de","en05es25","null","","","","","","","","learning/Slide95.JPG","null","","","","",""
"","html-keyboard-response","292","576551","0.0-8.0-2.14","LF","kk4adj1drx","1280","720","de","en05es25","null","","","","learningBlock2","","","","<div style=""font-size:60px;""> </div>","null","LF","learning/Slide95.JPG","This is a wug:","",""
"","html-keyboard-response","293","577558","0.0-8.0-0.15","LF","kk4adj1drx","1280","720","de","en05es25","null","","","","learningBlock2","","","","This is a tob:","null","","","","",""
"","image-keyboard-response","294","577894","0.0-8.0-1.15","LF","kk4adj1drx","1280","720","de","en05es25","null","","","","","","","","learning/Slide96.JPG","null","","","","",""
"","html-keyboard-response","295","578900","0.0-8.0-2.15","LF","kk4adj1drx","1280","720","de","en05es25","null","","","","learningBlock2","","","","<div style=""font-size:60px;""> </div>","null","LF","learning/Slide96.JPG","This is a tob:","",""
"","html-keyboard-response","296","579903","0.0-8.0-0.16","LF","kk4adj1drx","1280","720","de","en05es25","null","","","","learningBlock2","","","","This is a dep:","null","","","","",""
"","image-keyboard-response","297","580243","0.0-8.0-1.16","LF","kk4adj1drx","1280","720","de","en05es25","null","","","","","","","","learning/Slide97.JPG","null","","","","",""
"","html-keyboard-response","298","581247","0.0-8.0-2.16","LF","kk4adj1drx","1280","720","de","en05es25","null","","","","learningBlock2","","","","<div style=""font-size:60px;""> </div>","null","LF","learning/Slide97.JPG","This is a dep:","",""
"","html-keyboard-response","299","582252","0.0-8.0-0.17","LF","kk4adj1drx","1280","720","de","en05es25","null","","","","learningBlock2","","","","This is a bim:","null","","","","",""
"","image-keyboard-response","300","582602","0.0-8.0-1.17","LF","kk4adj1drx","1280","720","de","en05es25","null","","","","","","","","learning/Slide98.JPG","null","","","","",""
"","html-keyboard-response","301","583611","0.0-8.0-2.17","LF","kk4adj1drx","1280","720","de","en05es25","null","","","","learningBlock2","","","","<div style=""font-size:60px;""> </div>","null","LF","learning/Slide98.JPG","This is a bim:","",""
"","html-keyboard-response","302","584630","0.0-8.0-0.18","LF","kk4adj1drx","1280","720","de","en05es25","null","","","","learningBlock2","","","","This is a dep:","null","","","","",""
"","image-keyboard-response","303","584960","0.0-8.0-1.18","LF","kk4adj1drx","1280","720","de","en05es25","null","","","","","","","","learning/Slide99.JPG","null","","","","",""
"","html-keyboard-response","304","585971","0.0-8.0-2.18","LF","kk4adj1drx","1280","720","de","en05es25","null","","","","learningBlock2","","","","<div style=""font-size:60px;""> </div>","null","LF","learning/Slide99.JPG","This is a dep:","",""
"","html-keyboard-response","305","586982","0.0-8.0-0.19","LF","kk4adj1drx","1280","720","de","en05es25","null","","","","learningBlock2","","","","This is a bim:","null","","","","",""
"","image-keyboard-response","306","587314","0.0-8.0-1.19","LF","kk4adj1drx","1280","720","de","en05es25","null","","","","","","","","learning/Slide100.JPG","null","","","","",""
"","html-keyboard-response","307","588317","0.0-8.0-2.19","LF","kk4adj1drx","1280","720","de","en05es25","null","","","","learningBlock2","","","","<div style=""font-size:60px;""> </div>","null","LF","learning/Slide100.JPG","This is a bim:","",""
"","html-keyboard-response","308","589321","0.0-8.0-0.20","LF","kk4adj1drx","1280","720","de","en05es25","null","","","","learningBlock2","","","","This is a tob:","null","","","","",""
"","image-keyboard-response","309","589671","0.0-8.0-1.20","LF","kk4adj1drx","1280","720","de","en05es25","null","","","","","","","","learning/Slide101.JPG","null","","","","",""
"","html-keyboard-response","310","590679","0.0-8.0-2.20","LF","kk4adj1drx","1280","720","de","en05es25","null","","","","learningBlock2","","","","<div style=""font-size:60px;""> </div>","null","LF","learning/Slide101.JPG","This is a tob:","",""
"","html-keyboard-response","311","591684","0.0-8.0-0.21","LF","kk4adj1drx","1280","720","de","en05es25","null","","","","learningBlock2","","","","This is a bim:","null","","","","",""
"","image-keyboard-response","312","592020","0.0-8.0-1.21","LF","kk4adj1drx","1280","720","de","en05es25","null","","","","","","","","learning/Slide102.JPG","null","","","","",""
"","html-keyboard-response","313","593030","0.0-8.0-2.21","LF","kk4adj1drx","1280","720","de","en05es25","null","","","","learningBlock2","","","","<div style=""font-size:60px;""> </div>","null","LF","learning/Slide102.JPG","This is a bim:","",""
"","html-keyboard-response","314","594038","0.0-8.0-0.22","LF","kk4adj1drx","1280","720","de","en05es25","null","","","","learningBlock2","","","","This is a dep:","null","","","","",""
"","image-keyboard-response","315","594371","0.0-8.0-1.22","LF","kk4adj1drx","1280","720","de","en05es25","null","","","","","","","","learning/Slide103.JPG","null","","","","",""
"","html-keyboard-response","316","595376","0.0-8.0-2.22","LF","kk4adj1drx","1280","720","de","en05es25","null","","","","learningBlock2","","","","<div style=""font-size:60px;""> </div>","null","LF","learning/Slide103.JPG","This is a dep:","",""
"","html-keyboard-response","317","596384","0.0-8.0-0.23","LF","kk4adj1drx","1280","720","de","en05es25","null","","","","learningBlock2","","","","This is a tob:","null","","","","",""
"","image-keyboard-response","318","596719","0.0-8.0-1.23","LF","kk4adj1drx","1280","720","de","en05es25","null","","","","","","","","learning/Slide104.JPG","null","","","","",""
"","html-keyboard-response","319","597726","0.0-8.0-2.23","LF","kk4adj1drx","1280","720","de","en05es25","null","","","","learningBlock2","","","","<div style=""font-size:60px;""> </div>","null","LF","learning/Slide104.JPG","This is a tob:","",""
"","html-keyboard-response","320","598737","0.0-8.0-0.24","LF","kk4adj1drx","1280","720","de","en05es25","null","","","","learningBlock2","","","","This is a dep:","null","","","","",""
"","image-keyboard-response","321","599082","0.0-8.0-1.24","LF","kk4adj1drx","1280","720","de","en05es25","null","","","","","","","","learning/Slide105.JPG","null","","","","",""
"","html-keyboard-response","322","600086","0.0-8.0-2.24","LF","kk4adj1drx","1280","720","de","en05es25","null","","","","learningBlock2","","","","<div style=""font-size:60px;""> </div>","null","LF","learning/Slide105.JPG","This is a dep:","",""
"","html-keyboard-response","323","601096","0.0-8.0-0.25","LF","kk4adj1drx","1280","720","de","en05es25","null","","","","learningBlock2","","","","This is a wug:","null","","","","",""
"","image-keyboard-response","324","601430","0.0-8.0-1.25","LF","kk4adj1drx","1280","720","de","en05es25","null","","","","","","","","learning/Slide106.JPG","null","","","","",""
"","html-keyboard-response","325","602440","0.0-8.0-2.25","LF","kk4adj1drx","1280","720","de","en05es25","null","","","","learningBlock2","","","","<div style=""font-size:60px;""> </div>","null","LF","learning/Slide106.JPG","This is a wug:","",""
"","html-keyboard-response","326","603452","0.0-8.0-0.26","LF","kk4adj1drx","1280","720","de","en05es25","null","","","","learningBlock2","","","","This is a bim:","null","","","","",""
"","image-keyboard-response","327","603789","0.0-8.0-1.26","LF","kk4adj1drx","1280","720","de","en05es25","null","","","","","","","","learning/Slide107.JPG","null","","","","",""
"","html-keyboard-response","328","604800","0.0-8.0-2.26","LF","kk4adj1drx","1280","720","de","en05es25","null","","","","learningBlock2","","","","<div style=""font-size:60px;""> </div>","null","LF","learning/Slide107.JPG","This is a bim:","",""
"","html-keyboard-response","329","605817","0.0-8.0-0.27","LF","kk4adj1drx","1280","720","de","en05es25","null","","","","learningBlock2","","","","This is a dep:","null","","","","",""
"","image-keyboard-response","330","606157","0.0-8.0-1.27","LF","kk4adj1drx","1280","720","de","en05es25","null","","","","","","","","learning/Slide108.JPG","null","","","","",""
"","html-keyboard-response","331","607165","0.0-8.0-2.27","LF","kk4adj1drx","1280","720","de","en05es25","null","","","","learningBlock2","","","","<div style=""font-size:60px;""> </div>","null","LF","learning/Slide108.JPG","This is a dep:","",""
"","html-keyboard-response","332","608177","0.0-8.0-0.28","LF","kk4adj1drx","1280","720","de","en05es25","null","","","","learningBlock2","","","","This is a wug:","null","","","","",""
"","image-keyboard-response","333","608512","0.0-8.0-1.28","LF","kk4adj1drx","1280","720","de","en05es25","null","","","","","","","","learning/Slide109.JPG","null","","","","",""
"","html-keyboard-response","334","609519","0.0-8.0-2.28","LF","kk4adj1drx","1280","720","de","en05es25","null","","","","learningBlock2","","","","<div style=""font-size:60px;""> </div>","null","LF","learning/Slide109.JPG","This is a wug:","",""
"","html-keyboard-response","335","610521","0.0-8.0-0.29","LF","kk4adj1drx","1280","720","de","en05es25","null","","","","learningBlock2","","","","This is a bim:","null","","","","",""
"","image-keyboard-response","336","610874","0.0-8.0-1.29","LF","kk4adj1drx","1280","720","de","en05es25","null","","","","","","","","learning/Slide110.JPG","null","","","","",""
"","html-keyboard-response","337","611880","0.0-8.0-2.29","LF","kk4adj1drx","1280","720","de","en05es25","null","","","","learningBlock2","","","","<div style=""font-size:60px;""> </div>","null","LF","learning/Slide110.JPG","This is a bim:","",""
"","html-keyboard-response","338","612886","0.0-8.0-0.30","LF","kk4adj1drx","1280","720","de","en05es25","null","","","","learningBlock2","","","","This is a tob:","null","","","","",""
"","image-keyboard-response","339","613227","0.0-8.0-1.30","LF","kk4adj1drx","1280","720","de","en05es25","null","","","","","","","","learning/Slide111.JPG","null","","","","",""
"","html-keyboard-response","340","614240","0.0-8.0-2.30","LF","kk4adj1drx","1280","720","de","en05es25","null","","","","learningBlock2","","","","<div style=""font-size:60px;""> </div>","null","LF","learning/Slide111.JPG","This is a tob:","",""
"","html-keyboard-response","341","615251","0.0-8.0-0.31","LF","kk4adj1drx","1280","720","de","en05es25","null","","","","learningBlock2","","","","This is a wug:","null","","","","",""
"","image-keyboard-response","342","615591","0.0-8.0-1.31","LF","kk4adj1drx","1280","720","de","en05es25","null","","","","","","","","learning/Slide112.JPG","null","","","","",""
"","html-keyboard-response","343","616596","0.0-8.0-2.31","LF","kk4adj1drx","1280","720","de","en05es25","null","","","","learningBlock2","","","","<div style=""font-size:60px;""> </div>","null","LF","learning/Slide112.JPG","This is a wug:","",""
"","html-keyboard-response","344","617602","0.0-8.0-0.32","LF","kk4adj1drx","1280","720","de","en05es25","null","","","","learningBlock2","","","","This is a tob:","null","","","","",""
"","image-keyboard-response","345","617944","0.0-8.0-1.32","LF","kk4adj1drx","1280","720","de","en05es25","null","","","","","","","","learning/Slide113.JPG","null","","","","",""
"","html-keyboard-response","346","618953","0.0-8.0-2.32","LF","kk4adj1drx","1280","720","de","en05es25","null","","","","learningBlock2","","","","<div style=""font-size:60px;""> </div>","null","LF","learning/Slide113.JPG","This is a tob:","",""
"","html-keyboard-response","347","619958","0.0-8.0-0.33","LF","kk4adj1drx","1280","720","de","en05es25","null","","","","learningBlock2","","","","This is a wug:","null","","","","",""
"","image-keyboard-response","348","620289","0.0-8.0-1.33","LF","kk4adj1drx","1280","720","de","en05es25","null","","","","","","","","learning/Slide114.JPG","null","","","","",""
"","html-keyboard-response","349","621297","0.0-8.0-2.33","LF","kk4adj1drx","1280","720","de","en05es25","null","","","","learningBlock2","","","","<div style=""font-size:60px;""> </div>","null","LF","learning/Slide114.JPG","This is a wug:","",""
"","html-keyboard-response","350","622300","0.0-8.0-0.34","LF","kk4adj1drx","1280","720","de","en05es25","null","","","","learningBlock2","","","","This is a bim:","null","","","","",""
"","image-keyboard-response","351","622636","0.0-8.0-1.34","LF","kk4adj1drx","1280","720","de","en05es25","null","","","","","","","","learning/Slide115.JPG","null","","","","",""
"","html-keyboard-response","352","623646","0.0-8.0-2.34","LF","kk4adj1drx","1280","720","de","en05es25","null","","","","learningBlock2","","","","<div style=""font-size:60px;""> </div>","null","LF","learning/Slide115.JPG","This is a bim:","",""
"","html-keyboard-response","353","624657","0.0-8.0-0.35","LF","kk4adj1drx","1280","720","de","en05es25","null","","","","learningBlock2","","","","This is a dep:","null","","","","",""
"","image-keyboard-response","354","624992","0.0-8.0-1.35","LF","kk4adj1drx","1280","720","de","en05es25","null","","","","","","","","learning/Slide116.JPG","null","","","","",""
"","html-keyboard-response","355","626008","0.0-8.0-2.35","LF","kk4adj1drx","1280","720","de","en05es25","null","","","","learningBlock2","","","","<div style=""font-size:60px;""> </div>","null","LF","learning/Slide116.JPG","This is a dep:","",""
"","html-keyboard-response","356","627017","0.0-8.0-0.36","LF","kk4adj1drx","1280","720","de","en05es25","null","","","","learningBlock2","","","","This is a tob:","null","","","","",""
"","image-keyboard-response","357","627357","0.0-8.0-1.36","LF","kk4adj1drx","1280","720","de","en05es25","null","","","","","","","","learning/Slide117.JPG","null","","","","",""
"","html-keyboard-response","358","628362","0.0-8.0-2.36","LF","kk4adj1drx","1280","720","de","en05es25","null","","","","learningBlock2","","","","<div style=""font-size:60px;""> </div>","null","LF","learning/Slide117.JPG","This is a tob:","",""
"","html-keyboard-response","359","629373","0.0-8.0-0.37","LF","kk4adj1drx","1280","720","de","en05es25","null","","","","learningBlock2","","","","This is a dep:","null","","","","",""
"","image-keyboard-response","360","629708","0.0-8.0-1.37","LF","kk4adj1drx","1280","720","de","en05es25","null","","","","","","","","learning/Slide118.JPG","null","","","","",""
"","html-keyboard-response","361","630718","0.0-8.0-2.37","LF","kk4adj1drx","1280","720","de","en05es25","null","","","","learningBlock2","","","","<div style=""font-size:60px;""> </div>","null","LF","learning/Slide118.JPG","This is a dep:","",""
"","html-keyboard-response","362","631722","0.0-8.0-0.38","LF","kk4adj1drx","1280","720","de","en05es25","null","","","","learningBlock2","","","","This is a wug:","null","","","","",""
"","image-keyboard-response","363","632058","0.0-8.0-1.38","LF","kk4adj1drx","1280","720","de","en05es25","null","","","","","","","","learning/Slide119.JPG","null","","","","",""
"","html-keyboard-response","364","633060","0.0-8.0-2.38","LF","kk4adj1drx","1280","720","de","en05es25","null","","","","learningBlock2","","","","<div style=""font-size:60px;""> </div>","null","LF","learning/Slide119.JPG","This is a wug:","",""
"","html-keyboard-response","365","634064","0.0-8.0-0.39","LF","kk4adj1drx","1280","720","de","en05es25","null","","","","learningBlock2","","","","This is a dep:","null","","","","",""
"","image-keyboard-response","366","634399","0.0-8.0-1.39","LF","kk4adj1drx","1280","720","de","en05es25","null","","","","","","","","learning/Slide120.JPG","null","","","","",""
"","html-keyboard-response","367","635409","0.0-8.0-2.39","LF","kk4adj1drx","1280","720","de","en05es25","null","","","","learningBlock2","","","","<div style=""font-size:60px;""> </div>","null","LF","learning/Slide120.JPG","This is a dep:","",""
"","html-keyboard-response","368","636412","0.0-8.0-0.40","LF","kk4adj1drx","1280","720","de","en05es25","null","","","","learningBlock2","","","","This is a bim:","null","","","","",""
"","image-keyboard-response","369","636759","0.0-8.0-1.40","LF","kk4adj1drx","1280","720","de","en05es25","null","","","","","","","","learning/Slide121.JPG","null","","","","",""
"","html-keyboard-response","370","637763","0.0-8.0-2.40","LF","kk4adj1drx","1280","720","de","en05es25","null","","","","learningBlock2","","","","<div style=""font-size:60px;""> </div>","null","LF","learning/Slide121.JPG","This is a bim:","",""
"","html-keyboard-response","371","638773","0.0-8.0-0.41","LF","kk4adj1drx","1280","720","de","en05es25","null","","","","learningBlock2","","","","This is a wug:","null","","","","",""
"","image-keyboard-response","372","639109","0.0-8.0-1.41","LF","kk4adj1drx","1280","720","de","en05es25","null","","","","","","","","learning/Slide122.JPG","null","","","","",""
"","html-keyboard-response","373","640111","0.0-8.0-2.41","LF","kk4adj1drx","1280","720","de","en05es25","null","","","","learningBlock2","","","","<div style=""font-size:60px;""> </div>","null","LF","learning/Slide122.JPG","This is a wug:","",""
"","html-keyboard-response","374","641117","0.0-8.0-0.42","LF","kk4adj1drx","1280","720","de","en05es25","null","","","","learningBlock2","","","","This is a bim:","null","","","","",""
"","image-keyboard-response","375","641451","0.0-8.0-1.42","LF","kk4adj1drx","1280","720","de","en05es25","null","","","","","","","","learning/Slide123.JPG","null","","","","",""
"","html-keyboard-response","376","642459","0.0-8.0-2.42","LF","kk4adj1drx","1280","720","de","en05es25","null","","","","learningBlock2","","","","<div style=""font-size:60px;""> </div>","null","LF","learning/Slide123.JPG","This is a bim:","",""
"","html-keyboard-response","377","643467","0.0-8.0-0.43","LF","kk4adj1drx","1280","720","de","en05es25","null","","","","learningBlock2","","","","This is a tob:","null","","","","",""
"","image-keyboard-response","378","643803","0.0-8.0-1.43","LF","kk4adj1drx","1280","720","de","en05es25","null","","","","","","","","learning/Slide124.JPG","null","","","","",""
"","html-keyboard-response","379","644807","0.0-8.0-2.43","LF","kk4adj1drx","1280","720","de","en05es25","null","","","","learningBlock2","","","","<div style=""font-size:60px;""> </div>","null","LF","learning/Slide124.JPG","This is a tob:","",""
"","html-keyboard-response","380","645810","0.0-8.0-0.44","LF","kk4adj1drx","1280","720","de","en05es25","null","","","","learningBlock2","","","","This is a bim:","null","","","","",""
"","image-keyboard-response","381","646160","0.0-8.0-1.44","LF","kk4adj1drx","1280","720","de","en05es25","null","","","","","","","","learning/Slide125.JPG","null","","","","",""
"","html-keyboard-response","382","647169","0.0-8.0-2.44","LF","kk4adj1drx","1280","720","de","en05es25","null","","","","learningBlock2","","","","<div style=""font-size:60px;""> </div>","null","LF","learning/Slide125.JPG","This is a bim:","",""
"","html-keyboard-response","383","648176","0.0-8.0-0.45","LF","kk4adj1drx","1280","720","de","en05es25","null","","","","learningBlock2","","","","This is a tob:","null","","","","",""
"","image-keyboard-response","384","648513","0.0-8.0-1.45","LF","kk4adj1drx","1280","720","de","en05es25","null","","","","","","","","learning/Slide126.JPG","null","","","","",""
"","html-keyboard-response","385","649516","0.0-8.0-2.45","LF","kk4adj1drx","1280","720","de","en05es25","null","","","","learningBlock2","","","","<div style=""font-size:60px;""> </div>","null","LF","learning/Slide126.JPG","This is a tob:","",""
"","html-keyboard-response","386","650526","0.0-8.0-0.46","LF","kk4adj1drx","1280","720","de","en05es25","null","","","","learningBlock2","","","","This is a dep:","null","","","","",""
"","image-keyboard-response","387","650866","0.0-8.0-1.46","LF","kk4adj1drx","1280","720","de","en05es25","null","","","","","","","","learning/Slide127.JPG","null","","","","",""
"","html-keyboard-response","388","651871","0.0-8.0-2.46","LF","kk4adj1drx","1280","720","de","en05es25","null","","","","learningBlock2","","","","<div style=""font-size:60px;""> </div>","null","LF","learning/Slide127.JPG","This is a dep:","",""
"","html-keyboard-response","389","652882","0.0-8.0-0.47","LF","kk4adj1drx","1280","720","de","en05es25","null","","","","learningBlock2","","","","This is a wug:","null","","","","",""
"","image-keyboard-response","390","653236","0.0-8.0-1.47","LF","kk4adj1drx","1280","720","de","en05es25","null","","","","","","","","learning/Slide128.JPG","null","","","","",""
"","html-keyboard-response","391","654240","0.0-8.0-2.47","LF","kk4adj1drx","1280","720","de","en05es25","null","","","","learningBlock2","","","","<div style=""font-size:60px;""> </div>","null","LF","learning/Slide128.JPG","This is a wug:","",""
"","html-keyboard-response","392","655245","0.0-8.0-0.48","LF","kk4adj1drx","1280","720","de","en05es25","null","","","","learningBlock2","","","","This is a tob:","null","","","","",""
"","image-keyboard-response","393","655583","0.0-8.0-1.48","LF","kk4adj1drx","1280","720","de","en05es25","null","","","","","","","","learning/Slide129.JPG","null","","","","",""
"","html-keyboard-response","394","656591","0.0-8.0-2.48","LF","kk4adj1drx","1280","720","de","en05es25","null","","","","learningBlock2","","","","<div style=""font-size:60px;""> </div>","null","LF","learning/Slide129.JPG","This is a tob:","",""
"","html-keyboard-response","395","657603","0.0-8.0-0.49","LF","kk4adj1drx","1280","720","de","en05es25","null","","","","learningBlock2","","","","This is a wug:","null","","","","",""
"","image-keyboard-response","396","657941","0.0-8.0-1.49","LF","kk4adj1drx","1280","720","de","en05es25","null","","","","","","","","learning/Slide130.JPG","null","","","","",""
"","html-keyboard-response","397","658946","0.0-8.0-2.49","LF","kk4adj1drx","1280","720","de","en05es25","null","","","","learningBlock2","","","","<div style=""font-size:60px;""> </div>","null","LF","learning/Slide130.JPG","This is a wug:","",""
"","html-keyboard-response","398","659955","0.0-8.0-0.50","LF","kk4adj1drx","1280","720","de","en05es25","null","","","","learningBlock2","","","","This is a bim:","null","","","","",""
"","image-keyboard-response","399","660303","0.0-8.0-1.50","LF","kk4adj1drx","1280","720","de","en05es25","null","","","","","","","","learning/Slide131.JPG","null","","","","",""
"","html-keyboard-response","400","661307","0.0-8.0-2.50","LF","kk4adj1drx","1280","720","de","en05es25","null","","","","learningBlock2","","","","<div style=""font-size:60px;""> </div>","null","LF","learning/Slide131.JPG","This is a bim:","",""
"","html-keyboard-response","401","662314","0.0-8.0-0.51","LF","kk4adj1drx","1280","720","de","en05es25","null","","","","learningBlock2","","","","This is a dep:","null","","","","",""
"","image-keyboard-response","402","662653","0.0-8.0-1.51","LF","kk4adj1drx","1280","720","de","en05es25","null","","","","","","","","learning/Slide132.JPG","null","","","","",""
"","html-keyboard-response","403","663657","0.0-8.0-2.51","LF","kk4adj1drx","1280","720","de","en05es25","null","","","","learningBlock2","","","","<div style=""font-size:60px;""> </div>","null","LF","learning/Slide132.JPG","This is a dep:","",""
"","html-keyboard-response","404","664666","0.0-8.0-0.52","LF","kk4adj1drx","1280","720","de","en05es25","null","","","","learningBlock2","","","","This is a tob:","null","","","","",""
"","image-keyboard-response","405","665003","0.0-8.0-1.52","LF","kk4adj1drx","1280","720","de","en05es25","null","","","","","","","","learning/Slide133.JPG","null","","","","",""
"","html-keyboard-response","406","666009","0.0-8.0-2.52","LF","kk4adj1drx","1280","720","de","en05es25","null","","","","learningBlock2","","","","<div style=""font-size:60px;""> </div>","null","LF","learning/Slide133.JPG","This is a tob:","",""
"","html-keyboard-response","407","667011","0.0-8.0-0.53","LF","kk4adj1drx","1280","720","de","en05es25","null","","","","learningBlock2","","","","This is a dep:","null","","","","",""
"","image-keyboard-response","408","667356","0.0-8.0-1.53","LF","kk4adj1drx","1280","720","de","en05es25","null","","","","","","","","learning/Slide134.JPG","null","","","","",""
"","html-keyboard-response","409","668361","0.0-8.0-2.53","LF","kk4adj1drx","1280","720","de","en05es25","null","","","","learningBlock2","","","","<div style=""font-size:60px;""> </div>","null","LF","learning/Slide134.JPG","This is a dep:","",""
"","html-keyboard-response","410","669371","0.0-8.0-0.54","LF","kk4adj1drx","1280","720","de","en05es25","null","","","","learningBlock2","","","","This is a tob:","null","","","","",""
"","image-keyboard-response","411","669710","0.0-8.0-1.54","LF","kk4adj1drx","1280","720","de","en05es25","null","","","","","","","","learning/Slide135.JPG","null","","","","",""
"","html-keyboard-response","412","670716","0.0-8.0-2.54","LF","kk4adj1drx","1280","720","de","en05es25","null","","","","learningBlock2","","","","<div style=""font-size:60px;""> </div>","null","LF","learning/Slide135.JPG","This is a tob:","",""
"","html-keyboard-response","413","671720","0.0-8.0-0.55","LF","kk4adj1drx","1280","720","de","en05es25","null","","","","learningBlock2","","","","This is a wug:","null","","","","",""
"","image-keyboard-response","414","672058","0.0-8.0-1.55","LF","kk4adj1drx","1280","720","de","en05es25","null","","","","","","","","learning/Slide136.JPG","null","","","","",""
"","html-keyboard-response","415","673069","0.0-8.0-2.55","LF","kk4adj1drx","1280","720","de","en05es25","null","","","","learningBlock2","","","","<div style=""font-size:60px;""> </div>","null","LF","learning/Slide136.JPG","This is a wug:","",""
"","html-keyboard-response","416","674071","0.0-8.0-0.56","LF","kk4adj1drx","1280","720","de","en05es25","null","","","","learningBlock2","","","","This is a tob:","null","","","","",""
"","image-keyboard-response","417","674410","0.0-8.0-1.56","LF","kk4adj1drx","1280","720","de","en05es25","null","","","","","","","","learning/Slide137.JPG","null","","","","",""
"","html-keyboard-response","418","675422","0.0-8.0-2.56","LF","kk4adj1drx","1280","720","de","en05es25","null","","","","learningBlock2","","","","<div style=""font-size:60px;""> </div>","null","LF","learning/Slide137.JPG","This is a tob:","",""
"","html-keyboard-response","419","676432","0.0-8.0-0.57","LF","kk4adj1drx","1280","720","de","en05es25","null","","","","learningBlock2","","","","This is a bim:","null","","","","",""
"","image-keyboard-response","420","676766","0.0-8.0-1.57","LF","kk4adj1drx","1280","720","de","en05es25","null","","","","","","","","learning/Slide138.JPG","null","","","","",""
"","html-keyboard-response","421","677772","0.0-8.0-2.57","LF","kk4adj1drx","1280","720","de","en05es25","null","","","","learningBlock2","","","","<div style=""font-size:60px;""> </div>","null","LF","learning/Slide138.JPG","This is a bim:","",""
"","html-keyboard-response","422","678783","0.0-8.0-0.58","LF","kk4adj1drx","1280","720","de","en05es25","null","","","","learningBlock2","","","","This is a wug:","null","","","","",""
"","image-keyboard-response","423","679118","0.0-8.0-1.58","LF","kk4adj1drx","1280","720","de","en05es25","null","","","","","","","","learning/Slide139.JPG","null","","","","",""
"","html-keyboard-response","424","680124","0.0-8.0-2.58","LF","kk4adj1drx","1280","720","de","en05es25","null","","","","learningBlock2","","","","<div style=""font-size:60px;""> </div>","null","LF","learning/Slide139.JPG","This is a wug:","",""
"","html-keyboard-response","425","681128","0.0-8.0-0.59","LF","kk4adj1drx","1280","720","de","en05es25","null","","","","learningBlock2","","","","This is a dep:","null","","","","",""
"","image-keyboard-response","426","681461","0.0-8.0-1.59","LF","kk4adj1drx","1280","720","de","en05es25","null","","","","","","","","learning/Slide140.JPG","null","","","","",""
"","html-keyboard-response","427","682467","0.0-8.0-2.59","LF","kk4adj1drx","1280","720","de","en05es25","null","","","","learningBlock2","","","","<div style=""font-size:60px;""> </div>","null","LF","learning/Slide140.JPG","This is a dep:","",""
"","html-keyboard-response","428","683473","0.0-8.0-0.60","LF","kk4adj1drx","1280","720","de","en05es25","null","","","","learningBlock2","","","","This is a tob:","null","","","","",""
"","image-keyboard-response","429","683819","0.0-8.0-1.60","LF","kk4adj1drx","1280","720","de","en05es25","null","","","","","","","","learning/Slide141.JPG","null","","","","",""
"","html-keyboard-response","430","684832","0.0-8.0-2.60","LF","kk4adj1drx","1280","720","de","en05es25","null","","","","learningBlock2","","","","<div style=""font-size:60px;""> </div>","null","LF","learning/Slide141.JPG","This is a tob:","",""
"","html-keyboard-response","431","685843","0.0-8.0-0.61","LF","kk4adj1drx","1280","720","de","en05es25","null","","","","learningBlock2","","","","This is a wug:","null","","","","",""
"","image-keyboard-response","432","686183","0.0-8.0-1.61","LF","kk4adj1drx","1280","720","de","en05es25","null","","","","","","","","learning/Slide142.JPG","null","","","","",""
"","html-keyboard-response","433","687188","0.0-8.0-2.61","LF","kk4adj1drx","1280","720","de","en05es25","null","","","","learningBlock2","","","","<div style=""font-size:60px;""> </div>","null","LF","learning/Slide142.JPG","This is a wug:","",""
"","html-keyboard-response","434","688198","0.0-8.0-0.62","LF","kk4adj1drx","1280","720","de","en05es25","null","","","","learningBlock2","","","","This is a bim:","null","","","","",""
"","image-keyboard-response","435","688531","0.0-8.0-1.62","LF","kk4adj1drx","1280","720","de","en05es25","null","","","","","","","","learning/Slide143.JPG","null","","","","",""
"","html-keyboard-response","436","689536","0.0-8.0-2.62","LF","kk4adj1drx","1280","720","de","en05es25","null","","","","learningBlock2","","","","<div style=""font-size:60px;""> </div>","null","LF","learning/Slide143.JPG","This is a bim:","",""
"","html-keyboard-response","437","690546","0.0-8.0-0.63","LF","kk4adj1drx","1280","720","de","en05es25","null","","","","learningBlock2","","","","This is a dep:","null","","","","",""
"","image-keyboard-response","438","690882","0.0-8.0-1.63","LF","kk4adj1drx","1280","720","de","en05es25","null","","","","","","","","learning/Slide144.JPG","null","","","","",""
"","html-keyboard-response","439","691884","0.0-8.0-2.63","LF","kk4adj1drx","1280","720","de","en05es25","null","","","","learningBlock2","","","","<div style=""font-size:60px;""> </div>","null","LF","learning/Slide144.JPG","This is a dep:","",""
"","html-keyboard-response","440","692889","0.0-8.0-0.64","LF","kk4adj1drx","1280","720","de","en05es25","null","","","","learningBlock2","","","","This is a bim:","null","","","","",""
"","image-keyboard-response","441","693226","0.0-8.0-1.64","LF","kk4adj1drx","1280","720","de","en05es25","null","","","","","","","","learning/Slide145.JPG","null","","","","",""
"","html-keyboard-response","442","694237","0.0-8.0-2.64","LF","kk4adj1drx","1280","720","de","en05es25","null","","","","learningBlock2","","","","<div style=""font-size:60px;""> </div>","null","LF","learning/Slide145.JPG","This is a bim:","",""
"","html-keyboard-response","443","695239","0.0-8.0-0.65","LF","kk4adj1drx","1280","720","de","en05es25","null","","","","learningBlock2","","","","This is a tob:","null","","","","",""
"","image-keyboard-response","444","695571","0.0-8.0-1.65","LF","kk4adj1drx","1280","720","de","en05es25","null","","","","","","","","learning/Slide146.JPG","null","","","","",""
"","html-keyboard-response","445","696580","0.0-8.0-2.65","LF","kk4adj1drx","1280","720","de","en05es25","null","","","","learningBlock2","","","","<div style=""font-size:60px;""> </div>","null","LF","learning/Slide146.JPG","This is a tob:","",""
"","html-keyboard-response","446","697589","0.0-8.0-0.66","LF","kk4adj1drx","1280","720","de","en05es25","null","","","","learningBlock2","","","","This is a wug:","null","","","","",""
"","image-keyboard-response","447","697926","0.0-8.0-1.66","LF","kk4adj1drx","1280","720","de","en05es25","null","","","","","","","","learning/Slide147.JPG","null","","","","",""
"","html-keyboard-response","448","698939","0.0-8.0-2.66","LF","kk4adj1drx","1280","720","de","en05es25","null","","","","learningBlock2","","","","<div style=""font-size:60px;""> </div>","null","LF","learning/Slide147.JPG","This is a wug:","",""
"","html-keyboard-response","449","699943","0.0-8.0-0.67","LF","kk4adj1drx","1280","720","de","en05es25","null","","","","learningBlock2","","","","This is a bim:","null","","","","",""
"","image-keyboard-response","450","700280","0.0-8.0-1.67","LF","kk4adj1drx","1280","720","de","en05es25","null","","","","","","","","learning/Slide148.JPG","null","","","","",""
"","html-keyboard-response","451","701291","0.0-8.0-2.67","LF","kk4adj1drx","1280","720","de","en05es25","null","","","","learningBlock2","","","","<div style=""font-size:60px;""> </div>","null","LF","learning/Slide148.JPG","This is a bim:","",""
"","html-keyboard-response","452","702300","0.0-8.0-0.68","LF","kk4adj1drx","1280","720","de","en05es25","null","","","","learningBlock2","","","","This is a dep:","null","","","","",""
"","image-keyboard-response","453","702643","0.0-8.0-1.68","LF","kk4adj1drx","1280","720","de","en05es25","null","","","","","","","","learning/Slide149.JPG","null","","","","",""
"","html-keyboard-response","454","703651","0.0-8.0-2.68","LF","kk4adj1drx","1280","720","de","en05es25","null","","","","learningBlock2","","","","<div style=""font-size:60px;""> </div>","null","LF","learning/Slide149.JPG","This is a dep:","",""
"","html-keyboard-response","455","704653","0.0-8.0-0.69","LF","kk4adj1drx","1280","720","de","en05es25","null","","","","learningBlock2","","","","This is a wug:","null","","","","",""
"","image-keyboard-response","456","704983","0.0-8.0-1.69","LF","kk4adj1drx","1280","720","de","en05es25","null","","","","","","","","learning/Slide150.JPG","null","","","","",""
"","html-keyboard-response","457","705993","0.0-8.0-2.69","LF","kk4adj1drx","1280","720","de","en05es25","null","","","","learningBlock2","","","","<div style=""font-size:60px;""> </div>","null","LF","learning/Slide150.JPG","This is a wug:","",""
"","html-keyboard-response","458","707001","0.0-8.0-0.70","LF","kk4adj1drx","1280","720","de","en05es25","null","","","","learningBlock2","","","","This is a dep:","null","","","","",""
"","image-keyboard-response","459","707342","0.0-8.0-1.70","LF","kk4adj1drx","1280","720","de","en05es25","null","","","","","","","","learning/Slide151.JPG","null","","","","",""
"","html-keyboard-response","460","708354","0.0-8.0-2.70","LF","kk4adj1drx","1280","720","de","en05es25","null","","","","learningBlock2","","","","<div style=""font-size:60px;""> </div>","null","LF","learning/Slide151.JPG","This is a dep:","",""
"","html-keyboard-response","461","709363","0.0-8.0-0.71","LF","kk4adj1drx","1280","720","de","en05es25","null","","","","learningBlock2","","","","This is a wug:","null","","","","",""
"","image-keyboard-response","462","709706","0.0-8.0-1.71","LF","kk4adj1drx","1280","720","de","en05es25","null","","","","","","","","learning/Slide152.JPG","null","","","","",""
"","html-keyboard-response","463","710713","0.0-8.0-2.71","LF","kk4adj1drx","1280","720","de","en05es25","null","","","","learningBlock2","","","","<div style=""font-size:60px;""> </div>","null","LF","learning/Slide152.JPG","This is a wug:","",""
"","html-keyboard-response","464","711719","0.0-8.0-0.72","LF","kk4adj1drx","1280","720","de","en05es25","null","","","","learningBlock2","","","","This is a bim:","null","","","","",""
"","image-keyboard-response","465","712058","0.0-8.0-1.72","LF","kk4adj1drx","1280","720","de","en05es25","null","","","","","","","","learning/Slide153.JPG","null","","","","",""
"","html-keyboard-response","466","713062","0.0-8.0-2.72","LF","kk4adj1drx","1280","720","de","en05es25","null","","","","learningBlock2","","","","<div style=""font-size:60px;""> </div>","null","LF","learning/Slide153.JPG","This is a bim:","",""
"","html-keyboard-response","467","714066","0.0-8.0-0.73","LF","kk4adj1drx","1280","720","de","en05es25","null","","","","learningBlock2","","","","This is a tob:","null","","","","",""
"","image-keyboard-response","468","714397","0.0-8.0-1.73","LF","kk4adj1drx","1280","720","de","en05es25","null","","","","","","","","learning/Slide154.JPG","null","","","","",""
"","html-keyboard-response","469","715401","0.0-8.0-2.73","LF","kk4adj1drx","1280","720","de","en05es25","null","","","","learningBlock2","","","","<div style=""font-size:60px;""> </div>","null","LF","learning/Slide154.JPG","This is a tob:","",""
"","html-keyboard-response","470","716414","0.0-8.0-0.74","LF","kk4adj1drx","1280","720","de","en05es25","null","","","","learningBlock2","","","","This is a dep:","null","","","","",""
"","image-keyboard-response","471","716745","0.0-8.0-1.74","LF","kk4adj1drx","1280","720","de","en05es25","null","","","","","","","","learning/Slide155.JPG","null","","","","",""
"","html-keyboard-response","472","717749","0.0-8.0-2.74","LF","kk4adj1drx","1280","720","de","en05es25","null","","","","learningBlock2","","","","<div style=""font-size:60px;""> </div>","null","LF","learning/Slide155.JPG","This is a dep:","",""
"","html-keyboard-response","473","718764","0.0-8.0-0.75","LF","kk4adj1drx","1280","720","de","en05es25","null","","","","learningBlock2","","","","This is a bim:","null","","","","",""
"","image-keyboard-response","474","719100","0.0-8.0-1.75","LF","kk4adj1drx","1280","720","de","en05es25","null","","","","","","","","learning/Slide156.JPG","null","","","","",""
"","html-keyboard-response","475","720108","0.0-8.0-2.75","LF","kk4adj1drx","1280","720","de","en05es25","null","","","","learningBlock2","","","","<div style=""font-size:60px;""> </div>","null","LF","learning/Slide156.JPG","This is a bim:","",""
"","html-keyboard-response","476","721113","0.0-8.0-0.76","LF","kk4adj1drx","1280","720","de","en05es25","null","","","","learningBlock2","","","","This is a dep:","null","","","","",""
"","image-keyboard-response","477","721460","0.0-8.0-1.76","LF","kk4adj1drx","1280","720","de","en05es25","null","","","","","","","","learning/Slide157.JPG","null","","","","",""
"","html-keyboard-response","478","722466","0.0-8.0-2.76","LF","kk4adj1drx","1280","720","de","en05es25","null","","","","learningBlock2","","","","<div style=""font-size:60px;""> </div>","null","LF","learning/Slide157.JPG","This is a dep:","",""
"","html-keyboard-response","479","723471","0.0-8.0-0.77","LF","kk4adj1drx","1280","720","de","en05es25","null","","","","learningBlock2","","","","This is a tob:","null","","","","",""
"","image-keyboard-response","480","723808","0.0-8.0-1.77","LF","kk4adj1drx","1280","720","de","en05es25","null","","","","","","","","learning/Slide158.JPG","null","","","","",""
"","html-keyboard-response","481","724820","0.0-8.0-2.77","LF","kk4adj1drx","1280","720","de","en05es25","null","","","","learningBlock2","","","","<div style=""font-size:60px;""> </div>","null","LF","learning/Slide158.JPG","This is a tob:","",""
"","html-keyboard-response","482","725822","0.0-8.0-0.78","LF","kk4adj1drx","1280","720","de","en05es25","null","","","","learningBlock2","","","","This is a dep:","null","","","","",""
"","image-keyboard-response","483","726166","0.0-8.0-1.78","LF","kk4adj1drx","1280","720","de","en05es25","null","","","","","","","","learning/Slide159.JPG","null","","","","",""
"","html-keyboard-response","484","727180","0.0-8.0-2.78","LF","kk4adj1drx","1280","720","de","en05es25","null","","","","learningBlock2","","","","<div style=""font-size:60px;""> </div>","null","LF","learning/Slide159.JPG","This is a dep:","",""
"","html-keyboard-response","485","728190","0.0-8.0-0.79","LF","kk4adj1drx","1280","720","de","en05es25","null","","","","learningBlock2","","","","This is a wug:","null","","","","",""
"","image-keyboard-response","486","728527","0.0-8.0-1.79","LF","kk4adj1drx","1280","720","de","en05es25","null","","","","","","","","learning/Slide160.JPG","null","","","","",""
"","html-keyboard-response","487","729538","0.0-8.0-2.79","LF","kk4adj1drx","1280","720","de","en05es25","null","","","","learningBlock2","","","","<div style=""font-size:60px;""> </div>","null","LF","learning/Slide160.JPG","This is a wug:","",""
"","resize2","488","735663","0.0-9.0","LF","kk4adj1drx","1280","720","de","en05es25","","","","","","","104","1.04","","","","","","",""
"","instructions","489","749571","0.0-10.0","LF","kk4adj1drx","1280","720","de","en05es25","NA","","","[{""page_index"":0,""viewing_time"":13906.489999964833}]","instructions","","","","","","","","","",""
