"success","trial_type","trial_index","time_elapsed","internal_node_id","condition","subject","screen_width","screen_height","language","codeword","rt","responses","url","view_history","test_part","final_height_px","final_width_px","scale_factor","stimulus","key_press","learningType","presentedImage","presentedLabel","button_pressed","response"
"true","fullscreen","0","2211","0.0-0.0","LF","w6nynz57oc","1536","864","en","tz03as24","","","","","","","","","","","","","","",""
"","survey-html-form","1","12839","0.0-1.0","LF","w6nynz57oc","1536","864","en","tz03as24","10626.52499997057","{""language"":""en""}","","","","","","","","","","","","",""
"","external-html","2","20214","0.0-3.0-0.0","LF","w6nynz57oc","1536","864","en","tz03as24","7330.235000001267","","text/information_english.html","","","","","","","","","","","",""
"","external-html","3","26238","0.0-3.0-1.0","LF","w6nynz57oc","1536","864","en","tz03as24","5992.49500001315","","text/consent_english.html","","","","","","","","","","","",""
"","survey-html-form","4","160386","0.0-3.0-2.0","LF","w6nynz57oc","1536","864","en","tz03as24","134146.94500004407","{""codeword_enter"":""tz03as24""}","","","","","","","","","","","","",""
"","instructions","5","182691","0.0-4.0","LF","w6nynz57oc","1536","864","en","tz03as24","NA","","","[{""page_index"":0,""viewing_time"":4426.29999993369},{""page_index"":1,""viewing_time"":16375.845000031404}]","instructions","","","","","","","","","",""
"","resize","6","241938","0.0-5.0","LF","w6nynz57oc","1536","864","en","tz03as24","","","","","","","386","2.450793650793651","","","","","","",""
"","html-keyboard-response","7","242945","0.0-6.0-0.0","LF","w6nynz57oc","1536","864","en","tz03as24","null","","","","learningBlock1","","","","This is a tob:","null","","","","",""
"","image-keyboard-response","8","243287","0.0-6.0-1.0","LF","w6nynz57oc","1536","864","en","tz03as24","null","","","","","","","","learning/Slide1.JPG","null","","","","",""
"","html-keyboard-response","9","244296","0.0-6.0-2.0","LF","w6nynz57oc","1536","864","en","tz03as24","null","","","","learningBlock1","","","","<div style=""font-size:60px;""> </div>","null","LF","learning/Slide1.JPG","This is a tob:","",""
"","html-keyboard-response","10","245306","0.0-6.0-0.1","LF","w6nynz57oc","1536","864","en","tz03as24","null","","","","learningBlock1","","","","This is a wug:","null","","","","",""
"","image-keyboard-response","11","245649","0.0-6.0-1.1","LF","w6nynz57oc","1536","864","en","tz03as24","null","","","","","","","","learning/Slide2.JPG","null","","","","",""
"","html-keyboard-response","12","246660","0.0-6.0-2.1","LF","w6nynz57oc","1536","864","en","tz03as24","null","","","","learningBlock1","","","","<div style=""font-size:60px;""> </div>","null","LF","learning/Slide2.JPG","This is a wug:","",""
"","html-keyboard-response","13","247663","0.0-6.0-0.2","LF","w6nynz57oc","1536","864","en","tz03as24","null","","","","learningBlock1","","","","This is a bim:","null","","","","",""
"","image-keyboard-response","14","247999","0.0-6.0-1.2","LF","w6nynz57oc","1536","864","en","tz03as24","null","","","","","","","","learning/Slide3.JPG","null","","","","",""
"","html-keyboard-response","15","249010","0.0-6.0-2.2","LF","w6nynz57oc","1536","864","en","tz03as24","null","","","","learningBlock1","","","","<div style=""font-size:60px;""> </div>","null","LF","learning/Slide3.JPG","This is a bim:","",""
"","html-keyboard-response","16","250012","0.0-6.0-0.3","LF","w6nynz57oc","1536","864","en","tz03as24","null","","","","learningBlock1","","","","This is a dep:","null","","","","",""
"","image-keyboard-response","17","250348","0.0-6.0-1.3","LF","w6nynz57oc","1536","864","en","tz03as24","null","","","","","","","","learning/Slide4.JPG","null","","","","",""
"","html-keyboard-response","18","251359","0.0-6.0-2.3","LF","w6nynz57oc","1536","864","en","tz03as24","null","","","","learningBlock1","","","","<div style=""font-size:60px;""> </div>","null","LF","learning/Slide4.JPG","This is a dep:","",""
"","html-keyboard-response","19","252367","0.0-6.0-0.4","LF","w6nynz57oc","1536","864","en","tz03as24","null","","","","learningBlock1","","","","This is a wug:","null","","","","",""
"","image-keyboard-response","20","252715","0.0-6.0-1.4","LF","w6nynz57oc","1536","864","en","tz03as24","null","","","","","","","","learning/Slide5.JPG","null","","","","",""
"","html-keyboard-response","21","253726","0.0-6.0-2.4","LF","w6nynz57oc","1536","864","en","tz03as24","null","","","","learningBlock1","","","","<div style=""font-size:60px;""> </div>","null","LF","learning/Slide5.JPG","This is a wug:","",""
"","html-keyboard-response","22","254727","0.0-6.0-0.5","LF","w6nynz57oc","1536","864","en","tz03as24","null","","","","learningBlock1","","","","This is a dep:","null","","","","",""
"","image-keyboard-response","23","255064","0.0-6.0-1.5","LF","w6nynz57oc","1536","864","en","tz03as24","null","","","","","","","","learning/Slide6.JPG","null","","","","",""
"","html-keyboard-response","24","256075","0.0-6.0-2.5","LF","w6nynz57oc","1536","864","en","tz03as24","null","","","","learningBlock1","","","","<div style=""font-size:60px;""> </div>","null","LF","learning/Slide6.JPG","This is a dep:","",""
"","html-keyboard-response","25","257077","0.0-6.0-0.6","LF","w6nynz57oc","1536","864","en","tz03as24","null","","","","learningBlock1","","","","This is a wug:","null","","","","",""
"","image-keyboard-response","26","257414","0.0-6.0-1.6","LF","w6nynz57oc","1536","864","en","tz03as24","null","","","","","","","","learning/Slide7.JPG","null","","","","",""
"","html-keyboard-response","27","258425","0.0-6.0-2.6","LF","w6nynz57oc","1536","864","en","tz03as24","null","","","","learningBlock1","","","","<div style=""font-size:60px;""> </div>","null","LF","learning/Slide7.JPG","This is a wug:","",""
"","html-keyboard-response","28","259426","0.0-6.0-0.7","LF","w6nynz57oc","1536","864","en","tz03as24","null","","","","learningBlock1","","","","This is a bim:","null","","","","",""
"","image-keyboard-response","29","259764","0.0-6.0-1.7","LF","w6nynz57oc","1536","864","en","tz03as24","null","","","","","","","","learning/Slide8.JPG","null","","","","",""
"","html-keyboard-response","30","260776","0.0-6.0-2.7","LF","w6nynz57oc","1536","864","en","tz03as24","null","","","","learningBlock1","","","","<div style=""font-size:60px;""> </div>","null","LF","learning/Slide8.JPG","This is a bim:","",""
"","html-keyboard-response","31","261793","0.0-6.0-0.8","LF","w6nynz57oc","1536","864","en","tz03as24","null","","","","learningBlock1","","","","This is a wug:","null","","","","",""
"","image-keyboard-response","32","262132","0.0-6.0-1.8","LF","w6nynz57oc","1536","864","en","tz03as24","null","","","","","","","","learning/Slide9.JPG","null","","","","",""
"","html-keyboard-response","33","263141","0.0-6.0-2.8","LF","w6nynz57oc","1536","864","en","tz03as24","null","","","","learningBlock1","","","","<div style=""font-size:60px;""> </div>","null","LF","learning/Slide9.JPG","This is a wug:","",""
"","html-keyboard-response","34","264160","0.0-6.0-0.9","LF","w6nynz57oc","1536","864","en","tz03as24","null","","","","learningBlock1","","","","This is a dep:","null","","","","",""
"","image-keyboard-response","35","264498","0.0-6.0-1.9","LF","w6nynz57oc","1536","864","en","tz03as24","null","","","","","","","","learning/Slide10.JPG","null","","","","",""
"","html-keyboard-response","36","265509","0.0-6.0-2.9","LF","w6nynz57oc","1536","864","en","tz03as24","null","","","","learningBlock1","","","","<div style=""font-size:60px;""> </div>","null","LF","learning/Slide10.JPG","This is a dep:","",""
"","html-keyboard-response","37","266525","0.0-6.0-0.10","LF","w6nynz57oc","1536","864","en","tz03as24","null","","","","learningBlock1","","","","This is a tob:","null","","","","",""
"","image-keyboard-response","38","266864","0.0-6.0-1.10","LF","w6nynz57oc","1536","864","en","tz03as24","null","","","","","","","","learning/Slide11.JPG","null","","","","",""
"","html-keyboard-response","39","267878","0.0-6.0-2.10","LF","w6nynz57oc","1536","864","en","tz03as24","null","","","","learningBlock1","","","","<div style=""font-size:60px;""> </div>","null","LF","learning/Slide11.JPG","This is a tob:","",""
"","html-keyboard-response","40","268891","0.0-6.0-0.11","LF","w6nynz57oc","1536","864","en","tz03as24","null","","","","learningBlock1","","","","This is a dep:","null","","","","",""
"","image-keyboard-response","41","269232","0.0-6.0-1.11","LF","w6nynz57oc","1536","864","en","tz03as24","null","","","","","","","","learning/Slide12.JPG","null","","","","",""
"","html-keyboard-response","42","270242","0.0-6.0-2.11","LF","w6nynz57oc","1536","864","en","tz03as24","null","","","","learningBlock1","","","","<div style=""font-size:60px;""> </div>","null","LF","learning/Slide12.JPG","This is a dep:","",""
"","html-keyboard-response","43","271259","0.0-6.0-0.12","LF","w6nynz57oc","1536","864","en","tz03as24","null","","","","learningBlock1","","","","This is a bim:","null","","","","",""
"","image-keyboard-response","44","271598","0.0-6.0-1.12","LF","w6nynz57oc","1536","864","en","tz03as24","null","","","","","","","","learning/Slide13.JPG","null","","","","",""
"","html-keyboard-response","45","272613","0.0-6.0-2.12","LF","w6nynz57oc","1536","864","en","tz03as24","null","","","","learningBlock1","","","","<div style=""font-size:60px;""> </div>","null","LF","learning/Slide13.JPG","This is a bim:","",""
"","html-keyboard-response","46","273624","0.0-6.0-0.13","LF","w6nynz57oc","1536","864","en","tz03as24","null","","","","learningBlock1","","","","This is a wug:","null","","","","",""
"","image-keyboard-response","47","273965","0.0-6.0-1.13","LF","w6nynz57oc","1536","864","en","tz03as24","null","","","","","","","","learning/Slide14.JPG","null","","","","",""
"","html-keyboard-response","48","274974","0.0-6.0-2.13","LF","w6nynz57oc","1536","864","en","tz03as24","null","","","","learningBlock1","","","","<div style=""font-size:60px;""> </div>","null","LF","learning/Slide14.JPG","This is a wug:","",""
"","html-keyboard-response","49","275976","0.0-6.0-0.14","LF","w6nynz57oc","1536","864","en","tz03as24","null","","","","learningBlock1","","","","This is a tob:","null","","","","",""
"","image-keyboard-response","50","276313","0.0-6.0-1.14","LF","w6nynz57oc","1536","864","en","tz03as24","null","","","","","","","","learning/Slide15.JPG","null","","","","",""
"","html-keyboard-response","51","277323","0.0-6.0-2.14","LF","w6nynz57oc","1536","864","en","tz03as24","null","","","","learningBlock1","","","","<div style=""font-size:60px;""> </div>","null","LF","learning/Slide15.JPG","This is a tob:","",""
"","html-keyboard-response","52","278326","0.0-6.0-0.15","LF","w6nynz57oc","1536","864","en","tz03as24","null","","","","learningBlock1","","","","This is a dep:","null","","","","",""
"","image-keyboard-response","53","278663","0.0-6.0-1.15","LF","w6nynz57oc","1536","864","en","tz03as24","null","","","","","","","","learning/Slide16.JPG","null","","","","",""
"","html-keyboard-response","54","279672","0.0-6.0-2.15","LF","w6nynz57oc","1536","864","en","tz03as24","null","","","","learningBlock1","","","","<div style=""font-size:60px;""> </div>","null","LF","learning/Slide16.JPG","This is a dep:","",""
"","html-keyboard-response","55","280674","0.0-6.0-0.16","LF","w6nynz57oc","1536","864","en","tz03as24","null","","","","learningBlock1","","","","This is a bim:","null","","","","",""
"","image-keyboard-response","56","281013","0.0-6.0-1.16","LF","w6nynz57oc","1536","864","en","tz03as24","null","","","","","","","","learning/Slide17.JPG","null","","","","",""
"","html-keyboard-response","57","282023","0.0-6.0-2.16","LF","w6nynz57oc","1536","864","en","tz03as24","null","","","","learningBlock1","","","","<div style=""font-size:60px;""> </div>","null","LF","learning/Slide17.JPG","This is a bim:","",""
"","html-keyboard-response","58","283039","0.0-6.0-0.17","LF","w6nynz57oc","1536","864","en","tz03as24","null","","","","learningBlock1","","","","This is a tob:","null","","","","",""
"","image-keyboard-response","59","283379","0.0-6.0-1.17","LF","w6nynz57oc","1536","864","en","tz03as24","null","","","","","","","","learning/Slide18.JPG","null","","","","",""
"","html-keyboard-response","60","284390","0.0-6.0-2.17","LF","w6nynz57oc","1536","864","en","tz03as24","null","","","","learningBlock1","","","","<div style=""font-size:60px;""> </div>","null","LF","learning/Slide18.JPG","This is a tob:","",""
"","html-keyboard-response","61","285406","0.0-6.0-0.18","LF","w6nynz57oc","1536","864","en","tz03as24","null","","","","learningBlock1","","","","This is a wug:","null","","","","",""
"","image-keyboard-response","62","285745","0.0-6.0-1.18","LF","w6nynz57oc","1536","864","en","tz03as24","null","","","","","","","","learning/Slide19.JPG","null","","","","",""
"","html-keyboard-response","63","286755","0.0-6.0-2.18","LF","w6nynz57oc","1536","864","en","tz03as24","null","","","","learningBlock1","","","","<div style=""font-size:60px;""> </div>","null","LF","learning/Slide19.JPG","This is a wug:","",""
"","html-keyboard-response","64","287758","0.0-6.0-0.19","LF","w6nynz57oc","1536","864","en","tz03as24","null","","","","learningBlock1","","","","This is a bim:","null","","","","",""
"","image-keyboard-response","65","288095","0.0-6.0-1.19","LF","w6nynz57oc","1536","864","en","tz03as24","null","","","","","","","","learning/Slide20.JPG","null","","","","",""
"","html-keyboard-response","66","289105","0.0-6.0-2.19","LF","w6nynz57oc","1536","864","en","tz03as24","null","","","","learningBlock1","","","","<div style=""font-size:60px;""> </div>","null","LF","learning/Slide20.JPG","This is a bim:","",""
"","html-keyboard-response","67","290107","0.0-6.0-0.20","LF","w6nynz57oc","1536","864","en","tz03as24","null","","","","learningBlock1","","","","This is a dep:","null","","","","",""
"","image-keyboard-response","68","290445","0.0-6.0-1.20","LF","w6nynz57oc","1536","864","en","tz03as24","null","","","","","","","","learning/Slide21.JPG","null","","","","",""
"","html-keyboard-response","69","291458","0.0-6.0-2.20","LF","w6nynz57oc","1536","864","en","tz03as24","null","","","","learningBlock1","","","","<div style=""font-size:60px;""> </div>","null","LF","learning/Slide21.JPG","This is a dep:","",""
"","html-keyboard-response","70","292464","0.0-6.0-0.21","LF","w6nynz57oc","1536","864","en","tz03as24","null","","","","learningBlock1","","","","This is a bim:","null","","","","",""
"","image-keyboard-response","71","292811","0.0-6.0-1.21","LF","w6nynz57oc","1536","864","en","tz03as24","null","","","","","","","","learning/Slide22.JPG","null","","","","",""
"","html-keyboard-response","72","293820","0.0-6.0-2.21","LF","w6nynz57oc","1536","864","en","tz03as24","null","","","","learningBlock1","","","","<div style=""font-size:60px;""> </div>","null","LF","learning/Slide22.JPG","This is a bim:","",""
"","html-keyboard-response","73","294823","0.0-6.0-0.22","LF","w6nynz57oc","1536","864","en","tz03as24","null","","","","learningBlock1","","","","This is a tob:","null","","","","",""
"","image-keyboard-response","74","295163","0.0-6.0-1.22","LF","w6nynz57oc","1536","864","en","tz03as24","null","","","","","","","","learning/Slide23.JPG","null","","","","",""
"","html-keyboard-response","75","296171","0.0-6.0-2.22","LF","w6nynz57oc","1536","864","en","tz03as24","null","","","","learningBlock1","","","","<div style=""font-size:60px;""> </div>","null","LF","learning/Slide23.JPG","This is a tob:","",""
"","html-keyboard-response","76","297172","0.0-6.0-0.23","LF","w6nynz57oc","1536","864","en","tz03as24","null","","","","learningBlock1","","","","This is a wug:","null","","","","",""
"","image-keyboard-response","77","297510","0.0-6.0-1.23","LF","w6nynz57oc","1536","864","en","tz03as24","null","","","","","","","","learning/Slide24.JPG","null","","","","",""
"","html-keyboard-response","78","298526","0.0-6.0-2.23","LF","w6nynz57oc","1536","864","en","tz03as24","null","","","","learningBlock1","","","","<div style=""font-size:60px;""> </div>","null","LF","learning/Slide24.JPG","This is a wug:","",""
"","html-keyboard-response","79","299538","0.0-6.0-0.24","LF","w6nynz57oc","1536","864","en","tz03as24","null","","","","learningBlock1","","","","This is a dep:","null","","","","",""
"","image-keyboard-response","80","299877","0.0-6.0-1.24","LF","w6nynz57oc","1536","864","en","tz03as24","null","","","","","","","","learning/Slide25.JPG","null","","","","",""
"","html-keyboard-response","81","300887","0.0-6.0-2.24","LF","w6nynz57oc","1536","864","en","tz03as24","null","","","","learningBlock1","","","","<div style=""font-size:60px;""> </div>","null","LF","learning/Slide25.JPG","This is a dep:","",""
"","html-keyboard-response","82","301903","0.0-6.0-0.25","LF","w6nynz57oc","1536","864","en","tz03as24","null","","","","learningBlock1","","","","This is a wug:","null","","","","",""
"","image-keyboard-response","83","302243","0.0-6.0-1.25","LF","w6nynz57oc","1536","864","en","tz03as24","null","","","","","","","","learning/Slide26.JPG","null","","","","",""
"","html-keyboard-response","84","303252","0.0-6.0-2.25","LF","w6nynz57oc","1536","864","en","tz03as24","null","","","","learningBlock1","","","","<div style=""font-size:60px;""> </div>","null","LF","learning/Slide26.JPG","This is a wug:","",""
"","html-keyboard-response","85","304255","0.0-6.0-0.26","LF","w6nynz57oc","1536","864","en","tz03as24","null","","","","learningBlock1","","","","This is a bim:","null","","","","",""
"","image-keyboard-response","86","304593","0.0-6.0-1.26","LF","w6nynz57oc","1536","864","en","tz03as24","null","","","","","","","","learning/Slide27.JPG","null","","","","",""
"","html-keyboard-response","87","305604","0.0-6.0-2.26","LF","w6nynz57oc","1536","864","en","tz03as24","null","","","","learningBlock1","","","","<div style=""font-size:60px;""> </div>","null","LF","learning/Slide27.JPG","This is a bim:","",""
"","html-keyboard-response","88","306621","0.0-6.0-0.27","LF","w6nynz57oc","1536","864","en","tz03as24","null","","","","learningBlock1","","","","This is a dep:","null","","","","",""
"","image-keyboard-response","89","306960","0.0-6.0-1.27","LF","w6nynz57oc","1536","864","en","tz03as24","null","","","","","","","","learning/Slide28.JPG","null","","","","",""
"","html-keyboard-response","90","307970","0.0-6.0-2.27","LF","w6nynz57oc","1536","864","en","tz03as24","null","","","","learningBlock1","","","","<div style=""font-size:60px;""> </div>","null","LF","learning/Slide28.JPG","This is a dep:","",""
"","html-keyboard-response","91","308987","0.0-6.0-0.28","LF","w6nynz57oc","1536","864","en","tz03as24","null","","","","learningBlock1","","","","This is a tob:","null","","","","",""
"","image-keyboard-response","92","309326","0.0-6.0-1.28","LF","w6nynz57oc","1536","864","en","tz03as24","null","","","","","","","","learning/Slide29.JPG","null","","","","",""
"","html-keyboard-response","93","310336","0.0-6.0-2.28","LF","w6nynz57oc","1536","864","en","tz03as24","null","","","","learningBlock1","","","","<div style=""font-size:60px;""> </div>","null","LF","learning/Slide29.JPG","This is a tob:","",""
"","html-keyboard-response","94","311338","0.0-6.0-0.29","LF","w6nynz57oc","1536","864","en","tz03as24","null","","","","learningBlock1","","","","This is a dep:","null","","","","",""
"","image-keyboard-response","95","311675","0.0-6.0-1.29","LF","w6nynz57oc","1536","864","en","tz03as24","null","","","","","","","","learning/Slide30.JPG","null","","","","",""
"","html-keyboard-response","96","312691","0.0-6.0-2.29","LF","w6nynz57oc","1536","864","en","tz03as24","null","","","","learningBlock1","","","","<div style=""font-size:60px;""> </div>","null","LF","learning/Slide30.JPG","This is a dep:","",""
"","html-keyboard-response","97","313702","0.0-6.0-0.30","LF","w6nynz57oc","1536","864","en","tz03as24","null","","","","learningBlock1","","","","This is a wug:","null","","","","",""
"","image-keyboard-response","98","314042","0.0-6.0-1.30","LF","w6nynz57oc","1536","864","en","tz03as24","null","","","","","","","","learning/Slide31.JPG","null","","","","",""
"","html-keyboard-response","99","315051","0.0-6.0-2.30","LF","w6nynz57oc","1536","864","en","tz03as24","null","","","","learningBlock1","","","","<div style=""font-size:60px;""> </div>","null","LF","learning/Slide31.JPG","This is a wug:","",""
"","html-keyboard-response","100","316055","0.0-6.0-0.31","LF","w6nynz57oc","1536","864","en","tz03as24","null","","","","learningBlock1","","","","This is a tob:","null","","","","",""
"","image-keyboard-response","101","316391","0.0-6.0-1.31","LF","w6nynz57oc","1536","864","en","tz03as24","null","","","","","","","","learning/Slide32.JPG","null","","","","",""
"","html-keyboard-response","102","317395","0.0-6.0-2.31","LF","w6nynz57oc","1536","864","en","tz03as24","null","","","","learningBlock1","","","","<div style=""font-size:60px;""> </div>","null","LF","learning/Slide32.JPG","This is a tob:","",""
"","html-keyboard-response","103","318400","0.0-6.0-0.32","LF","w6nynz57oc","1536","864","en","tz03as24","null","","","","learningBlock1","","","","This is a bim:","null","","","","",""
"","image-keyboard-response","104","318741","0.0-6.0-1.32","LF","w6nynz57oc","1536","864","en","tz03as24","null","","","","","","","","learning/Slide33.JPG","null","","","","",""
"","html-keyboard-response","105","319752","0.0-6.0-2.32","LF","w6nynz57oc","1536","864","en","tz03as24","null","","","","learningBlock1","","","","<div style=""font-size:60px;""> </div>","null","LF","learning/Slide33.JPG","This is a bim:","",""
"","html-keyboard-response","106","320768","0.0-6.0-0.33","LF","w6nynz57oc","1536","864","en","tz03as24","null","","","","learningBlock1","","","","This is a tob:","null","","","","",""
"","image-keyboard-response","107","321107","0.0-6.0-1.33","LF","w6nynz57oc","1536","864","en","tz03as24","null","","","","","","","","learning/Slide34.JPG","null","","","","",""
"","html-keyboard-response","108","322118","0.0-6.0-2.33","LF","w6nynz57oc","1536","864","en","tz03as24","null","","","","learningBlock1","","","","<div style=""font-size:60px;""> </div>","null","LF","learning/Slide34.JPG","This is a tob:","",""
"","html-keyboard-response","109","323132","0.0-6.0-0.34","LF","w6nynz57oc","1536","864","en","tz03as24","null","","","","learningBlock1","","","","This is a bim:","null","","","","",""
"","image-keyboard-response","110","323474","0.0-6.0-1.34","LF","w6nynz57oc","1536","864","en","tz03as24","null","","","","","","","","learning/Slide35.JPG","null","","","","",""
"","html-keyboard-response","111","324484","0.0-6.0-2.34","LF","w6nynz57oc","1536","864","en","tz03as24","null","","","","learningBlock1","","","","<div style=""font-size:60px;""> </div>","null","LF","learning/Slide35.JPG","This is a bim:","",""
"","html-keyboard-response","112","325486","0.0-6.0-0.35","LF","w6nynz57oc","1536","864","en","tz03as24","null","","","","learningBlock1","","","","This is a dep:","null","","","","",""
"","image-keyboard-response","113","325823","0.0-6.0-1.35","LF","w6nynz57oc","1536","864","en","tz03as24","null","","","","","","","","learning/Slide36.JPG","null","","","","",""
"","html-keyboard-response","114","326832","0.0-6.0-2.35","LF","w6nynz57oc","1536","864","en","tz03as24","null","","","","learningBlock1","","","","<div style=""font-size:60px;""> </div>","null","LF","learning/Slide36.JPG","This is a dep:","",""
"","html-keyboard-response","115","327850","0.0-6.0-0.36","LF","w6nynz57oc","1536","864","en","tz03as24","null","","","","learningBlock1","","","","This is a tob:","null","","","","",""
"","image-keyboard-response","116","328190","0.0-6.0-1.36","LF","w6nynz57oc","1536","864","en","tz03as24","null","","","","","","","","learning/Slide37.JPG","null","","","","",""
"","html-keyboard-response","117","329200","0.0-6.0-2.36","LF","w6nynz57oc","1536","864","en","tz03as24","null","","","","learningBlock1","","","","<div style=""font-size:60px;""> </div>","null","LF","learning/Slide37.JPG","This is a tob:","",""
"","html-keyboard-response","118","330202","0.0-6.0-0.37","LF","w6nynz57oc","1536","864","en","tz03as24","null","","","","learningBlock1","","","","This is a wug:","null","","","","",""
"","image-keyboard-response","119","330540","0.0-6.0-1.37","LF","w6nynz57oc","1536","864","en","tz03as24","null","","","","","","","","learning/Slide38.JPG","null","","","","",""
"","html-keyboard-response","120","331550","0.0-6.0-2.37","LF","w6nynz57oc","1536","864","en","tz03as24","null","","","","learningBlock1","","","","<div style=""font-size:60px;""> </div>","null","LF","learning/Slide38.JPG","This is a wug:","",""
"","html-keyboard-response","121","332555","0.0-6.0-0.38","LF","w6nynz57oc","1536","864","en","tz03as24","null","","","","learningBlock1","","","","This is a bim:","null","","","","",""
"","image-keyboard-response","122","332889","0.0-6.0-1.38","LF","w6nynz57oc","1536","864","en","tz03as24","null","","","","","","","","learning/Slide39.JPG","null","","","","",""
"","html-keyboard-response","123","333898","0.0-6.0-2.38","LF","w6nynz57oc","1536","864","en","tz03as24","null","","","","learningBlock1","","","","<div style=""font-size:60px;""> </div>","null","LF","learning/Slide39.JPG","This is a bim:","",""
"","html-keyboard-response","124","334901","0.0-6.0-0.39","LF","w6nynz57oc","1536","864","en","tz03as24","null","","","","learningBlock1","","","","This is a tob:","null","","","","",""
"","image-keyboard-response","125","335239","0.0-6.0-1.39","LF","w6nynz57oc","1536","864","en","tz03as24","null","","","","","","","","learning/Slide40.JPG","null","","","","",""
"","html-keyboard-response","126","336249","0.0-6.0-2.39","LF","w6nynz57oc","1536","864","en","tz03as24","null","","","","learningBlock1","","","","<div style=""font-size:60px;""> </div>","null","LF","learning/Slide40.JPG","This is a tob:","",""
"","html-keyboard-response","127","337252","0.0-6.0-0.40","LF","w6nynz57oc","1536","864","en","tz03as24","null","","","","learningBlock1","","","","This is a bim:","null","","","","",""
"","image-keyboard-response","128","337605","0.0-6.0-1.40","LF","w6nynz57oc","1536","864","en","tz03as24","null","","","","","","","","learning/Slide41.JPG","null","","","","",""
"","html-keyboard-response","129","338615","0.0-6.0-2.40","LF","w6nynz57oc","1536","864","en","tz03as24","null","","","","learningBlock1","","","","<div style=""font-size:60px;""> </div>","null","LF","learning/Slide41.JPG","This is a bim:","",""
"","html-keyboard-response","130","339632","0.0-6.0-0.41","LF","w6nynz57oc","1536","864","en","tz03as24","null","","","","learningBlock1","","","","This is a dep:","null","","","","",""
"","image-keyboard-response","131","339970","0.0-6.0-1.41","LF","w6nynz57oc","1536","864","en","tz03as24","null","","","","","","","","learning/Slide42.JPG","null","","","","",""
"","html-keyboard-response","132","340981","0.0-6.0-2.41","LF","w6nynz57oc","1536","864","en","tz03as24","null","","","","learningBlock1","","","","<div style=""font-size:60px;""> </div>","null","LF","learning/Slide42.JPG","This is a dep:","",""
"","html-keyboard-response","133","341982","0.0-6.0-0.42","LF","w6nynz57oc","1536","864","en","tz03as24","null","","","","learningBlock1","","","","This is a wug:","null","","","","",""
"","image-keyboard-response","134","342322","0.0-6.0-1.42","LF","w6nynz57oc","1536","864","en","tz03as24","null","","","","","","","","learning/Slide43.JPG","null","","","","",""
"","html-keyboard-response","135","343332","0.0-6.0-2.42","LF","w6nynz57oc","1536","864","en","tz03as24","null","","","","learningBlock1","","","","<div style=""font-size:60px;""> </div>","null","LF","learning/Slide43.JPG","This is a wug:","",""
"","html-keyboard-response","136","344333","0.0-6.0-0.43","LF","w6nynz57oc","1536","864","en","tz03as24","null","","","","learningBlock1","","","","This is a bim:","null","","","","",""
"","image-keyboard-response","137","344671","0.0-6.0-1.43","LF","w6nynz57oc","1536","864","en","tz03as24","null","","","","","","","","learning/Slide44.JPG","null","","","","",""
"","html-keyboard-response","138","345682","0.0-6.0-2.43","LF","w6nynz57oc","1536","864","en","tz03as24","null","","","","learningBlock1","","","","<div style=""font-size:60px;""> </div>","null","LF","learning/Slide44.JPG","This is a bim:","",""
"","html-keyboard-response","139","346698","0.0-6.0-0.44","LF","w6nynz57oc","1536","864","en","tz03as24","null","","","","learningBlock1","","","","This is a wug:","null","","","","",""
"","image-keyboard-response","140","347037","0.0-6.0-1.44","LF","w6nynz57oc","1536","864","en","tz03as24","null","","","","","","","","learning/Slide45.JPG","null","","","","",""
"","html-keyboard-response","141","348048","0.0-6.0-2.44","LF","w6nynz57oc","1536","864","en","tz03as24","null","","","","learningBlock1","","","","<div style=""font-size:60px;""> </div>","null","LF","learning/Slide45.JPG","This is a wug:","",""
"","html-keyboard-response","142","349065","0.0-6.0-0.45","LF","w6nynz57oc","1536","864","en","tz03as24","null","","","","learningBlock1","","","","This is a dep:","null","","","","",""
"","image-keyboard-response","143","349404","0.0-6.0-1.45","LF","w6nynz57oc","1536","864","en","tz03as24","null","","","","","","","","learning/Slide46.JPG","null","","","","",""
"","html-keyboard-response","144","350413","0.0-6.0-2.45","LF","w6nynz57oc","1536","864","en","tz03as24","null","","","","learningBlock1","","","","<div style=""font-size:60px;""> </div>","null","LF","learning/Slide46.JPG","This is a dep:","",""
"","html-keyboard-response","145","351430","0.0-6.0-0.46","LF","w6nynz57oc","1536","864","en","tz03as24","null","","","","learningBlock1","","","","This is a tob:","null","","","","",""
"","image-keyboard-response","146","351770","0.0-6.0-1.46","LF","w6nynz57oc","1536","864","en","tz03as24","null","","","","","","","","learning/Slide47.JPG","null","","","","",""
"","html-keyboard-response","147","352783","0.0-6.0-2.46","LF","w6nynz57oc","1536","864","en","tz03as24","null","","","","learningBlock1","","","","<div style=""font-size:60px;""> </div>","null","LF","learning/Slide47.JPG","This is a tob:","",""
"","html-keyboard-response","148","353797","0.0-6.0-0.47","LF","w6nynz57oc","1536","864","en","tz03as24","null","","","","learningBlock1","","","","This is a bim:","null","","","","",""
"","image-keyboard-response","149","354136","0.0-6.0-1.47","LF","w6nynz57oc","1536","864","en","tz03as24","null","","","","","","","","learning/Slide48.JPG","null","","","","",""
"","html-keyboard-response","150","355148","0.0-6.0-2.47","LF","w6nynz57oc","1536","864","en","tz03as24","null","","","","learningBlock1","","","","<div style=""font-size:60px;""> </div>","null","LF","learning/Slide48.JPG","This is a bim:","",""
"","html-keyboard-response","151","356163","0.0-6.0-0.48","LF","w6nynz57oc","1536","864","en","tz03as24","null","","","","learningBlock1","","","","This is a dep:","null","","","","",""
"","image-keyboard-response","152","356504","0.0-6.0-1.48","LF","w6nynz57oc","1536","864","en","tz03as24","null","","","","","","","","learning/Slide49.JPG","null","","","","",""
"","html-keyboard-response","153","357519","0.0-6.0-2.48","LF","w6nynz57oc","1536","864","en","tz03as24","null","","","","learningBlock1","","","","<div style=""font-size:60px;""> </div>","null","LF","learning/Slide49.JPG","This is a dep:","",""
"","html-keyboard-response","154","358529","0.0-6.0-0.49","LF","w6nynz57oc","1536","864","en","tz03as24","null","","","","learningBlock1","","","","This is a tob:","null","","","","",""
"","image-keyboard-response","155","358869","0.0-6.0-1.49","LF","w6nynz57oc","1536","864","en","tz03as24","null","","","","","","","","learning/Slide50.JPG","null","","","","",""
"","html-keyboard-response","156","359880","0.0-6.0-2.49","LF","w6nynz57oc","1536","864","en","tz03as24","null","","","","learningBlock1","","","","<div style=""font-size:60px;""> </div>","null","LF","learning/Slide50.JPG","This is a tob:","",""
"","html-keyboard-response","157","360897","0.0-6.0-0.50","LF","w6nynz57oc","1536","864","en","tz03as24","null","","","","learningBlock1","","","","This is a bim:","null","","","","",""
"","image-keyboard-response","158","361235","0.0-6.0-1.50","LF","w6nynz57oc","1536","864","en","tz03as24","null","","","","","","","","learning/Slide51.JPG","null","","","","",""
"","html-keyboard-response","159","362246","0.0-6.0-2.50","LF","w6nynz57oc","1536","864","en","tz03as24","null","","","","learningBlock1","","","","<div style=""font-size:60px;""> </div>","null","LF","learning/Slide51.JPG","This is a bim:","",""
"","html-keyboard-response","160","363255","0.0-6.0-0.51","LF","w6nynz57oc","1536","864","en","tz03as24","null","","","","learningBlock1","","","","This is a wug:","null","","","","",""
"","image-keyboard-response","161","363602","0.0-6.0-1.51","LF","w6nynz57oc","1536","864","en","tz03as24","null","","","","","","","","learning/Slide52.JPG","null","","","","",""
"","html-keyboard-response","162","364615","0.0-6.0-2.51","LF","w6nynz57oc","1536","864","en","tz03as24","null","","","","learningBlock1","","","","<div style=""font-size:60px;""> </div>","null","LF","learning/Slide52.JPG","This is a wug:","",""
"","html-keyboard-response","163","365629","0.0-6.0-0.52","LF","w6nynz57oc","1536","864","en","tz03as24","null","","","","learningBlock1","","","","This is a tob:","null","","","","",""
"","image-keyboard-response","164","365968","0.0-6.0-1.52","LF","w6nynz57oc","1536","864","en","tz03as24","null","","","","","","","","learning/Slide53.JPG","null","","","","",""
"","html-keyboard-response","165","366977","0.0-6.0-2.52","LF","w6nynz57oc","1536","864","en","tz03as24","null","","","","learningBlock1","","","","<div style=""font-size:60px;""> </div>","null","LF","learning/Slide53.JPG","This is a tob:","",""
"","html-keyboard-response","166","367981","0.0-6.0-0.53","LF","w6nynz57oc","1536","864","en","tz03as24","null","","","","learningBlock1","","","","This is a dep:","null","","","","",""
"","image-keyboard-response","167","368318","0.0-6.0-1.53","LF","w6nynz57oc","1536","864","en","tz03as24","null","","","","","","","","learning/Slide54.JPG","null","","","","",""
"","html-keyboard-response","168","369329","0.0-6.0-2.53","LF","w6nynz57oc","1536","864","en","tz03as24","null","","","","learningBlock1","","","","<div style=""font-size:60px;""> </div>","null","LF","learning/Slide54.JPG","This is a dep:","",""
"","html-keyboard-response","169","370330","0.0-6.0-0.54","LF","w6nynz57oc","1536","864","en","tz03as24","null","","","","learningBlock1","","","","This is a bim:","null","","","","",""
"","image-keyboard-response","170","370668","0.0-6.0-1.54","LF","w6nynz57oc","1536","864","en","tz03as24","null","","","","","","","","learning/Slide55.JPG","null","","","","",""
"","html-keyboard-response","171","371678","0.0-6.0-2.54","LF","w6nynz57oc","1536","864","en","tz03as24","null","","","","learningBlock1","","","","<div style=""font-size:60px;""> </div>","null","LF","learning/Slide55.JPG","This is a bim:","",""
"","html-keyboard-response","172","372695","0.0-6.0-0.55","LF","w6nynz57oc","1536","864","en","tz03as24","null","","","","learningBlock1","","","","This is a tob:","null","","","","",""
"","image-keyboard-response","173","373034","0.0-6.0-1.55","LF","w6nynz57oc","1536","864","en","tz03as24","null","","","","","","","","learning/Slide56.JPG","null","","","","",""
"","html-keyboard-response","174","374043","0.0-6.0-2.55","LF","w6nynz57oc","1536","864","en","tz03as24","null","","","","learningBlock1","","","","<div style=""font-size:60px;""> </div>","null","LF","learning/Slide56.JPG","This is a tob:","",""
"","html-keyboard-response","175","375045","0.0-6.0-0.56","LF","w6nynz57oc","1536","864","en","tz03as24","null","","","","learningBlock1","","","","This is a dep:","null","","","","",""
"","image-keyboard-response","176","375383","0.0-6.0-1.56","LF","w6nynz57oc","1536","864","en","tz03as24","null","","","","","","","","learning/Slide57.JPG","null","","","","",""
"","html-keyboard-response","177","376395","0.0-6.0-2.56","LF","w6nynz57oc","1536","864","en","tz03as24","null","","","","learningBlock1","","","","<div style=""font-size:60px;""> </div>","null","LF","learning/Slide57.JPG","This is a dep:","",""
"","html-keyboard-response","178","377401","0.0-6.0-0.57","LF","w6nynz57oc","1536","864","en","tz03as24","null","","","","learningBlock1","","","","This is a wug:","null","","","","",""
"","image-keyboard-response","179","377734","0.0-6.0-1.57","LF","w6nynz57oc","1536","864","en","tz03as24","null","","","","","","","","learning/Slide58.JPG","null","","","","",""
"","html-keyboard-response","180","378744","0.0-6.0-2.57","LF","w6nynz57oc","1536","864","en","tz03as24","null","","","","learningBlock1","","","","<div style=""font-size:60px;""> </div>","null","LF","learning/Slide58.JPG","This is a wug:","",""
"","html-keyboard-response","181","379761","0.0-6.0-0.58","LF","w6nynz57oc","1536","864","en","tz03as24","null","","","","learningBlock1","","","","This is a dep:","null","","","","",""
"","image-keyboard-response","182","380100","0.0-6.0-1.58","LF","w6nynz57oc","1536","864","en","tz03as24","null","","","","","","","","learning/Slide59.JPG","null","","","","",""
"","html-keyboard-response","183","381109","0.0-6.0-2.58","LF","w6nynz57oc","1536","864","en","tz03as24","null","","","","learningBlock1","","","","<div style=""font-size:60px;""> </div>","null","LF","learning/Slide59.JPG","This is a dep:","",""
"","html-keyboard-response","184","382112","0.0-6.0-0.59","LF","w6nynz57oc","1536","864","en","tz03as24","null","","","","learningBlock1","","","","This is a wug:","null","","","","",""
"","image-keyboard-response","185","382449","0.0-6.0-1.59","LF","w6nynz57oc","1536","864","en","tz03as24","null","","","","","","","","learning/Slide60.JPG","null","","","","",""
"","html-keyboard-response","186","383458","0.0-6.0-2.59","LF","w6nynz57oc","1536","864","en","tz03as24","null","","","","learningBlock1","","","","<div style=""font-size:60px;""> </div>","null","LF","learning/Slide60.JPG","This is a wug:","",""
"","html-keyboard-response","187","384462","0.0-6.0-0.60","LF","w6nynz57oc","1536","864","en","tz03as24","null","","","","learningBlock1","","","","This is a bim:","null","","","","",""
"","image-keyboard-response","188","384799","0.0-6.0-1.60","LF","w6nynz57oc","1536","864","en","tz03as24","null","","","","","","","","learning/Slide61.JPG","null","","","","",""
"","html-keyboard-response","189","385808","0.0-6.0-2.60","LF","w6nynz57oc","1536","864","en","tz03as24","null","","","","learningBlock1","","","","<div style=""font-size:60px;""> </div>","null","LF","learning/Slide61.JPG","This is a bim:","",""
"","html-keyboard-response","190","386825","0.0-6.0-0.61","LF","w6nynz57oc","1536","864","en","tz03as24","null","","","","learningBlock1","","","","This is a dep:","null","","","","",""
"","image-keyboard-response","191","387167","0.0-6.0-1.61","LF","w6nynz57oc","1536","864","en","tz03as24","null","","","","","","","","learning/Slide62.JPG","null","","","","",""
"","html-keyboard-response","192","388175","0.0-6.0-2.61","LF","w6nynz57oc","1536","864","en","tz03as24","null","","","","learningBlock1","","","","<div style=""font-size:60px;""> </div>","null","LF","learning/Slide62.JPG","This is a dep:","",""
"","html-keyboard-response","193","389178","0.0-6.0-0.62","LF","w6nynz57oc","1536","864","en","tz03as24","null","","","","learningBlock1","","","","This is a bim:","null","","","","",""
"","image-keyboard-response","194","389515","0.0-6.0-1.62","LF","w6nynz57oc","1536","864","en","tz03as24","null","","","","","","","","learning/Slide63.JPG","null","","","","",""
"","html-keyboard-response","195","390526","0.0-6.0-2.62","LF","w6nynz57oc","1536","864","en","tz03as24","null","","","","learningBlock1","","","","<div style=""font-size:60px;""> </div>","null","LF","learning/Slide63.JPG","This is a bim:","",""
"","html-keyboard-response","196","391543","0.0-6.0-0.63","LF","w6nynz57oc","1536","864","en","tz03as24","null","","","","learningBlock1","","","","This is a tob:","null","","","","",""
"","image-keyboard-response","197","391882","0.0-6.0-1.63","LF","w6nynz57oc","1536","864","en","tz03as24","null","","","","","","","","learning/Slide64.JPG","null","","","","",""
"","html-keyboard-response","198","392897","0.0-6.0-2.63","LF","w6nynz57oc","1536","864","en","tz03as24","null","","","","learningBlock1","","","","<div style=""font-size:60px;""> </div>","null","LF","learning/Slide64.JPG","This is a tob:","",""
"","html-keyboard-response","199","393908","0.0-6.0-0.64","LF","w6nynz57oc","1536","864","en","tz03as24","null","","","","learningBlock1","","","","This is a wug:","null","","","","",""
"","image-keyboard-response","200","394248","0.0-6.0-1.64","LF","w6nynz57oc","1536","864","en","tz03as24","null","","","","","","","","learning/Slide65.JPG","null","","","","",""
"","html-keyboard-response","201","395259","0.0-6.0-2.64","LF","w6nynz57oc","1536","864","en","tz03as24","null","","","","learningBlock1","","","","<div style=""font-size:60px;""> </div>","null","LF","learning/Slide65.JPG","This is a wug:","",""
"","html-keyboard-response","202","396274","0.0-6.0-0.65","LF","w6nynz57oc","1536","864","en","tz03as24","null","","","","learningBlock1","","","","This is a dep:","null","","","","",""
"","image-keyboard-response","203","396615","0.0-6.0-1.65","LF","w6nynz57oc","1536","864","en","tz03as24","null","","","","","","","","learning/Slide66.JPG","null","","","","",""
"","html-keyboard-response","204","397630","0.0-6.0-2.65","LF","w6nynz57oc","1536","864","en","tz03as24","null","","","","learningBlock1","","","","<div style=""font-size:60px;""> </div>","null","LF","learning/Slide66.JPG","This is a dep:","",""
"","html-keyboard-response","205","398642","0.0-6.0-0.66","LF","w6nynz57oc","1536","864","en","tz03as24","null","","","","learningBlock1","","","","This is a tob:","null","","","","",""
"","image-keyboard-response","206","398981","0.0-6.0-1.66","LF","w6nynz57oc","1536","864","en","tz03as24","null","","","","","","","","learning/Slide67.JPG","null","","","","",""
"","html-keyboard-response","207","399990","0.0-6.0-2.66","LF","w6nynz57oc","1536","864","en","tz03as24","null","","","","learningBlock1","","","","<div style=""font-size:60px;""> </div>","null","LF","learning/Slide67.JPG","This is a tob:","",""
"","html-keyboard-response","208","401007","0.0-6.0-0.67","LF","w6nynz57oc","1536","864","en","tz03as24","null","","","","learningBlock1","","","","This is a wug:","null","","","","",""
"","image-keyboard-response","209","401347","0.0-6.0-1.67","LF","w6nynz57oc","1536","864","en","tz03as24","null","","","","","","","","learning/Slide68.JPG","null","","","","",""
"","html-keyboard-response","210","402356","0.0-6.0-2.67","LF","w6nynz57oc","1536","864","en","tz03as24","null","","","","learningBlock1","","","","<div style=""font-size:60px;""> </div>","null","LF","learning/Slide68.JPG","This is a wug:","",""
"","html-keyboard-response","211","403358","0.0-6.0-0.68","LF","w6nynz57oc","1536","864","en","tz03as24","null","","","","learningBlock1","","","","This is a tob:","null","","","","",""
"","image-keyboard-response","212","403697","0.0-6.0-1.68","LF","w6nynz57oc","1536","864","en","tz03as24","null","","","","","","","","learning/Slide69.JPG","null","","","","",""
"","html-keyboard-response","213","404707","0.0-6.0-2.68","LF","w6nynz57oc","1536","864","en","tz03as24","null","","","","learningBlock1","","","","<div style=""font-size:60px;""> </div>","null","LF","learning/Slide69.JPG","This is a tob:","",""
"","html-keyboard-response","214","405724","0.0-6.0-0.69","LF","w6nynz57oc","1536","864","en","tz03as24","null","","","","learningBlock1","","","","This is a dep:","null","","","","",""
"","image-keyboard-response","215","406063","0.0-6.0-1.69","LF","w6nynz57oc","1536","864","en","tz03as24","null","","","","","","","","learning/Slide70.JPG","null","","","","",""
"","html-keyboard-response","216","407073","0.0-6.0-2.69","LF","w6nynz57oc","1536","864","en","tz03as24","null","","","","learningBlock1","","","","<div style=""font-size:60px;""> </div>","null","LF","learning/Slide70.JPG","This is a dep:","",""
"","html-keyboard-response","217","408087","0.0-6.0-0.70","LF","w6nynz57oc","1536","864","en","tz03as24","null","","","","learningBlock1","","","","This is a wug:","null","","","","",""
"","image-keyboard-response","218","408429","0.0-6.0-1.70","LF","w6nynz57oc","1536","864","en","tz03as24","null","","","","","","","","learning/Slide71.JPG","null","","","","",""
"","html-keyboard-response","219","409438","0.0-6.0-2.70","LF","w6nynz57oc","1536","864","en","tz03as24","null","","","","learningBlock1","","","","<div style=""font-size:60px;""> </div>","null","LF","learning/Slide71.JPG","This is a wug:","",""
"","html-keyboard-response","220","410440","0.0-6.0-0.71","LF","w6nynz57oc","1536","864","en","tz03as24","null","","","","learningBlock1","","","","This is a bim:","null","","","","",""
"","image-keyboard-response","221","410779","0.0-6.0-1.71","LF","w6nynz57oc","1536","864","en","tz03as24","null","","","","","","","","learning/Slide72.JPG","null","","","","",""
"","html-keyboard-response","222","411790","0.0-6.0-2.71","LF","w6nynz57oc","1536","864","en","tz03as24","null","","","","learningBlock1","","","","<div style=""font-size:60px;""> </div>","null","LF","learning/Slide72.JPG","This is a bim:","",""
"","html-keyboard-response","223","412806","0.0-6.0-0.72","LF","w6nynz57oc","1536","864","en","tz03as24","null","","","","learningBlock1","","","","This is a wug:","null","","","","",""
"","image-keyboard-response","224","413146","0.0-6.0-1.72","LF","w6nynz57oc","1536","864","en","tz03as24","null","","","","","","","","learning/Slide73.JPG","null","","","","",""
"","html-keyboard-response","225","414156","0.0-6.0-2.72","LF","w6nynz57oc","1536","864","en","tz03as24","null","","","","learningBlock1","","","","<div style=""font-size:60px;""> </div>","null","LF","learning/Slide73.JPG","This is a wug:","",""
"","html-keyboard-response","226","415173","0.0-6.0-0.73","LF","w6nynz57oc","1536","864","en","tz03as24","null","","","","learningBlock1","","","","This is a dep:","null","","","","",""
"","image-keyboard-response","227","415512","0.0-6.0-1.73","LF","w6nynz57oc","1536","864","en","tz03as24","null","","","","","","","","learning/Slide74.JPG","null","","","","",""
"","html-keyboard-response","228","416521","0.0-6.0-2.73","LF","w6nynz57oc","1536","864","en","tz03as24","null","","","","learningBlock1","","","","<div style=""font-size:60px;""> </div>","null","LF","learning/Slide74.JPG","This is a dep:","",""
"","html-keyboard-response","229","417538","0.0-6.0-0.74","LF","w6nynz57oc","1536","864","en","tz03as24","null","","","","learningBlock1","","","","This is a tob:","null","","","","",""
"","image-keyboard-response","230","417878","0.0-6.0-1.74","LF","w6nynz57oc","1536","864","en","tz03as24","null","","","","","","","","learning/Slide75.JPG","null","","","","",""
"","html-keyboard-response","231","418889","0.0-6.0-2.74","LF","w6nynz57oc","1536","864","en","tz03as24","null","","","","learningBlock1","","","","<div style=""font-size:60px;""> </div>","null","LF","learning/Slide75.JPG","This is a tob:","",""
"","html-keyboard-response","232","419907","0.0-6.0-0.75","LF","w6nynz57oc","1536","864","en","tz03as24","null","","","","learningBlock1","","","","This is a bim:","null","","","","",""
"","image-keyboard-response","233","420245","0.0-6.0-1.75","LF","w6nynz57oc","1536","864","en","tz03as24","null","","","","","","","","learning/Slide76.JPG","null","","","","",""
"","html-keyboard-response","234","421254","0.0-6.0-2.75","LF","w6nynz57oc","1536","864","en","tz03as24","null","","","","learningBlock1","","","","<div style=""font-size:60px;""> </div>","null","LF","learning/Slide76.JPG","This is a bim:","",""
"","html-keyboard-response","235","422272","0.0-6.0-0.76","LF","w6nynz57oc","1536","864","en","tz03as24","null","","","","learningBlock1","","","","This is a tob:","null","","","","",""
"","image-keyboard-response","236","422611","0.0-6.0-1.76","LF","w6nynz57oc","1536","864","en","tz03as24","null","","","","","","","","learning/Slide77.JPG","null","","","","",""
"","html-keyboard-response","237","423637","0.0-6.0-2.76","LF","w6nynz57oc","1536","864","en","tz03as24","null","","","","learningBlock1","","","","<div style=""font-size:60px;""> </div>","null","LF","learning/Slide77.JPG","This is a tob:","",""
"","html-keyboard-response","238","424669","0.0-6.0-0.77","LF","w6nynz57oc","1536","864","en","tz03as24","null","","","","learningBlock1","","","","This is a wug:","null","","","","",""
"","image-keyboard-response","239","425011","0.0-6.0-1.77","LF","w6nynz57oc","1536","864","en","tz03as24","null","","","","","","","","learning/Slide78.JPG","null","","","","",""
"","html-keyboard-response","240","426021","0.0-6.0-2.77","LF","w6nynz57oc","1536","864","en","tz03as24","null","","","","learningBlock1","","","","<div style=""font-size:60px;""> </div>","null","LF","learning/Slide78.JPG","This is a wug:","",""
"","html-keyboard-response","241","427038","0.0-6.0-0.78","LF","w6nynz57oc","1536","864","en","tz03as24","null","","","","learningBlock1","","","","This is a bim:","null","","","","",""
"","image-keyboard-response","242","427377","0.0-6.0-1.78","LF","w6nynz57oc","1536","864","en","tz03as24","null","","","","","","","","learning/Slide79.JPG","null","","","","",""
"","html-keyboard-response","243","428387","0.0-6.0-2.78","LF","w6nynz57oc","1536","864","en","tz03as24","null","","","","learningBlock1","","","","<div style=""font-size:60px;""> </div>","null","LF","learning/Slide79.JPG","This is a bim:","",""
"","html-keyboard-response","244","429389","0.0-6.0-0.79","LF","w6nynz57oc","1536","864","en","tz03as24","null","","","","learningBlock1","","","","This is a tob:","null","","","","",""
"","image-keyboard-response","245","429727","0.0-6.0-1.79","LF","w6nynz57oc","1536","864","en","tz03as24","null","","","","","","","","learning/Slide80.JPG","null","","","","",""
"","html-keyboard-response","246","430737","0.0-6.0-2.79","LF","w6nynz57oc","1536","864","en","tz03as24","null","","","","learningBlock1","","","","<div style=""font-size:60px;""> </div>","null","LF","learning/Slide80.JPG","This is a tob:","",""
"","instructions","247","464251","0.0-7.0","LF","w6nynz57oc","1536","864","en","tz03as24","NA","","","[{""page_index"":0,""viewing_time"":33512.415000004694}]","instructions","","","","","","","","","",""
"","html-keyboard-response","248","465266","0.0-8.0-0.0","LF","w6nynz57oc","1536","864","en","tz03as24","null","","","","learningBlock2","","","","This is a wug:","null","","","","",""
"","image-keyboard-response","249","465605","0.0-8.0-1.0","LF","w6nynz57oc","1536","864","en","tz03as24","null","","","","","","","","learning/Slide81.JPG","null","","","","",""
"","html-keyboard-response","250","466614","0.0-8.0-2.0","LF","w6nynz57oc","1536","864","en","tz03as24","null","","","","learningBlock2","","","","<div style=""font-size:60px;""> </div>","null","LF","learning/Slide81.JPG","This is a wug:","",""
"","html-keyboard-response","251","467617","0.0-8.0-0.1","LF","w6nynz57oc","1536","864","en","tz03as24","null","","","","learningBlock2","","","","This is a bim:","null","","","","",""
"","image-keyboard-response","252","467955","0.0-8.0-1.1","LF","w6nynz57oc","1536","864","en","tz03as24","null","","","","","","","","learning/Slide82.JPG","null","","","","",""
"","html-keyboard-response","253","468964","0.0-8.0-2.1","LF","w6nynz57oc","1536","864","en","tz03as24","null","","","","learningBlock2","","","","<div style=""font-size:60px;""> </div>","null","LF","learning/Slide82.JPG","This is a bim:","",""
"","html-keyboard-response","254","469966","0.0-8.0-0.2","LF","w6nynz57oc","1536","864","en","tz03as24","null","","","","learningBlock2","","","","This is a wug:","null","","","","",""
"","image-keyboard-response","255","470305","0.0-8.0-1.2","LF","w6nynz57oc","1536","864","en","tz03as24","null","","","","","","","","learning/Slide83.JPG","null","","","","",""
"","html-keyboard-response","256","471315","0.0-8.0-2.2","LF","w6nynz57oc","1536","864","en","tz03as24","null","","","","learningBlock2","","","","<div style=""font-size:60px;""> </div>","null","LF","learning/Slide83.JPG","This is a wug:","",""
"","html-keyboard-response","257","472332","0.0-8.0-0.3","LF","w6nynz57oc","1536","864","en","tz03as24","null","","","","learningBlock2","","","","This is a dep:","null","","","","",""
"","image-keyboard-response","258","472672","0.0-8.0-1.3","LF","w6nynz57oc","1536","864","en","tz03as24","null","","","","","","","","learning/Slide84.JPG","null","","","","",""
"","html-keyboard-response","259","473681","0.0-8.0-2.3","LF","w6nynz57oc","1536","864","en","tz03as24","null","","","","learningBlock2","","","","<div style=""font-size:60px;""> </div>","null","LF","learning/Slide84.JPG","This is a dep:","",""
"","html-keyboard-response","260","474684","0.0-8.0-0.4","LF","w6nynz57oc","1536","864","en","tz03as24","null","","","","learningBlock2","","","","This is a bim:","null","","","","",""
"","image-keyboard-response","261","475021","0.0-8.0-1.4","LF","w6nynz57oc","1536","864","en","tz03as24","null","","","","","","","","learning/Slide85.JPG","null","","","","",""
"","html-keyboard-response","262","476031","0.0-8.0-2.4","LF","w6nynz57oc","1536","864","en","tz03as24","null","","","","learningBlock2","","","","<div style=""font-size:60px;""> </div>","null","LF","learning/Slide85.JPG","This is a bim:","",""
"","html-keyboard-response","263","477033","0.0-8.0-0.5","LF","w6nynz57oc","1536","864","en","tz03as24","null","","","","learningBlock2","","","","This is a tob:","null","","","","",""
"","image-keyboard-response","264","477372","0.0-8.0-1.5","LF","w6nynz57oc","1536","864","en","tz03as24","null","","","","","","","","learning/Slide86.JPG","null","","","","",""
"","html-keyboard-response","265","478381","0.0-8.0-2.5","LF","w6nynz57oc","1536","864","en","tz03as24","null","","","","learningBlock2","","","","<div style=""font-size:60px;""> </div>","null","LF","learning/Slide86.JPG","This is a tob:","",""
"","html-keyboard-response","266","479387","0.0-8.0-0.6","LF","w6nynz57oc","1536","864","en","tz03as24","null","","","","learningBlock2","","","","This is a wug:","null","","","","",""
"","image-keyboard-response","267","479720","0.0-8.0-1.6","LF","w6nynz57oc","1536","864","en","tz03as24","null","","","","","","","","learning/Slide87.JPG","null","","","","",""
"","html-keyboard-response","268","480731","0.0-8.0-2.6","LF","w6nynz57oc","1536","864","en","tz03as24","null","","","","learningBlock2","","","","<div style=""font-size:60px;""> </div>","null","LF","learning/Slide87.JPG","This is a wug:","",""
"","html-keyboard-response","269","481748","0.0-8.0-0.7","LF","w6nynz57oc","1536","864","en","tz03as24","null","","","","learningBlock2","","","","This is a tob:","null","","","","",""
"","image-keyboard-response","270","482087","0.0-8.0-1.7","LF","w6nynz57oc","1536","864","en","tz03as24","null","","","","","","","","learning/Slide88.JPG","null","","","","",""
"","html-keyboard-response","271","483102","0.0-8.0-2.7","LF","w6nynz57oc","1536","864","en","tz03as24","null","","","","learningBlock2","","","","<div style=""font-size:60px;""> </div>","null","LF","learning/Slide88.JPG","This is a tob:","",""
"","html-keyboard-response","272","484113","0.0-8.0-0.8","LF","w6nynz57oc","1536","864","en","tz03as24","null","","","","learningBlock2","","","","This is a bim:","null","","","","",""
"","image-keyboard-response","273","484453","0.0-8.0-1.8","LF","w6nynz57oc","1536","864","en","tz03as24","null","","","","","","","","learning/Slide89.JPG","null","","","","",""
"","html-keyboard-response","274","485462","0.0-8.0-2.8","LF","w6nynz57oc","1536","864","en","tz03as24","null","","","","learningBlock2","","","","<div style=""font-size:60px;""> </div>","null","LF","learning/Slide89.JPG","This is a bim:","",""
"","html-keyboard-response","275","486464","0.0-8.0-0.9","LF","w6nynz57oc","1536","864","en","tz03as24","null","","","","learningBlock2","","","","This is a dep:","null","","","","",""
"","image-keyboard-response","276","486804","0.0-8.0-1.9","LF","w6nynz57oc","1536","864","en","tz03as24","null","","","","","","","","learning/Slide90.JPG","null","","","","",""
"","html-keyboard-response","277","487812","0.0-8.0-2.9","LF","w6nynz57oc","1536","864","en","tz03as24","null","","","","learningBlock2","","","","<div style=""font-size:60px;""> </div>","null","LF","learning/Slide90.JPG","This is a dep:","",""
"","html-keyboard-response","278","488829","0.0-8.0-0.10","LF","w6nynz57oc","1536","864","en","tz03as24","null","","","","learningBlock2","","","","This is a wug:","null","","","","",""
"","image-keyboard-response","279","489169","0.0-8.0-1.10","LF","w6nynz57oc","1536","864","en","tz03as24","null","","","","","","","","learning/Slide91.JPG","null","","","","",""
"","html-keyboard-response","280","490179","0.0-8.0-2.10","LF","w6nynz57oc","1536","864","en","tz03as24","null","","","","learningBlock2","","","","<div style=""font-size:60px;""> </div>","null","LF","learning/Slide91.JPG","This is a wug:","",""
"","html-keyboard-response","281","491182","0.0-8.0-0.11","LF","w6nynz57oc","1536","864","en","tz03as24","null","","","","learningBlock2","","","","This is a tob:","null","","","","",""
"","image-keyboard-response","282","491519","0.0-8.0-1.11","LF","w6nynz57oc","1536","864","en","tz03as24","null","","","","","","","","learning/Slide92.JPG","null","","","","",""
"","html-keyboard-response","283","492533","0.0-8.0-2.11","LF","w6nynz57oc","1536","864","en","tz03as24","null","","","","learningBlock2","","","","<div style=""font-size:60px;""> </div>","null","LF","learning/Slide92.JPG","This is a tob:","",""
"","html-keyboard-response","284","493546","0.0-8.0-0.12","LF","w6nynz57oc","1536","864","en","tz03as24","null","","","","learningBlock2","","","","This is a bim:","null","","","","",""
"","image-keyboard-response","285","493886","0.0-8.0-1.12","LF","w6nynz57oc","1536","864","en","tz03as24","null","","","","","","","","learning/Slide93.JPG","null","","","","",""
"","html-keyboard-response","286","494896","0.0-8.0-2.12","LF","w6nynz57oc","1536","864","en","tz03as24","null","","","","learningBlock2","","","","<div style=""font-size:60px;""> </div>","null","LF","learning/Slide93.JPG","This is a bim:","",""
"","html-keyboard-response","287","495913","0.0-8.0-0.13","LF","w6nynz57oc","1536","864","en","tz03as24","null","","","","learningBlock2","","","","This is a tob:","null","","","","",""
"","image-keyboard-response","288","496252","0.0-8.0-1.13","LF","w6nynz57oc","1536","864","en","tz03as24","null","","","","","","","","learning/Slide94.JPG","null","","","","",""
"","html-keyboard-response","289","497262","0.0-8.0-2.13","LF","w6nynz57oc","1536","864","en","tz03as24","null","","","","learningBlock2","","","","<div style=""font-size:60px;""> </div>","null","LF","learning/Slide94.JPG","This is a tob:","",""
"","html-keyboard-response","290","498268","0.0-8.0-0.14","LF","w6nynz57oc","1536","864","en","tz03as24","null","","","","learningBlock2","","","","This is a wug:","null","","","","",""
"","image-keyboard-response","291","498618","0.0-8.0-1.14","LF","w6nynz57oc","1536","864","en","tz03as24","null","","","","","","","","learning/Slide95.JPG","null","","","","",""
"","html-keyboard-response","292","499627","0.0-8.0-2.14","LF","w6nynz57oc","1536","864","en","tz03as24","null","","","","learningBlock2","","","","<div style=""font-size:60px;""> </div>","null","LF","learning/Slide95.JPG","This is a wug:","",""
"","html-keyboard-response","293","500630","0.0-8.0-0.15","LF","w6nynz57oc","1536","864","en","tz03as24","null","","","","learningBlock2","","","","This is a tob:","null","","","","",""
"","image-keyboard-response","294","500968","0.0-8.0-1.15","LF","w6nynz57oc","1536","864","en","tz03as24","null","","","","","","","","learning/Slide96.JPG","null","","","","",""
"","html-keyboard-response","295","501978","0.0-8.0-2.15","LF","w6nynz57oc","1536","864","en","tz03as24","null","","","","learningBlock2","","","","<div style=""font-size:60px;""> </div>","null","LF","learning/Slide96.JPG","This is a tob:","",""
"","html-keyboard-response","296","502988","0.0-8.0-0.16","LF","w6nynz57oc","1536","864","en","tz03as24","null","","","","learningBlock2","","","","This is a dep:","null","","","","",""
"","image-keyboard-response","297","503334","0.0-8.0-1.16","LF","w6nynz57oc","1536","864","en","tz03as24","null","","","","","","","","learning/Slide97.JPG","null","","","","",""
"","html-keyboard-response","298","504345","0.0-8.0-2.16","LF","w6nynz57oc","1536","864","en","tz03as24","null","","","","learningBlock2","","","","<div style=""font-size:60px;""> </div>","null","LF","learning/Slide97.JPG","This is a dep:","",""
"","html-keyboard-response","299","505361","0.0-8.0-0.17","LF","w6nynz57oc","1536","864","en","tz03as24","null","","","","learningBlock2","","","","This is a bim:","null","","","","",""
"","image-keyboard-response","300","505700","0.0-8.0-1.17","LF","w6nynz57oc","1536","864","en","tz03as24","null","","","","","","","","learning/Slide98.JPG","null","","","","",""
"","html-keyboard-response","301","506710","0.0-8.0-2.17","LF","w6nynz57oc","1536","864","en","tz03as24","null","","","","learningBlock2","","","","<div style=""font-size:60px;""> </div>","null","LF","learning/Slide98.JPG","This is a bim:","",""
"","html-keyboard-response","302","507725","0.0-8.0-0.18","LF","w6nynz57oc","1536","864","en","tz03as24","null","","","","learningBlock2","","","","This is a dep:","null","","","","",""
"","image-keyboard-response","303","508067","0.0-8.0-1.18","LF","w6nynz57oc","1536","864","en","tz03as24","null","","","","","","","","learning/Slide99.JPG","null","","","","",""
"","html-keyboard-response","304","509079","0.0-8.0-2.18","LF","w6nynz57oc","1536","864","en","tz03as24","null","","","","learningBlock2","","","","<div style=""font-size:60px;""> </div>","null","LF","learning/Slide99.JPG","This is a dep:","",""
"","html-keyboard-response","305","510094","0.0-8.0-0.19","LF","w6nynz57oc","1536","864","en","tz03as24","null","","","","learningBlock2","","","","This is a bim:","null","","","","",""
"","image-keyboard-response","306","510433","0.0-8.0-1.19","LF","w6nynz57oc","1536","864","en","tz03as24","null","","","","","","","","learning/Slide100.JPG","null","","","","",""
"","html-keyboard-response","307","511458","0.0-8.0-2.19","LF","w6nynz57oc","1536","864","en","tz03as24","null","","","","learningBlock2","","","","<div style=""font-size:60px;""> </div>","null","LF","learning/Slide100.JPG","This is a bim:","",""
"","html-keyboard-response","308","512460","0.0-8.0-0.20","LF","w6nynz57oc","1536","864","en","tz03as24","null","","","","learningBlock2","","","","This is a tob:","null","","","","",""
"","image-keyboard-response","309","512799","0.0-8.0-1.20","LF","w6nynz57oc","1536","864","en","tz03as24","null","","","","","","","","learning/Slide101.JPG","null","","","","",""
"","html-keyboard-response","310","513810","0.0-8.0-2.20","LF","w6nynz57oc","1536","864","en","tz03as24","null","","","","learningBlock2","","","","<div style=""font-size:60px;""> </div>","null","LF","learning/Slide101.JPG","This is a tob:","",""
"","html-keyboard-response","311","514827","0.0-8.0-0.21","LF","w6nynz57oc","1536","864","en","tz03as24","null","","","","learningBlock2","","","","This is a bim:","null","","","","",""
"","image-keyboard-response","312","515165","0.0-8.0-1.21","LF","w6nynz57oc","1536","864","en","tz03as24","null","","","","","","","","learning/Slide102.JPG","null","","","","",""
"","html-keyboard-response","313","516176","0.0-8.0-2.21","LF","w6nynz57oc","1536","864","en","tz03as24","null","","","","learningBlock2","","","","<div style=""font-size:60px;""> </div>","null","LF","learning/Slide102.JPG","This is a bim:","",""
"","html-keyboard-response","314","517178","0.0-8.0-0.22","LF","w6nynz57oc","1536","864","en","tz03as24","null","","","","learningBlock2","","","","This is a dep:","null","","","","",""
"","image-keyboard-response","315","517516","0.0-8.0-1.22","LF","w6nynz57oc","1536","864","en","tz03as24","null","","","","","","","","learning/Slide103.JPG","null","","","","",""
"","html-keyboard-response","316","518525","0.0-8.0-2.22","LF","w6nynz57oc","1536","864","en","tz03as24","null","","","","learningBlock2","","","","<div style=""font-size:60px;""> </div>","null","LF","learning/Slide103.JPG","This is a dep:","",""
"","html-keyboard-response","317","519527","0.0-8.0-0.23","LF","w6nynz57oc","1536","864","en","tz03as24","null","","","","learningBlock2","","","","This is a tob:","null","","","","",""
"","image-keyboard-response","318","519867","0.0-8.0-1.23","LF","w6nynz57oc","1536","864","en","tz03as24","null","","","","","","","","learning/Slide104.JPG","null","","","","",""
"","html-keyboard-response","319","520874","0.0-8.0-2.23","LF","w6nynz57oc","1536","864","en","tz03as24","null","","","","learningBlock2","","","","<div style=""font-size:60px;""> </div>","null","LF","learning/Slide104.JPG","This is a tob:","",""
"","html-keyboard-response","320","521877","0.0-8.0-0.24","LF","w6nynz57oc","1536","864","en","tz03as24","null","","","","learningBlock2","","","","This is a dep:","null","","","","",""
"","image-keyboard-response","321","522215","0.0-8.0-1.24","LF","w6nynz57oc","1536","864","en","tz03as24","null","","","","","","","","learning/Slide105.JPG","null","","","","",""
"","html-keyboard-response","322","523225","0.0-8.0-2.24","LF","w6nynz57oc","1536","864","en","tz03as24","null","","","","learningBlock2","","","","<div style=""font-size:60px;""> </div>","null","LF","learning/Slide105.JPG","This is a dep:","",""
"","html-keyboard-response","323","524242","0.0-8.0-0.25","LF","w6nynz57oc","1536","864","en","tz03as24","null","","","","learningBlock2","","","","This is a wug:","null","","","","",""
"","image-keyboard-response","324","524581","0.0-8.0-1.25","LF","w6nynz57oc","1536","864","en","tz03as24","null","","","","","","","","learning/Slide106.JPG","null","","","","",""
"","html-keyboard-response","325","525590","0.0-8.0-2.25","LF","w6nynz57oc","1536","864","en","tz03as24","null","","","","learningBlock2","","","","<div style=""font-size:60px;""> </div>","null","LF","learning/Slide106.JPG","This is a wug:","",""
"","html-keyboard-response","326","526592","0.0-8.0-0.26","LF","w6nynz57oc","1536","864","en","tz03as24","null","","","","learningBlock2","","","","This is a bim:","null","","","","",""
"","image-keyboard-response","327","526932","0.0-8.0-1.26","LF","w6nynz57oc","1536","864","en","tz03as24","null","","","","","","","","learning/Slide107.JPG","null","","","","",""
"","html-keyboard-response","328","527947","0.0-8.0-2.26","LF","w6nynz57oc","1536","864","en","tz03as24","null","","","","learningBlock2","","","","<div style=""font-size:60px;""> </div>","null","LF","learning/Slide107.JPG","This is a bim:","",""
"","html-keyboard-response","329","528957","0.0-8.0-0.27","LF","w6nynz57oc","1536","864","en","tz03as24","null","","","","learningBlock2","","","","This is a dep:","null","","","","",""
"","image-keyboard-response","330","529297","0.0-8.0-1.27","LF","w6nynz57oc","1536","864","en","tz03as24","null","","","","","","","","learning/Slide108.JPG","null","","","","",""
"","html-keyboard-response","331","530308","0.0-8.0-2.27","LF","w6nynz57oc","1536","864","en","tz03as24","null","","","","learningBlock2","","","","<div style=""font-size:60px;""> </div>","null","LF","learning/Slide108.JPG","This is a dep:","",""
"","html-keyboard-response","332","531325","0.0-8.0-0.28","LF","w6nynz57oc","1536","864","en","tz03as24","null","","","","learningBlock2","","","","This is a wug:","null","","","","",""
"","image-keyboard-response","333","531663","0.0-8.0-1.28","LF","w6nynz57oc","1536","864","en","tz03as24","null","","","","","","","","learning/Slide109.JPG","null","","","","",""
"","html-keyboard-response","334","532666","0.0-8.0-2.28","LF","w6nynz57oc","1536","864","en","tz03as24","null","","","","learningBlock2","","","","<div style=""font-size:60px;""> </div>","null","LF","learning/Slide109.JPG","This is a wug:","",""
"","html-keyboard-response","335","533676","0.0-8.0-0.29","LF","w6nynz57oc","1536","864","en","tz03as24","null","","","","learningBlock2","","","","This is a bim:","null","","","","",""
"","image-keyboard-response","336","534013","0.0-8.0-1.29","LF","w6nynz57oc","1536","864","en","tz03as24","null","","","","","","","","learning/Slide110.JPG","null","","","","",""
"","html-keyboard-response","337","535023","0.0-8.0-2.29","LF","w6nynz57oc","1536","864","en","tz03as24","null","","","","learningBlock2","","","","<div style=""font-size:60px;""> </div>","null","LF","learning/Slide110.JPG","This is a bim:","",""
"","html-keyboard-response","338","536026","0.0-8.0-0.30","LF","w6nynz57oc","1536","864","en","tz03as24","null","","","","learningBlock2","","","","This is a tob:","null","","","","",""
"","image-keyboard-response","339","536363","0.0-8.0-1.30","LF","w6nynz57oc","1536","864","en","tz03as24","null","","","","","","","","learning/Slide111.JPG","null","","","","",""
"","html-keyboard-response","340","537375","0.0-8.0-2.30","LF","w6nynz57oc","1536","864","en","tz03as24","null","","","","learningBlock2","","","","<div style=""font-size:60px;""> </div>","null","LF","learning/Slide111.JPG","This is a tob:","",""
"","html-keyboard-response","341","538391","0.0-8.0-0.31","LF","w6nynz57oc","1536","864","en","tz03as24","null","","","","learningBlock2","","","","This is a wug:","null","","","","",""
"","image-keyboard-response","342","538729","0.0-8.0-1.31","LF","w6nynz57oc","1536","864","en","tz03as24","null","","","","","","","","learning/Slide112.JPG","null","","","","",""
"","html-keyboard-response","343","539739","0.0-8.0-2.31","LF","w6nynz57oc","1536","864","en","tz03as24","null","","","","learningBlock2","","","","<div style=""font-size:60px;""> </div>","null","LF","learning/Slide112.JPG","This is a wug:","",""
"","html-keyboard-response","344","540756","0.0-8.0-0.32","LF","w6nynz57oc","1536","864","en","tz03as24","null","","","","learningBlock2","","","","This is a tob:","null","","","","",""
"","image-keyboard-response","345","541096","0.0-8.0-1.32","LF","w6nynz57oc","1536","864","en","tz03as24","null","","","","","","","","learning/Slide113.JPG","null","","","","",""
"","html-keyboard-response","346","542107","0.0-8.0-2.32","LF","w6nynz57oc","1536","864","en","tz03as24","null","","","","learningBlock2","","","","<div style=""font-size:60px;""> </div>","null","LF","learning/Slide113.JPG","This is a tob:","",""
"","html-keyboard-response","347","543111","0.0-8.0-0.33","LF","w6nynz57oc","1536","864","en","tz03as24","null","","","","learningBlock2","","","","This is a wug:","null","","","","",""
"","image-keyboard-response","348","543446","0.0-8.0-1.33","LF","w6nynz57oc","1536","864","en","tz03as24","null","","","","","","","","learning/Slide114.JPG","null","","","","",""
"","html-keyboard-response","349","544455","0.0-8.0-2.33","LF","w6nynz57oc","1536","864","en","tz03as24","null","","","","learningBlock2","","","","<div style=""font-size:60px;""> </div>","null","LF","learning/Slide114.JPG","This is a wug:","",""
"","html-keyboard-response","350","545457","0.0-8.0-0.34","LF","w6nynz57oc","1536","864","en","tz03as24","null","","","","learningBlock2","","","","This is a bim:","null","","","","",""
"","image-keyboard-response","351","545796","0.0-8.0-1.34","LF","w6nynz57oc","1536","864","en","tz03as24","null","","","","","","","","learning/Slide115.JPG","null","","","","",""
"","html-keyboard-response","352","546805","0.0-8.0-2.34","LF","w6nynz57oc","1536","864","en","tz03as24","null","","","","learningBlock2","","","","<div style=""font-size:60px;""> </div>","null","LF","learning/Slide115.JPG","This is a bim:","",""
"","html-keyboard-response","353","547807","0.0-8.0-0.35","LF","w6nynz57oc","1536","864","en","tz03as24","null","","","","learningBlock2","","","","This is a dep:","null","","","","",""
"","image-keyboard-response","354","548145","0.0-8.0-1.35","LF","w6nynz57oc","1536","864","en","tz03as24","null","","","","","","","","learning/Slide116.JPG","null","","","","",""
"","html-keyboard-response","355","549154","0.0-8.0-2.35","LF","w6nynz57oc","1536","864","en","tz03as24","null","","","","learningBlock2","","","","<div style=""font-size:60px;""> </div>","null","LF","learning/Slide116.JPG","This is a dep:","",""
"","html-keyboard-response","356","550157","0.0-8.0-0.36","LF","w6nynz57oc","1536","864","en","tz03as24","null","","","","learningBlock2","","","","This is a tob:","null","","","","",""
"","image-keyboard-response","357","550495","0.0-8.0-1.36","LF","w6nynz57oc","1536","864","en","tz03as24","null","","","","","","","","learning/Slide117.JPG","null","","","","",""
"","html-keyboard-response","358","551505","0.0-8.0-2.36","LF","w6nynz57oc","1536","864","en","tz03as24","null","","","","learningBlock2","","","","<div style=""font-size:60px;""> </div>","null","LF","learning/Slide117.JPG","This is a tob:","",""
"","html-keyboard-response","359","552522","0.0-8.0-0.37","LF","w6nynz57oc","1536","864","en","tz03as24","null","","","","learningBlock2","","","","This is a dep:","null","","","","",""
"","image-keyboard-response","360","552861","0.0-8.0-1.37","LF","w6nynz57oc","1536","864","en","tz03as24","null","","","","","","","","learning/Slide118.JPG","null","","","","",""
"","html-keyboard-response","361","553871","0.0-8.0-2.37","LF","w6nynz57oc","1536","864","en","tz03as24","null","","","","learningBlock2","","","","<div style=""font-size:60px;""> </div>","null","LF","learning/Slide118.JPG","This is a dep:","",""
"","html-keyboard-response","362","554873","0.0-8.0-0.38","LF","w6nynz57oc","1536","864","en","tz03as24","null","","","","learningBlock2","","","","This is a wug:","null","","","","",""
"","image-keyboard-response","363","555212","0.0-8.0-1.38","LF","w6nynz57oc","1536","864","en","tz03as24","null","","","","","","","","learning/Slide119.JPG","null","","","","",""
"","html-keyboard-response","364","556220","0.0-8.0-2.38","LF","w6nynz57oc","1536","864","en","tz03as24","null","","","","learningBlock2","","","","<div style=""font-size:60px;""> </div>","null","LF","learning/Slide119.JPG","This is a wug:","",""
"","html-keyboard-response","365","557222","0.0-8.0-0.39","LF","w6nynz57oc","1536","864","en","tz03as24","null","","","","learningBlock2","","","","This is a dep:","null","","","","",""
"","image-keyboard-response","366","557569","0.0-8.0-1.39","LF","w6nynz57oc","1536","864","en","tz03as24","null","","","","","","","","learning/Slide120.JPG","null","","","","",""
"","html-keyboard-response","367","558587","0.0-8.0-2.39","LF","w6nynz57oc","1536","864","en","tz03as24","null","","","","learningBlock2","","","","<div style=""font-size:60px;""> </div>","null","LF","learning/Slide120.JPG","This is a dep:","",""
"","html-keyboard-response","368","559589","0.0-8.0-0.40","LF","w6nynz57oc","1536","864","en","tz03as24","null","","","","learningBlock2","","","","This is a bim:","null","","","","",""
"","image-keyboard-response","369","559927","0.0-8.0-1.40","LF","w6nynz57oc","1536","864","en","tz03as24","null","","","","","","","","learning/Slide121.JPG","null","","","","",""
"","html-keyboard-response","370","560937","0.0-8.0-2.40","LF","w6nynz57oc","1536","864","en","tz03as24","null","","","","learningBlock2","","","","<div style=""font-size:60px;""> </div>","null","LF","learning/Slide121.JPG","This is a bim:","",""
"","html-keyboard-response","371","561939","0.0-8.0-0.41","LF","w6nynz57oc","1536","864","en","tz03as24","null","","","","learningBlock2","","","","This is a wug:","null","","","","",""
"","image-keyboard-response","372","562277","0.0-8.0-1.41","LF","w6nynz57oc","1536","864","en","tz03as24","null","","","","","","","","learning/Slide122.JPG","null","","","","",""
"","html-keyboard-response","373","563289","0.0-8.0-2.41","LF","w6nynz57oc","1536","864","en","tz03as24","null","","","","learningBlock2","","","","<div style=""font-size:60px;""> </div>","null","LF","learning/Slide122.JPG","This is a wug:","",""
"","html-keyboard-response","374","564303","0.0-8.0-0.42","LF","w6nynz57oc","1536","864","en","tz03as24","null","","","","learningBlock2","","","","This is a bim:","null","","","","",""
"","image-keyboard-response","375","564644","0.0-8.0-1.42","LF","w6nynz57oc","1536","864","en","tz03as24","null","","","","","","","","learning/Slide123.JPG","null","","","","",""
"","html-keyboard-response","376","565652","0.0-8.0-2.42","LF","w6nynz57oc","1536","864","en","tz03as24","null","","","","learningBlock2","","","","<div style=""font-size:60px;""> </div>","null","LF","learning/Slide123.JPG","This is a bim:","",""
"","html-keyboard-response","377","566655","0.0-8.0-0.43","LF","w6nynz57oc","1536","864","en","tz03as24","null","","","","learningBlock2","","","","This is a tob:","null","","","","",""
"","image-keyboard-response","378","566992","0.0-8.0-1.43","LF","w6nynz57oc","1536","864","en","tz03as24","null","","","","","","","","learning/Slide124.JPG","null","","","","",""
"","html-keyboard-response","379","568008","0.0-8.0-2.43","LF","w6nynz57oc","1536","864","en","tz03as24","null","","","","learningBlock2","","","","<div style=""font-size:60px;""> </div>","null","LF","learning/Slide124.JPG","This is a tob:","",""
"","html-keyboard-response","380","569018","0.0-8.0-0.44","LF","w6nynz57oc","1536","864","en","tz03as24","null","","","","learningBlock2","","","","This is a bim:","null","","","","",""
"","image-keyboard-response","381","569359","0.0-8.0-1.44","LF","w6nynz57oc","1536","864","en","tz03as24","null","","","","","","","","learning/Slide125.JPG","null","","","","",""
"","html-keyboard-response","382","570370","0.0-8.0-2.44","LF","w6nynz57oc","1536","864","en","tz03as24","null","","","","learningBlock2","","","","<div style=""font-size:60px;""> </div>","null","LF","learning/Slide125.JPG","This is a bim:","",""
"","html-keyboard-response","383","571386","0.0-8.0-0.45","LF","w6nynz57oc","1536","864","en","tz03as24","null","","","","learningBlock2","","","","This is a tob:","null","","","","",""
"","image-keyboard-response","384","571725","0.0-8.0-1.45","LF","w6nynz57oc","1536","864","en","tz03as24","null","","","","","","","","learning/Slide126.JPG","null","","","","",""
"","html-keyboard-response","385","572728","0.0-8.0-2.45","LF","w6nynz57oc","1536","864","en","tz03as24","null","","","","learningBlock2","","","","<div style=""font-size:60px;""> </div>","null","LF","learning/Slide126.JPG","This is a tob:","",""
"","html-keyboard-response","386","573736","0.0-8.0-0.46","LF","w6nynz57oc","1536","864","en","tz03as24","null","","","","learningBlock2","","","","This is a dep:","null","","","","",""
"","image-keyboard-response","387","574075","0.0-8.0-1.46","LF","w6nynz57oc","1536","864","en","tz03as24","null","","","","","","","","learning/Slide127.JPG","null","","","","",""
"","html-keyboard-response","388","575084","0.0-8.0-2.46","LF","w6nynz57oc","1536","864","en","tz03as24","null","","","","learningBlock2","","","","<div style=""font-size:60px;""> </div>","null","LF","learning/Slide127.JPG","This is a dep:","",""
"","html-keyboard-response","389","576101","0.0-8.0-0.47","LF","w6nynz57oc","1536","864","en","tz03as24","null","","","","learningBlock2","","","","This is a wug:","null","","","","",""
"","image-keyboard-response","390","576441","0.0-8.0-1.47","LF","w6nynz57oc","1536","864","en","tz03as24","null","","","","","","","","learning/Slide128.JPG","null","","","","",""
"","html-keyboard-response","391","577450","0.0-8.0-2.47","LF","w6nynz57oc","1536","864","en","tz03as24","null","","","","learningBlock2","","","","<div style=""font-size:60px;""> </div>","null","LF","learning/Slide128.JPG","This is a wug:","",""
"","html-keyboard-response","392","578453","0.0-8.0-0.48","LF","w6nynz57oc","1536","864","en","tz03as24","null","","","","learningBlock2","","","","This is a tob:","null","","","","",""
"","image-keyboard-response","393","578790","0.0-8.0-1.48","LF","w6nynz57oc","1536","864","en","tz03as24","null","","","","","","","","learning/Slide129.JPG","null","","","","",""
"","html-keyboard-response","394","579802","0.0-8.0-2.48","LF","w6nynz57oc","1536","864","en","tz03as24","null","","","","learningBlock2","","","","<div style=""font-size:60px;""> </div>","null","LF","learning/Slide129.JPG","This is a tob:","",""
"","html-keyboard-response","395","580818","0.0-8.0-0.49","LF","w6nynz57oc","1536","864","en","tz03as24","null","","","","learningBlock2","","","","This is a wug:","null","","","","",""
"","image-keyboard-response","396","581156","0.0-8.0-1.49","LF","w6nynz57oc","1536","864","en","tz03as24","null","","","","","","","","learning/Slide130.JPG","null","","","","",""
"","html-keyboard-response","397","582168","0.0-8.0-2.49","LF","w6nynz57oc","1536","864","en","tz03as24","null","","","","learningBlock2","","","","<div style=""font-size:60px;""> </div>","null","LF","learning/Slide130.JPG","This is a wug:","",""
"","html-keyboard-response","398","583175","0.0-8.0-0.50","LF","w6nynz57oc","1536","864","en","tz03as24","null","","","","learningBlock2","","","","This is a bim:","null","","","","",""
"","image-keyboard-response","399","583524","0.0-8.0-1.50","LF","w6nynz57oc","1536","864","en","tz03as24","null","","","","","","","","learning/Slide131.JPG","null","","","","",""
"","html-keyboard-response","400","584533","0.0-8.0-2.50","LF","w6nynz57oc","1536","864","en","tz03as24","null","","","","learningBlock2","","","","<div style=""font-size:60px;""> </div>","null","LF","learning/Slide131.JPG","This is a bim:","",""
"","html-keyboard-response","401","585550","0.0-8.0-0.51","LF","w6nynz57oc","1536","864","en","tz03as24","null","","","","learningBlock2","","","","This is a dep:","null","","","","",""
"","image-keyboard-response","402","585889","0.0-8.0-1.51","LF","w6nynz57oc","1536","864","en","tz03as24","null","","","","","","","","learning/Slide132.JPG","null","","","","",""
"","html-keyboard-response","403","586899","0.0-8.0-2.51","LF","w6nynz57oc","1536","864","en","tz03as24","null","","","","learningBlock2","","","","<div style=""font-size:60px;""> </div>","null","LF","learning/Slide132.JPG","This is a dep:","",""
"","html-keyboard-response","404","587910","0.0-8.0-0.52","LF","w6nynz57oc","1536","864","en","tz03as24","null","","","","learningBlock2","","","","This is a tob:","null","","","","",""
"","image-keyboard-response","405","588257","0.0-8.0-1.52","LF","w6nynz57oc","1536","864","en","tz03as24","null","","","","","","","","learning/Slide133.JPG","null","","","","",""
"","html-keyboard-response","406","589266","0.0-8.0-2.52","LF","w6nynz57oc","1536","864","en","tz03as24","null","","","","learningBlock2","","","","<div style=""font-size:60px;""> </div>","null","LF","learning/Slide133.JPG","This is a tob:","",""
"","html-keyboard-response","407","590284","0.0-8.0-0.53","LF","w6nynz57oc","1536","864","en","tz03as24","null","","","","learningBlock2","","","","This is a dep:","null","","","","",""
"","image-keyboard-response","408","590623","0.0-8.0-1.53","LF","w6nynz57oc","1536","864","en","tz03as24","null","","","","","","","","learning/Slide134.JPG","null","","","","",""
"","html-keyboard-response","409","591633","0.0-8.0-2.53","LF","w6nynz57oc","1536","864","en","tz03as24","null","","","","learningBlock2","","","","<div style=""font-size:60px;""> </div>","null","LF","learning/Slide134.JPG","This is a dep:","",""
"","html-keyboard-response","410","592645","0.0-8.0-0.54","LF","w6nynz57oc","1536","864","en","tz03as24","null","","","","learningBlock2","","","","This is a tob:","null","","","","",""
"","image-keyboard-response","411","592989","0.0-8.0-1.54","LF","w6nynz57oc","1536","864","en","tz03as24","null","","","","","","","","learning/Slide135.JPG","null","","","","",""
"","html-keyboard-response","412","593999","0.0-8.0-2.54","LF","w6nynz57oc","1536","864","en","tz03as24","null","","","","learningBlock2","","","","<div style=""font-size:60px;""> </div>","null","LF","learning/Slide135.JPG","This is a tob:","",""
"","html-keyboard-response","413","595008","0.0-8.0-0.55","LF","w6nynz57oc","1536","864","en","tz03as24","null","","","","learningBlock2","","","","This is a wug:","null","","","","",""
"","image-keyboard-response","414","595356","0.0-8.0-1.55","LF","w6nynz57oc","1536","864","en","tz03as24","null","","","","","","","","learning/Slide136.JPG","null","","","","",""
"","html-keyboard-response","415","596367","0.0-8.0-2.55","LF","w6nynz57oc","1536","864","en","tz03as24","null","","","","learningBlock2","","","","<div style=""font-size:60px;""> </div>","null","LF","learning/Slide136.JPG","This is a wug:","",""
"","html-keyboard-response","416","597382","0.0-8.0-0.56","LF","w6nynz57oc","1536","864","en","tz03as24","null","","","","learningBlock2","","","","This is a tob:","null","","","","",""
"","image-keyboard-response","417","597723","0.0-8.0-1.56","LF","w6nynz57oc","1536","864","en","tz03as24","null","","","","","","","","learning/Slide137.JPG","null","","","","",""
"","html-keyboard-response","418","598731","0.0-8.0-2.56","LF","w6nynz57oc","1536","864","en","tz03as24","null","","","","learningBlock2","","","","<div style=""font-size:60px;""> </div>","null","LF","learning/Slide137.JPG","This is a tob:","",""
"","html-keyboard-response","419","599735","0.0-8.0-0.57","LF","w6nynz57oc","1536","864","en","tz03as24","null","","","","learningBlock2","","","","This is a bim:","null","","","","",""
"","image-keyboard-response","420","600072","0.0-8.0-1.57","LF","w6nynz57oc","1536","864","en","tz03as24","null","","","","","","","","learning/Slide138.JPG","null","","","","",""
"","html-keyboard-response","421","601081","0.0-8.0-2.57","LF","w6nynz57oc","1536","864","en","tz03as24","null","","","","learningBlock2","","","","<div style=""font-size:60px;""> </div>","null","LF","learning/Slide138.JPG","This is a bim:","",""
"","html-keyboard-response","422","602084","0.0-8.0-0.58","LF","w6nynz57oc","1536","864","en","tz03as24","null","","","","learningBlock2","","","","This is a wug:","null","","","","",""
"","image-keyboard-response","423","602421","0.0-8.0-1.58","LF","w6nynz57oc","1536","864","en","tz03as24","null","","","","","","","","learning/Slide139.JPG","null","","","","",""
"","html-keyboard-response","424","603430","0.0-8.0-2.58","LF","w6nynz57oc","1536","864","en","tz03as24","null","","","","learningBlock2","","","","<div style=""font-size:60px;""> </div>","null","LF","learning/Slide139.JPG","This is a wug:","",""
"","html-keyboard-response","425","604448","0.0-8.0-0.59","LF","w6nynz57oc","1536","864","en","tz03as24","null","","","","learningBlock2","","","","This is a dep:","null","","","","",""
"","image-keyboard-response","426","604788","0.0-8.0-1.59","LF","w6nynz57oc","1536","864","en","tz03as24","null","","","","","","","","learning/Slide140.JPG","null","","","","",""
"","html-keyboard-response","427","605797","0.0-8.0-2.59","LF","w6nynz57oc","1536","864","en","tz03as24","null","","","","learningBlock2","","","","<div style=""font-size:60px;""> </div>","null","LF","learning/Slide140.JPG","This is a dep:","",""
"","html-keyboard-response","428","606799","0.0-8.0-0.60","LF","w6nynz57oc","1536","864","en","tz03as24","null","","","","learningBlock2","","","","This is a tob:","null","","","","",""
"","image-keyboard-response","429","607141","0.0-8.0-1.60","LF","w6nynz57oc","1536","864","en","tz03as24","null","","","","","","","","learning/Slide141.JPG","null","","","","",""
"","html-keyboard-response","430","608150","0.0-8.0-2.60","LF","w6nynz57oc","1536","864","en","tz03as24","null","","","","learningBlock2","","","","<div style=""font-size:60px;""> </div>","null","LF","learning/Slide141.JPG","This is a tob:","",""
"","html-keyboard-response","431","609165","0.0-8.0-0.61","LF","w6nynz57oc","1536","864","en","tz03as24","null","","","","learningBlock2","","","","This is a wug:","null","","","","",""
"","image-keyboard-response","432","609504","0.0-8.0-1.61","LF","w6nynz57oc","1536","864","en","tz03as24","null","","","","","","","","learning/Slide142.JPG","null","","","","",""
"","html-keyboard-response","433","610513","0.0-8.0-2.61","LF","w6nynz57oc","1536","864","en","tz03as24","null","","","","learningBlock2","","","","<div style=""font-size:60px;""> </div>","null","LF","learning/Slide142.JPG","This is a wug:","",""
"","html-keyboard-response","434","611530","0.0-8.0-0.62","LF","w6nynz57oc","1536","864","en","tz03as24","null","","","","learningBlock2","","","","This is a bim:","null","","","","",""
"","image-keyboard-response","435","611870","0.0-8.0-1.62","LF","w6nynz57oc","1536","864","en","tz03as24","null","","","","","","","","learning/Slide143.JPG","null","","","","",""
"","html-keyboard-response","436","612880","0.0-8.0-2.62","LF","w6nynz57oc","1536","864","en","tz03as24","null","","","","learningBlock2","","","","<div style=""font-size:60px;""> </div>","null","LF","learning/Slide143.JPG","This is a bim:","",""
"","html-keyboard-response","437","613882","0.0-8.0-0.63","LF","w6nynz57oc","1536","864","en","tz03as24","null","","","","learningBlock2","","","","This is a dep:","null","","","","",""
"","image-keyboard-response","438","614220","0.0-8.0-1.63","LF","w6nynz57oc","1536","864","en","tz03as24","null","","","","","","","","learning/Slide144.JPG","null","","","","",""
"","html-keyboard-response","439","615230","0.0-8.0-2.63","LF","w6nynz57oc","1536","864","en","tz03as24","null","","","","learningBlock2","","","","<div style=""font-size:60px;""> </div>","null","LF","learning/Slide144.JPG","This is a dep:","",""
"","html-keyboard-response","440","616247","0.0-8.0-0.64","LF","w6nynz57oc","1536","864","en","tz03as24","null","","","","learningBlock2","","","","This is a bim:","null","","","","",""
"","image-keyboard-response","441","616586","0.0-8.0-1.64","LF","w6nynz57oc","1536","864","en","tz03as24","null","","","","","","","","learning/Slide145.JPG","null","","","","",""
"","html-keyboard-response","442","617601","0.0-8.0-2.64","LF","w6nynz57oc","1536","864","en","tz03as24","null","","","","learningBlock2","","","","<div style=""font-size:60px;""> </div>","null","LF","learning/Slide145.JPG","This is a bim:","",""
"","html-keyboard-response","443","618613","0.0-8.0-0.65","LF","w6nynz57oc","1536","864","en","tz03as24","null","","","","learningBlock2","","","","This is a tob:","null","","","","",""
"","image-keyboard-response","444","618954","0.0-8.0-1.65","LF","w6nynz57oc","1536","864","en","tz03as24","null","","","","","","","","learning/Slide146.JPG","null","","","","",""
"","html-keyboard-response","445","619962","0.0-8.0-2.65","LF","w6nynz57oc","1536","864","en","tz03as24","null","","","","learningBlock2","","","","<div style=""font-size:60px;""> </div>","null","LF","learning/Slide146.JPG","This is a tob:","",""
"","html-keyboard-response","446","620980","0.0-8.0-0.66","LF","w6nynz57oc","1536","864","en","tz03as24","null","","","","learningBlock2","","","","This is a wug:","null","","","","",""
"","image-keyboard-response","447","621319","0.0-8.0-1.66","LF","w6nynz57oc","1536","864","en","tz03as24","null","","","","","","","","learning/Slide147.JPG","null","","","","",""
"","html-keyboard-response","448","622330","0.0-8.0-2.66","LF","w6nynz57oc","1536","864","en","tz03as24","null","","","","learningBlock2","","","","<div style=""font-size:60px;""> </div>","null","LF","learning/Slide147.JPG","This is a wug:","",""
"","html-keyboard-response","449","623336","0.0-8.0-0.67","LF","w6nynz57oc","1536","864","en","tz03as24","null","","","","learningBlock2","","","","This is a bim:","null","","","","",""
"","image-keyboard-response","450","623685","0.0-8.0-1.67","LF","w6nynz57oc","1536","864","en","tz03as24","null","","","","","","","","learning/Slide148.JPG","null","","","","",""
"","html-keyboard-response","451","624695","0.0-8.0-2.67","LF","w6nynz57oc","1536","864","en","tz03as24","null","","","","learningBlock2","","","","<div style=""font-size:60px;""> </div>","null","LF","learning/Slide148.JPG","This is a bim:","",""
"","html-keyboard-response","452","625698","0.0-8.0-0.68","LF","w6nynz57oc","1536","864","en","tz03as24","null","","","","learningBlock2","","","","This is a dep:","null","","","","",""
"","image-keyboard-response","453","626037","0.0-8.0-1.68","LF","w6nynz57oc","1536","864","en","tz03as24","null","","","","","","","","learning/Slide149.JPG","null","","","","",""
"","html-keyboard-response","454","627045","0.0-8.0-2.68","LF","w6nynz57oc","1536","864","en","tz03as24","null","","","","learningBlock2","","","","<div style=""font-size:60px;""> </div>","null","LF","learning/Slide149.JPG","This is a dep:","",""
"","html-keyboard-response","455","628056","0.0-8.0-0.69","LF","w6nynz57oc","1536","864","en","tz03as24","null","","","","learningBlock2","","","","This is a wug:","null","","","","",""
"","image-keyboard-response","456","628401","0.0-8.0-1.69","LF","w6nynz57oc","1536","864","en","tz03as24","null","","","","","","","","learning/Slide150.JPG","null","","","","",""
"","html-keyboard-response","457","629412","0.0-8.0-2.69","LF","w6nynz57oc","1536","864","en","tz03as24","null","","","","learningBlock2","","","","<div style=""font-size:60px;""> </div>","null","LF","learning/Slide150.JPG","This is a wug:","",""
"","html-keyboard-response","458","630414","0.0-8.0-0.70","LF","w6nynz57oc","1536","864","en","tz03as24","null","","","","learningBlock2","","","","This is a dep:","null","","","","",""
"","image-keyboard-response","459","630751","0.0-8.0-1.70","LF","w6nynz57oc","1536","864","en","tz03as24","null","","","","","","","","learning/Slide151.JPG","null","","","","",""
"","html-keyboard-response","460","631761","0.0-8.0-2.70","LF","w6nynz57oc","1536","864","en","tz03as24","null","","","","learningBlock2","","","","<div style=""font-size:60px;""> </div>","null","LF","learning/Slide151.JPG","This is a dep:","",""
"","html-keyboard-response","461","632776","0.0-8.0-0.71","LF","w6nynz57oc","1536","864","en","tz03as24","null","","","","learningBlock2","","","","This is a wug:","null","","","","",""
"","image-keyboard-response","462","633118","0.0-8.0-1.71","LF","w6nynz57oc","1536","864","en","tz03as24","null","","","","","","","","learning/Slide152.JPG","null","","","","",""
"","html-keyboard-response","463","634127","0.0-8.0-2.71","LF","w6nynz57oc","1536","864","en","tz03as24","null","","","","learningBlock2","","","","<div style=""font-size:60px;""> </div>","null","LF","learning/Slide152.JPG","This is a wug:","",""
"","html-keyboard-response","464","635129","0.0-8.0-0.72","LF","w6nynz57oc","1536","864","en","tz03as24","null","","","","learningBlock2","","","","This is a bim:","null","","","","",""
"","image-keyboard-response","465","635467","0.0-8.0-1.72","LF","w6nynz57oc","1536","864","en","tz03as24","null","","","","","","","","learning/Slide153.JPG","null","","","","",""
"","html-keyboard-response","466","636477","0.0-8.0-2.72","LF","w6nynz57oc","1536","864","en","tz03as24","null","","","","learningBlock2","","","","<div style=""font-size:60px;""> </div>","null","LF","learning/Slide153.JPG","This is a bim:","",""
"","html-keyboard-response","467","637479","0.0-8.0-0.73","LF","w6nynz57oc","1536","864","en","tz03as24","null","","","","learningBlock2","","","","This is a tob:","null","","","","",""
"","image-keyboard-response","468","637816","0.0-8.0-1.73","LF","w6nynz57oc","1536","864","en","tz03as24","null","","","","","","","","learning/Slide154.JPG","null","","","","",""
"","html-keyboard-response","469","638828","0.0-8.0-2.73","LF","w6nynz57oc","1536","864","en","tz03as24","null","","","","learningBlock2","","","","<div style=""font-size:60px;""> </div>","null","LF","learning/Slide154.JPG","This is a tob:","",""
"","html-keyboard-response","470","639843","0.0-8.0-0.74","LF","w6nynz57oc","1536","864","en","tz03as24","null","","","","learningBlock2","","","","This is a dep:","null","","","","",""
"","image-keyboard-response","471","640182","0.0-8.0-1.74","LF","w6nynz57oc","1536","864","en","tz03as24","null","","","","","","","","learning/Slide155.JPG","null","","","","",""
"","html-keyboard-response","472","641194","0.0-8.0-2.74","LF","w6nynz57oc","1536","864","en","tz03as24","null","","","","learningBlock2","","","","<div style=""font-size:60px;""> </div>","null","LF","learning/Slide155.JPG","This is a dep:","",""
"","html-keyboard-response","473","642211","0.0-8.0-0.75","LF","w6nynz57oc","1536","864","en","tz03as24","null","","","","learningBlock2","","","","This is a bim:","null","","","","",""
"","image-keyboard-response","474","642548","0.0-8.0-1.75","LF","w6nynz57oc","1536","864","en","tz03as24","null","","","","","","","","learning/Slide156.JPG","null","","","","",""
"","html-keyboard-response","475","643559","0.0-8.0-2.75","LF","w6nynz57oc","1536","864","en","tz03as24","null","","","","learningBlock2","","","","<div style=""font-size:60px;""> </div>","null","LF","learning/Slide156.JPG","This is a bim:","",""
"","html-keyboard-response","476","644576","0.0-8.0-0.76","LF","w6nynz57oc","1536","864","en","tz03as24","null","","","","learningBlock2","","","","This is a dep:","null","","","","",""
"","image-keyboard-response","477","644916","0.0-8.0-1.76","LF","w6nynz57oc","1536","864","en","tz03as24","null","","","","","","","","learning/Slide157.JPG","null","","","","",""
"","html-keyboard-response","478","645926","0.0-8.0-2.76","LF","w6nynz57oc","1536","864","en","tz03as24","null","","","","learningBlock2","","","","<div style=""font-size:60px;""> </div>","null","LF","learning/Slide157.JPG","This is a dep:","",""
"","html-keyboard-response","479","646928","0.0-8.0-0.77","LF","w6nynz57oc","1536","864","en","tz03as24","null","","","","learningBlock2","","","","This is a tob:","null","","","","",""
"","image-keyboard-response","480","647266","0.0-8.0-1.77","LF","w6nynz57oc","1536","864","en","tz03as24","null","","","","","","","","learning/Slide158.JPG","null","","","","",""
"","html-keyboard-response","481","648281","0.0-8.0-2.77","LF","w6nynz57oc","1536","864","en","tz03as24","null","","","","learningBlock2","","","","<div style=""font-size:60px;""> </div>","null","LF","learning/Slide158.JPG","This is a tob:","",""
"","html-keyboard-response","482","649292","0.0-8.0-0.78","LF","w6nynz57oc","1536","864","en","tz03as24","null","","","","learningBlock2","","","","This is a dep:","null","","","","",""
"","image-keyboard-response","483","649632","0.0-8.0-1.78","LF","w6nynz57oc","1536","864","en","tz03as24","null","","","","","","","","learning/Slide159.JPG","null","","","","",""
"","html-keyboard-response","484","650659","0.0-8.0-2.78","LF","w6nynz57oc","1536","864","en","tz03as24","null","","","","learningBlock2","","","","<div style=""font-size:60px;""> </div>","null","LF","learning/Slide159.JPG","This is a dep:","",""
"","html-keyboard-response","485","651661","0.0-8.0-0.79","LF","w6nynz57oc","1536","864","en","tz03as24","null","","","","learningBlock2","","","","This is a wug:","null","","","","",""
"","image-keyboard-response","486","651998","0.0-8.0-1.79","LF","w6nynz57oc","1536","864","en","tz03as24","null","","","","","","","","learning/Slide160.JPG","null","","","","",""
"","html-keyboard-response","487","653007","0.0-8.0-2.79","LF","w6nynz57oc","1536","864","en","tz03as24","null","","","","learningBlock2","","","","<div style=""font-size:60px;""> </div>","null","LF","learning/Slide160.JPG","This is a wug:","",""
"","resize2","488","659478","0.0-9.0","LF","w6nynz57oc","1536","864","en","tz03as24","","","","","","","104","1.04","","","","","","",""
"","instructions","489","718863","0.0-10.0","LF","w6nynz57oc","1536","864","en","tz03as24","NA","","","[{""page_index"":0,""viewing_time"":59384.34499991126}]","instructions","","","","","","","","","",""
