"success","trial_type","trial_index","time_elapsed","internal_node_id","condition","subject","screen_width","screen_height","language","codeword","rt","responses","url","view_history","test_part","final_height_px","final_width_px","scale_factor","stimulus","key_press","learningType","presentedImage","presentedLabel","button_pressed","response"
"true","fullscreen","0","2415","0.0-0.0","LF","pc9v71lhle","2048","1152","en","nd05rt12","","","","","","","","","","","","","","",""
"","survey-html-form","1","5464","0.0-1.0","LF","pc9v71lhle","2048","1152","en","nd05rt12","3047.32499999227","{""language"":""en""}","","","","","","","","","","","","",""
"","external-html","2","98209","0.0-3.0-0.0","LF","pc9v71lhle","2048","1152","en","nd05rt12","92706.14500000374","","text/information_english.html","","","","","","","","","","","",""
"","external-html","3","116671","0.0-3.0-1.0","LF","pc9v71lhle","2048","1152","en","nd05rt12","18382.909999985714","","text/consent_english.html","","","","","","","","","","","",""
"","survey-html-form","4","286504","0.0-3.0-2.0","LF","pc9v71lhle","2048","1152","en","nd05rt12","169833.27500001178","{""codeword_enter"":""nd05rt12""}","","","","","","","","","","","","",""
"","instructions","5","301556","0.0-4.0","LF","pc9v71lhle","2048","1152","en","nd05rt12","NA","","","[{""page_index"":0,""viewing_time"":4909.604999993462},{""page_index"":1,""viewing_time"":8640.169999998761}]","instructions","","","","","","","","","",""
"","resize","6","411481","0.0-5.0","LF","pc9v71lhle","2048","1152","en","nd05rt12","","","","","","","362","2.2984126984126982","","","","","","",""
"","html-keyboard-response","7","412488","0.0-6.0-0.0","LF","pc9v71lhle","2048","1152","en","nd05rt12","null","","","","learningBlock1","","","","This is a tob:","null","","","","",""
"","image-keyboard-response","8","412816","0.0-6.0-1.0","LF","pc9v71lhle","2048","1152","en","nd05rt12","null","","","","","","","","learning/Slide1.JPG","null","","","","",""
"","html-keyboard-response","9","413816","0.0-6.0-2.0","LF","pc9v71lhle","2048","1152","en","nd05rt12","null","","","","learningBlock1","","","","<div style=""font-size:60px;""> </div>","null","LF","learning/Slide1.JPG","This is a tob:","",""
"","html-keyboard-response","10","414821","0.0-6.0-0.1","LF","pc9v71lhle","2048","1152","en","nd05rt12","null","","","","learningBlock1","","","","This is a wug:","null","","","","",""
"","image-keyboard-response","11","415150","0.0-6.0-1.1","LF","pc9v71lhle","2048","1152","en","nd05rt12","null","","","","","","","","learning/Slide2.JPG","null","","","","",""
"","html-keyboard-response","12","416151","0.0-6.0-2.1","LF","pc9v71lhle","2048","1152","en","nd05rt12","null","","","","learningBlock1","","","","<div style=""font-size:60px;""> </div>","null","LF","learning/Slide2.JPG","This is a wug:","",""
"","html-keyboard-response","13","417154","0.0-6.0-0.2","LF","pc9v71lhle","2048","1152","en","nd05rt12","null","","","","learningBlock1","","","","This is a bim:","null","","","","",""
"","image-keyboard-response","14","417485","0.0-6.0-1.2","LF","pc9v71lhle","2048","1152","en","nd05rt12","null","","","","","","","","learning/Slide3.JPG","null","","","","",""
"","html-keyboard-response","15","418490","0.0-6.0-2.2","LF","pc9v71lhle","2048","1152","en","nd05rt12","null","","","","learningBlock1","","","","<div style=""font-size:60px;""> </div>","null","LF","learning/Slide3.JPG","This is a bim:","",""
"","html-keyboard-response","16","419493","0.0-6.0-0.3","LF","pc9v71lhle","2048","1152","en","nd05rt12","null","","","","learningBlock1","","","","This is a dep:","null","","","","",""
"","image-keyboard-response","17","419821","0.0-6.0-1.3","LF","pc9v71lhle","2048","1152","en","nd05rt12","null","","","","","","","","learning/Slide4.JPG","null","","","","",""
"","html-keyboard-response","18","420821","0.0-6.0-2.3","LF","pc9v71lhle","2048","1152","en","nd05rt12","null","","","","learningBlock1","","","","<div style=""font-size:60px;""> </div>","null","LF","learning/Slide4.JPG","This is a dep:","",""
"","html-keyboard-response","19","421823","0.0-6.0-0.4","LF","pc9v71lhle","2048","1152","en","nd05rt12","null","","","","learningBlock1","","","","This is a wug:","null","","","","",""
"","image-keyboard-response","20","422159","0.0-6.0-1.4","LF","pc9v71lhle","2048","1152","en","nd05rt12","null","","","","","","","","learning/Slide5.JPG","null","","","","",""
"","html-keyboard-response","21","423163","0.0-6.0-2.4","LF","pc9v71lhle","2048","1152","en","nd05rt12","null","","","","learningBlock1","","","","<div style=""font-size:60px;""> </div>","null","LF","learning/Slide5.JPG","This is a wug:","",""
"","html-keyboard-response","22","424164","0.0-6.0-0.5","LF","pc9v71lhle","2048","1152","en","nd05rt12","null","","","","learningBlock1","","","","This is a dep:","null","","","","",""
"","image-keyboard-response","23","424494","0.0-6.0-1.5","LF","pc9v71lhle","2048","1152","en","nd05rt12","null","","","","","","","","learning/Slide6.JPG","null","","","","",""
"","html-keyboard-response","24","425497","0.0-6.0-2.5","LF","pc9v71lhle","2048","1152","en","nd05rt12","null","","","","learningBlock1","","","","<div style=""font-size:60px;""> </div>","null","LF","learning/Slide6.JPG","This is a dep:","",""
"","html-keyboard-response","25","426501","0.0-6.0-0.6","LF","pc9v71lhle","2048","1152","en","nd05rt12","null","","","","learningBlock1","","","","This is a wug:","null","","","","",""
"","image-keyboard-response","26","426832","0.0-6.0-1.6","LF","pc9v71lhle","2048","1152","en","nd05rt12","null","","","","","","","","learning/Slide7.JPG","null","","","","",""
"","html-keyboard-response","27","427836","0.0-6.0-2.6","LF","pc9v71lhle","2048","1152","en","nd05rt12","null","","","","learningBlock1","","","","<div style=""font-size:60px;""> </div>","null","LF","learning/Slide7.JPG","This is a wug:","",""
"","html-keyboard-response","28","428840","0.0-6.0-0.7","LF","pc9v71lhle","2048","1152","en","nd05rt12","null","","","","learningBlock1","","","","This is a bim:","null","","","","",""
"","image-keyboard-response","29","429171","0.0-6.0-1.7","LF","pc9v71lhle","2048","1152","en","nd05rt12","null","","","","","","","","learning/Slide8.JPG","null","","","","",""
"","html-keyboard-response","30","430175","0.0-6.0-2.7","LF","pc9v71lhle","2048","1152","en","nd05rt12","null","","","","learningBlock1","","","","<div style=""font-size:60px;""> </div>","null","LF","learning/Slide8.JPG","This is a bim:","",""
"","html-keyboard-response","31","431179","0.0-6.0-0.8","LF","pc9v71lhle","2048","1152","en","nd05rt12","null","","","","learningBlock1","","","","This is a wug:","null","","","","",""
"","image-keyboard-response","32","431510","0.0-6.0-1.8","LF","pc9v71lhle","2048","1152","en","nd05rt12","null","","","","","","","","learning/Slide9.JPG","null","","","","",""
"","html-keyboard-response","33","432515","0.0-6.0-2.8","LF","pc9v71lhle","2048","1152","en","nd05rt12","null","","","","learningBlock1","","","","<div style=""font-size:60px;""> </div>","null","LF","learning/Slide9.JPG","This is a wug:","",""
"","html-keyboard-response","34","433516","0.0-6.0-0.9","LF","pc9v71lhle","2048","1152","en","nd05rt12","null","","","","learningBlock1","","","","This is a dep:","null","","","","",""
"","image-keyboard-response","35","433847","0.0-6.0-1.9","LF","pc9v71lhle","2048","1152","en","nd05rt12","null","","","","","","","","learning/Slide10.JPG","null","","","","",""
"","html-keyboard-response","36","434848","0.0-6.0-2.9","LF","pc9v71lhle","2048","1152","en","nd05rt12","null","","","","learningBlock1","","","","<div style=""font-size:60px;""> </div>","null","LF","learning/Slide10.JPG","This is a dep:","",""
"","html-keyboard-response","37","435853","0.0-6.0-0.10","LF","pc9v71lhle","2048","1152","en","nd05rt12","null","","","","learningBlock1","","","","This is a tob:","null","","","","",""
"","image-keyboard-response","38","436184","0.0-6.0-1.10","LF","pc9v71lhle","2048","1152","en","nd05rt12","null","","","","","","","","learning/Slide11.JPG","null","","","","",""
"","html-keyboard-response","39","437188","0.0-6.0-2.10","LF","pc9v71lhle","2048","1152","en","nd05rt12","null","","","","learningBlock1","","","","<div style=""font-size:60px;""> </div>","null","LF","learning/Slide11.JPG","This is a tob:","",""
"","html-keyboard-response","40","438192","0.0-6.0-0.11","LF","pc9v71lhle","2048","1152","en","nd05rt12","null","","","","learningBlock1","","","","This is a dep:","null","","","","",""
"","image-keyboard-response","41","438523","0.0-6.0-1.11","LF","pc9v71lhle","2048","1152","en","nd05rt12","null","","","","","","","","learning/Slide12.JPG","null","","","","",""
"","html-keyboard-response","42","439524","0.0-6.0-2.11","LF","pc9v71lhle","2048","1152","en","nd05rt12","null","","","","learningBlock1","","","","<div style=""font-size:60px;""> </div>","null","LF","learning/Slide12.JPG","This is a dep:","",""
"","html-keyboard-response","43","440526","0.0-6.0-0.12","LF","pc9v71lhle","2048","1152","en","nd05rt12","null","","","","learningBlock1","","","","This is a bim:","null","","","","",""
"","image-keyboard-response","44","440856","0.0-6.0-1.12","LF","pc9v71lhle","2048","1152","en","nd05rt12","null","","","","","","","","learning/Slide13.JPG","null","","","","",""
"","html-keyboard-response","45","441861","0.0-6.0-2.12","LF","pc9v71lhle","2048","1152","en","nd05rt12","null","","","","learningBlock1","","","","<div style=""font-size:60px;""> </div>","null","LF","learning/Slide13.JPG","This is a bim:","",""
"","html-keyboard-response","46","442865","0.0-6.0-0.13","LF","pc9v71lhle","2048","1152","en","nd05rt12","null","","","","learningBlock1","","","","This is a wug:","null","","","","",""
"","image-keyboard-response","47","443196","0.0-6.0-1.13","LF","pc9v71lhle","2048","1152","en","nd05rt12","null","","","","","","","","learning/Slide14.JPG","null","","","","",""
"","html-keyboard-response","48","444200","0.0-6.0-2.13","LF","pc9v71lhle","2048","1152","en","nd05rt12","null","","","","learningBlock1","","","","<div style=""font-size:60px;""> </div>","null","LF","learning/Slide14.JPG","This is a wug:","",""
"","html-keyboard-response","49","445204","0.0-6.0-0.14","LF","pc9v71lhle","2048","1152","en","nd05rt12","null","","","","learningBlock1","","","","This is a tob:","null","","","","",""
"","image-keyboard-response","50","445531","0.0-6.0-1.14","LF","pc9v71lhle","2048","1152","en","nd05rt12","null","","","","","","","","learning/Slide15.JPG","null","","","","",""
"","html-keyboard-response","51","446534","0.0-6.0-2.14","LF","pc9v71lhle","2048","1152","en","nd05rt12","null","","","","learningBlock1","","","","<div style=""font-size:60px;""> </div>","null","LF","learning/Slide15.JPG","This is a tob:","",""
"","html-keyboard-response","52","447535","0.0-6.0-0.15","LF","pc9v71lhle","2048","1152","en","nd05rt12","null","","","","learningBlock1","","","","This is a dep:","null","","","","",""
"","image-keyboard-response","53","447869","0.0-6.0-1.15","LF","pc9v71lhle","2048","1152","en","nd05rt12","null","","","","","","","","learning/Slide16.JPG","null","","","","",""
"","html-keyboard-response","54","448873","0.0-6.0-2.15","LF","pc9v71lhle","2048","1152","en","nd05rt12","null","","","","learningBlock1","","","","<div style=""font-size:60px;""> </div>","null","LF","learning/Slide16.JPG","This is a dep:","",""
"","html-keyboard-response","55","449877","0.0-6.0-0.16","LF","pc9v71lhle","2048","1152","en","nd05rt12","null","","","","learningBlock1","","","","This is a bim:","null","","","","",""
"","image-keyboard-response","56","450208","0.0-6.0-1.16","LF","pc9v71lhle","2048","1152","en","nd05rt12","null","","","","","","","","learning/Slide17.JPG","null","","","","",""
"","html-keyboard-response","57","451210","0.0-6.0-2.16","LF","pc9v71lhle","2048","1152","en","nd05rt12","null","","","","learningBlock1","","","","<div style=""font-size:60px;""> </div>","null","LF","learning/Slide17.JPG","This is a bim:","",""
"","html-keyboard-response","58","452213","0.0-6.0-0.17","LF","pc9v71lhle","2048","1152","en","nd05rt12","null","","","","learningBlock1","","","","This is a tob:","null","","","","",""
"","image-keyboard-response","59","452547","0.0-6.0-1.17","LF","pc9v71lhle","2048","1152","en","nd05rt12","null","","","","","","","","learning/Slide18.JPG","null","","","","",""
"","html-keyboard-response","60","453549","0.0-6.0-2.17","LF","pc9v71lhle","2048","1152","en","nd05rt12","null","","","","learningBlock1","","","","<div style=""font-size:60px;""> </div>","null","LF","learning/Slide18.JPG","This is a tob:","",""
"","html-keyboard-response","61","454552","0.0-6.0-0.18","LF","pc9v71lhle","2048","1152","en","nd05rt12","null","","","","learningBlock1","","","","This is a wug:","null","","","","",""
"","image-keyboard-response","62","454887","0.0-6.0-1.18","LF","pc9v71lhle","2048","1152","en","nd05rt12","null","","","","","","","","learning/Slide19.JPG","null","","","","",""
"","html-keyboard-response","63","455891","0.0-6.0-2.18","LF","pc9v71lhle","2048","1152","en","nd05rt12","null","","","","learningBlock1","","","","<div style=""font-size:60px;""> </div>","null","LF","learning/Slide19.JPG","This is a wug:","",""
"","html-keyboard-response","64","456896","0.0-6.0-0.19","LF","pc9v71lhle","2048","1152","en","nd05rt12","null","","","","learningBlock1","","","","This is a bim:","null","","","","",""
"","image-keyboard-response","65","457226","0.0-6.0-1.19","LF","pc9v71lhle","2048","1152","en","nd05rt12","null","","","","","","","","learning/Slide20.JPG","null","","","","",""
"","html-keyboard-response","66","458231","0.0-6.0-2.19","LF","pc9v71lhle","2048","1152","en","nd05rt12","null","","","","learningBlock1","","","","<div style=""font-size:60px;""> </div>","null","LF","learning/Slide20.JPG","This is a bim:","",""
"","html-keyboard-response","67","459235","0.0-6.0-0.20","LF","pc9v71lhle","2048","1152","en","nd05rt12","null","","","","learningBlock1","","","","This is a dep:","null","","","","",""
"","image-keyboard-response","68","459564","0.0-6.0-1.20","LF","pc9v71lhle","2048","1152","en","nd05rt12","null","","","","","","","","learning/Slide21.JPG","null","","","","",""
"","html-keyboard-response","69","460570","0.0-6.0-2.20","LF","pc9v71lhle","2048","1152","en","nd05rt12","null","","","","learningBlock1","","","","<div style=""font-size:60px;""> </div>","null","LF","learning/Slide21.JPG","This is a dep:","",""
"","html-keyboard-response","70","461572","0.0-6.0-0.21","LF","pc9v71lhle","2048","1152","en","nd05rt12","null","","","","learningBlock1","","","","This is a bim:","null","","","","",""
"","image-keyboard-response","71","461901","0.0-6.0-1.21","LF","pc9v71lhle","2048","1152","en","nd05rt12","null","","","","","","","","learning/Slide22.JPG","null","","","","",""
"","html-keyboard-response","72","462902","0.0-6.0-2.21","LF","pc9v71lhle","2048","1152","en","nd05rt12","null","","","","learningBlock1","","","","<div style=""font-size:60px;""> </div>","null","LF","learning/Slide22.JPG","This is a bim:","",""
"","html-keyboard-response","73","463904","0.0-6.0-0.22","LF","pc9v71lhle","2048","1152","en","nd05rt12","null","","","","learningBlock1","","","","This is a tob:","null","","","","",""
"","image-keyboard-response","74","464239","0.0-6.0-1.22","LF","pc9v71lhle","2048","1152","en","nd05rt12","null","","","","","","","","learning/Slide23.JPG","null","","","","",""
"","html-keyboard-response","75","465243","0.0-6.0-2.22","LF","pc9v71lhle","2048","1152","en","nd05rt12","null","","","","learningBlock1","","","","<div style=""font-size:60px;""> </div>","null","LF","learning/Slide23.JPG","This is a tob:","",""
"","html-keyboard-response","76","466247","0.0-6.0-0.23","LF","pc9v71lhle","2048","1152","en","nd05rt12","null","","","","learningBlock1","","","","This is a wug:","null","","","","",""
"","image-keyboard-response","77","466578","0.0-6.0-1.23","LF","pc9v71lhle","2048","1152","en","nd05rt12","null","","","","","","","","learning/Slide24.JPG","null","","","","",""
"","html-keyboard-response","78","467584","0.0-6.0-2.23","LF","pc9v71lhle","2048","1152","en","nd05rt12","null","","","","learningBlock1","","","","<div style=""font-size:60px;""> </div>","null","LF","learning/Slide24.JPG","This is a wug:","",""
"","html-keyboard-response","79","468586","0.0-6.0-0.24","LF","pc9v71lhle","2048","1152","en","nd05rt12","null","","","","learningBlock1","","","","This is a dep:","null","","","","",""
"","image-keyboard-response","80","468915","0.0-6.0-1.24","LF","pc9v71lhle","2048","1152","en","nd05rt12","null","","","","","","","","learning/Slide25.JPG","null","","","","",""
"","html-keyboard-response","81","469916","0.0-6.0-2.24","LF","pc9v71lhle","2048","1152","en","nd05rt12","null","","","","learningBlock1","","","","<div style=""font-size:60px;""> </div>","null","LF","learning/Slide25.JPG","This is a dep:","",""
"","html-keyboard-response","82","470918","0.0-6.0-0.25","LF","pc9v71lhle","2048","1152","en","nd05rt12","null","","","","learningBlock1","","","","This is a wug:","null","","","","",""
"","image-keyboard-response","83","471247","0.0-6.0-1.25","LF","pc9v71lhle","2048","1152","en","nd05rt12","null","","","","","","","","learning/Slide26.JPG","null","","","","",""
"","html-keyboard-response","84","472248","0.0-6.0-2.25","LF","pc9v71lhle","2048","1152","en","nd05rt12","null","","","","learningBlock1","","","","<div style=""font-size:60px;""> </div>","null","LF","learning/Slide26.JPG","This is a wug:","",""
"","html-keyboard-response","85","473250","0.0-6.0-0.26","LF","pc9v71lhle","2048","1152","en","nd05rt12","null","","","","learningBlock1","","","","This is a bim:","null","","","","",""
"","image-keyboard-response","86","473585","0.0-6.0-1.26","LF","pc9v71lhle","2048","1152","en","nd05rt12","null","","","","","","","","learning/Slide27.JPG","null","","","","",""
"","html-keyboard-response","87","474589","0.0-6.0-2.26","LF","pc9v71lhle","2048","1152","en","nd05rt12","null","","","","learningBlock1","","","","<div style=""font-size:60px;""> </div>","null","LF","learning/Slide27.JPG","This is a bim:","",""
"","html-keyboard-response","88","475593","0.0-6.0-0.27","LF","pc9v71lhle","2048","1152","en","nd05rt12","null","","","","learningBlock1","","","","This is a dep:","null","","","","",""
"","image-keyboard-response","89","475924","0.0-6.0-1.27","LF","pc9v71lhle","2048","1152","en","nd05rt12","null","","","","","","","","learning/Slide28.JPG","null","","","","",""
"","html-keyboard-response","90","476928","0.0-6.0-2.27","LF","pc9v71lhle","2048","1152","en","nd05rt12","null","","","","learningBlock1","","","","<div style=""font-size:60px;""> </div>","null","LF","learning/Slide28.JPG","This is a dep:","",""
"","html-keyboard-response","91","477933","0.0-6.0-0.28","LF","pc9v71lhle","2048","1152","en","nd05rt12","null","","","","learningBlock1","","","","This is a tob:","null","","","","",""
"","image-keyboard-response","92","478263","0.0-6.0-1.28","LF","pc9v71lhle","2048","1152","en","nd05rt12","null","","","","","","","","learning/Slide29.JPG","null","","","","",""
"","html-keyboard-response","93","479264","0.0-6.0-2.28","LF","pc9v71lhle","2048","1152","en","nd05rt12","null","","","","learningBlock1","","","","<div style=""font-size:60px;""> </div>","null","LF","learning/Slide29.JPG","This is a tob:","",""
"","html-keyboard-response","94","480266","0.0-6.0-0.29","LF","pc9v71lhle","2048","1152","en","nd05rt12","null","","","","learningBlock1","","","","This is a dep:","null","","","","",""
"","image-keyboard-response","95","480597","0.0-6.0-1.29","LF","pc9v71lhle","2048","1152","en","nd05rt12","null","","","","","","","","learning/Slide30.JPG","null","","","","",""
"","html-keyboard-response","96","481601","0.0-6.0-2.29","LF","pc9v71lhle","2048","1152","en","nd05rt12","null","","","","learningBlock1","","","","<div style=""font-size:60px;""> </div>","null","LF","learning/Slide30.JPG","This is a dep:","",""
"","html-keyboard-response","97","482606","0.0-6.0-0.30","LF","pc9v71lhle","2048","1152","en","nd05rt12","null","","","","learningBlock1","","","","This is a wug:","null","","","","",""
"","image-keyboard-response","98","482936","0.0-6.0-1.30","LF","pc9v71lhle","2048","1152","en","nd05rt12","null","","","","","","","","learning/Slide31.JPG","null","","","","",""
"","html-keyboard-response","99","483941","0.0-6.0-2.30","LF","pc9v71lhle","2048","1152","en","nd05rt12","null","","","","learningBlock1","","","","<div style=""font-size:60px;""> </div>","null","LF","learning/Slide31.JPG","This is a wug:","",""
"","html-keyboard-response","100","484945","0.0-6.0-0.31","LF","pc9v71lhle","2048","1152","en","nd05rt12","null","","","","learningBlock1","","","","This is a tob:","null","","","","",""
"","image-keyboard-response","101","485276","0.0-6.0-1.31","LF","pc9v71lhle","2048","1152","en","nd05rt12","null","","","","","","","","learning/Slide32.JPG","null","","","","",""
"","html-keyboard-response","102","486280","0.0-6.0-2.31","LF","pc9v71lhle","2048","1152","en","nd05rt12","null","","","","learningBlock1","","","","<div style=""font-size:60px;""> </div>","null","LF","learning/Slide32.JPG","This is a tob:","",""
"","html-keyboard-response","103","487282","0.0-6.0-0.32","LF","pc9v71lhle","2048","1152","en","nd05rt12","null","","","","learningBlock1","","","","This is a bim:","null","","","","",""
"","image-keyboard-response","104","487615","0.0-6.0-1.32","LF","pc9v71lhle","2048","1152","en","nd05rt12","null","","","","","","","","learning/Slide33.JPG","null","","","","",""
"","html-keyboard-response","105","488619","0.0-6.0-2.32","LF","pc9v71lhle","2048","1152","en","nd05rt12","null","","","","learningBlock1","","","","<div style=""font-size:60px;""> </div>","null","LF","learning/Slide33.JPG","This is a bim:","",""
"","html-keyboard-response","106","489624","0.0-6.0-0.33","LF","pc9v71lhle","2048","1152","en","nd05rt12","null","","","","learningBlock1","","","","This is a tob:","null","","","","",""
"","image-keyboard-response","107","489955","0.0-6.0-1.33","LF","pc9v71lhle","2048","1152","en","nd05rt12","null","","","","","","","","learning/Slide34.JPG","null","","","","",""
"","html-keyboard-response","108","490959","0.0-6.0-2.33","LF","pc9v71lhle","2048","1152","en","nd05rt12","null","","","","learningBlock1","","","","<div style=""font-size:60px;""> </div>","null","LF","learning/Slide34.JPG","This is a tob:","",""
"","html-keyboard-response","109","491963","0.0-6.0-0.34","LF","pc9v71lhle","2048","1152","en","nd05rt12","null","","","","learningBlock1","","","","This is a bim:","null","","","","",""
"","image-keyboard-response","110","492290","0.0-6.0-1.34","LF","pc9v71lhle","2048","1152","en","nd05rt12","null","","","","","","","","learning/Slide35.JPG","null","","","","",""
"","html-keyboard-response","111","493291","0.0-6.0-2.34","LF","pc9v71lhle","2048","1152","en","nd05rt12","null","","","","learningBlock1","","","","<div style=""font-size:60px;""> </div>","null","LF","learning/Slide35.JPG","This is a bim:","",""
"","html-keyboard-response","112","494293","0.0-6.0-0.35","LF","pc9v71lhle","2048","1152","en","nd05rt12","null","","","","learningBlock1","","","","This is a dep:","null","","","","",""
"","image-keyboard-response","113","494628","0.0-6.0-1.35","LF","pc9v71lhle","2048","1152","en","nd05rt12","null","","","","","","","","learning/Slide36.JPG","null","","","","",""
"","html-keyboard-response","114","495631","0.0-6.0-2.35","LF","pc9v71lhle","2048","1152","en","nd05rt12","null","","","","learningBlock1","","","","<div style=""font-size:60px;""> </div>","null","LF","learning/Slide36.JPG","This is a dep:","",""
"","html-keyboard-response","115","496636","0.0-6.0-0.36","LF","pc9v71lhle","2048","1152","en","nd05rt12","null","","","","learningBlock1","","","","This is a tob:","null","","","","",""
"","image-keyboard-response","116","496967","0.0-6.0-1.36","LF","pc9v71lhle","2048","1152","en","nd05rt12","null","","","","","","","","learning/Slide37.JPG","null","","","","",""
"","html-keyboard-response","117","497971","0.0-6.0-2.36","LF","pc9v71lhle","2048","1152","en","nd05rt12","null","","","","learningBlock1","","","","<div style=""font-size:60px;""> </div>","null","LF","learning/Slide37.JPG","This is a tob:","",""
"","html-keyboard-response","118","498972","0.0-6.0-0.37","LF","pc9v71lhle","2048","1152","en","nd05rt12","null","","","","learningBlock1","","","","This is a wug:","null","","","","",""
"","image-keyboard-response","119","499306","0.0-6.0-1.37","LF","pc9v71lhle","2048","1152","en","nd05rt12","null","","","","","","","","learning/Slide38.JPG","null","","","","",""
"","html-keyboard-response","120","500311","0.0-6.0-2.37","LF","pc9v71lhle","2048","1152","en","nd05rt12","null","","","","learningBlock1","","","","<div style=""font-size:60px;""> </div>","null","LF","learning/Slide38.JPG","This is a wug:","",""
"","html-keyboard-response","121","501313","0.0-6.0-0.38","LF","pc9v71lhle","2048","1152","en","nd05rt12","null","","","","learningBlock1","","","","This is a bim:","null","","","","",""
"","image-keyboard-response","122","501645","0.0-6.0-1.38","LF","pc9v71lhle","2048","1152","en","nd05rt12","null","","","","","","","","learning/Slide39.JPG","null","","","","",""
"","html-keyboard-response","123","502647","0.0-6.0-2.38","LF","pc9v71lhle","2048","1152","en","nd05rt12","null","","","","learningBlock1","","","","<div style=""font-size:60px;""> </div>","null","LF","learning/Slide39.JPG","This is a bim:","",""
"","html-keyboard-response","124","503650","0.0-6.0-0.39","LF","pc9v71lhle","2048","1152","en","nd05rt12","null","","","","learningBlock1","","","","This is a tob:","null","","","","",""
"","image-keyboard-response","125","503979","0.0-6.0-1.39","LF","pc9v71lhle","2048","1152","en","nd05rt12","null","","","","","","","","learning/Slide40.JPG","null","","","","",""
"","html-keyboard-response","126","504983","0.0-6.0-2.39","LF","pc9v71lhle","2048","1152","en","nd05rt12","null","","","","learningBlock1","","","","<div style=""font-size:60px;""> </div>","null","LF","learning/Slide40.JPG","This is a tob:","",""
"","html-keyboard-response","127","505988","0.0-6.0-0.40","LF","pc9v71lhle","2048","1152","en","nd05rt12","null","","","","learningBlock1","","","","This is a bim:","null","","","","",""
"","image-keyboard-response","128","506319","0.0-6.0-1.40","LF","pc9v71lhle","2048","1152","en","nd05rt12","null","","","","","","","","learning/Slide41.JPG","null","","","","",""
"","html-keyboard-response","129","507323","0.0-6.0-2.40","LF","pc9v71lhle","2048","1152","en","nd05rt12","null","","","","learningBlock1","","","","<div style=""font-size:60px;""> </div>","null","LF","learning/Slide41.JPG","This is a bim:","",""
"","html-keyboard-response","130","508327","0.0-6.0-0.41","LF","pc9v71lhle","2048","1152","en","nd05rt12","null","","","","learningBlock1","","","","This is a dep:","null","","","","",""
"","image-keyboard-response","131","508658","0.0-6.0-1.41","LF","pc9v71lhle","2048","1152","en","nd05rt12","null","","","","","","","","learning/Slide42.JPG","null","","","","",""
"","html-keyboard-response","132","509662","0.0-6.0-2.41","LF","pc9v71lhle","2048","1152","en","nd05rt12","null","","","","learningBlock1","","","","<div style=""font-size:60px;""> </div>","null","LF","learning/Slide42.JPG","This is a dep:","",""
"","html-keyboard-response","133","510665","0.0-6.0-0.42","LF","pc9v71lhle","2048","1152","en","nd05rt12","null","","","","learningBlock1","","","","This is a wug:","null","","","","",""
"","image-keyboard-response","134","510998","0.0-6.0-1.42","LF","pc9v71lhle","2048","1152","en","nd05rt12","null","","","","","","","","learning/Slide43.JPG","null","","","","",""
"","html-keyboard-response","135","512002","0.0-6.0-2.42","LF","pc9v71lhle","2048","1152","en","nd05rt12","null","","","","learningBlock1","","","","<div style=""font-size:60px;""> </div>","null","LF","learning/Slide43.JPG","This is a wug:","",""
"","html-keyboard-response","136","513005","0.0-6.0-0.43","LF","pc9v71lhle","2048","1152","en","nd05rt12","null","","","","learningBlock1","","","","This is a bim:","null","","","","",""
"","image-keyboard-response","137","513337","0.0-6.0-1.43","LF","pc9v71lhle","2048","1152","en","nd05rt12","null","","","","","","","","learning/Slide44.JPG","null","","","","",""
"","html-keyboard-response","138","514339","0.0-6.0-2.43","LF","pc9v71lhle","2048","1152","en","nd05rt12","null","","","","learningBlock1","","","","<div style=""font-size:60px;""> </div>","null","LF","learning/Slide44.JPG","This is a bim:","",""
"","html-keyboard-response","139","515342","0.0-6.0-0.44","LF","pc9v71lhle","2048","1152","en","nd05rt12","null","","","","learningBlock1","","","","This is a wug:","null","","","","",""
"","image-keyboard-response","140","515670","0.0-6.0-1.44","LF","pc9v71lhle","2048","1152","en","nd05rt12","null","","","","","","","","learning/Slide45.JPG","null","","","","",""
"","html-keyboard-response","141","516674","0.0-6.0-2.44","LF","pc9v71lhle","2048","1152","en","nd05rt12","null","","","","learningBlock1","","","","<div style=""font-size:60px;""> </div>","null","LF","learning/Slide45.JPG","This is a wug:","",""
"","html-keyboard-response","142","517679","0.0-6.0-0.45","LF","pc9v71lhle","2048","1152","en","nd05rt12","null","","","","learningBlock1","","","","This is a dep:","null","","","","",""
"","image-keyboard-response","143","518010","0.0-6.0-1.45","LF","pc9v71lhle","2048","1152","en","nd05rt12","null","","","","","","","","learning/Slide46.JPG","null","","","","",""
"","html-keyboard-response","144","519014","0.0-6.0-2.45","LF","pc9v71lhle","2048","1152","en","nd05rt12","null","","","","learningBlock1","","","","<div style=""font-size:60px;""> </div>","null","LF","learning/Slide46.JPG","This is a dep:","",""
"","html-keyboard-response","145","520016","0.0-6.0-0.46","LF","pc9v71lhle","2048","1152","en","nd05rt12","null","","","","learningBlock1","","","","This is a tob:","null","","","","",""
"","image-keyboard-response","146","520347","0.0-6.0-1.46","LF","pc9v71lhle","2048","1152","en","nd05rt12","null","","","","","","","","learning/Slide47.JPG","null","","","","",""
"","html-keyboard-response","147","521353","0.0-6.0-2.46","LF","pc9v71lhle","2048","1152","en","nd05rt12","null","","","","learningBlock1","","","","<div style=""font-size:60px;""> </div>","null","LF","learning/Slide47.JPG","This is a tob:","",""
"","html-keyboard-response","148","522355","0.0-6.0-0.47","LF","pc9v71lhle","2048","1152","en","nd05rt12","null","","","","learningBlock1","","","","This is a bim:","null","","","","",""
"","image-keyboard-response","149","522689","0.0-6.0-1.47","LF","pc9v71lhle","2048","1152","en","nd05rt12","null","","","","","","","","learning/Slide48.JPG","null","","","","",""
"","html-keyboard-response","150","523693","0.0-6.0-2.47","LF","pc9v71lhle","2048","1152","en","nd05rt12","null","","","","learningBlock1","","","","<div style=""font-size:60px;""> </div>","null","LF","learning/Slide48.JPG","This is a bim:","",""
"","html-keyboard-response","151","524697","0.0-6.0-0.48","LF","pc9v71lhle","2048","1152","en","nd05rt12","null","","","","learningBlock1","","","","This is a dep:","null","","","","",""
"","image-keyboard-response","152","525028","0.0-6.0-1.48","LF","pc9v71lhle","2048","1152","en","nd05rt12","null","","","","","","","","learning/Slide49.JPG","null","","","","",""
"","html-keyboard-response","153","526032","0.0-6.0-2.48","LF","pc9v71lhle","2048","1152","en","nd05rt12","null","","","","learningBlock1","","","","<div style=""font-size:60px;""> </div>","null","LF","learning/Slide49.JPG","This is a dep:","",""
"","html-keyboard-response","154","527037","0.0-6.0-0.49","LF","pc9v71lhle","2048","1152","en","nd05rt12","null","","","","learningBlock1","","","","This is a tob:","null","","","","",""
"","image-keyboard-response","155","527364","0.0-6.0-1.49","LF","pc9v71lhle","2048","1152","en","nd05rt12","null","","","","","","","","learning/Slide50.JPG","null","","","","",""
"","html-keyboard-response","156","528366","0.0-6.0-2.49","LF","pc9v71lhle","2048","1152","en","nd05rt12","null","","","","learningBlock1","","","","<div style=""font-size:60px;""> </div>","null","LF","learning/Slide50.JPG","This is a tob:","",""
"","html-keyboard-response","157","529370","0.0-6.0-0.50","LF","pc9v71lhle","2048","1152","en","nd05rt12","null","","","","learningBlock1","","","","This is a bim:","null","","","","",""
"","image-keyboard-response","158","529700","0.0-6.0-1.50","LF","pc9v71lhle","2048","1152","en","nd05rt12","null","","","","","","","","learning/Slide51.JPG","null","","","","",""
"","html-keyboard-response","159","530705","0.0-6.0-2.50","LF","pc9v71lhle","2048","1152","en","nd05rt12","null","","","","learningBlock1","","","","<div style=""font-size:60px;""> </div>","null","LF","learning/Slide51.JPG","This is a bim:","",""
"","html-keyboard-response","160","531708","0.0-6.0-0.51","LF","pc9v71lhle","2048","1152","en","nd05rt12","null","","","","learningBlock1","","","","This is a wug:","null","","","","",""
"","image-keyboard-response","161","532040","0.0-6.0-1.51","LF","pc9v71lhle","2048","1152","en","nd05rt12","null","","","","","","","","learning/Slide52.JPG","null","","","","",""
"","html-keyboard-response","162","533041","0.0-6.0-2.51","LF","pc9v71lhle","2048","1152","en","nd05rt12","null","","","","learningBlock1","","","","<div style=""font-size:60px;""> </div>","null","LF","learning/Slide52.JPG","This is a wug:","",""
"","html-keyboard-response","163","534043","0.0-6.0-0.52","LF","pc9v71lhle","2048","1152","en","nd05rt12","null","","","","learningBlock1","","","","This is a tob:","null","","","","",""
"","image-keyboard-response","164","534374","0.0-6.0-1.52","LF","pc9v71lhle","2048","1152","en","nd05rt12","null","","","","","","","","learning/Slide53.JPG","null","","","","",""
"","html-keyboard-response","165","535378","0.0-6.0-2.52","LF","pc9v71lhle","2048","1152","en","nd05rt12","null","","","","learningBlock1","","","","<div style=""font-size:60px;""> </div>","null","LF","learning/Slide53.JPG","This is a tob:","",""
"","html-keyboard-response","166","536381","0.0-6.0-0.53","LF","pc9v71lhle","2048","1152","en","nd05rt12","null","","","","learningBlock1","","","","This is a dep:","null","","","","",""
"","image-keyboard-response","167","536713","0.0-6.0-1.53","LF","pc9v71lhle","2048","1152","en","nd05rt12","null","","","","","","","","learning/Slide54.JPG","null","","","","",""
"","html-keyboard-response","168","537718","0.0-6.0-2.53","LF","pc9v71lhle","2048","1152","en","nd05rt12","null","","","","learningBlock1","","","","<div style=""font-size:60px;""> </div>","null","LF","learning/Slide54.JPG","This is a dep:","",""
"","html-keyboard-response","169","538720","0.0-6.0-0.54","LF","pc9v71lhle","2048","1152","en","nd05rt12","null","","","","learningBlock1","","","","This is a bim:","null","","","","",""
"","image-keyboard-response","170","539053","0.0-6.0-1.54","LF","pc9v71lhle","2048","1152","en","nd05rt12","null","","","","","","","","learning/Slide55.JPG","null","","","","",""
"","html-keyboard-response","171","540057","0.0-6.0-2.54","LF","pc9v71lhle","2048","1152","en","nd05rt12","null","","","","learningBlock1","","","","<div style=""font-size:60px;""> </div>","null","LF","learning/Slide55.JPG","This is a bim:","",""
"","html-keyboard-response","172","541061","0.0-6.0-0.55","LF","pc9v71lhle","2048","1152","en","nd05rt12","null","","","","learningBlock1","","","","This is a tob:","null","","","","",""
"","image-keyboard-response","173","541392","0.0-6.0-1.55","LF","pc9v71lhle","2048","1152","en","nd05rt12","null","","","","","","","","learning/Slide56.JPG","null","","","","",""
"","html-keyboard-response","174","542396","0.0-6.0-2.55","LF","pc9v71lhle","2048","1152","en","nd05rt12","null","","","","learningBlock1","","","","<div style=""font-size:60px;""> </div>","null","LF","learning/Slide56.JPG","This is a tob:","",""
"","html-keyboard-response","175","543398","0.0-6.0-0.56","LF","pc9v71lhle","2048","1152","en","nd05rt12","null","","","","learningBlock1","","","","This is a dep:","null","","","","",""
"","image-keyboard-response","176","543725","0.0-6.0-1.56","LF","pc9v71lhle","2048","1152","en","nd05rt12","null","","","","","","","","learning/Slide57.JPG","null","","","","",""
"","html-keyboard-response","177","544730","0.0-6.0-2.56","LF","pc9v71lhle","2048","1152","en","nd05rt12","null","","","","learningBlock1","","","","<div style=""font-size:60px;""> </div>","null","LF","learning/Slide57.JPG","This is a dep:","",""
"","html-keyboard-response","178","545732","0.0-6.0-0.57","LF","pc9v71lhle","2048","1152","en","nd05rt12","null","","","","learningBlock1","","","","This is a wug:","null","","","","",""
"","image-keyboard-response","179","546063","0.0-6.0-1.57","LF","pc9v71lhle","2048","1152","en","nd05rt12","null","","","","","","","","learning/Slide58.JPG","null","","","","",""
"","html-keyboard-response","180","547063","0.0-6.0-2.57","LF","pc9v71lhle","2048","1152","en","nd05rt12","null","","","","learningBlock1","","","","<div style=""font-size:60px;""> </div>","null","LF","learning/Slide58.JPG","This is a wug:","",""
"","html-keyboard-response","181","548064","0.0-6.0-0.58","LF","pc9v71lhle","2048","1152","en","nd05rt12","null","","","","learningBlock1","","","","This is a dep:","null","","","","",""
"","image-keyboard-response","182","548393","0.0-6.0-1.58","LF","pc9v71lhle","2048","1152","en","nd05rt12","null","","","","","","","","learning/Slide59.JPG","null","","","","",""
"","html-keyboard-response","183","549397","0.0-6.0-2.58","LF","pc9v71lhle","2048","1152","en","nd05rt12","null","","","","learningBlock1","","","","<div style=""font-size:60px;""> </div>","null","LF","learning/Slide59.JPG","This is a dep:","",""
"","html-keyboard-response","184","550401","0.0-6.0-0.59","LF","pc9v71lhle","2048","1152","en","nd05rt12","null","","","","learningBlock1","","","","This is a wug:","null","","","","",""
"","image-keyboard-response","185","550728","0.0-6.0-1.59","LF","pc9v71lhle","2048","1152","en","nd05rt12","null","","","","","","","","learning/Slide60.JPG","null","","","","",""
"","html-keyboard-response","186","551731","0.0-6.0-2.59","LF","pc9v71lhle","2048","1152","en","nd05rt12","null","","","","learningBlock1","","","","<div style=""font-size:60px;""> </div>","null","LF","learning/Slide60.JPG","This is a wug:","",""
"","html-keyboard-response","187","552735","0.0-6.0-0.60","LF","pc9v71lhle","2048","1152","en","nd05rt12","null","","","","learningBlock1","","","","This is a bim:","null","","","","",""
"","image-keyboard-response","188","553066","0.0-6.0-1.60","LF","pc9v71lhle","2048","1152","en","nd05rt12","null","","","","","","","","learning/Slide61.JPG","null","","","","",""
"","html-keyboard-response","189","554070","0.0-6.0-2.60","LF","pc9v71lhle","2048","1152","en","nd05rt12","null","","","","learningBlock1","","","","<div style=""font-size:60px;""> </div>","null","LF","learning/Slide61.JPG","This is a bim:","",""
"","html-keyboard-response","190","555073","0.0-6.0-0.61","LF","pc9v71lhle","2048","1152","en","nd05rt12","null","","","","learningBlock1","","","","This is a dep:","null","","","","",""
"","image-keyboard-response","191","555402","0.0-6.0-1.61","LF","pc9v71lhle","2048","1152","en","nd05rt12","null","","","","","","","","learning/Slide62.JPG","null","","","","",""
"","html-keyboard-response","192","556403","0.0-6.0-2.61","LF","pc9v71lhle","2048","1152","en","nd05rt12","null","","","","learningBlock1","","","","<div style=""font-size:60px;""> </div>","null","LF","learning/Slide62.JPG","This is a dep:","",""
"","html-keyboard-response","193","557408","0.0-6.0-0.62","LF","pc9v71lhle","2048","1152","en","nd05rt12","null","","","","learningBlock1","","","","This is a bim:","null","","","","",""
"","image-keyboard-response","194","557739","0.0-6.0-1.62","LF","pc9v71lhle","2048","1152","en","nd05rt12","null","","","","","","","","learning/Slide63.JPG","null","","","","",""
"","html-keyboard-response","195","558743","0.0-6.0-2.62","LF","pc9v71lhle","2048","1152","en","nd05rt12","null","","","","learningBlock1","","","","<div style=""font-size:60px;""> </div>","null","LF","learning/Slide63.JPG","This is a bim:","",""
"","html-keyboard-response","196","559747","0.0-6.0-0.63","LF","pc9v71lhle","2048","1152","en","nd05rt12","null","","","","learningBlock1","","","","This is a tob:","null","","","","",""
"","image-keyboard-response","197","560074","0.0-6.0-1.63","LF","pc9v71lhle","2048","1152","en","nd05rt12","null","","","","","","","","learning/Slide64.JPG","null","","","","",""
"","html-keyboard-response","198","561077","0.0-6.0-2.63","LF","pc9v71lhle","2048","1152","en","nd05rt12","null","","","","learningBlock1","","","","<div style=""font-size:60px;""> </div>","null","LF","learning/Slide64.JPG","This is a tob:","",""
"","html-keyboard-response","199","562081","0.0-6.0-0.64","LF","pc9v71lhle","2048","1152","en","nd05rt12","null","","","","learningBlock1","","","","This is a wug:","null","","","","",""
"","image-keyboard-response","200","562411","0.0-6.0-1.64","LF","pc9v71lhle","2048","1152","en","nd05rt12","null","","","","","","","","learning/Slide65.JPG","null","","","","",""
"","html-keyboard-response","201","563416","0.0-6.0-2.64","LF","pc9v71lhle","2048","1152","en","nd05rt12","null","","","","learningBlock1","","","","<div style=""font-size:60px;""> </div>","null","LF","learning/Slide65.JPG","This is a wug:","",""
"","html-keyboard-response","202","564419","0.0-6.0-0.65","LF","pc9v71lhle","2048","1152","en","nd05rt12","null","","","","learningBlock1","","","","This is a dep:","null","","","","",""
"","image-keyboard-response","203","564751","0.0-6.0-1.65","LF","pc9v71lhle","2048","1152","en","nd05rt12","null","","","","","","","","learning/Slide66.JPG","null","","","","",""
"","html-keyboard-response","204","565756","0.0-6.0-2.65","LF","pc9v71lhle","2048","1152","en","nd05rt12","null","","","","learningBlock1","","","","<div style=""font-size:60px;""> </div>","null","LF","learning/Slide66.JPG","This is a dep:","",""
"","html-keyboard-response","205","566760","0.0-6.0-0.66","LF","pc9v71lhle","2048","1152","en","nd05rt12","null","","","","learningBlock1","","","","This is a tob:","null","","","","",""
"","image-keyboard-response","206","567087","0.0-6.0-1.66","LF","pc9v71lhle","2048","1152","en","nd05rt12","null","","","","","","","","learning/Slide67.JPG","null","","","","",""
"","html-keyboard-response","207","568089","0.0-6.0-2.66","LF","pc9v71lhle","2048","1152","en","nd05rt12","null","","","","learningBlock1","","","","<div style=""font-size:60px;""> </div>","null","LF","learning/Slide67.JPG","This is a tob:","",""
"","html-keyboard-response","208","569093","0.0-6.0-0.67","LF","pc9v71lhle","2048","1152","en","nd05rt12","null","","","","learningBlock1","","","","This is a wug:","null","","","","",""
"","image-keyboard-response","209","569424","0.0-6.0-1.67","LF","pc9v71lhle","2048","1152","en","nd05rt12","null","","","","","","","","learning/Slide68.JPG","null","","","","",""
"","html-keyboard-response","210","570428","0.0-6.0-2.67","LF","pc9v71lhle","2048","1152","en","nd05rt12","null","","","","learningBlock1","","","","<div style=""font-size:60px;""> </div>","null","LF","learning/Slide68.JPG","This is a wug:","",""
"","html-keyboard-response","211","571431","0.0-6.0-0.68","LF","pc9v71lhle","2048","1152","en","nd05rt12","null","","","","learningBlock1","","","","This is a tob:","null","","","","",""
"","image-keyboard-response","212","571763","0.0-6.0-1.68","LF","pc9v71lhle","2048","1152","en","nd05rt12","null","","","","","","","","learning/Slide69.JPG","null","","","","",""
"","html-keyboard-response","213","572765","0.0-6.0-2.68","LF","pc9v71lhle","2048","1152","en","nd05rt12","null","","","","learningBlock1","","","","<div style=""font-size:60px;""> </div>","null","LF","learning/Slide69.JPG","This is a tob:","",""
"","html-keyboard-response","214","573768","0.0-6.0-0.69","LF","pc9v71lhle","2048","1152","en","nd05rt12","null","","","","learningBlock1","","","","This is a dep:","null","","","","",""
"","image-keyboard-response","215","574101","0.0-6.0-1.69","LF","pc9v71lhle","2048","1152","en","nd05rt12","null","","","","","","","","learning/Slide70.JPG","null","","","","",""
"","html-keyboard-response","216","575101","0.0-6.0-2.69","LF","pc9v71lhle","2048","1152","en","nd05rt12","null","","","","learningBlock1","","","","<div style=""font-size:60px;""> </div>","null","LF","learning/Slide70.JPG","This is a dep:","",""
"","html-keyboard-response","217","576104","0.0-6.0-0.70","LF","pc9v71lhle","2048","1152","en","nd05rt12","null","","","","learningBlock1","","","","This is a wug:","null","","","","",""
"","image-keyboard-response","218","576434","0.0-6.0-1.70","LF","pc9v71lhle","2048","1152","en","nd05rt12","null","","","","","","","","learning/Slide71.JPG","null","","","","",""
"","html-keyboard-response","219","577435","0.0-6.0-2.70","LF","pc9v71lhle","2048","1152","en","nd05rt12","null","","","","learningBlock1","","","","<div style=""font-size:60px;""> </div>","null","LF","learning/Slide71.JPG","This is a wug:","",""
"","html-keyboard-response","220","578438","0.0-6.0-0.71","LF","pc9v71lhle","2048","1152","en","nd05rt12","null","","","","learningBlock1","","","","This is a bim:","null","","","","",""
"","image-keyboard-response","221","578770","0.0-6.0-1.71","LF","pc9v71lhle","2048","1152","en","nd05rt12","null","","","","","","","","learning/Slide72.JPG","null","","","","",""
"","html-keyboard-response","222","579774","0.0-6.0-2.71","LF","pc9v71lhle","2048","1152","en","nd05rt12","null","","","","learningBlock1","","","","<div style=""font-size:60px;""> </div>","null","LF","learning/Slide72.JPG","This is a bim:","",""
"","html-keyboard-response","223","580778","0.0-6.0-0.72","LF","pc9v71lhle","2048","1152","en","nd05rt12","null","","","","learningBlock1","","","","This is a wug:","null","","","","",""
"","image-keyboard-response","224","581108","0.0-6.0-1.72","LF","pc9v71lhle","2048","1152","en","nd05rt12","null","","","","","","","","learning/Slide73.JPG","null","","","","",""
"","html-keyboard-response","225","582114","0.0-6.0-2.72","LF","pc9v71lhle","2048","1152","en","nd05rt12","null","","","","learningBlock1","","","","<div style=""font-size:60px;""> </div>","null","LF","learning/Slide73.JPG","This is a wug:","",""
"","html-keyboard-response","226","583118","0.0-6.0-0.73","LF","pc9v71lhle","2048","1152","en","nd05rt12","null","","","","learningBlock1","","","","This is a dep:","null","","","","",""
"","image-keyboard-response","227","583447","0.0-6.0-1.73","LF","pc9v71lhle","2048","1152","en","nd05rt12","null","","","","","","","","learning/Slide74.JPG","null","","","","",""
"","html-keyboard-response","228","584451","0.0-6.0-2.73","LF","pc9v71lhle","2048","1152","en","nd05rt12","null","","","","learningBlock1","","","","<div style=""font-size:60px;""> </div>","null","LF","learning/Slide74.JPG","This is a dep:","",""
"","html-keyboard-response","229","585452","0.0-6.0-0.74","LF","pc9v71lhle","2048","1152","en","nd05rt12","null","","","","learningBlock1","","","","This is a tob:","null","","","","",""
"","image-keyboard-response","230","585788","0.0-6.0-1.74","LF","pc9v71lhle","2048","1152","en","nd05rt12","null","","","","","","","","learning/Slide75.JPG","null","","","","",""
"","html-keyboard-response","231","586792","0.0-6.0-2.74","LF","pc9v71lhle","2048","1152","en","nd05rt12","null","","","","learningBlock1","","","","<div style=""font-size:60px;""> </div>","null","LF","learning/Slide75.JPG","This is a tob:","",""
"","html-keyboard-response","232","587796","0.0-6.0-0.75","LF","pc9v71lhle","2048","1152","en","nd05rt12","null","","","","learningBlock1","","","","This is a bim:","null","","","","",""
"","image-keyboard-response","233","588126","0.0-6.0-1.75","LF","pc9v71lhle","2048","1152","en","nd05rt12","null","","","","","","","","learning/Slide76.JPG","null","","","","",""
"","html-keyboard-response","234","589127","0.0-6.0-2.75","LF","pc9v71lhle","2048","1152","en","nd05rt12","null","","","","learningBlock1","","","","<div style=""font-size:60px;""> </div>","null","LF","learning/Slide76.JPG","This is a bim:","",""
"","html-keyboard-response","235","590130","0.0-6.0-0.76","LF","pc9v71lhle","2048","1152","en","nd05rt12","null","","","","learningBlock1","","","","This is a tob:","null","","","","",""
"","image-keyboard-response","236","590461","0.0-6.0-1.76","LF","pc9v71lhle","2048","1152","en","nd05rt12","null","","","","","","","","learning/Slide77.JPG","null","","","","",""
"","html-keyboard-response","237","591465","0.0-6.0-2.76","LF","pc9v71lhle","2048","1152","en","nd05rt12","null","","","","learningBlock1","","","","<div style=""font-size:60px;""> </div>","null","LF","learning/Slide77.JPG","This is a tob:","",""
"","html-keyboard-response","238","592470","0.0-6.0-0.77","LF","pc9v71lhle","2048","1152","en","nd05rt12","null","","","","learningBlock1","","","","This is a wug:","null","","","","",""
"","image-keyboard-response","239","592801","0.0-6.0-1.77","LF","pc9v71lhle","2048","1152","en","nd05rt12","null","","","","","","","","learning/Slide78.JPG","null","","","","",""
"","html-keyboard-response","240","593805","0.0-6.0-2.77","LF","pc9v71lhle","2048","1152","en","nd05rt12","null","","","","learningBlock1","","","","<div style=""font-size:60px;""> </div>","null","LF","learning/Slide78.JPG","This is a wug:","",""
"","html-keyboard-response","241","594809","0.0-6.0-0.78","LF","pc9v71lhle","2048","1152","en","nd05rt12","null","","","","learningBlock1","","","","This is a bim:","null","","","","",""
"","image-keyboard-response","242","595140","0.0-6.0-1.78","LF","pc9v71lhle","2048","1152","en","nd05rt12","null","","","","","","","","learning/Slide79.JPG","null","","","","",""
"","html-keyboard-response","243","596144","0.0-6.0-2.78","LF","pc9v71lhle","2048","1152","en","nd05rt12","null","","","","learningBlock1","","","","<div style=""font-size:60px;""> </div>","null","LF","learning/Slide79.JPG","This is a bim:","",""
"","html-keyboard-response","244","597147","0.0-6.0-0.79","LF","pc9v71lhle","2048","1152","en","nd05rt12","null","","","","learningBlock1","","","","This is a tob:","null","","","","",""
"","image-keyboard-response","245","597479","0.0-6.0-1.79","LF","pc9v71lhle","2048","1152","en","nd05rt12","null","","","","","","","","learning/Slide80.JPG","null","","","","",""
"","html-keyboard-response","246","598484","0.0-6.0-2.79","LF","pc9v71lhle","2048","1152","en","nd05rt12","null","","","","learningBlock1","","","","<div style=""font-size:60px;""> </div>","null","LF","learning/Slide80.JPG","This is a tob:","",""
"","instructions","247","625324","0.0-7.0","LF","pc9v71lhle","2048","1152","en","nd05rt12","NA","","","[{""page_index"":0,""viewing_time"":26840.41500001331}]","instructions","","","","","","","","","",""
"","html-keyboard-response","248","626328","0.0-8.0-0.0","LF","pc9v71lhle","2048","1152","en","nd05rt12","null","","","","learningBlock2","","","","This is a wug:","null","","","","",""
"","image-keyboard-response","249","626661","0.0-8.0-1.0","LF","pc9v71lhle","2048","1152","en","nd05rt12","null","","","","","","","","learning/Slide81.JPG","null","","","","",""
"","html-keyboard-response","250","627665","0.0-8.0-2.0","LF","pc9v71lhle","2048","1152","en","nd05rt12","null","","","","learningBlock2","","","","<div style=""font-size:60px;""> </div>","null","LF","learning/Slide81.JPG","This is a wug:","",""
"","html-keyboard-response","251","628669","0.0-8.0-0.1","LF","pc9v71lhle","2048","1152","en","nd05rt12","null","","","","learningBlock2","","","","This is a bim:","null","","","","",""
"","image-keyboard-response","252","629000","0.0-8.0-1.1","LF","pc9v71lhle","2048","1152","en","nd05rt12","null","","","","","","","","learning/Slide82.JPG","null","","","","",""
"","html-keyboard-response","253","630004","0.0-8.0-2.1","LF","pc9v71lhle","2048","1152","en","nd05rt12","null","","","","learningBlock2","","","","<div style=""font-size:60px;""> </div>","null","LF","learning/Slide82.JPG","This is a bim:","",""
"","html-keyboard-response","254","631009","0.0-8.0-0.2","LF","pc9v71lhle","2048","1152","en","nd05rt12","null","","","","learningBlock2","","","","This is a wug:","null","","","","",""
"","image-keyboard-response","255","631335","0.0-8.0-1.2","LF","pc9v71lhle","2048","1152","en","nd05rt12","null","","","","","","","","learning/Slide83.JPG","null","","","","",""
"","html-keyboard-response","256","632338","0.0-8.0-2.2","LF","pc9v71lhle","2048","1152","en","nd05rt12","null","","","","learningBlock2","","","","<div style=""font-size:60px;""> </div>","null","LF","learning/Slide83.JPG","This is a wug:","",""
"","html-keyboard-response","257","633339","0.0-8.0-0.3","LF","pc9v71lhle","2048","1152","en","nd05rt12","null","","","","learningBlock2","","","","This is a dep:","null","","","","",""
"","image-keyboard-response","258","633667","0.0-8.0-1.3","LF","pc9v71lhle","2048","1152","en","nd05rt12","null","","","","","","","","learning/Slide84.JPG","null","","","","",""
"","html-keyboard-response","259","634672","0.0-8.0-2.3","LF","pc9v71lhle","2048","1152","en","nd05rt12","null","","","","learningBlock2","","","","<div style=""font-size:60px;""> </div>","null","LF","learning/Slide84.JPG","This is a dep:","",""
"","html-keyboard-response","260","635676","0.0-8.0-0.4","LF","pc9v71lhle","2048","1152","en","nd05rt12","null","","","","learningBlock2","","","","This is a bim:","null","","","","",""
"","image-keyboard-response","261","636007","0.0-8.0-1.4","LF","pc9v71lhle","2048","1152","en","nd05rt12","null","","","","","","","","learning/Slide85.JPG","null","","","","",""
"","html-keyboard-response","262","637011","0.0-8.0-2.4","LF","pc9v71lhle","2048","1152","en","nd05rt12","null","","","","learningBlock2","","","","<div style=""font-size:60px;""> </div>","null","LF","learning/Slide85.JPG","This is a bim:","",""
"","html-keyboard-response","263","638015","0.0-8.0-0.5","LF","pc9v71lhle","2048","1152","en","nd05rt12","null","","","","learningBlock2","","","","This is a tob:","null","","","","",""
"","image-keyboard-response","264","638346","0.0-8.0-1.5","LF","pc9v71lhle","2048","1152","en","nd05rt12","null","","","","","","","","learning/Slide86.JPG","null","","","","",""
"","html-keyboard-response","265","639347","0.0-8.0-2.5","LF","pc9v71lhle","2048","1152","en","nd05rt12","null","","","","learningBlock2","","","","<div style=""font-size:60px;""> </div>","null","LF","learning/Slide86.JPG","This is a tob:","",""
"","html-keyboard-response","266","640349","0.0-8.0-0.6","LF","pc9v71lhle","2048","1152","en","nd05rt12","null","","","","learningBlock2","","","","This is a wug:","null","","","","",""
"","image-keyboard-response","267","640680","0.0-8.0-1.6","LF","pc9v71lhle","2048","1152","en","nd05rt12","null","","","","","","","","learning/Slide87.JPG","null","","","","",""
"","html-keyboard-response","268","641682","0.0-8.0-2.6","LF","pc9v71lhle","2048","1152","en","nd05rt12","null","","","","learningBlock2","","","","<div style=""font-size:60px;""> </div>","null","LF","learning/Slide87.JPG","This is a wug:","",""
"","html-keyboard-response","269","642685","0.0-8.0-0.7","LF","pc9v71lhle","2048","1152","en","nd05rt12","null","","","","learningBlock2","","","","This is a tob:","null","","","","",""
"","image-keyboard-response","270","643018","0.0-8.0-1.7","LF","pc9v71lhle","2048","1152","en","nd05rt12","null","","","","","","","","learning/Slide88.JPG","null","","","","",""
"","html-keyboard-response","271","644023","0.0-8.0-2.7","LF","pc9v71lhle","2048","1152","en","nd05rt12","null","","","","learningBlock2","","","","<div style=""font-size:60px;""> </div>","null","LF","learning/Slide88.JPG","This is a tob:","",""
"","html-keyboard-response","272","645026","0.0-8.0-0.8","LF","pc9v71lhle","2048","1152","en","nd05rt12","null","","","","learningBlock2","","","","This is a bim:","null","","","","",""
"","image-keyboard-response","273","645357","0.0-8.0-1.8","LF","pc9v71lhle","2048","1152","en","nd05rt12","null","","","","","","","","learning/Slide89.JPG","null","","","","",""
"","html-keyboard-response","274","646362","0.0-8.0-2.8","LF","pc9v71lhle","2048","1152","en","nd05rt12","null","","","","learningBlock2","","","","<div style=""font-size:60px;""> </div>","null","LF","learning/Slide89.JPG","This is a bim:","",""
"","html-keyboard-response","275","647365","0.0-8.0-0.9","LF","pc9v71lhle","2048","1152","en","nd05rt12","null","","","","learningBlock2","","","","This is a dep:","null","","","","",""
"","image-keyboard-response","276","647698","0.0-8.0-1.9","LF","pc9v71lhle","2048","1152","en","nd05rt12","null","","","","","","","","learning/Slide90.JPG","null","","","","",""
"","html-keyboard-response","277","648702","0.0-8.0-2.9","LF","pc9v71lhle","2048","1152","en","nd05rt12","null","","","","learningBlock2","","","","<div style=""font-size:60px;""> </div>","null","LF","learning/Slide90.JPG","This is a dep:","",""
"","html-keyboard-response","278","649706","0.0-8.0-0.10","LF","pc9v71lhle","2048","1152","en","nd05rt12","null","","","","learningBlock2","","","","This is a wug:","null","","","","",""
"","image-keyboard-response","279","650037","0.0-8.0-1.10","LF","pc9v71lhle","2048","1152","en","nd05rt12","null","","","","","","","","learning/Slide91.JPG","null","","","","",""
"","html-keyboard-response","280","651042","0.0-8.0-2.10","LF","pc9v71lhle","2048","1152","en","nd05rt12","null","","","","learningBlock2","","","","<div style=""font-size:60px;""> </div>","null","LF","learning/Slide91.JPG","This is a wug:","",""
"","html-keyboard-response","281","652046","0.0-8.0-0.11","LF","pc9v71lhle","2048","1152","en","nd05rt12","null","","","","learningBlock2","","","","This is a tob:","null","","","","",""
"","image-keyboard-response","282","652377","0.0-8.0-1.11","LF","pc9v71lhle","2048","1152","en","nd05rt12","null","","","","","","","","learning/Slide92.JPG","null","","","","",""
"","html-keyboard-response","283","653381","0.0-8.0-2.11","LF","pc9v71lhle","2048","1152","en","nd05rt12","null","","","","learningBlock2","","","","<div style=""font-size:60px;""> </div>","null","LF","learning/Slide92.JPG","This is a tob:","",""
"","html-keyboard-response","284","654383","0.0-8.0-0.12","LF","pc9v71lhle","2048","1152","en","nd05rt12","null","","","","learningBlock2","","","","This is a bim:","null","","","","",""
"","image-keyboard-response","285","654716","0.0-8.0-1.12","LF","pc9v71lhle","2048","1152","en","nd05rt12","null","","","","","","","","learning/Slide93.JPG","null","","","","",""
"","html-keyboard-response","286","655718","0.0-8.0-2.12","LF","pc9v71lhle","2048","1152","en","nd05rt12","null","","","","learningBlock2","","","","<div style=""font-size:60px;""> </div>","null","LF","learning/Slide93.JPG","This is a bim:","",""
"","html-keyboard-response","287","656721","0.0-8.0-0.13","LF","pc9v71lhle","2048","1152","en","nd05rt12","null","","","","learningBlock2","","","","This is a tob:","null","","","","",""
"","image-keyboard-response","288","657050","0.0-8.0-1.13","LF","pc9v71lhle","2048","1152","en","nd05rt12","null","","","","","","","","learning/Slide94.JPG","null","","","","",""
"","html-keyboard-response","289","658054","0.0-8.0-2.13","LF","pc9v71lhle","2048","1152","en","nd05rt12","null","","","","learningBlock2","","","","<div style=""font-size:60px;""> </div>","null","LF","learning/Slide94.JPG","This is a tob:","",""
"","html-keyboard-response","290","659058","0.0-8.0-0.14","LF","pc9v71lhle","2048","1152","en","nd05rt12","null","","","","learningBlock2","","","","This is a wug:","null","","","","",""
"","image-keyboard-response","291","659389","0.0-8.0-1.14","LF","pc9v71lhle","2048","1152","en","nd05rt12","null","","","","","","","","learning/Slide95.JPG","null","","","","",""
"","html-keyboard-response","292","660390","0.0-8.0-2.14","LF","pc9v71lhle","2048","1152","en","nd05rt12","null","","","","learningBlock2","","","","<div style=""font-size:60px;""> </div>","null","LF","learning/Slide95.JPG","This is a wug:","",""
"","html-keyboard-response","293","661392","0.0-8.0-0.15","LF","pc9v71lhle","2048","1152","en","nd05rt12","null","","","","learningBlock2","","","","This is a tob:","null","","","","",""
"","image-keyboard-response","294","661723","0.0-8.0-1.15","LF","pc9v71lhle","2048","1152","en","nd05rt12","null","","","","","","","","learning/Slide96.JPG","null","","","","",""
"","html-keyboard-response","295","662727","0.0-8.0-2.15","LF","pc9v71lhle","2048","1152","en","nd05rt12","null","","","","learningBlock2","","","","<div style=""font-size:60px;""> </div>","null","LF","learning/Slide96.JPG","This is a tob:","",""
"","html-keyboard-response","296","663731","0.0-8.0-0.16","LF","pc9v71lhle","2048","1152","en","nd05rt12","null","","","","learningBlock2","","","","This is a dep:","null","","","","",""
"","image-keyboard-response","297","664062","0.0-8.0-1.16","LF","pc9v71lhle","2048","1152","en","nd05rt12","null","","","","","","","","learning/Slide97.JPG","null","","","","",""
"","html-keyboard-response","298","665063","0.0-8.0-2.16","LF","pc9v71lhle","2048","1152","en","nd05rt12","null","","","","learningBlock2","","","","<div style=""font-size:60px;""> </div>","null","LF","learning/Slide97.JPG","This is a dep:","",""
"","html-keyboard-response","299","666066","0.0-8.0-0.17","LF","pc9v71lhle","2048","1152","en","nd05rt12","null","","","","learningBlock2","","","","This is a bim:","null","","","","",""
"","image-keyboard-response","300","666401","0.0-8.0-1.17","LF","pc9v71lhle","2048","1152","en","nd05rt12","null","","","","","","","","learning/Slide98.JPG","null","","","","",""
"","html-keyboard-response","301","667406","0.0-8.0-2.17","LF","pc9v71lhle","2048","1152","en","nd05rt12","null","","","","learningBlock2","","","","<div style=""font-size:60px;""> </div>","null","LF","learning/Slide98.JPG","This is a bim:","",""
"","html-keyboard-response","302","668408","0.0-8.0-0.18","LF","pc9v71lhle","2048","1152","en","nd05rt12","null","","","","learningBlock2","","","","This is a dep:","null","","","","",""
"","image-keyboard-response","303","668741","0.0-8.0-1.18","LF","pc9v71lhle","2048","1152","en","nd05rt12","null","","","","","","","","learning/Slide99.JPG","null","","","","",""
"","html-keyboard-response","304","669745","0.0-8.0-2.18","LF","pc9v71lhle","2048","1152","en","nd05rt12","null","","","","learningBlock2","","","","<div style=""font-size:60px;""> </div>","null","LF","learning/Slide99.JPG","This is a dep:","",""
"","html-keyboard-response","305","670747","0.0-8.0-0.19","LF","pc9v71lhle","2048","1152","en","nd05rt12","null","","","","learningBlock2","","","","This is a bim:","null","","","","",""
"","image-keyboard-response","306","671080","0.0-8.0-1.19","LF","pc9v71lhle","2048","1152","en","nd05rt12","null","","","","","","","","learning/Slide100.JPG","null","","","","",""
"","html-keyboard-response","307","672084","0.0-8.0-2.19","LF","pc9v71lhle","2048","1152","en","nd05rt12","null","","","","learningBlock2","","","","<div style=""font-size:60px;""> </div>","null","LF","learning/Slide100.JPG","This is a bim:","",""
"","html-keyboard-response","308","673088","0.0-8.0-0.20","LF","pc9v71lhle","2048","1152","en","nd05rt12","null","","","","learningBlock2","","","","This is a tob:","null","","","","",""
"","image-keyboard-response","309","673420","0.0-8.0-1.20","LF","pc9v71lhle","2048","1152","en","nd05rt12","null","","","","","","","","learning/Slide101.JPG","null","","","","",""
"","html-keyboard-response","310","674424","0.0-8.0-2.20","LF","pc9v71lhle","2048","1152","en","nd05rt12","null","","","","learningBlock2","","","","<div style=""font-size:60px;""> </div>","null","LF","learning/Slide101.JPG","This is a tob:","",""
"","html-keyboard-response","311","675428","0.0-8.0-0.21","LF","pc9v71lhle","2048","1152","en","nd05rt12","null","","","","learningBlock2","","","","This is a bim:","null","","","","",""
"","image-keyboard-response","312","675759","0.0-8.0-1.21","LF","pc9v71lhle","2048","1152","en","nd05rt12","null","","","","","","","","learning/Slide102.JPG","null","","","","",""
"","html-keyboard-response","313","676763","0.0-8.0-2.21","LF","pc9v71lhle","2048","1152","en","nd05rt12","null","","","","learningBlock2","","","","<div style=""font-size:60px;""> </div>","null","LF","learning/Slide102.JPG","This is a bim:","",""
"","html-keyboard-response","314","677767","0.0-8.0-0.22","LF","pc9v71lhle","2048","1152","en","nd05rt12","null","","","","learningBlock2","","","","This is a dep:","null","","","","",""
"","image-keyboard-response","315","678098","0.0-8.0-1.22","LF","pc9v71lhle","2048","1152","en","nd05rt12","null","","","","","","","","learning/Slide103.JPG","null","","","","",""
"","html-keyboard-response","316","679103","0.0-8.0-2.22","LF","pc9v71lhle","2048","1152","en","nd05rt12","null","","","","learningBlock2","","","","<div style=""font-size:60px;""> </div>","null","LF","learning/Slide103.JPG","This is a dep:","",""
"","html-keyboard-response","317","680107","0.0-8.0-0.23","LF","pc9v71lhle","2048","1152","en","nd05rt12","null","","","","learningBlock2","","","","This is a tob:","null","","","","",""
"","image-keyboard-response","318","680438","0.0-8.0-1.23","LF","pc9v71lhle","2048","1152","en","nd05rt12","null","","","","","","","","learning/Slide104.JPG","null","","","","",""
"","html-keyboard-response","319","681442","0.0-8.0-2.23","LF","pc9v71lhle","2048","1152","en","nd05rt12","null","","","","learningBlock2","","","","<div style=""font-size:60px;""> </div>","null","LF","learning/Slide104.JPG","This is a tob:","",""
"","html-keyboard-response","320","682446","0.0-8.0-0.24","LF","pc9v71lhle","2048","1152","en","nd05rt12","null","","","","learningBlock2","","","","This is a dep:","null","","","","",""
"","image-keyboard-response","321","682777","0.0-8.0-1.24","LF","pc9v71lhle","2048","1152","en","nd05rt12","null","","","","","","","","learning/Slide105.JPG","null","","","","",""
"","html-keyboard-response","322","683781","0.0-8.0-2.24","LF","pc9v71lhle","2048","1152","en","nd05rt12","null","","","","learningBlock2","","","","<div style=""font-size:60px;""> </div>","null","LF","learning/Slide105.JPG","This is a dep:","",""
"","html-keyboard-response","323","684786","0.0-8.0-0.25","LF","pc9v71lhle","2048","1152","en","nd05rt12","null","","","","learningBlock2","","","","This is a wug:","null","","","","",""
"","image-keyboard-response","324","685116","0.0-8.0-1.25","LF","pc9v71lhle","2048","1152","en","nd05rt12","null","","","","","","","","learning/Slide106.JPG","null","","","","",""
"","html-keyboard-response","325","686121","0.0-8.0-2.25","LF","pc9v71lhle","2048","1152","en","nd05rt12","null","","","","learningBlock2","","","","<div style=""font-size:60px;""> </div>","null","LF","learning/Slide106.JPG","This is a wug:","",""
"","html-keyboard-response","326","687125","0.0-8.0-0.26","LF","pc9v71lhle","2048","1152","en","nd05rt12","null","","","","learningBlock2","","","","This is a bim:","null","","","","",""
"","image-keyboard-response","327","687456","0.0-8.0-1.26","LF","pc9v71lhle","2048","1152","en","nd05rt12","null","","","","","","","","learning/Slide107.JPG","null","","","","",""
"","html-keyboard-response","328","688460","0.0-8.0-2.26","LF","pc9v71lhle","2048","1152","en","nd05rt12","null","","","","learningBlock2","","","","<div style=""font-size:60px;""> </div>","null","LF","learning/Slide107.JPG","This is a bim:","",""
"","html-keyboard-response","329","689464","0.0-8.0-0.27","LF","pc9v71lhle","2048","1152","en","nd05rt12","null","","","","learningBlock2","","","","This is a dep:","null","","","","",""
"","image-keyboard-response","330","689797","0.0-8.0-1.27","LF","pc9v71lhle","2048","1152","en","nd05rt12","null","","","","","","","","learning/Slide108.JPG","null","","","","",""
"","html-keyboard-response","331","690800","0.0-8.0-2.27","LF","pc9v71lhle","2048","1152","en","nd05rt12","null","","","","learningBlock2","","","","<div style=""font-size:60px;""> </div>","null","LF","learning/Slide108.JPG","This is a dep:","",""
"","html-keyboard-response","332","691804","0.0-8.0-0.28","LF","pc9v71lhle","2048","1152","en","nd05rt12","null","","","","learningBlock2","","","","This is a wug:","null","","","","",""
"","image-keyboard-response","333","692135","0.0-8.0-1.28","LF","pc9v71lhle","2048","1152","en","nd05rt12","null","","","","","","","","learning/Slide109.JPG","null","","","","",""
"","html-keyboard-response","334","693139","0.0-8.0-2.28","LF","pc9v71lhle","2048","1152","en","nd05rt12","null","","","","learningBlock2","","","","<div style=""font-size:60px;""> </div>","null","LF","learning/Slide109.JPG","This is a wug:","",""
"","html-keyboard-response","335","694141","0.0-8.0-0.29","LF","pc9v71lhle","2048","1152","en","nd05rt12","null","","","","learningBlock2","","","","This is a bim:","null","","","","",""
"","image-keyboard-response","336","694474","0.0-8.0-1.29","LF","pc9v71lhle","2048","1152","en","nd05rt12","null","","","","","","","","learning/Slide110.JPG","null","","","","",""
"","html-keyboard-response","337","695478","0.0-8.0-2.29","LF","pc9v71lhle","2048","1152","en","nd05rt12","null","","","","learningBlock2","","","","<div style=""font-size:60px;""> </div>","null","LF","learning/Slide110.JPG","This is a bim:","",""
"","html-keyboard-response","338","696482","0.0-8.0-0.30","LF","pc9v71lhle","2048","1152","en","nd05rt12","null","","","","learningBlock2","","","","This is a tob:","null","","","","",""
"","image-keyboard-response","339","696813","0.0-8.0-1.30","LF","pc9v71lhle","2048","1152","en","nd05rt12","null","","","","","","","","learning/Slide111.JPG","null","","","","",""
"","html-keyboard-response","340","697818","0.0-8.0-2.30","LF","pc9v71lhle","2048","1152","en","nd05rt12","null","","","","learningBlock2","","","","<div style=""font-size:60px;""> </div>","null","LF","learning/Slide111.JPG","This is a tob:","",""
"","html-keyboard-response","341","698820","0.0-8.0-0.31","LF","pc9v71lhle","2048","1152","en","nd05rt12","null","","","","learningBlock2","","","","This is a wug:","null","","","","",""
"","image-keyboard-response","342","699153","0.0-8.0-1.31","LF","pc9v71lhle","2048","1152","en","nd05rt12","null","","","","","","","","learning/Slide112.JPG","null","","","","",""
"","html-keyboard-response","343","700157","0.0-8.0-2.31","LF","pc9v71lhle","2048","1152","en","nd05rt12","null","","","","learningBlock2","","","","<div style=""font-size:60px;""> </div>","null","LF","learning/Slide112.JPG","This is a wug:","",""
"","html-keyboard-response","344","701161","0.0-8.0-0.32","LF","pc9v71lhle","2048","1152","en","nd05rt12","null","","","","learningBlock2","","","","This is a tob:","null","","","","",""
"","image-keyboard-response","345","701491","0.0-8.0-1.32","LF","pc9v71lhle","2048","1152","en","nd05rt12","null","","","","","","","","learning/Slide113.JPG","null","","","","",""
"","html-keyboard-response","346","702493","0.0-8.0-2.32","LF","pc9v71lhle","2048","1152","en","nd05rt12","null","","","","learningBlock2","","","","<div style=""font-size:60px;""> </div>","null","LF","learning/Slide113.JPG","This is a tob:","",""
"","html-keyboard-response","347","703495","0.0-8.0-0.33","LF","pc9v71lhle","2048","1152","en","nd05rt12","null","","","","learningBlock2","","","","This is a wug:","null","","","","",""
"","image-keyboard-response","348","703827","0.0-8.0-1.33","LF","pc9v71lhle","2048","1152","en","nd05rt12","null","","","","","","","","learning/Slide114.JPG","null","","","","",""
"","html-keyboard-response","349","704828","0.0-8.0-2.33","LF","pc9v71lhle","2048","1152","en","nd05rt12","null","","","","learningBlock2","","","","<div style=""font-size:60px;""> </div>","null","LF","learning/Slide114.JPG","This is a wug:","",""
"","html-keyboard-response","350","705829","0.0-8.0-0.34","LF","pc9v71lhle","2048","1152","en","nd05rt12","null","","","","learningBlock2","","","","This is a bim:","null","","","","",""
"","image-keyboard-response","351","706159","0.0-8.0-1.34","LF","pc9v71lhle","2048","1152","en","nd05rt12","null","","","","","","","","learning/Slide115.JPG","null","","","","",""
"","html-keyboard-response","352","707162","0.0-8.0-2.34","LF","pc9v71lhle","2048","1152","en","nd05rt12","null","","","","learningBlock2","","","","<div style=""font-size:60px;""> </div>","null","LF","learning/Slide115.JPG","This is a bim:","",""
"","html-keyboard-response","353","708164","0.0-8.0-0.35","LF","pc9v71lhle","2048","1152","en","nd05rt12","null","","","","learningBlock2","","","","This is a dep:","null","","","","",""
"","image-keyboard-response","354","708490","0.0-8.0-1.35","LF","pc9v71lhle","2048","1152","en","nd05rt12","null","","","","","","","","learning/Slide116.JPG","null","","","","",""
"","html-keyboard-response","355","709491","0.0-8.0-2.35","LF","pc9v71lhle","2048","1152","en","nd05rt12","null","","","","learningBlock2","","","","<div style=""font-size:60px;""> </div>","null","LF","learning/Slide116.JPG","This is a dep:","",""
"","html-keyboard-response","356","710494","0.0-8.0-0.36","LF","pc9v71lhle","2048","1152","en","nd05rt12","null","","","","learningBlock2","","","","This is a tob:","null","","","","",""
"","image-keyboard-response","357","710827","0.0-8.0-1.36","LF","pc9v71lhle","2048","1152","en","nd05rt12","null","","","","","","","","learning/Slide117.JPG","null","","","","",""
"","html-keyboard-response","358","711831","0.0-8.0-2.36","LF","pc9v71lhle","2048","1152","en","nd05rt12","null","","","","learningBlock2","","","","<div style=""font-size:60px;""> </div>","null","LF","learning/Slide117.JPG","This is a tob:","",""
"","html-keyboard-response","359","712835","0.0-8.0-0.37","LF","pc9v71lhle","2048","1152","en","nd05rt12","null","","","","learningBlock2","","","","This is a dep:","null","","","","",""
"","image-keyboard-response","360","713162","0.0-8.0-1.37","LF","pc9v71lhle","2048","1152","en","nd05rt12","null","","","","","","","","learning/Slide118.JPG","null","","","","",""
"","html-keyboard-response","361","714164","0.0-8.0-2.37","LF","pc9v71lhle","2048","1152","en","nd05rt12","null","","","","learningBlock2","","","","<div style=""font-size:60px;""> </div>","null","LF","learning/Slide118.JPG","This is a dep:","",""
"","html-keyboard-response","362","715169","0.0-8.0-0.38","LF","pc9v71lhle","2048","1152","en","nd05rt12","null","","","","learningBlock2","","","","This is a wug:","null","","","","",""
"","image-keyboard-response","363","715499","0.0-8.0-1.38","LF","pc9v71lhle","2048","1152","en","nd05rt12","null","","","","","","","","learning/Slide119.JPG","null","","","","",""
"","html-keyboard-response","364","716503","0.0-8.0-2.38","LF","pc9v71lhle","2048","1152","en","nd05rt12","null","","","","learningBlock2","","","","<div style=""font-size:60px;""> </div>","null","LF","learning/Slide119.JPG","This is a wug:","",""
"","html-keyboard-response","365","717508","0.0-8.0-0.39","LF","pc9v71lhle","2048","1152","en","nd05rt12","null","","","","learningBlock2","","","","This is a dep:","null","","","","",""
"","image-keyboard-response","366","717844","0.0-8.0-1.39","LF","pc9v71lhle","2048","1152","en","nd05rt12","null","","","","","","","","learning/Slide120.JPG","null","","","","",""
"","html-keyboard-response","367","718849","0.0-8.0-2.39","LF","pc9v71lhle","2048","1152","en","nd05rt12","null","","","","learningBlock2","","","","<div style=""font-size:60px;""> </div>","null","LF","learning/Slide120.JPG","This is a dep:","",""
"","html-keyboard-response","368","719850","0.0-8.0-0.40","LF","pc9v71lhle","2048","1152","en","nd05rt12","null","","","","learningBlock2","","","","This is a bim:","null","","","","",""
"","image-keyboard-response","369","720179","0.0-8.0-1.40","LF","pc9v71lhle","2048","1152","en","nd05rt12","null","","","","","","","","learning/Slide121.JPG","null","","","","",""
"","html-keyboard-response","370","721184","0.0-8.0-2.40","LF","pc9v71lhle","2048","1152","en","nd05rt12","null","","","","learningBlock2","","","","<div style=""font-size:60px;""> </div>","null","LF","learning/Slide121.JPG","This is a bim:","",""
"","html-keyboard-response","371","722189","0.0-8.0-0.41","LF","pc9v71lhle","2048","1152","en","nd05rt12","null","","","","learningBlock2","","","","This is a wug:","null","","","","",""
"","image-keyboard-response","372","722519","0.0-8.0-1.41","LF","pc9v71lhle","2048","1152","en","nd05rt12","null","","","","","","","","learning/Slide122.JPG","null","","","","",""
"","html-keyboard-response","373","723522","0.0-8.0-2.41","LF","pc9v71lhle","2048","1152","en","nd05rt12","null","","","","learningBlock2","","","","<div style=""font-size:60px;""> </div>","null","LF","learning/Slide122.JPG","This is a wug:","",""
"","html-keyboard-response","374","724526","0.0-8.0-0.42","LF","pc9v71lhle","2048","1152","en","nd05rt12","null","","","","learningBlock2","","","","This is a bim:","null","","","","",""
"","image-keyboard-response","375","724857","0.0-8.0-1.42","LF","pc9v71lhle","2048","1152","en","nd05rt12","null","","","","","","","","learning/Slide123.JPG","null","","","","",""
"","html-keyboard-response","376","725861","0.0-8.0-2.42","LF","pc9v71lhle","2048","1152","en","nd05rt12","null","","","","learningBlock2","","","","<div style=""font-size:60px;""> </div>","null","LF","learning/Slide123.JPG","This is a bim:","",""
"","html-keyboard-response","377","726864","0.0-8.0-0.43","LF","pc9v71lhle","2048","1152","en","nd05rt12","null","","","","learningBlock2","","","","This is a tob:","null","","","","",""
"","image-keyboard-response","378","727196","0.0-8.0-1.43","LF","pc9v71lhle","2048","1152","en","nd05rt12","null","","","","","","","","learning/Slide124.JPG","null","","","","",""
"","html-keyboard-response","379","728201","0.0-8.0-2.43","LF","pc9v71lhle","2048","1152","en","nd05rt12","null","","","","learningBlock2","","","","<div style=""font-size:60px;""> </div>","null","LF","learning/Slide124.JPG","This is a tob:","",""
"","html-keyboard-response","380","729203","0.0-8.0-0.44","LF","pc9v71lhle","2048","1152","en","nd05rt12","null","","","","learningBlock2","","","","This is a bim:","null","","","","",""
"","image-keyboard-response","381","729536","0.0-8.0-1.44","LF","pc9v71lhle","2048","1152","en","nd05rt12","null","","","","","","","","learning/Slide125.JPG","null","","","","",""
"","html-keyboard-response","382","730540","0.0-8.0-2.44","LF","pc9v71lhle","2048","1152","en","nd05rt12","null","","","","learningBlock2","","","","<div style=""font-size:60px;""> </div>","null","LF","learning/Slide125.JPG","This is a bim:","",""
"","html-keyboard-response","383","731544","0.0-8.0-0.45","LF","pc9v71lhle","2048","1152","en","nd05rt12","null","","","","learningBlock2","","","","This is a tob:","null","","","","",""
"","image-keyboard-response","384","731871","0.0-8.0-1.45","LF","pc9v71lhle","2048","1152","en","nd05rt12","null","","","","","","","","learning/Slide126.JPG","null","","","","",""
"","html-keyboard-response","385","732874","0.0-8.0-2.45","LF","pc9v71lhle","2048","1152","en","nd05rt12","null","","","","learningBlock2","","","","<div style=""font-size:60px;""> </div>","null","LF","learning/Slide126.JPG","This is a tob:","",""
"","html-keyboard-response","386","733878","0.0-8.0-0.46","LF","pc9v71lhle","2048","1152","en","nd05rt12","null","","","","learningBlock2","","","","This is a dep:","null","","","","",""
"","image-keyboard-response","387","734209","0.0-8.0-1.46","LF","pc9v71lhle","2048","1152","en","nd05rt12","null","","","","","","","","learning/Slide127.JPG","null","","","","",""
"","html-keyboard-response","388","735213","0.0-8.0-2.46","LF","pc9v71lhle","2048","1152","en","nd05rt12","null","","","","learningBlock2","","","","<div style=""font-size:60px;""> </div>","null","LF","learning/Slide127.JPG","This is a dep:","",""
"","html-keyboard-response","389","736217","0.0-8.0-0.47","LF","pc9v71lhle","2048","1152","en","nd05rt12","null","","","","learningBlock2","","","","This is a wug:","null","","","","",""
"","image-keyboard-response","390","736547","0.0-8.0-1.47","LF","pc9v71lhle","2048","1152","en","nd05rt12","null","","","","","","","","learning/Slide128.JPG","null","","","","",""
"","html-keyboard-response","391","737552","0.0-8.0-2.47","LF","pc9v71lhle","2048","1152","en","nd05rt12","null","","","","learningBlock2","","","","<div style=""font-size:60px;""> </div>","null","LF","learning/Slide128.JPG","This is a wug:","",""
"","html-keyboard-response","392","738557","0.0-8.0-0.48","LF","pc9v71lhle","2048","1152","en","nd05rt12","null","","","","learningBlock2","","","","This is a tob:","null","","","","",""
"","image-keyboard-response","393","738886","0.0-8.0-1.48","LF","pc9v71lhle","2048","1152","en","nd05rt12","null","","","","","","","","learning/Slide129.JPG","null","","","","",""
"","html-keyboard-response","394","739887","0.0-8.0-2.48","LF","pc9v71lhle","2048","1152","en","nd05rt12","null","","","","learningBlock2","","","","<div style=""font-size:60px;""> </div>","null","LF","learning/Slide129.JPG","This is a tob:","",""
"","html-keyboard-response","395","740887","0.0-8.0-0.49","LF","pc9v71lhle","2048","1152","en","nd05rt12","null","","","","learningBlock2","","","","This is a wug:","null","","","","",""
"","image-keyboard-response","396","741219","0.0-8.0-1.49","LF","pc9v71lhle","2048","1152","en","nd05rt12","null","","","","","","","","learning/Slide130.JPG","null","","","","",""
"","html-keyboard-response","397","742220","0.0-8.0-2.49","LF","pc9v71lhle","2048","1152","en","nd05rt12","null","","","","learningBlock2","","","","<div style=""font-size:60px;""> </div>","null","LF","learning/Slide130.JPG","This is a wug:","",""
"","html-keyboard-response","398","743224","0.0-8.0-0.50","LF","pc9v71lhle","2048","1152","en","nd05rt12","null","","","","learningBlock2","","","","This is a bim:","null","","","","",""
"","image-keyboard-response","399","743555","0.0-8.0-1.50","LF","pc9v71lhle","2048","1152","en","nd05rt12","null","","","","","","","","learning/Slide131.JPG","null","","","","",""
"","html-keyboard-response","400","744557","0.0-8.0-2.50","LF","pc9v71lhle","2048","1152","en","nd05rt12","null","","","","learningBlock2","","","","<div style=""font-size:60px;""> </div>","null","LF","learning/Slide131.JPG","This is a bim:","",""
"","html-keyboard-response","401","745561","0.0-8.0-0.51","LF","pc9v71lhle","2048","1152","en","nd05rt12","null","","","","learningBlock2","","","","This is a dep:","null","","","","",""
"","image-keyboard-response","402","745894","0.0-8.0-1.51","LF","pc9v71lhle","2048","1152","en","nd05rt12","null","","","","","","","","learning/Slide132.JPG","null","","","","",""
"","html-keyboard-response","403","746898","0.0-8.0-2.51","LF","pc9v71lhle","2048","1152","en","nd05rt12","null","","","","learningBlock2","","","","<div style=""font-size:60px;""> </div>","null","LF","learning/Slide132.JPG","This is a dep:","",""
"","html-keyboard-response","404","747904","0.0-8.0-0.52","LF","pc9v71lhle","2048","1152","en","nd05rt12","null","","","","learningBlock2","","","","This is a tob:","null","","","","",""
"","image-keyboard-response","405","748239","0.0-8.0-1.52","LF","pc9v71lhle","2048","1152","en","nd05rt12","null","","","","","","","","learning/Slide133.JPG","null","","","","",""
"","html-keyboard-response","406","749244","0.0-8.0-2.52","LF","pc9v71lhle","2048","1152","en","nd05rt12","null","","","","learningBlock2","","","","<div style=""font-size:60px;""> </div>","null","LF","learning/Slide133.JPG","This is a tob:","",""
"","html-keyboard-response","407","750246","0.0-8.0-0.53","LF","pc9v71lhle","2048","1152","en","nd05rt12","null","","","","learningBlock2","","","","This is a dep:","null","","","","",""
"","image-keyboard-response","408","750578","0.0-8.0-1.53","LF","pc9v71lhle","2048","1152","en","nd05rt12","null","","","","","","","","learning/Slide134.JPG","null","","","","",""
"","html-keyboard-response","409","751583","0.0-8.0-2.53","LF","pc9v71lhle","2048","1152","en","nd05rt12","null","","","","learningBlock2","","","","<div style=""font-size:60px;""> </div>","null","LF","learning/Slide134.JPG","This is a dep:","",""
"","html-keyboard-response","410","752587","0.0-8.0-0.54","LF","pc9v71lhle","2048","1152","en","nd05rt12","null","","","","learningBlock2","","","","This is a tob:","null","","","","",""
"","image-keyboard-response","411","752918","0.0-8.0-1.54","LF","pc9v71lhle","2048","1152","en","nd05rt12","null","","","","","","","","learning/Slide135.JPG","null","","","","",""
"","html-keyboard-response","412","753922","0.0-8.0-2.54","LF","pc9v71lhle","2048","1152","en","nd05rt12","null","","","","learningBlock2","","","","<div style=""font-size:60px;""> </div>","null","LF","learning/Slide135.JPG","This is a tob:","",""
"","html-keyboard-response","413","754925","0.0-8.0-0.55","LF","pc9v71lhle","2048","1152","en","nd05rt12","null","","","","learningBlock2","","","","This is a wug:","null","","","","",""
"","image-keyboard-response","414","755258","0.0-8.0-1.55","LF","pc9v71lhle","2048","1152","en","nd05rt12","null","","","","","","","","learning/Slide136.JPG","null","","","","",""
"","html-keyboard-response","415","756262","0.0-8.0-2.55","LF","pc9v71lhle","2048","1152","en","nd05rt12","null","","","","learningBlock2","","","","<div style=""font-size:60px;""> </div>","null","LF","learning/Slide136.JPG","This is a wug:","",""
"","html-keyboard-response","416","757266","0.0-8.0-0.56","LF","pc9v71lhle","2048","1152","en","nd05rt12","null","","","","learningBlock2","","","","This is a tob:","null","","","","",""
"","image-keyboard-response","417","757597","0.0-8.0-1.56","LF","pc9v71lhle","2048","1152","en","nd05rt12","null","","","","","","","","learning/Slide137.JPG","null","","","","",""
"","html-keyboard-response","418","758600","0.0-8.0-2.56","LF","pc9v71lhle","2048","1152","en","nd05rt12","null","","","","learningBlock2","","","","<div style=""font-size:60px;""> </div>","null","LF","learning/Slide137.JPG","This is a tob:","",""
"","html-keyboard-response","419","759601","0.0-8.0-0.57","LF","pc9v71lhle","2048","1152","en","nd05rt12","null","","","","learningBlock2","","","","This is a bim:","null","","","","",""
"","image-keyboard-response","420","759936","0.0-8.0-1.57","LF","pc9v71lhle","2048","1152","en","nd05rt12","null","","","","","","","","learning/Slide138.JPG","null","","","","",""
"","html-keyboard-response","421","760941","0.0-8.0-2.57","LF","pc9v71lhle","2048","1152","en","nd05rt12","null","","","","learningBlock2","","","","<div style=""font-size:60px;""> </div>","null","LF","learning/Slide138.JPG","This is a bim:","",""
"","html-keyboard-response","422","761945","0.0-8.0-0.58","LF","pc9v71lhle","2048","1152","en","nd05rt12","null","","","","learningBlock2","","","","This is a wug:","null","","","","",""
"","image-keyboard-response","423","762276","0.0-8.0-1.58","LF","pc9v71lhle","2048","1152","en","nd05rt12","null","","","","","","","","learning/Slide139.JPG","null","","","","",""
"","html-keyboard-response","424","763277","0.0-8.0-2.58","LF","pc9v71lhle","2048","1152","en","nd05rt12","null","","","","learningBlock2","","","","<div style=""font-size:60px;""> </div>","null","LF","learning/Slide139.JPG","This is a wug:","",""
"","html-keyboard-response","425","764280","0.0-8.0-0.59","LF","pc9v71lhle","2048","1152","en","nd05rt12","null","","","","learningBlock2","","","","This is a dep:","null","","","","",""
"","image-keyboard-response","426","764615","0.0-8.0-1.59","LF","pc9v71lhle","2048","1152","en","nd05rt12","null","","","","","","","","learning/Slide140.JPG","null","","","","",""
"","html-keyboard-response","427","765616","0.0-8.0-2.59","LF","pc9v71lhle","2048","1152","en","nd05rt12","null","","","","learningBlock2","","","","<div style=""font-size:60px;""> </div>","null","LF","learning/Slide140.JPG","This is a dep:","",""
"","html-keyboard-response","428","766619","0.0-8.0-0.60","LF","pc9v71lhle","2048","1152","en","nd05rt12","null","","","","learningBlock2","","","","This is a tob:","null","","","","",""
"","image-keyboard-response","429","766951","0.0-8.0-1.60","LF","pc9v71lhle","2048","1152","en","nd05rt12","null","","","","","","","","learning/Slide141.JPG","null","","","","",""
"","html-keyboard-response","430","767955","0.0-8.0-2.60","LF","pc9v71lhle","2048","1152","en","nd05rt12","null","","","","learningBlock2","","","","<div style=""font-size:60px;""> </div>","null","LF","learning/Slide141.JPG","This is a tob:","",""
"","html-keyboard-response","431","768957","0.0-8.0-0.61","LF","pc9v71lhle","2048","1152","en","nd05rt12","null","","","","learningBlock2","","","","This is a wug:","null","","","","",""
"","image-keyboard-response","432","769288","0.0-8.0-1.61","LF","pc9v71lhle","2048","1152","en","nd05rt12","null","","","","","","","","learning/Slide142.JPG","null","","","","",""
"","html-keyboard-response","433","770290","0.0-8.0-2.61","LF","pc9v71lhle","2048","1152","en","nd05rt12","null","","","","learningBlock2","","","","<div style=""font-size:60px;""> </div>","null","LF","learning/Slide142.JPG","This is a wug:","",""
"","html-keyboard-response","434","771293","0.0-8.0-0.62","LF","pc9v71lhle","2048","1152","en","nd05rt12","null","","","","learningBlock2","","","","This is a bim:","null","","","","",""
"","image-keyboard-response","435","771626","0.0-8.0-1.62","LF","pc9v71lhle","2048","1152","en","nd05rt12","null","","","","","","","","learning/Slide143.JPG","null","","","","",""
"","html-keyboard-response","436","772627","0.0-8.0-2.62","LF","pc9v71lhle","2048","1152","en","nd05rt12","null","","","","learningBlock2","","","","<div style=""font-size:60px;""> </div>","null","LF","learning/Slide143.JPG","This is a bim:","",""
"","html-keyboard-response","437","773630","0.0-8.0-0.63","LF","pc9v71lhle","2048","1152","en","nd05rt12","null","","","","learningBlock2","","","","This is a dep:","null","","","","",""
"","image-keyboard-response","438","773961","0.0-8.0-1.63","LF","pc9v71lhle","2048","1152","en","nd05rt12","null","","","","","","","","learning/Slide144.JPG","null","","","","",""
"","html-keyboard-response","439","774964","0.0-8.0-2.63","LF","pc9v71lhle","2048","1152","en","nd05rt12","null","","","","learningBlock2","","","","<div style=""font-size:60px;""> </div>","null","LF","learning/Slide144.JPG","This is a dep:","",""
"","html-keyboard-response","440","775970","0.0-8.0-0.64","LF","pc9v71lhle","2048","1152","en","nd05rt12","null","","","","learningBlock2","","","","This is a bim:","null","","","","",""
"","image-keyboard-response","441","776299","0.0-8.0-1.64","LF","pc9v71lhle","2048","1152","en","nd05rt12","null","","","","","","","","learning/Slide145.JPG","null","","","","",""
"","html-keyboard-response","442","777305","0.0-8.0-2.64","LF","pc9v71lhle","2048","1152","en","nd05rt12","null","","","","learningBlock2","","","","<div style=""font-size:60px;""> </div>","null","LF","learning/Slide145.JPG","This is a bim:","",""
"","html-keyboard-response","443","778309","0.0-8.0-0.65","LF","pc9v71lhle","2048","1152","en","nd05rt12","null","","","","learningBlock2","","","","This is a tob:","null","","","","",""
"","image-keyboard-response","444","778638","0.0-8.0-1.65","LF","pc9v71lhle","2048","1152","en","nd05rt12","null","","","","","","","","learning/Slide146.JPG","null","","","","",""
"","html-keyboard-response","445","779642","0.0-8.0-2.65","LF","pc9v71lhle","2048","1152","en","nd05rt12","null","","","","learningBlock2","","","","<div style=""font-size:60px;""> </div>","null","LF","learning/Slide146.JPG","This is a tob:","",""
"","html-keyboard-response","446","780643","0.0-8.0-0.66","LF","pc9v71lhle","2048","1152","en","nd05rt12","null","","","","learningBlock2","","","","This is a wug:","null","","","","",""
"","image-keyboard-response","447","780973","0.0-8.0-1.66","LF","pc9v71lhle","2048","1152","en","nd05rt12","null","","","","","","","","learning/Slide147.JPG","null","","","","",""
"","html-keyboard-response","448","781978","0.0-8.0-2.66","LF","pc9v71lhle","2048","1152","en","nd05rt12","null","","","","learningBlock2","","","","<div style=""font-size:60px;""> </div>","null","LF","learning/Slide147.JPG","This is a wug:","",""
"","html-keyboard-response","449","782982","0.0-8.0-0.67","LF","pc9v71lhle","2048","1152","en","nd05rt12","null","","","","learningBlock2","","","","This is a bim:","null","","","","",""
"","image-keyboard-response","450","783313","0.0-8.0-1.67","LF","pc9v71lhle","2048","1152","en","nd05rt12","null","","","","","","","","learning/Slide148.JPG","null","","","","",""
"","html-keyboard-response","451","784317","0.0-8.0-2.67","LF","pc9v71lhle","2048","1152","en","nd05rt12","null","","","","learningBlock2","","","","<div style=""font-size:60px;""> </div>","null","LF","learning/Slide148.JPG","This is a bim:","",""
"","html-keyboard-response","452","785321","0.0-8.0-0.68","LF","pc9v71lhle","2048","1152","en","nd05rt12","null","","","","learningBlock2","","","","This is a dep:","null","","","","",""
"","image-keyboard-response","453","785652","0.0-8.0-1.68","LF","pc9v71lhle","2048","1152","en","nd05rt12","null","","","","","","","","learning/Slide149.JPG","null","","","","",""
"","html-keyboard-response","454","786656","0.0-8.0-2.68","LF","pc9v71lhle","2048","1152","en","nd05rt12","null","","","","learningBlock2","","","","<div style=""font-size:60px;""> </div>","null","LF","learning/Slide149.JPG","This is a dep:","",""
"","html-keyboard-response","455","787661","0.0-8.0-0.69","LF","pc9v71lhle","2048","1152","en","nd05rt12","null","","","","learningBlock2","","","","This is a wug:","null","","","","",""
"","image-keyboard-response","456","787988","0.0-8.0-1.69","LF","pc9v71lhle","2048","1152","en","nd05rt12","null","","","","","","","","learning/Slide150.JPG","null","","","","",""
"","html-keyboard-response","457","788990","0.0-8.0-2.69","LF","pc9v71lhle","2048","1152","en","nd05rt12","null","","","","learningBlock2","","","","<div style=""font-size:60px;""> </div>","null","LF","learning/Slide150.JPG","This is a wug:","",""
"","html-keyboard-response","458","789994","0.0-8.0-0.70","LF","pc9v71lhle","2048","1152","en","nd05rt12","null","","","","learningBlock2","","","","This is a dep:","null","","","","",""
"","image-keyboard-response","459","790325","0.0-8.0-1.70","LF","pc9v71lhle","2048","1152","en","nd05rt12","null","","","","","","","","learning/Slide151.JPG","null","","","","",""
"","html-keyboard-response","460","791329","0.0-8.0-2.70","LF","pc9v71lhle","2048","1152","en","nd05rt12","null","","","","learningBlock2","","","","<div style=""font-size:60px;""> </div>","null","LF","learning/Slide151.JPG","This is a dep:","",""
"","html-keyboard-response","461","792334","0.0-8.0-0.71","LF","pc9v71lhle","2048","1152","en","nd05rt12","null","","","","learningBlock2","","","","This is a wug:","null","","","","",""
"","image-keyboard-response","462","792665","0.0-8.0-1.71","LF","pc9v71lhle","2048","1152","en","nd05rt12","null","","","","","","","","learning/Slide152.JPG","null","","","","",""
"","html-keyboard-response","463","793669","0.0-8.0-2.71","LF","pc9v71lhle","2048","1152","en","nd05rt12","null","","","","learningBlock2","","","","<div style=""font-size:60px;""> </div>","null","LF","learning/Slide152.JPG","This is a wug:","",""
"","html-keyboard-response","464","794673","0.0-8.0-0.72","LF","pc9v71lhle","2048","1152","en","nd05rt12","null","","","","learningBlock2","","","","This is a bim:","null","","","","",""
"","image-keyboard-response","465","795000","0.0-8.0-1.72","LF","pc9v71lhle","2048","1152","en","nd05rt12","null","","","","","","","","learning/Slide153.JPG","null","","","","",""
"","html-keyboard-response","466","796002","0.0-8.0-2.72","LF","pc9v71lhle","2048","1152","en","nd05rt12","null","","","","learningBlock2","","","","<div style=""font-size:60px;""> </div>","null","LF","learning/Slide153.JPG","This is a bim:","",""
"","html-keyboard-response","467","797007","0.0-8.0-0.73","LF","pc9v71lhle","2048","1152","en","nd05rt12","null","","","","learningBlock2","","","","This is a tob:","null","","","","",""
"","image-keyboard-response","468","797337","0.0-8.0-1.73","LF","pc9v71lhle","2048","1152","en","nd05rt12","null","","","","","","","","learning/Slide154.JPG","null","","","","",""
"","html-keyboard-response","469","798342","0.0-8.0-2.73","LF","pc9v71lhle","2048","1152","en","nd05rt12","null","","","","learningBlock2","","","","<div style=""font-size:60px;""> </div>","null","LF","learning/Slide154.JPG","This is a tob:","",""
"","html-keyboard-response","470","799346","0.0-8.0-0.74","LF","pc9v71lhle","2048","1152","en","nd05rt12","null","","","","learningBlock2","","","","This is a dep:","null","","","","",""
"","image-keyboard-response","471","799677","0.0-8.0-1.74","LF","pc9v71lhle","2048","1152","en","nd05rt12","null","","","","","","","","learning/Slide155.JPG","null","","","","",""
"","html-keyboard-response","472","800680","0.0-8.0-2.74","LF","pc9v71lhle","2048","1152","en","nd05rt12","null","","","","learningBlock2","","","","<div style=""font-size:60px;""> </div>","null","LF","learning/Slide155.JPG","This is a dep:","",""
"","html-keyboard-response","473","801685","0.0-8.0-0.75","LF","pc9v71lhle","2048","1152","en","nd05rt12","null","","","","learningBlock2","","","","This is a bim:","null","","","","",""
"","image-keyboard-response","474","802016","0.0-8.0-1.75","LF","pc9v71lhle","2048","1152","en","nd05rt12","null","","","","","","","","learning/Slide156.JPG","null","","","","",""
"","html-keyboard-response","475","803020","0.0-8.0-2.75","LF","pc9v71lhle","2048","1152","en","nd05rt12","null","","","","learningBlock2","","","","<div style=""font-size:60px;""> </div>","null","LF","learning/Slide156.JPG","This is a bim:","",""
"","html-keyboard-response","476","804022","0.0-8.0-0.76","LF","pc9v71lhle","2048","1152","en","nd05rt12","null","","","","learningBlock2","","","","This is a dep:","null","","","","",""
"","image-keyboard-response","477","804352","0.0-8.0-1.76","LF","pc9v71lhle","2048","1152","en","nd05rt12","null","","","","","","","","learning/Slide157.JPG","null","","","","",""
"","html-keyboard-response","478","805354","0.0-8.0-2.76","LF","pc9v71lhle","2048","1152","en","nd05rt12","null","","","","learningBlock2","","","","<div style=""font-size:60px;""> </div>","null","LF","learning/Slide157.JPG","This is a dep:","",""
"","html-keyboard-response","479","806359","0.0-8.0-0.77","LF","pc9v71lhle","2048","1152","en","nd05rt12","null","","","","learningBlock2","","","","This is a tob:","null","","","","",""
"","image-keyboard-response","480","806688","0.0-8.0-1.77","LF","pc9v71lhle","2048","1152","en","nd05rt12","null","","","","","","","","learning/Slide158.JPG","null","","","","",""
"","html-keyboard-response","481","807690","0.0-8.0-2.77","LF","pc9v71lhle","2048","1152","en","nd05rt12","null","","","","learningBlock2","","","","<div style=""font-size:60px;""> </div>","null","LF","learning/Slide158.JPG","This is a tob:","",""
"","html-keyboard-response","482","808692","0.0-8.0-0.78","LF","pc9v71lhle","2048","1152","en","nd05rt12","null","","","","learningBlock2","","","","This is a dep:","null","","","","",""
"","image-keyboard-response","483","809023","0.0-8.0-1.78","LF","pc9v71lhle","2048","1152","en","nd05rt12","null","","","","","","","","learning/Slide159.JPG","null","","","","",""
"","html-keyboard-response","484","810027","0.0-8.0-2.78","LF","pc9v71lhle","2048","1152","en","nd05rt12","null","","","","learningBlock2","","","","<div style=""font-size:60px;""> </div>","null","LF","learning/Slide159.JPG","This is a dep:","",""
"","html-keyboard-response","485","811030","0.0-8.0-0.79","LF","pc9v71lhle","2048","1152","en","nd05rt12","null","","","","learningBlock2","","","","This is a wug:","null","","","","",""
"","image-keyboard-response","486","811362","0.0-8.0-1.79","LF","pc9v71lhle","2048","1152","en","nd05rt12","null","","","","","","","","learning/Slide160.JPG","null","","","","",""
