"success","trial_type","trial_index","time_elapsed","internal_node_id","condition","subject","screen_width","screen_height","language","codeword","rt","responses","url","view_history","test_part","final_height_px","final_width_px","scale_factor","stimulus","key_press","learningType","presentedImage","presentedLabel","button_pressed","response"
"true","fullscreen","0","96589399","0.0-0.0","FL","7jnze5y1xt","1920","1080","de","er07rg24","","","","","","","","","","","","","","",""
"","survey-html-form","1","96601055","0.0-1.0","FL","7jnze5y1xt","1920","1080","de","er07rg24","11650","{""language"":""de""}","","","","","","","","","","","","",""
"","external-html","2","96681100","0.0-2.0-0.0","FL","7jnze5y1xt","1920","1080","de","er07rg24","79922","","text/information.html","","","","","","","","","","","",""
"","external-html","3","96714742","0.0-2.0-1.0","FL","7jnze5y1xt","1920","1080","de","er07rg24","33563","","text/consent.html","","","","","","","","","","","",""
"","survey-html-form","4","96791945","0.0-2.0-2.0","FL","7jnze5y1xt","1920","1080","de","er07rg24","77198","{""codeword_enter"":""er07rg24""}","","","","","","","","","","","","",""
"","instructions","5","96819880","0.0-4.0","FL","7jnze5y1xt","1920","1080","de","er07rg24","NA","","","[{""page_index"":0,""viewing_time"":3546},{""page_index"":1,""viewing_time"":24364}]","instructions","","","","","","","","","",""
"","resize","6","97087913","0.0-5.0","FL","7jnze5y1xt","1920","1080","de","er07rg24","","","","","","","534","3.390476190476191","","","","","","",""
"","image-keyboard-response","7","97088090","0.0-6.0-0.0","FL","7jnze5y1xt","1920","1080","de","er07rg24","null","","","","","","","","learning/Slide1.JPG","null","","","","",""
"","html-keyboard-response","8","97089244","0.0-6.0-1.0","FL","7jnze5y1xt","1920","1080","de","er07rg24","null","","","","learningBlock1","","","","That was a tob.","null","","","","",""
"","html-keyboard-response","9","97090245","0.0-6.0-2.0","FL","7jnze5y1xt","1920","1080","de","er07rg24","null","","","","learningBlock1","","","","<div style=""font-size:60px;""> </div>","null","FL","learning/Slide1.JPG","That was a tob.","",""
"","image-keyboard-response","10","97090422","0.0-6.0-0.1","FL","7jnze5y1xt","1920","1080","de","er07rg24","null","","","","","","","","learning/Slide2.JPG","null","","","","",""
"","html-keyboard-response","11","97091575","0.0-6.0-1.1","FL","7jnze5y1xt","1920","1080","de","er07rg24","null","","","","learningBlock1","","","","That was a wug.","null","","","","",""
"","html-keyboard-response","12","97092577","0.0-6.0-2.1","FL","7jnze5y1xt","1920","1080","de","er07rg24","null","","","","learningBlock1","","","","<div style=""font-size:60px;""> </div>","null","FL","learning/Slide2.JPG","That was a wug.","",""
"","image-keyboard-response","13","97092755","0.0-6.0-0.2","FL","7jnze5y1xt","1920","1080","de","er07rg24","null","","","","","","","","learning/Slide3.JPG","null","","","","",""
"","html-keyboard-response","14","97093907","0.0-6.0-1.2","FL","7jnze5y1xt","1920","1080","de","er07rg24","null","","","","learningBlock1","","","","That was a bim.","null","","","","",""
"","html-keyboard-response","15","97094909","0.0-6.0-2.2","FL","7jnze5y1xt","1920","1080","de","er07rg24","null","","","","learningBlock1","","","","<div style=""font-size:60px;""> </div>","null","FL","learning/Slide3.JPG","That was a bim.","",""
"","image-keyboard-response","16","97095085","0.0-6.0-0.3","FL","7jnze5y1xt","1920","1080","de","er07rg24","null","","","","","","","","learning/Slide4.JPG","null","","","","",""
"","html-keyboard-response","17","97096238","0.0-6.0-1.3","FL","7jnze5y1xt","1920","1080","de","er07rg24","null","","","","learningBlock1","","","","That was a dep.","null","","","","",""
"","html-keyboard-response","18","97097240","0.0-6.0-2.3","FL","7jnze5y1xt","1920","1080","de","er07rg24","null","","","","learningBlock1","","","","<div style=""font-size:60px;""> </div>","null","FL","learning/Slide4.JPG","That was a dep.","",""
"","image-keyboard-response","19","97097417","0.0-6.0-0.4","FL","7jnze5y1xt","1920","1080","de","er07rg24","null","","","","","","","","learning/Slide5.JPG","null","","","","",""
"","html-keyboard-response","20","97098569","0.0-6.0-1.4","FL","7jnze5y1xt","1920","1080","de","er07rg24","null","","","","learningBlock1","","","","That was a wug.","null","","","","",""
"","html-keyboard-response","21","97099571","0.0-6.0-2.4","FL","7jnze5y1xt","1920","1080","de","er07rg24","null","","","","learningBlock1","","","","<div style=""font-size:60px;""> </div>","null","FL","learning/Slide5.JPG","That was a wug.","",""
"","image-keyboard-response","22","97099747","0.0-6.0-0.5","FL","7jnze5y1xt","1920","1080","de","er07rg24","null","","","","","","","","learning/Slide6.JPG","null","","","","",""
"","html-keyboard-response","23","97100900","0.0-6.0-1.5","FL","7jnze5y1xt","1920","1080","de","er07rg24","null","","","","learningBlock1","","","","That was a dep.","null","","","","",""
"","html-keyboard-response","24","97101903","0.0-6.0-2.5","FL","7jnze5y1xt","1920","1080","de","er07rg24","null","","","","learningBlock1","","","","<div style=""font-size:60px;""> </div>","null","FL","learning/Slide6.JPG","That was a dep.","",""
"","image-keyboard-response","25","97102079","0.0-6.0-0.6","FL","7jnze5y1xt","1920","1080","de","er07rg24","null","","","","","","","","learning/Slide7.JPG","null","","","","",""
"","html-keyboard-response","26","97103231","0.0-6.0-1.6","FL","7jnze5y1xt","1920","1080","de","er07rg24","null","","","","learningBlock1","","","","That was a wug.","null","","","","",""
"","html-keyboard-response","27","97104232","0.0-6.0-2.6","FL","7jnze5y1xt","1920","1080","de","er07rg24","null","","","","learningBlock1","","","","<div style=""font-size:60px;""> </div>","null","FL","learning/Slide7.JPG","That was a wug.","",""
"","image-keyboard-response","28","97104409","0.0-6.0-0.7","FL","7jnze5y1xt","1920","1080","de","er07rg24","null","","","","","","","","learning/Slide8.JPG","null","","","","",""
"","html-keyboard-response","29","97105560","0.0-6.0-1.7","FL","7jnze5y1xt","1920","1080","de","er07rg24","null","","","","learningBlock1","","","","That was a bim.","null","","","","",""
"","html-keyboard-response","30","97106561","0.0-6.0-2.7","FL","7jnze5y1xt","1920","1080","de","er07rg24","null","","","","learningBlock1","","","","<div style=""font-size:60px;""> </div>","null","FL","learning/Slide8.JPG","That was a bim.","",""
"","image-keyboard-response","31","97106738","0.0-6.0-0.8","FL","7jnze5y1xt","1920","1080","de","er07rg24","null","","","","","","","","learning/Slide9.JPG","null","","","","",""
"","html-keyboard-response","32","97107891","0.0-6.0-1.8","FL","7jnze5y1xt","1920","1080","de","er07rg24","null","","","","learningBlock1","","","","That was a wug.","null","","","","",""
"","html-keyboard-response","33","97108892","0.0-6.0-2.8","FL","7jnze5y1xt","1920","1080","de","er07rg24","null","","","","learningBlock1","","","","<div style=""font-size:60px;""> </div>","null","FL","learning/Slide9.JPG","That was a wug.","",""
"","image-keyboard-response","34","97109069","0.0-6.0-0.9","FL","7jnze5y1xt","1920","1080","de","er07rg24","null","","","","","","","","learning/Slide10.JPG","null","","","","",""
"","html-keyboard-response","35","97110221","0.0-6.0-1.9","FL","7jnze5y1xt","1920","1080","de","er07rg24","null","","","","learningBlock1","","","","That was a dep.","null","","","","",""
"","html-keyboard-response","36","97111223","0.0-6.0-2.9","FL","7jnze5y1xt","1920","1080","de","er07rg24","null","","","","learningBlock1","","","","<div style=""font-size:60px;""> </div>","null","FL","learning/Slide10.JPG","That was a dep.","",""
"","image-keyboard-response","37","97111400","0.0-6.0-0.10","FL","7jnze5y1xt","1920","1080","de","er07rg24","null","","","","","","","","learning/Slide11.JPG","null","","","","",""
"","html-keyboard-response","38","97112552","0.0-6.0-1.10","FL","7jnze5y1xt","1920","1080","de","er07rg24","null","","","","learningBlock1","","","","That was a tob.","null","","","","",""
"","html-keyboard-response","39","97113553","0.0-6.0-2.10","FL","7jnze5y1xt","1920","1080","de","er07rg24","null","","","","learningBlock1","","","","<div style=""font-size:60px;""> </div>","null","FL","learning/Slide11.JPG","That was a tob.","",""
"","image-keyboard-response","40","97113730","0.0-6.0-0.11","FL","7jnze5y1xt","1920","1080","de","er07rg24","null","","","","","","","","learning/Slide12.JPG","null","","","","",""
"","html-keyboard-response","41","97114881","0.0-6.0-1.11","FL","7jnze5y1xt","1920","1080","de","er07rg24","null","","","","learningBlock1","","","","That was a dep.","null","","","","",""
"","html-keyboard-response","42","97115883","0.0-6.0-2.11","FL","7jnze5y1xt","1920","1080","de","er07rg24","null","","","","learningBlock1","","","","<div style=""font-size:60px;""> </div>","null","FL","learning/Slide12.JPG","That was a dep.","",""
"","image-keyboard-response","43","97116060","0.0-6.0-0.12","FL","7jnze5y1xt","1920","1080","de","er07rg24","null","","","","","","","","learning/Slide13.JPG","null","","","","",""
"","html-keyboard-response","44","97117211","0.0-6.0-1.12","FL","7jnze5y1xt","1920","1080","de","er07rg24","null","","","","learningBlock1","","","","That was a bim.","null","","","","",""
"","html-keyboard-response","45","97118212","0.0-6.0-2.12","FL","7jnze5y1xt","1920","1080","de","er07rg24","null","","","","learningBlock1","","","","<div style=""font-size:60px;""> </div>","null","FL","learning/Slide13.JPG","That was a bim.","",""
"","image-keyboard-response","46","97118389","0.0-6.0-0.13","FL","7jnze5y1xt","1920","1080","de","er07rg24","null","","","","","","","","learning/Slide14.JPG","null","","","","",""
"","html-keyboard-response","47","97119540","0.0-6.0-1.13","FL","7jnze5y1xt","1920","1080","de","er07rg24","null","","","","learningBlock1","","","","That was a wug.","null","","","","",""
"","html-keyboard-response","48","97120541","0.0-6.0-2.13","FL","7jnze5y1xt","1920","1080","de","er07rg24","null","","","","learningBlock1","","","","<div style=""font-size:60px;""> </div>","null","FL","learning/Slide14.JPG","That was a wug.","",""
"","image-keyboard-response","49","97120718","0.0-6.0-0.14","FL","7jnze5y1xt","1920","1080","de","er07rg24","null","","","","","","","","learning/Slide15.JPG","null","","","","",""
"","html-keyboard-response","50","97121870","0.0-6.0-1.14","FL","7jnze5y1xt","1920","1080","de","er07rg24","null","","","","learningBlock1","","","","That was a tob.","null","","","","",""
"","html-keyboard-response","51","97122872","0.0-6.0-2.14","FL","7jnze5y1xt","1920","1080","de","er07rg24","null","","","","learningBlock1","","","","<div style=""font-size:60px;""> </div>","null","FL","learning/Slide15.JPG","That was a tob.","",""
"","image-keyboard-response","52","97123048","0.0-6.0-0.15","FL","7jnze5y1xt","1920","1080","de","er07rg24","null","","","","","","","","learning/Slide16.JPG","null","","","","",""
"","html-keyboard-response","53","97124200","0.0-6.0-1.15","FL","7jnze5y1xt","1920","1080","de","er07rg24","null","","","","learningBlock1","","","","That was a dep.","null","","","","",""
"","html-keyboard-response","54","97125201","0.0-6.0-2.15","FL","7jnze5y1xt","1920","1080","de","er07rg24","null","","","","learningBlock1","","","","<div style=""font-size:60px;""> </div>","null","FL","learning/Slide16.JPG","That was a dep.","",""
"","image-keyboard-response","55","97125378","0.0-6.0-0.16","FL","7jnze5y1xt","1920","1080","de","er07rg24","null","","","","","","","","learning/Slide17.JPG","null","","","","",""
"","html-keyboard-response","56","97126531","0.0-6.0-1.16","FL","7jnze5y1xt","1920","1080","de","er07rg24","null","","","","learningBlock1","","","","That was a bim.","null","","","","",""
"","html-keyboard-response","57","97127531","0.0-6.0-2.16","FL","7jnze5y1xt","1920","1080","de","er07rg24","null","","","","learningBlock1","","","","<div style=""font-size:60px;""> </div>","null","FL","learning/Slide17.JPG","That was a bim.","",""
"","image-keyboard-response","58","97127708","0.0-6.0-0.17","FL","7jnze5y1xt","1920","1080","de","er07rg24","null","","","","","","","","learning/Slide18.JPG","null","","","","",""
"","html-keyboard-response","59","97128859","0.0-6.0-1.17","FL","7jnze5y1xt","1920","1080","de","er07rg24","null","","","","learningBlock1","","","","That was a tob.","null","","","","",""
"","html-keyboard-response","60","97129860","0.0-6.0-2.17","FL","7jnze5y1xt","1920","1080","de","er07rg24","null","","","","learningBlock1","","","","<div style=""font-size:60px;""> </div>","null","FL","learning/Slide18.JPG","That was a tob.","",""
"","image-keyboard-response","61","97130037","0.0-6.0-0.18","FL","7jnze5y1xt","1920","1080","de","er07rg24","null","","","","","","","","learning/Slide19.JPG","null","","","","",""
"","html-keyboard-response","62","97131188","0.0-6.0-1.18","FL","7jnze5y1xt","1920","1080","de","er07rg24","null","","","","learningBlock1","","","","That was a wug.","null","","","","",""
"","html-keyboard-response","63","97132190","0.0-6.0-2.18","FL","7jnze5y1xt","1920","1080","de","er07rg24","null","","","","learningBlock1","","","","<div style=""font-size:60px;""> </div>","null","FL","learning/Slide19.JPG","That was a wug.","",""
"","image-keyboard-response","64","97132366","0.0-6.0-0.19","FL","7jnze5y1xt","1920","1080","de","er07rg24","null","","","","","","","","learning/Slide20.JPG","null","","","","",""
"","html-keyboard-response","65","97133518","0.0-6.0-1.19","FL","7jnze5y1xt","1920","1080","de","er07rg24","null","","","","learningBlock1","","","","That was a bim.","null","","","","",""
"","html-keyboard-response","66","97134521","0.0-6.0-2.19","FL","7jnze5y1xt","1920","1080","de","er07rg24","null","","","","learningBlock1","","","","<div style=""font-size:60px;""> </div>","null","FL","learning/Slide20.JPG","That was a bim.","",""
"","image-keyboard-response","67","97134697","0.0-6.0-0.20","FL","7jnze5y1xt","1920","1080","de","er07rg24","null","","","","","","","","learning/Slide21.JPG","null","","","","",""
"","html-keyboard-response","68","97135850","0.0-6.0-1.20","FL","7jnze5y1xt","1920","1080","de","er07rg24","null","","","","learningBlock1","","","","That was a dep.","null","","","","",""
"","html-keyboard-response","69","97136851","0.0-6.0-2.20","FL","7jnze5y1xt","1920","1080","de","er07rg24","null","","","","learningBlock1","","","","<div style=""font-size:60px;""> </div>","null","FL","learning/Slide21.JPG","That was a dep.","",""
"","image-keyboard-response","70","97137027","0.0-6.0-0.21","FL","7jnze5y1xt","1920","1080","de","er07rg24","null","","","","","","","","learning/Slide22.JPG","null","","","","",""
"","html-keyboard-response","71","97138179","0.0-6.0-1.21","FL","7jnze5y1xt","1920","1080","de","er07rg24","null","","","","learningBlock1","","","","That was a bim.","null","","","","",""
"","html-keyboard-response","72","97139181","0.0-6.0-2.21","FL","7jnze5y1xt","1920","1080","de","er07rg24","null","","","","learningBlock1","","","","<div style=""font-size:60px;""> </div>","null","FL","learning/Slide22.JPG","That was a bim.","",""
"","image-keyboard-response","73","97139357","0.0-6.0-0.22","FL","7jnze5y1xt","1920","1080","de","er07rg24","null","","","","","","","","learning/Slide23.JPG","null","","","","",""
"","html-keyboard-response","74","97140510","0.0-6.0-1.22","FL","7jnze5y1xt","1920","1080","de","er07rg24","null","","","","learningBlock1","","","","That was a tob.","null","","","","",""
"","html-keyboard-response","75","97141512","0.0-6.0-2.22","FL","7jnze5y1xt","1920","1080","de","er07rg24","null","","","","learningBlock1","","","","<div style=""font-size:60px;""> </div>","null","FL","learning/Slide23.JPG","That was a tob.","",""
"","image-keyboard-response","76","97141688","0.0-6.0-0.23","FL","7jnze5y1xt","1920","1080","de","er07rg24","null","","","","","","","","learning/Slide24.JPG","null","","","","",""
"","html-keyboard-response","77","97142839","0.0-6.0-1.23","FL","7jnze5y1xt","1920","1080","de","er07rg24","null","","","","learningBlock1","","","","That was a wug.","null","","","","",""
"","html-keyboard-response","78","97143841","0.0-6.0-2.23","FL","7jnze5y1xt","1920","1080","de","er07rg24","null","","","","learningBlock1","","","","<div style=""font-size:60px;""> </div>","null","FL","learning/Slide24.JPG","That was a wug.","",""
"","image-keyboard-response","79","97144017","0.0-6.0-0.24","FL","7jnze5y1xt","1920","1080","de","er07rg24","null","","","","","","","","learning/Slide25.JPG","null","","","","",""
"","html-keyboard-response","80","97145169","0.0-6.0-1.24","FL","7jnze5y1xt","1920","1080","de","er07rg24","null","","","","learningBlock1","","","","That was a dep.","null","","","","",""
"","html-keyboard-response","81","97146170","0.0-6.0-2.24","FL","7jnze5y1xt","1920","1080","de","er07rg24","null","","","","learningBlock1","","","","<div style=""font-size:60px;""> </div>","null","FL","learning/Slide25.JPG","That was a dep.","",""
"","image-keyboard-response","82","97146347","0.0-6.0-0.25","FL","7jnze5y1xt","1920","1080","de","er07rg24","null","","","","","","","","learning/Slide26.JPG","null","","","","",""
"","html-keyboard-response","83","97147499","0.0-6.0-1.25","FL","7jnze5y1xt","1920","1080","de","er07rg24","null","","","","learningBlock1","","","","That was a wug.","null","","","","",""
"","html-keyboard-response","84","97148500","0.0-6.0-2.25","FL","7jnze5y1xt","1920","1080","de","er07rg24","null","","","","learningBlock1","","","","<div style=""font-size:60px;""> </div>","null","FL","learning/Slide26.JPG","That was a wug.","",""
"","image-keyboard-response","85","97148677","0.0-6.0-0.26","FL","7jnze5y1xt","1920","1080","de","er07rg24","null","","","","","","","","learning/Slide27.JPG","null","","","","",""
"","html-keyboard-response","86","97149828","0.0-6.0-1.26","FL","7jnze5y1xt","1920","1080","de","er07rg24","null","","","","learningBlock1","","","","That was a bim.","null","","","","",""
"","html-keyboard-response","87","97150830","0.0-6.0-2.26","FL","7jnze5y1xt","1920","1080","de","er07rg24","null","","","","learningBlock1","","","","<div style=""font-size:60px;""> </div>","null","FL","learning/Slide27.JPG","That was a bim.","",""
"","image-keyboard-response","88","97151007","0.0-6.0-0.27","FL","7jnze5y1xt","1920","1080","de","er07rg24","null","","","","","","","","learning/Slide28.JPG","null","","","","",""
"","html-keyboard-response","89","97152159","0.0-6.0-1.27","FL","7jnze5y1xt","1920","1080","de","er07rg24","null","","","","learningBlock1","","","","That was a dep.","null","","","","",""
"","html-keyboard-response","90","97153161","0.0-6.0-2.27","FL","7jnze5y1xt","1920","1080","de","er07rg24","null","","","","learningBlock1","","","","<div style=""font-size:60px;""> </div>","null","FL","learning/Slide28.JPG","That was a dep.","",""
"","image-keyboard-response","91","97153337","0.0-6.0-0.28","FL","7jnze5y1xt","1920","1080","de","er07rg24","null","","","","","","","","learning/Slide29.JPG","null","","","","",""
"","html-keyboard-response","92","97154489","0.0-6.0-1.28","FL","7jnze5y1xt","1920","1080","de","er07rg24","null","","","","learningBlock1","","","","That was a tob.","null","","","","",""
"","html-keyboard-response","93","97155491","0.0-6.0-2.28","FL","7jnze5y1xt","1920","1080","de","er07rg24","null","","","","learningBlock1","","","","<div style=""font-size:60px;""> </div>","null","FL","learning/Slide29.JPG","That was a tob.","",""
"","image-keyboard-response","94","97155668","0.0-6.0-0.29","FL","7jnze5y1xt","1920","1080","de","er07rg24","null","","","","","","","","learning/Slide30.JPG","null","","","","",""
"","html-keyboard-response","95","97156820","0.0-6.0-1.29","FL","7jnze5y1xt","1920","1080","de","er07rg24","null","","","","learningBlock1","","","","That was a dep.","null","","","","",""
"","html-keyboard-response","96","97157821","0.0-6.0-2.29","FL","7jnze5y1xt","1920","1080","de","er07rg24","null","","","","learningBlock1","","","","<div style=""font-size:60px;""> </div>","null","FL","learning/Slide30.JPG","That was a dep.","",""
"","image-keyboard-response","97","97157998","0.0-6.0-0.30","FL","7jnze5y1xt","1920","1080","de","er07rg24","null","","","","","","","","learning/Slide31.JPG","null","","","","",""
"","html-keyboard-response","98","97159150","0.0-6.0-1.30","FL","7jnze5y1xt","1920","1080","de","er07rg24","null","","","","learningBlock1","","","","That was a wug.","null","","","","",""
"","html-keyboard-response","99","97160152","0.0-6.0-2.30","FL","7jnze5y1xt","1920","1080","de","er07rg24","null","","","","learningBlock1","","","","<div style=""font-size:60px;""> </div>","null","FL","learning/Slide31.JPG","That was a wug.","",""
"","image-keyboard-response","100","97160329","0.0-6.0-0.31","FL","7jnze5y1xt","1920","1080","de","er07rg24","null","","","","","","","","learning/Slide32.JPG","null","","","","",""
"","html-keyboard-response","101","97161481","0.0-6.0-1.31","FL","7jnze5y1xt","1920","1080","de","er07rg24","null","","","","learningBlock1","","","","That was a tob.","null","","","","",""
"","html-keyboard-response","102","97162483","0.0-6.0-2.31","FL","7jnze5y1xt","1920","1080","de","er07rg24","null","","","","learningBlock1","","","","<div style=""font-size:60px;""> </div>","null","FL","learning/Slide32.JPG","That was a tob.","",""
"","image-keyboard-response","103","97162659","0.0-6.0-0.32","FL","7jnze5y1xt","1920","1080","de","er07rg24","null","","","","","","","","learning/Slide33.JPG","null","","","","",""
"","html-keyboard-response","104","97163812","0.0-6.0-1.32","FL","7jnze5y1xt","1920","1080","de","er07rg24","null","","","","learningBlock1","","","","That was a bim.","null","","","","",""
"","html-keyboard-response","105","97164813","0.0-6.0-2.32","FL","7jnze5y1xt","1920","1080","de","er07rg24","null","","","","learningBlock1","","","","<div style=""font-size:60px;""> </div>","null","FL","learning/Slide33.JPG","That was a bim.","",""
"","image-keyboard-response","106","97164990","0.0-6.0-0.33","FL","7jnze5y1xt","1920","1080","de","er07rg24","null","","","","","","","","learning/Slide34.JPG","null","","","","",""
"","html-keyboard-response","107","97166142","0.0-6.0-1.33","FL","7jnze5y1xt","1920","1080","de","er07rg24","null","","","","learningBlock1","","","","That was a tob.","null","","","","",""
"","html-keyboard-response","108","97167143","0.0-6.0-2.33","FL","7jnze5y1xt","1920","1080","de","er07rg24","null","","","","learningBlock1","","","","<div style=""font-size:60px;""> </div>","null","FL","learning/Slide34.JPG","That was a tob.","",""
"","image-keyboard-response","109","97167320","0.0-6.0-0.34","FL","7jnze5y1xt","1920","1080","de","er07rg24","null","","","","","","","","learning/Slide35.JPG","null","","","","",""
"","html-keyboard-response","110","97168472","0.0-6.0-1.34","FL","7jnze5y1xt","1920","1080","de","er07rg24","null","","","","learningBlock1","","","","That was a bim.","null","","","","",""
"","html-keyboard-response","111","97169473","0.0-6.0-2.34","FL","7jnze5y1xt","1920","1080","de","er07rg24","null","","","","learningBlock1","","","","<div style=""font-size:60px;""> </div>","null","FL","learning/Slide35.JPG","That was a bim.","",""
"","image-keyboard-response","112","97169649","0.0-6.0-0.35","FL","7jnze5y1xt","1920","1080","de","er07rg24","null","","","","","","","","learning/Slide36.JPG","null","","","","",""
"","html-keyboard-response","113","97170801","0.0-6.0-1.35","FL","7jnze5y1xt","1920","1080","de","er07rg24","null","","","","learningBlock1","","","","That was a dep.","null","","","","",""
"","html-keyboard-response","114","97171802","0.0-6.0-2.35","FL","7jnze5y1xt","1920","1080","de","er07rg24","null","","","","learningBlock1","","","","<div style=""font-size:60px;""> </div>","null","FL","learning/Slide36.JPG","That was a dep.","",""
"","image-keyboard-response","115","97171979","0.0-6.0-0.36","FL","7jnze5y1xt","1920","1080","de","er07rg24","null","","","","","","","","learning/Slide37.JPG","null","","","","",""
"","html-keyboard-response","116","97173131","0.0-6.0-1.36","FL","7jnze5y1xt","1920","1080","de","er07rg24","null","","","","learningBlock1","","","","That was a tob.","null","","","","",""
"","html-keyboard-response","117","97174133","0.0-6.0-2.36","FL","7jnze5y1xt","1920","1080","de","er07rg24","null","","","","learningBlock1","","","","<div style=""font-size:60px;""> </div>","null","FL","learning/Slide37.JPG","That was a tob.","",""
"","image-keyboard-response","118","97174309","0.0-6.0-0.37","FL","7jnze5y1xt","1920","1080","de","er07rg24","null","","","","","","","","learning/Slide38.JPG","null","","","","",""
"","html-keyboard-response","119","97175462","0.0-6.0-1.37","FL","7jnze5y1xt","1920","1080","de","er07rg24","null","","","","learningBlock1","","","","That was a wug.","null","","","","",""
"","html-keyboard-response","120","97176462","0.0-6.0-2.37","FL","7jnze5y1xt","1920","1080","de","er07rg24","null","","","","learningBlock1","","","","<div style=""font-size:60px;""> </div>","null","FL","learning/Slide38.JPG","That was a wug.","",""
"","image-keyboard-response","121","97176639","0.0-6.0-0.38","FL","7jnze5y1xt","1920","1080","de","er07rg24","null","","","","","","","","learning/Slide39.JPG","null","","","","",""
"","html-keyboard-response","122","97177790","0.0-6.0-1.38","FL","7jnze5y1xt","1920","1080","de","er07rg24","null","","","","learningBlock1","","","","That was a bim.","null","","","","",""
"","html-keyboard-response","123","97178793","0.0-6.0-2.38","FL","7jnze5y1xt","1920","1080","de","er07rg24","null","","","","learningBlock1","","","","<div style=""font-size:60px;""> </div>","null","FL","learning/Slide39.JPG","That was a bim.","",""
"","image-keyboard-response","124","97178969","0.0-6.0-0.39","FL","7jnze5y1xt","1920","1080","de","er07rg24","null","","","","","","","","learning/Slide40.JPG","null","","","","",""
"","html-keyboard-response","125","97180121","0.0-6.0-1.39","FL","7jnze5y1xt","1920","1080","de","er07rg24","null","","","","learningBlock1","","","","That was a tob.","null","","","","",""
"","html-keyboard-response","126","97181123","0.0-6.0-2.39","FL","7jnze5y1xt","1920","1080","de","er07rg24","null","","","","learningBlock1","","","","<div style=""font-size:60px;""> </div>","null","FL","learning/Slide40.JPG","That was a tob.","",""
"","image-keyboard-response","127","97181300","0.0-6.0-0.40","FL","7jnze5y1xt","1920","1080","de","er07rg24","null","","","","","","","","learning/Slide41.JPG","null","","","","",""
"","html-keyboard-response","128","97182452","0.0-6.0-1.40","FL","7jnze5y1xt","1920","1080","de","er07rg24","null","","","","learningBlock1","","","","That was a bim.","null","","","","",""
"","html-keyboard-response","129","97183453","0.0-6.0-2.40","FL","7jnze5y1xt","1920","1080","de","er07rg24","null","","","","learningBlock1","","","","<div style=""font-size:60px;""> </div>","null","FL","learning/Slide41.JPG","That was a bim.","",""
"","image-keyboard-response","130","97183630","0.0-6.0-0.41","FL","7jnze5y1xt","1920","1080","de","er07rg24","null","","","","","","","","learning/Slide42.JPG","null","","","","",""
"","html-keyboard-response","131","97184782","0.0-6.0-1.41","FL","7jnze5y1xt","1920","1080","de","er07rg24","null","","","","learningBlock1","","","","That was a dep.","null","","","","",""
"","html-keyboard-response","132","97185784","0.0-6.0-2.41","FL","7jnze5y1xt","1920","1080","de","er07rg24","null","","","","learningBlock1","","","","<div style=""font-size:60px;""> </div>","null","FL","learning/Slide42.JPG","That was a dep.","",""
"","image-keyboard-response","133","97185959","0.0-6.0-0.42","FL","7jnze5y1xt","1920","1080","de","er07rg24","null","","","","","","","","learning/Slide43.JPG","null","","","","",""
"","html-keyboard-response","134","97187111","0.0-6.0-1.42","FL","7jnze5y1xt","1920","1080","de","er07rg24","null","","","","learningBlock1","","","","That was a wug.","null","","","","",""
"","html-keyboard-response","135","97188112","0.0-6.0-2.42","FL","7jnze5y1xt","1920","1080","de","er07rg24","null","","","","learningBlock1","","","","<div style=""font-size:60px;""> </div>","null","FL","learning/Slide43.JPG","That was a wug.","",""
"","image-keyboard-response","136","97188290","0.0-6.0-0.43","FL","7jnze5y1xt","1920","1080","de","er07rg24","null","","","","","","","","learning/Slide44.JPG","null","","","","",""
"","html-keyboard-response","137","97189442","0.0-6.0-1.43","FL","7jnze5y1xt","1920","1080","de","er07rg24","null","","","","learningBlock1","","","","That was a bim.","null","","","","",""
"","html-keyboard-response","138","97190442","0.0-6.0-2.43","FL","7jnze5y1xt","1920","1080","de","er07rg24","null","","","","learningBlock1","","","","<div style=""font-size:60px;""> </div>","null","FL","learning/Slide44.JPG","That was a bim.","",""
"","image-keyboard-response","139","97190619","0.0-6.0-0.44","FL","7jnze5y1xt","1920","1080","de","er07rg24","null","","","","","","","","learning/Slide45.JPG","null","","","","",""
"","html-keyboard-response","140","97191771","0.0-6.0-1.44","FL","7jnze5y1xt","1920","1080","de","er07rg24","null","","","","learningBlock1","","","","That was a wug.","null","","","","",""
"","html-keyboard-response","141","97192772","0.0-6.0-2.44","FL","7jnze5y1xt","1920","1080","de","er07rg24","null","","","","learningBlock1","","","","<div style=""font-size:60px;""> </div>","null","FL","learning/Slide45.JPG","That was a wug.","",""
"","image-keyboard-response","142","97192950","0.0-6.0-0.45","FL","7jnze5y1xt","1920","1080","de","er07rg24","null","","","","","","","","learning/Slide46.JPG","null","","","","",""
"","html-keyboard-response","143","97194102","0.0-6.0-1.45","FL","7jnze5y1xt","1920","1080","de","er07rg24","null","","","","learningBlock1","","","","That was a dep.","null","","","","",""
"","html-keyboard-response","144","97195102","0.0-6.0-2.45","FL","7jnze5y1xt","1920","1080","de","er07rg24","null","","","","learningBlock1","","","","<div style=""font-size:60px;""> </div>","null","FL","learning/Slide46.JPG","That was a dep.","",""
"","image-keyboard-response","145","97195278","0.0-6.0-0.46","FL","7jnze5y1xt","1920","1080","de","er07rg24","null","","","","","","","","learning/Slide47.JPG","null","","","","",""
"","html-keyboard-response","146","97196430","0.0-6.0-1.46","FL","7jnze5y1xt","1920","1080","de","er07rg24","null","","","","learningBlock1","","","","That was a tob.","null","","","","",""
"","html-keyboard-response","147","97197432","0.0-6.0-2.46","FL","7jnze5y1xt","1920","1080","de","er07rg24","null","","","","learningBlock1","","","","<div style=""font-size:60px;""> </div>","null","FL","learning/Slide47.JPG","That was a tob.","",""
"","image-keyboard-response","148","97197609","0.0-6.0-0.47","FL","7jnze5y1xt","1920","1080","de","er07rg24","null","","","","","","","","learning/Slide48.JPG","null","","","","",""
"","html-keyboard-response","149","97198760","0.0-6.0-1.47","FL","7jnze5y1xt","1920","1080","de","er07rg24","null","","","","learningBlock1","","","","That was a bim.","null","","","","",""
"","html-keyboard-response","150","97199763","0.0-6.0-2.47","FL","7jnze5y1xt","1920","1080","de","er07rg24","null","","","","learningBlock1","","","","<div style=""font-size:60px;""> </div>","null","FL","learning/Slide48.JPG","That was a bim.","",""
"","image-keyboard-response","151","97199939","0.0-6.0-0.48","FL","7jnze5y1xt","1920","1080","de","er07rg24","null","","","","","","","","learning/Slide49.JPG","null","","","","",""
"","html-keyboard-response","152","97201091","0.0-6.0-1.48","FL","7jnze5y1xt","1920","1080","de","er07rg24","null","","","","learningBlock1","","","","That was a dep.","null","","","","",""
"","html-keyboard-response","153","97202093","0.0-6.0-2.48","FL","7jnze5y1xt","1920","1080","de","er07rg24","null","","","","learningBlock1","","","","<div style=""font-size:60px;""> </div>","null","FL","learning/Slide49.JPG","That was a dep.","",""
"","image-keyboard-response","154","97202270","0.0-6.0-0.49","FL","7jnze5y1xt","1920","1080","de","er07rg24","null","","","","","","","","learning/Slide50.JPG","null","","","","",""
"","html-keyboard-response","155","97203423","0.0-6.0-1.49","FL","7jnze5y1xt","1920","1080","de","er07rg24","null","","","","learningBlock1","","","","That was a tob.","null","","","","",""
"","html-keyboard-response","156","97204424","0.0-6.0-2.49","FL","7jnze5y1xt","1920","1080","de","er07rg24","null","","","","learningBlock1","","","","<div style=""font-size:60px;""> </div>","null","FL","learning/Slide50.JPG","That was a tob.","",""
"","image-keyboard-response","157","97204601","0.0-6.0-0.50","FL","7jnze5y1xt","1920","1080","de","er07rg24","null","","","","","","","","learning/Slide51.JPG","null","","","","",""
"","html-keyboard-response","158","97205753","0.0-6.0-1.50","FL","7jnze5y1xt","1920","1080","de","er07rg24","null","","","","learningBlock1","","","","That was a bim.","null","","","","",""
"","html-keyboard-response","159","97206755","0.0-6.0-2.50","FL","7jnze5y1xt","1920","1080","de","er07rg24","null","","","","learningBlock1","","","","<div style=""font-size:60px;""> </div>","null","FL","learning/Slide51.JPG","That was a bim.","",""
"","image-keyboard-response","160","97206931","0.0-6.0-0.51","FL","7jnze5y1xt","1920","1080","de","er07rg24","null","","","","","","","","learning/Slide52.JPG","null","","","","",""
"","html-keyboard-response","161","97208084","0.0-6.0-1.51","FL","7jnze5y1xt","1920","1080","de","er07rg24","null","","","","learningBlock1","","","","That was a wug.","null","","","","",""
"","html-keyboard-response","162","97209085","0.0-6.0-2.51","FL","7jnze5y1xt","1920","1080","de","er07rg24","null","","","","learningBlock1","","","","<div style=""font-size:60px;""> </div>","null","FL","learning/Slide52.JPG","That was a wug.","",""
"","image-keyboard-response","163","97209262","0.0-6.0-0.52","FL","7jnze5y1xt","1920","1080","de","er07rg24","null","","","","","","","","learning/Slide53.JPG","null","","","","",""
"","html-keyboard-response","164","97210413","0.0-6.0-1.52","FL","7jnze5y1xt","1920","1080","de","er07rg24","null","","","","learningBlock1","","","","That was a tob.","null","","","","",""
"","html-keyboard-response","165","97211415","0.0-6.0-2.52","FL","7jnze5y1xt","1920","1080","de","er07rg24","null","","","","learningBlock1","","","","<div style=""font-size:60px;""> </div>","null","FL","learning/Slide53.JPG","That was a tob.","",""
"","image-keyboard-response","166","97211592","0.0-6.0-0.53","FL","7jnze5y1xt","1920","1080","de","er07rg24","null","","","","","","","","learning/Slide54.JPG","null","","","","",""
"","html-keyboard-response","167","97212744","0.0-6.0-1.53","FL","7jnze5y1xt","1920","1080","de","er07rg24","null","","","","learningBlock1","","","","That was a dep.","null","","","","",""
"","html-keyboard-response","168","97213746","0.0-6.0-2.53","FL","7jnze5y1xt","1920","1080","de","er07rg24","null","","","","learningBlock1","","","","<div style=""font-size:60px;""> </div>","null","FL","learning/Slide54.JPG","That was a dep.","",""
"","image-keyboard-response","169","97213923","0.0-6.0-0.54","FL","7jnze5y1xt","1920","1080","de","er07rg24","null","","","","","","","","learning/Slide55.JPG","null","","","","",""
"","html-keyboard-response","170","97215075","0.0-6.0-1.54","FL","7jnze5y1xt","1920","1080","de","er07rg24","null","","","","learningBlock1","","","","That was a bim.","null","","","","",""
"","html-keyboard-response","171","97216076","0.0-6.0-2.54","FL","7jnze5y1xt","1920","1080","de","er07rg24","null","","","","learningBlock1","","","","<div style=""font-size:60px;""> </div>","null","FL","learning/Slide55.JPG","That was a bim.","",""
"","image-keyboard-response","172","97216253","0.0-6.0-0.55","FL","7jnze5y1xt","1920","1080","de","er07rg24","null","","","","","","","","learning/Slide56.JPG","null","","","","",""
"","html-keyboard-response","173","97217405","0.0-6.0-1.55","FL","7jnze5y1xt","1920","1080","de","er07rg24","null","","","","learningBlock1","","","","That was a tob.","null","","","","",""
"","html-keyboard-response","174","97218407","0.0-6.0-2.55","FL","7jnze5y1xt","1920","1080","de","er07rg24","null","","","","learningBlock1","","","","<div style=""font-size:60px;""> </div>","null","FL","learning/Slide56.JPG","That was a tob.","",""
"","image-keyboard-response","175","97218584","0.0-6.0-0.56","FL","7jnze5y1xt","1920","1080","de","er07rg24","null","","","","","","","","learning/Slide57.JPG","null","","","","",""
"","html-keyboard-response","176","97219736","0.0-6.0-1.56","FL","7jnze5y1xt","1920","1080","de","er07rg24","null","","","","learningBlock1","","","","That was a dep.","null","","","","",""
"","html-keyboard-response","177","97220738","0.0-6.0-2.56","FL","7jnze5y1xt","1920","1080","de","er07rg24","null","","","","learningBlock1","","","","<div style=""font-size:60px;""> </div>","null","FL","learning/Slide57.JPG","That was a dep.","",""
"","image-keyboard-response","178","97220913","0.0-6.0-0.57","FL","7jnze5y1xt","1920","1080","de","er07rg24","null","","","","","","","","learning/Slide58.JPG","null","","","","",""
"","html-keyboard-response","179","97222065","0.0-6.0-1.57","FL","7jnze5y1xt","1920","1080","de","er07rg24","null","","","","learningBlock1","","","","That was a wug.","null","","","","",""
"","html-keyboard-response","180","97223067","0.0-6.0-2.57","FL","7jnze5y1xt","1920","1080","de","er07rg24","null","","","","learningBlock1","","","","<div style=""font-size:60px;""> </div>","null","FL","learning/Slide58.JPG","That was a wug.","",""
"","image-keyboard-response","181","97223244","0.0-6.0-0.58","FL","7jnze5y1xt","1920","1080","de","er07rg24","null","","","","","","","","learning/Slide59.JPG","null","","","","",""
"","html-keyboard-response","182","97224395","0.0-6.0-1.58","FL","7jnze5y1xt","1920","1080","de","er07rg24","null","","","","learningBlock1","","","","That was a dep.","null","","","","",""
"","html-keyboard-response","183","97225397","0.0-6.0-2.58","FL","7jnze5y1xt","1920","1080","de","er07rg24","null","","","","learningBlock1","","","","<div style=""font-size:60px;""> </div>","null","FL","learning/Slide59.JPG","That was a dep.","",""
"","image-keyboard-response","184","97225573","0.0-6.0-0.59","FL","7jnze5y1xt","1920","1080","de","er07rg24","null","","","","","","","","learning/Slide60.JPG","null","","","","",""
"","html-keyboard-response","185","97226725","0.0-6.0-1.59","FL","7jnze5y1xt","1920","1080","de","er07rg24","null","","","","learningBlock1","","","","That was a wug.","null","","","","",""
"","html-keyboard-response","186","97227726","0.0-6.0-2.59","FL","7jnze5y1xt","1920","1080","de","er07rg24","null","","","","learningBlock1","","","","<div style=""font-size:60px;""> </div>","null","FL","learning/Slide60.JPG","That was a wug.","",""
"","image-keyboard-response","187","97227903","0.0-6.0-0.60","FL","7jnze5y1xt","1920","1080","de","er07rg24","null","","","","","","","","learning/Slide61.JPG","null","","","","",""
"","html-keyboard-response","188","97229055","0.0-6.0-1.60","FL","7jnze5y1xt","1920","1080","de","er07rg24","null","","","","learningBlock1","","","","That was a bim.","null","","","","",""
"","html-keyboard-response","189","97230056","0.0-6.0-2.60","FL","7jnze5y1xt","1920","1080","de","er07rg24","null","","","","learningBlock1","","","","<div style=""font-size:60px;""> </div>","null","FL","learning/Slide61.JPG","That was a bim.","",""
"","image-keyboard-response","190","97230233","0.0-6.0-0.61","FL","7jnze5y1xt","1920","1080","de","er07rg24","null","","","","","","","","learning/Slide62.JPG","null","","","","",""
"","html-keyboard-response","191","97231384","0.0-6.0-1.61","FL","7jnze5y1xt","1920","1080","de","er07rg24","null","","","","learningBlock1","","","","That was a dep.","null","","","","",""
"","html-keyboard-response","192","97232386","0.0-6.0-2.61","FL","7jnze5y1xt","1920","1080","de","er07rg24","null","","","","learningBlock1","","","","<div style=""font-size:60px;""> </div>","null","FL","learning/Slide62.JPG","That was a dep.","",""
"","image-keyboard-response","193","97232563","0.0-6.0-0.62","FL","7jnze5y1xt","1920","1080","de","er07rg24","null","","","","","","","","learning/Slide63.JPG","null","","","","",""
"","html-keyboard-response","194","97233716","0.0-6.0-1.62","FL","7jnze5y1xt","1920","1080","de","er07rg24","null","","","","learningBlock1","","","","That was a bim.","null","","","","",""
"","html-keyboard-response","195","97234717","0.0-6.0-2.62","FL","7jnze5y1xt","1920","1080","de","er07rg24","null","","","","learningBlock1","","","","<div style=""font-size:60px;""> </div>","null","FL","learning/Slide63.JPG","That was a bim.","",""
"","image-keyboard-response","196","97234893","0.0-6.0-0.63","FL","7jnze5y1xt","1920","1080","de","er07rg24","null","","","","","","","","learning/Slide64.JPG","null","","","","",""
"","html-keyboard-response","197","97236045","0.0-6.0-1.63","FL","7jnze5y1xt","1920","1080","de","er07rg24","null","","","","learningBlock1","","","","That was a tob.","null","","","","",""
"","html-keyboard-response","198","97237046","0.0-6.0-2.63","FL","7jnze5y1xt","1920","1080","de","er07rg24","null","","","","learningBlock1","","","","<div style=""font-size:60px;""> </div>","null","FL","learning/Slide64.JPG","That was a tob.","",""
"","image-keyboard-response","199","97237223","0.0-6.0-0.64","FL","7jnze5y1xt","1920","1080","de","er07rg24","null","","","","","","","","learning/Slide65.JPG","null","","","","",""
"","html-keyboard-response","200","97238375","0.0-6.0-1.64","FL","7jnze5y1xt","1920","1080","de","er07rg24","null","","","","learningBlock1","","","","That was a wug.","null","","","","",""
"","html-keyboard-response","201","97239376","0.0-6.0-2.64","FL","7jnze5y1xt","1920","1080","de","er07rg24","null","","","","learningBlock1","","","","<div style=""font-size:60px;""> </div>","null","FL","learning/Slide65.JPG","That was a wug.","",""
"","image-keyboard-response","202","97239553","0.0-6.0-0.65","FL","7jnze5y1xt","1920","1080","de","er07rg24","null","","","","","","","","learning/Slide66.JPG","null","","","","",""
"","html-keyboard-response","203","97240704","0.0-6.0-1.65","FL","7jnze5y1xt","1920","1080","de","er07rg24","null","","","","learningBlock1","","","","That was a dep.","null","","","","",""
"","html-keyboard-response","204","97241706","0.0-6.0-2.65","FL","7jnze5y1xt","1920","1080","de","er07rg24","null","","","","learningBlock1","","","","<div style=""font-size:60px;""> </div>","null","FL","learning/Slide66.JPG","That was a dep.","",""
"","image-keyboard-response","205","97241882","0.0-6.0-0.66","FL","7jnze5y1xt","1920","1080","de","er07rg24","null","","","","","","","","learning/Slide67.JPG","null","","","","",""
"","html-keyboard-response","206","97243034","0.0-6.0-1.66","FL","7jnze5y1xt","1920","1080","de","er07rg24","null","","","","learningBlock1","","","","That was a tob.","null","","","","",""
"","html-keyboard-response","207","97244035","0.0-6.0-2.66","FL","7jnze5y1xt","1920","1080","de","er07rg24","null","","","","learningBlock1","","","","<div style=""font-size:60px;""> </div>","null","FL","learning/Slide67.JPG","That was a tob.","",""
"","image-keyboard-response","208","97244213","0.0-6.0-0.67","FL","7jnze5y1xt","1920","1080","de","er07rg24","null","","","","","","","","learning/Slide68.JPG","null","","","","",""
"","html-keyboard-response","209","97245364","0.0-6.0-1.67","FL","7jnze5y1xt","1920","1080","de","er07rg24","null","","","","learningBlock1","","","","That was a wug.","null","","","","",""
"","html-keyboard-response","210","97246365","0.0-6.0-2.67","FL","7jnze5y1xt","1920","1080","de","er07rg24","null","","","","learningBlock1","","","","<div style=""font-size:60px;""> </div>","null","FL","learning/Slide68.JPG","That was a wug.","",""
"","image-keyboard-response","211","97246541","0.0-6.0-0.68","FL","7jnze5y1xt","1920","1080","de","er07rg24","null","","","","","","","","learning/Slide69.JPG","null","","","","",""
"","html-keyboard-response","212","97247694","0.0-6.0-1.68","FL","7jnze5y1xt","1920","1080","de","er07rg24","null","","","","learningBlock1","","","","That was a tob.","null","","","","",""
"","html-keyboard-response","213","97248696","0.0-6.0-2.68","FL","7jnze5y1xt","1920","1080","de","er07rg24","null","","","","learningBlock1","","","","<div style=""font-size:60px;""> </div>","null","FL","learning/Slide69.JPG","That was a tob.","",""
"","image-keyboard-response","214","97248872","0.0-6.0-0.69","FL","7jnze5y1xt","1920","1080","de","er07rg24","null","","","","","","","","learning/Slide70.JPG","null","","","","",""
"","html-keyboard-response","215","97250024","0.0-6.0-1.69","FL","7jnze5y1xt","1920","1080","de","er07rg24","null","","","","learningBlock1","","","","That was a dep.","null","","","","",""
"","html-keyboard-response","216","97251026","0.0-6.0-2.69","FL","7jnze5y1xt","1920","1080","de","er07rg24","null","","","","learningBlock1","","","","<div style=""font-size:60px;""> </div>","null","FL","learning/Slide70.JPG","That was a dep.","",""
"","image-keyboard-response","217","97251202","0.0-6.0-0.70","FL","7jnze5y1xt","1920","1080","de","er07rg24","null","","","","","","","","learning/Slide71.JPG","null","","","","",""
"","html-keyboard-response","218","97252355","0.0-6.0-1.70","FL","7jnze5y1xt","1920","1080","de","er07rg24","null","","","","learningBlock1","","","","That was a wug.","null","","","","",""
"","html-keyboard-response","219","97253356","0.0-6.0-2.70","FL","7jnze5y1xt","1920","1080","de","er07rg24","null","","","","learningBlock1","","","","<div style=""font-size:60px;""> </div>","null","FL","learning/Slide71.JPG","That was a wug.","",""
"","image-keyboard-response","220","97253532","0.0-6.0-0.71","FL","7jnze5y1xt","1920","1080","de","er07rg24","null","","","","","","","","learning/Slide72.JPG","null","","","","",""
"","html-keyboard-response","221","97254684","0.0-6.0-1.71","FL","7jnze5y1xt","1920","1080","de","er07rg24","null","","","","learningBlock1","","","","That was a bim.","null","","","","",""
"","html-keyboard-response","222","97255687","0.0-6.0-2.71","FL","7jnze5y1xt","1920","1080","de","er07rg24","null","","","","learningBlock1","","","","<div style=""font-size:60px;""> </div>","null","FL","learning/Slide72.JPG","That was a bim.","",""
"","image-keyboard-response","223","97255863","0.0-6.0-0.72","FL","7jnze5y1xt","1920","1080","de","er07rg24","null","","","","","","","","learning/Slide73.JPG","null","","","","",""
"","html-keyboard-response","224","97257015","0.0-6.0-1.72","FL","7jnze5y1xt","1920","1080","de","er07rg24","null","","","","learningBlock1","","","","That was a wug.","null","","","","",""
"","html-keyboard-response","225","97258016","0.0-6.0-2.72","FL","7jnze5y1xt","1920","1080","de","er07rg24","null","","","","learningBlock1","","","","<div style=""font-size:60px;""> </div>","null","FL","learning/Slide73.JPG","That was a wug.","",""
"","image-keyboard-response","226","97258193","0.0-6.0-0.73","FL","7jnze5y1xt","1920","1080","de","er07rg24","null","","","","","","","","learning/Slide74.JPG","null","","","","",""
"","html-keyboard-response","227","97259344","0.0-6.0-1.73","FL","7jnze5y1xt","1920","1080","de","er07rg24","null","","","","learningBlock1","","","","That was a dep.","null","","","","",""
"","html-keyboard-response","228","97260346","0.0-6.0-2.73","FL","7jnze5y1xt","1920","1080","de","er07rg24","null","","","","learningBlock1","","","","<div style=""font-size:60px;""> </div>","null","FL","learning/Slide74.JPG","That was a dep.","",""
"","image-keyboard-response","229","97260523","0.0-6.0-0.74","FL","7jnze5y1xt","1920","1080","de","er07rg24","null","","","","","","","","learning/Slide75.JPG","null","","","","",""
"","html-keyboard-response","230","97261675","0.0-6.0-1.74","FL","7jnze5y1xt","1920","1080","de","er07rg24","null","","","","learningBlock1","","","","That was a tob.","null","","","","",""
"","html-keyboard-response","231","97262676","0.0-6.0-2.74","FL","7jnze5y1xt","1920","1080","de","er07rg24","null","","","","learningBlock1","","","","<div style=""font-size:60px;""> </div>","null","FL","learning/Slide75.JPG","That was a tob.","",""
"","image-keyboard-response","232","97262853","0.0-6.0-0.75","FL","7jnze5y1xt","1920","1080","de","er07rg24","null","","","","","","","","learning/Slide76.JPG","null","","","","",""
"","html-keyboard-response","233","97264005","0.0-6.0-1.75","FL","7jnze5y1xt","1920","1080","de","er07rg24","null","","","","learningBlock1","","","","That was a bim.","null","","","","",""
"","html-keyboard-response","234","97265005","0.0-6.0-2.75","FL","7jnze5y1xt","1920","1080","de","er07rg24","null","","","","learningBlock1","","","","<div style=""font-size:60px;""> </div>","null","FL","learning/Slide76.JPG","That was a bim.","",""
"","image-keyboard-response","235","97265182","0.0-6.0-0.76","FL","7jnze5y1xt","1920","1080","de","er07rg24","null","","","","","","","","learning/Slide77.JPG","null","","","","",""
"","html-keyboard-response","236","97266333","0.0-6.0-1.76","FL","7jnze5y1xt","1920","1080","de","er07rg24","null","","","","learningBlock1","","","","That was a tob.","null","","","","",""
"","html-keyboard-response","237","97267335","0.0-6.0-2.76","FL","7jnze5y1xt","1920","1080","de","er07rg24","null","","","","learningBlock1","","","","<div style=""font-size:60px;""> </div>","null","FL","learning/Slide77.JPG","That was a tob.","",""
"","image-keyboard-response","238","97267512","0.0-6.0-0.77","FL","7jnze5y1xt","1920","1080","de","er07rg24","null","","","","","","","","learning/Slide78.JPG","null","","","","",""
"","html-keyboard-response","239","97268664","0.0-6.0-1.77","FL","7jnze5y1xt","1920","1080","de","er07rg24","null","","","","learningBlock1","","","","That was a wug.","null","","","","",""
"","html-keyboard-response","240","97269665","0.0-6.0-2.77","FL","7jnze5y1xt","1920","1080","de","er07rg24","null","","","","learningBlock1","","","","<div style=""font-size:60px;""> </div>","null","FL","learning/Slide78.JPG","That was a wug.","",""
"","image-keyboard-response","241","97269842","0.0-6.0-0.78","FL","7jnze5y1xt","1920","1080","de","er07rg24","null","","","","","","","","learning/Slide79.JPG","null","","","","",""
"","html-keyboard-response","242","97270993","0.0-6.0-1.78","FL","7jnze5y1xt","1920","1080","de","er07rg24","null","","","","learningBlock1","","","","That was a bim.","null","","","","",""
"","html-keyboard-response","243","97271996","0.0-6.0-2.78","FL","7jnze5y1xt","1920","1080","de","er07rg24","null","","","","learningBlock1","","","","<div style=""font-size:60px;""> </div>","null","FL","learning/Slide79.JPG","That was a bim.","",""
"","image-keyboard-response","244","97272172","0.0-6.0-0.79","FL","7jnze5y1xt","1920","1080","de","er07rg24","null","","","","","","","","learning/Slide80.JPG","null","","","","",""
"","html-keyboard-response","245","97273323","0.0-6.0-1.79","FL","7jnze5y1xt","1920","1080","de","er07rg24","null","","","","learningBlock1","","","","That was a tob.","null","","","","",""
"","html-keyboard-response","246","97274325","0.0-6.0-2.79","FL","7jnze5y1xt","1920","1080","de","er07rg24","null","","","","learningBlock1","","","","<div style=""font-size:60px;""> </div>","null","FL","learning/Slide80.JPG","That was a tob.","",""
"","instructions","247","97311084","0.0-7.0","FL","7jnze5y1xt","1920","1080","de","er07rg24","NA","","","[{""page_index"":0,""viewing_time"":36758}]","instructions","","","","","","","","","",""
"","image-keyboard-response","248","97311262","0.0-8.0-0.0","FL","7jnze5y1xt","1920","1080","de","er07rg24","null","","","","","","","","learning/Slide81.JPG","null","","","","",""
"","html-keyboard-response","249","97312413","0.0-8.0-1.0","FL","7jnze5y1xt","1920","1080","de","er07rg24","null","","","","learningBlock2","","","","That was a wug.","null","","","","",""
"","html-keyboard-response","250","97313414","0.0-8.0-2.0","FL","7jnze5y1xt","1920","1080","de","er07rg24","null","","","","learningBlock2","","","","<div style=""font-size:60px;""> </div>","null","FL","learning/Slide81.JPG","That was a wug.","",""
"","image-keyboard-response","251","97313592","0.0-8.0-0.1","FL","7jnze5y1xt","1920","1080","de","er07rg24","null","","","","","","","","learning/Slide82.JPG","null","","","","",""
"","html-keyboard-response","252","97314743","0.0-8.0-1.1","FL","7jnze5y1xt","1920","1080","de","er07rg24","null","","","","learningBlock2","","","","That was a bim.","null","","","","",""
"","html-keyboard-response","253","97315745","0.0-8.0-2.1","FL","7jnze5y1xt","1920","1080","de","er07rg24","null","","","","learningBlock2","","","","<div style=""font-size:60px;""> </div>","null","FL","learning/Slide82.JPG","That was a bim.","",""
"","image-keyboard-response","254","97315921","0.0-8.0-0.2","FL","7jnze5y1xt","1920","1080","de","er07rg24","null","","","","","","","","learning/Slide83.JPG","null","","","","",""
"","html-keyboard-response","255","97317073","0.0-8.0-1.2","FL","7jnze5y1xt","1920","1080","de","er07rg24","null","","","","learningBlock2","","","","That was a wug.","null","","","","",""
"","html-keyboard-response","256","97318074","0.0-8.0-2.2","FL","7jnze5y1xt","1920","1080","de","er07rg24","null","","","","learningBlock2","","","","<div style=""font-size:60px;""> </div>","null","FL","learning/Slide83.JPG","That was a wug.","",""
"","image-keyboard-response","257","97318251","0.0-8.0-0.3","FL","7jnze5y1xt","1920","1080","de","er07rg24","null","","","","","","","","learning/Slide84.JPG","null","","","","",""
"","html-keyboard-response","258","97319402","0.0-8.0-1.3","FL","7jnze5y1xt","1920","1080","de","er07rg24","null","","","","learningBlock2","","","","That was a dep.","null","","","","",""
"","html-keyboard-response","259","97320403","0.0-8.0-2.3","FL","7jnze5y1xt","1920","1080","de","er07rg24","null","","","","learningBlock2","","","","<div style=""font-size:60px;""> </div>","null","FL","learning/Slide84.JPG","That was a dep.","",""
"","image-keyboard-response","260","97320580","0.0-8.0-0.4","FL","7jnze5y1xt","1920","1080","de","er07rg24","null","","","","","","","","learning/Slide85.JPG","null","","","","",""
"","html-keyboard-response","261","97321732","0.0-8.0-1.4","FL","7jnze5y1xt","1920","1080","de","er07rg24","null","","","","learningBlock2","","","","That was a bim.","null","","","","",""
"","html-keyboard-response","262","97322734","0.0-8.0-2.4","FL","7jnze5y1xt","1920","1080","de","er07rg24","null","","","","learningBlock2","","","","<div style=""font-size:60px;""> </div>","null","FL","learning/Slide85.JPG","That was a bim.","",""
"","image-keyboard-response","263","97322910","0.0-8.0-0.5","FL","7jnze5y1xt","1920","1080","de","er07rg24","null","","","","","","","","learning/Slide86.JPG","null","","","","",""
"","html-keyboard-response","264","97324062","0.0-8.0-1.5","FL","7jnze5y1xt","1920","1080","de","er07rg24","null","","","","learningBlock2","","","","That was a tob.","null","","","","",""
"","html-keyboard-response","265","97325064","0.0-8.0-2.5","FL","7jnze5y1xt","1920","1080","de","er07rg24","null","","","","learningBlock2","","","","<div style=""font-size:60px;""> </div>","null","FL","learning/Slide86.JPG","That was a tob.","",""
"","image-keyboard-response","266","97325240","0.0-8.0-0.6","FL","7jnze5y1xt","1920","1080","de","er07rg24","null","","","","","","","","learning/Slide87.JPG","null","","","","",""
"","html-keyboard-response","267","97326393","0.0-8.0-1.6","FL","7jnze5y1xt","1920","1080","de","er07rg24","null","","","","learningBlock2","","","","That was a wug.","null","","","","",""
"","html-keyboard-response","268","97327394","0.0-8.0-2.6","FL","7jnze5y1xt","1920","1080","de","er07rg24","null","","","","learningBlock2","","","","<div style=""font-size:60px;""> </div>","null","FL","learning/Slide87.JPG","That was a wug.","",""
"","image-keyboard-response","269","97327571","0.0-8.0-0.7","FL","7jnze5y1xt","1920","1080","de","er07rg24","null","","","","","","","","learning/Slide88.JPG","null","","","","",""
"","html-keyboard-response","270","97328723","0.0-8.0-1.7","FL","7jnze5y1xt","1920","1080","de","er07rg24","null","","","","learningBlock2","","","","That was a tob.","null","","","","",""
"","html-keyboard-response","271","97329723","0.0-8.0-2.7","FL","7jnze5y1xt","1920","1080","de","er07rg24","null","","","","learningBlock2","","","","<div style=""font-size:60px;""> </div>","null","FL","learning/Slide88.JPG","That was a tob.","",""
"","image-keyboard-response","272","97329900","0.0-8.0-0.8","FL","7jnze5y1xt","1920","1080","de","er07rg24","null","","","","","","","","learning/Slide89.JPG","null","","","","",""
"","html-keyboard-response","273","97331052","0.0-8.0-1.8","FL","7jnze5y1xt","1920","1080","de","er07rg24","null","","","","learningBlock2","","","","That was a bim.","null","","","","",""
"","html-keyboard-response","274","97332054","0.0-8.0-2.8","FL","7jnze5y1xt","1920","1080","de","er07rg24","null","","","","learningBlock2","","","","<div style=""font-size:60px;""> </div>","null","FL","learning/Slide89.JPG","That was a bim.","",""
"","image-keyboard-response","275","97332230","0.0-8.0-0.9","FL","7jnze5y1xt","1920","1080","de","er07rg24","null","","","","","","","","learning/Slide90.JPG","null","","","","",""
"","html-keyboard-response","276","97333383","0.0-8.0-1.9","FL","7jnze5y1xt","1920","1080","de","er07rg24","null","","","","learningBlock2","","","","That was a dep.","null","","","","",""
"","html-keyboard-response","277","97334384","0.0-8.0-2.9","FL","7jnze5y1xt","1920","1080","de","er07rg24","null","","","","learningBlock2","","","","<div style=""font-size:60px;""> </div>","null","FL","learning/Slide90.JPG","That was a dep.","",""
"","image-keyboard-response","278","97334561","0.0-8.0-0.10","FL","7jnze5y1xt","1920","1080","de","er07rg24","null","","","","","","","","learning/Slide91.JPG","null","","","","",""
"","html-keyboard-response","279","97335713","0.0-8.0-1.10","FL","7jnze5y1xt","1920","1080","de","er07rg24","null","","","","learningBlock2","","","","That was a wug.","null","","","","",""
"","html-keyboard-response","280","97336715","0.0-8.0-2.10","FL","7jnze5y1xt","1920","1080","de","er07rg24","null","","","","learningBlock2","","","","<div style=""font-size:60px;""> </div>","null","FL","learning/Slide91.JPG","That was a wug.","",""
"","image-keyboard-response","281","97336892","0.0-8.0-0.11","FL","7jnze5y1xt","1920","1080","de","er07rg24","null","","","","","","","","learning/Slide92.JPG","null","","","","",""
"","html-keyboard-response","282","97338044","0.0-8.0-1.11","FL","7jnze5y1xt","1920","1080","de","er07rg24","null","","","","learningBlock2","","","","That was a tob.","null","","","","",""
"","html-keyboard-response","283","97339046","0.0-8.0-2.11","FL","7jnze5y1xt","1920","1080","de","er07rg24","null","","","","learningBlock2","","","","<div style=""font-size:60px;""> </div>","null","FL","learning/Slide92.JPG","That was a tob.","",""
"","image-keyboard-response","284","97339222","0.0-8.0-0.12","FL","7jnze5y1xt","1920","1080","de","er07rg24","null","","","","","","","","learning/Slide93.JPG","null","","","","",""
"","html-keyboard-response","285","97340374","0.0-8.0-1.12","FL","7jnze5y1xt","1920","1080","de","er07rg24","null","","","","learningBlock2","","","","That was a bim.","null","","","","",""
"","html-keyboard-response","286","97341377","0.0-8.0-2.12","FL","7jnze5y1xt","1920","1080","de","er07rg24","null","","","","learningBlock2","","","","<div style=""font-size:60px;""> </div>","null","FL","learning/Slide93.JPG","That was a bim.","",""
"","image-keyboard-response","287","97341552","0.0-8.0-0.13","FL","7jnze5y1xt","1920","1080","de","er07rg24","null","","","","","","","","learning/Slide94.JPG","null","","","","",""
"","html-keyboard-response","288","97342705","0.0-8.0-1.13","FL","7jnze5y1xt","1920","1080","de","er07rg24","null","","","","learningBlock2","","","","That was a tob.","null","","","","",""
"","html-keyboard-response","289","97343707","0.0-8.0-2.13","FL","7jnze5y1xt","1920","1080","de","er07rg24","null","","","","learningBlock2","","","","<div style=""font-size:60px;""> </div>","null","FL","learning/Slide94.JPG","That was a tob.","",""
"","image-keyboard-response","290","97343883","0.0-8.0-0.14","FL","7jnze5y1xt","1920","1080","de","er07rg24","null","","","","","","","","learning/Slide95.JPG","null","","","","",""
"","html-keyboard-response","291","97345034","0.0-8.0-1.14","FL","7jnze5y1xt","1920","1080","de","er07rg24","null","","","","learningBlock2","","","","That was a wug.","null","","","","",""
"","html-keyboard-response","292","97346035","0.0-8.0-2.14","FL","7jnze5y1xt","1920","1080","de","er07rg24","null","","","","learningBlock2","","","","<div style=""font-size:60px;""> </div>","null","FL","learning/Slide95.JPG","That was a wug.","",""
"","image-keyboard-response","293","97346211","0.0-8.0-0.15","FL","7jnze5y1xt","1920","1080","de","er07rg24","null","","","","","","","","learning/Slide96.JPG","null","","","","",""
"","html-keyboard-response","294","97347364","0.0-8.0-1.15","FL","7jnze5y1xt","1920","1080","de","er07rg24","null","","","","learningBlock2","","","","That was a tob.","null","","","","",""
"","html-keyboard-response","295","97348365","0.0-8.0-2.15","FL","7jnze5y1xt","1920","1080","de","er07rg24","null","","","","learningBlock2","","","","<div style=""font-size:60px;""> </div>","null","FL","learning/Slide96.JPG","That was a tob.","",""
"","image-keyboard-response","296","97348541","0.0-8.0-0.16","FL","7jnze5y1xt","1920","1080","de","er07rg24","null","","","","","","","","learning/Slide97.JPG","null","","","","",""
"","html-keyboard-response","297","97349693","0.0-8.0-1.16","FL","7jnze5y1xt","1920","1080","de","er07rg24","null","","","","learningBlock2","","","","That was a dep.","null","","","","",""
"","html-keyboard-response","298","97350694","0.0-8.0-2.16","FL","7jnze5y1xt","1920","1080","de","er07rg24","null","","","","learningBlock2","","","","<div style=""font-size:60px;""> </div>","null","FL","learning/Slide97.JPG","That was a dep.","",""
"","image-keyboard-response","299","97350871","0.0-8.0-0.17","FL","7jnze5y1xt","1920","1080","de","er07rg24","null","","","","","","","","learning/Slide98.JPG","null","","","","",""
"","html-keyboard-response","300","97352022","0.0-8.0-1.17","FL","7jnze5y1xt","1920","1080","de","er07rg24","null","","","","learningBlock2","","","","That was a bim.","null","","","","",""
"","html-keyboard-response","301","97353024","0.0-8.0-2.17","FL","7jnze5y1xt","1920","1080","de","er07rg24","null","","","","learningBlock2","","","","<div style=""font-size:60px;""> </div>","null","FL","learning/Slide98.JPG","That was a bim.","",""
"","image-keyboard-response","302","97353200","0.0-8.0-0.18","FL","7jnze5y1xt","1920","1080","de","er07rg24","null","","","","","","","","learning/Slide99.JPG","null","","","","",""
"","html-keyboard-response","303","97354352","0.0-8.0-1.18","FL","7jnze5y1xt","1920","1080","de","er07rg24","null","","","","learningBlock2","","","","That was a dep.","null","","","","",""
"","html-keyboard-response","304","97355353","0.0-8.0-2.18","FL","7jnze5y1xt","1920","1080","de","er07rg24","null","","","","learningBlock2","","","","<div style=""font-size:60px;""> </div>","null","FL","learning/Slide99.JPG","That was a dep.","",""
"","image-keyboard-response","305","97355530","0.0-8.0-0.19","FL","7jnze5y1xt","1920","1080","de","er07rg24","null","","","","","","","","learning/Slide100.JPG","null","","","","",""
"","html-keyboard-response","306","97356682","0.0-8.0-1.19","FL","7jnze5y1xt","1920","1080","de","er07rg24","null","","","","learningBlock2","","","","That was a bim.","null","","","","",""
"","html-keyboard-response","307","97357683","0.0-8.0-2.19","FL","7jnze5y1xt","1920","1080","de","er07rg24","null","","","","learningBlock2","","","","<div style=""font-size:60px;""> </div>","null","FL","learning/Slide100.JPG","That was a bim.","",""
"","image-keyboard-response","308","97357859","0.0-8.0-0.20","FL","7jnze5y1xt","1920","1080","de","er07rg24","null","","","","","","","","learning/Slide101.JPG","null","","","","",""
"","html-keyboard-response","309","97359010","0.0-8.0-1.20","FL","7jnze5y1xt","1920","1080","de","er07rg24","null","","","","learningBlock2","","","","That was a tob.","null","","","","",""
"","html-keyboard-response","310","97360012","0.0-8.0-2.20","FL","7jnze5y1xt","1920","1080","de","er07rg24","null","","","","learningBlock2","","","","<div style=""font-size:60px;""> </div>","null","FL","learning/Slide101.JPG","That was a tob.","",""
"","image-keyboard-response","311","97360188","0.0-8.0-0.21","FL","7jnze5y1xt","1920","1080","de","er07rg24","null","","","","","","","","learning/Slide102.JPG","null","","","","",""
"","html-keyboard-response","312","97361340","0.0-8.0-1.21","FL","7jnze5y1xt","1920","1080","de","er07rg24","null","","","","learningBlock2","","","","That was a bim.","null","","","","",""
"","html-keyboard-response","313","97362341","0.0-8.0-2.21","FL","7jnze5y1xt","1920","1080","de","er07rg24","null","","","","learningBlock2","","","","<div style=""font-size:60px;""> </div>","null","FL","learning/Slide102.JPG","That was a bim.","",""
"","image-keyboard-response","314","97362518","0.0-8.0-0.22","FL","7jnze5y1xt","1920","1080","de","er07rg24","null","","","","","","","","learning/Slide103.JPG","null","","","","",""
"","html-keyboard-response","315","97363669","0.0-8.0-1.22","FL","7jnze5y1xt","1920","1080","de","er07rg24","null","","","","learningBlock2","","","","That was a dep.","null","","","","",""
"","html-keyboard-response","316","97364671","0.0-8.0-2.22","FL","7jnze5y1xt","1920","1080","de","er07rg24","null","","","","learningBlock2","","","","<div style=""font-size:60px;""> </div>","null","FL","learning/Slide103.JPG","That was a dep.","",""
"","image-keyboard-response","317","97364847","0.0-8.0-0.23","FL","7jnze5y1xt","1920","1080","de","er07rg24","null","","","","","","","","learning/Slide104.JPG","null","","","","",""
"","html-keyboard-response","318","97365999","0.0-8.0-1.23","FL","7jnze5y1xt","1920","1080","de","er07rg24","null","","","","learningBlock2","","","","That was a tob.","null","","","","",""
"","html-keyboard-response","319","97367000","0.0-8.0-2.23","FL","7jnze5y1xt","1920","1080","de","er07rg24","null","","","","learningBlock2","","","","<div style=""font-size:60px;""> </div>","null","FL","learning/Slide104.JPG","That was a tob.","",""
"","image-keyboard-response","320","97367176","0.0-8.0-0.24","FL","7jnze5y1xt","1920","1080","de","er07rg24","null","","","","","","","","learning/Slide105.JPG","null","","","","",""
"","html-keyboard-response","321","97368328","0.0-8.0-1.24","FL","7jnze5y1xt","1920","1080","de","er07rg24","null","","","","learningBlock2","","","","That was a dep.","null","","","","",""
"","html-keyboard-response","322","97369330","0.0-8.0-2.24","FL","7jnze5y1xt","1920","1080","de","er07rg24","null","","","","learningBlock2","","","","<div style=""font-size:60px;""> </div>","null","FL","learning/Slide105.JPG","That was a dep.","",""
"","image-keyboard-response","323","97369506","0.0-8.0-0.25","FL","7jnze5y1xt","1920","1080","de","er07rg24","null","","","","","","","","learning/Slide106.JPG","null","","","","",""
"","html-keyboard-response","324","97370659","0.0-8.0-1.25","FL","7jnze5y1xt","1920","1080","de","er07rg24","null","","","","learningBlock2","","","","That was a wug.","null","","","","",""
"","html-keyboard-response","325","97371660","0.0-8.0-2.25","FL","7jnze5y1xt","1920","1080","de","er07rg24","null","","","","learningBlock2","","","","<div style=""font-size:60px;""> </div>","null","FL","learning/Slide106.JPG","That was a wug.","",""
"","image-keyboard-response","326","97371837","0.0-8.0-0.26","FL","7jnze5y1xt","1920","1080","de","er07rg24","null","","","","","","","","learning/Slide107.JPG","null","","","","",""
"","html-keyboard-response","327","97372988","0.0-8.0-1.26","FL","7jnze5y1xt","1920","1080","de","er07rg24","null","","","","learningBlock2","","","","That was a bim.","null","","","","",""
"","html-keyboard-response","328","97373990","0.0-8.0-2.26","FL","7jnze5y1xt","1920","1080","de","er07rg24","null","","","","learningBlock2","","","","<div style=""font-size:60px;""> </div>","null","FL","learning/Slide107.JPG","That was a bim.","",""
"","image-keyboard-response","329","97374166","0.0-8.0-0.27","FL","7jnze5y1xt","1920","1080","de","er07rg24","null","","","","","","","","learning/Slide108.JPG","null","","","","",""
"","html-keyboard-response","330","97375318","0.0-8.0-1.27","FL","7jnze5y1xt","1920","1080","de","er07rg24","null","","","","learningBlock2","","","","That was a dep.","null","","","","",""
"","html-keyboard-response","331","97376319","0.0-8.0-2.27","FL","7jnze5y1xt","1920","1080","de","er07rg24","null","","","","learningBlock2","","","","<div style=""font-size:60px;""> </div>","null","FL","learning/Slide108.JPG","That was a dep.","",""
"","image-keyboard-response","332","97376496","0.0-8.0-0.28","FL","7jnze5y1xt","1920","1080","de","er07rg24","null","","","","","","","","learning/Slide109.JPG","null","","","","",""
"","html-keyboard-response","333","97377648","0.0-8.0-1.28","FL","7jnze5y1xt","1920","1080","de","er07rg24","null","","","","learningBlock2","","","","That was a wug.","null","","","","",""
"","html-keyboard-response","334","97378649","0.0-8.0-2.28","FL","7jnze5y1xt","1920","1080","de","er07rg24","null","","","","learningBlock2","","","","<div style=""font-size:60px;""> </div>","null","FL","learning/Slide109.JPG","That was a wug.","",""
"","image-keyboard-response","335","97378825","0.0-8.0-0.29","FL","7jnze5y1xt","1920","1080","de","er07rg24","null","","","","","","","","learning/Slide110.JPG","null","","","","",""
"","html-keyboard-response","336","97379976","0.0-8.0-1.29","FL","7jnze5y1xt","1920","1080","de","er07rg24","null","","","","learningBlock2","","","","That was a bim.","null","","","","",""
"","html-keyboard-response","337","97380978","0.0-8.0-2.29","FL","7jnze5y1xt","1920","1080","de","er07rg24","null","","","","learningBlock2","","","","<div style=""font-size:60px;""> </div>","null","FL","learning/Slide110.JPG","That was a bim.","",""
"","image-keyboard-response","338","97381155","0.0-8.0-0.30","FL","7jnze5y1xt","1920","1080","de","er07rg24","null","","","","","","","","learning/Slide111.JPG","null","","","","",""
"","html-keyboard-response","339","97382306","0.0-8.0-1.30","FL","7jnze5y1xt","1920","1080","de","er07rg24","null","","","","learningBlock2","","","","That was a tob.","null","","","","",""
"","html-keyboard-response","340","97383308","0.0-8.0-2.30","FL","7jnze5y1xt","1920","1080","de","er07rg24","null","","","","learningBlock2","","","","<div style=""font-size:60px;""> </div>","null","FL","learning/Slide111.JPG","That was a tob.","",""
"","image-keyboard-response","341","97383485","0.0-8.0-0.31","FL","7jnze5y1xt","1920","1080","de","er07rg24","null","","","","","","","","learning/Slide112.JPG","null","","","","",""
"","html-keyboard-response","342","97384636","0.0-8.0-1.31","FL","7jnze5y1xt","1920","1080","de","er07rg24","null","","","","learningBlock2","","","","That was a wug.","null","","","","",""
"","html-keyboard-response","343","97385637","0.0-8.0-2.31","FL","7jnze5y1xt","1920","1080","de","er07rg24","null","","","","learningBlock2","","","","<div style=""font-size:60px;""> </div>","null","FL","learning/Slide112.JPG","That was a wug.","",""
"","image-keyboard-response","344","97385813","0.0-8.0-0.32","FL","7jnze5y1xt","1920","1080","de","er07rg24","null","","","","","","","","learning/Slide113.JPG","null","","","","",""
"","html-keyboard-response","345","97386965","0.0-8.0-1.32","FL","7jnze5y1xt","1920","1080","de","er07rg24","null","","","","learningBlock2","","","","That was a tob.","null","","","","",""
"","html-keyboard-response","346","97387967","0.0-8.0-2.32","FL","7jnze5y1xt","1920","1080","de","er07rg24","null","","","","learningBlock2","","","","<div style=""font-size:60px;""> </div>","null","FL","learning/Slide113.JPG","That was a tob.","",""
"","image-keyboard-response","347","97388143","0.0-8.0-0.33","FL","7jnze5y1xt","1920","1080","de","er07rg24","null","","","","","","","","learning/Slide114.JPG","null","","","","",""
"","html-keyboard-response","348","97389295","0.0-8.0-1.33","FL","7jnze5y1xt","1920","1080","de","er07rg24","null","","","","learningBlock2","","","","That was a wug.","null","","","","",""
"","html-keyboard-response","349","97390296","0.0-8.0-2.33","FL","7jnze5y1xt","1920","1080","de","er07rg24","null","","","","learningBlock2","","","","<div style=""font-size:60px;""> </div>","null","FL","learning/Slide114.JPG","That was a wug.","",""
"","image-keyboard-response","350","97390472","0.0-8.0-0.34","FL","7jnze5y1xt","1920","1080","de","er07rg24","null","","","","","","","","learning/Slide115.JPG","null","","","","",""
"","html-keyboard-response","351","97391624","0.0-8.0-1.34","FL","7jnze5y1xt","1920","1080","de","er07rg24","null","","","","learningBlock2","","","","That was a bim.","null","","","","",""
"","html-keyboard-response","352","97392626","0.0-8.0-2.34","FL","7jnze5y1xt","1920","1080","de","er07rg24","null","","","","learningBlock2","","","","<div style=""font-size:60px;""> </div>","null","FL","learning/Slide115.JPG","That was a bim.","",""
"","image-keyboard-response","353","97392802","0.0-8.0-0.35","FL","7jnze5y1xt","1920","1080","de","er07rg24","null","","","","","","","","learning/Slide116.JPG","null","","","","",""
"","html-keyboard-response","354","97393954","0.0-8.0-1.35","FL","7jnze5y1xt","1920","1080","de","er07rg24","null","","","","learningBlock2","","","","That was a dep.","null","","","","",""
"","html-keyboard-response","355","97394956","0.0-8.0-2.35","FL","7jnze5y1xt","1920","1080","de","er07rg24","null","","","","learningBlock2","","","","<div style=""font-size:60px;""> </div>","null","FL","learning/Slide116.JPG","That was a dep.","",""
"","image-keyboard-response","356","97395132","0.0-8.0-0.36","FL","7jnze5y1xt","1920","1080","de","er07rg24","null","","","","","","","","learning/Slide117.JPG","null","","","","",""
"","html-keyboard-response","357","97396284","0.0-8.0-1.36","FL","7jnze5y1xt","1920","1080","de","er07rg24","null","","","","learningBlock2","","","","That was a tob.","null","","","","",""
"","html-keyboard-response","358","97397285","0.0-8.0-2.36","FL","7jnze5y1xt","1920","1080","de","er07rg24","null","","","","learningBlock2","","","","<div style=""font-size:60px;""> </div>","null","FL","learning/Slide117.JPG","That was a tob.","",""
"","image-keyboard-response","359","97397462","0.0-8.0-0.37","FL","7jnze5y1xt","1920","1080","de","er07rg24","null","","","","","","","","learning/Slide118.JPG","null","","","","",""
"","html-keyboard-response","360","97398613","0.0-8.0-1.37","FL","7jnze5y1xt","1920","1080","de","er07rg24","null","","","","learningBlock2","","","","That was a dep.","null","","","","",""
"","html-keyboard-response","361","97399615","0.0-8.0-2.37","FL","7jnze5y1xt","1920","1080","de","er07rg24","null","","","","learningBlock2","","","","<div style=""font-size:60px;""> </div>","null","FL","learning/Slide118.JPG","That was a dep.","",""
"","image-keyboard-response","362","97399792","0.0-8.0-0.38","FL","7jnze5y1xt","1920","1080","de","er07rg24","null","","","","","","","","learning/Slide119.JPG","null","","","","",""
"","html-keyboard-response","363","97400944","0.0-8.0-1.38","FL","7jnze5y1xt","1920","1080","de","er07rg24","null","","","","learningBlock2","","","","That was a wug.","null","","","","",""
"","html-keyboard-response","364","97401945","0.0-8.0-2.38","FL","7jnze5y1xt","1920","1080","de","er07rg24","null","","","","learningBlock2","","","","<div style=""font-size:60px;""> </div>","null","FL","learning/Slide119.JPG","That was a wug.","",""
"","image-keyboard-response","365","97402121","0.0-8.0-0.39","FL","7jnze5y1xt","1920","1080","de","er07rg24","null","","","","","","","","learning/Slide120.JPG","null","","","","",""
"","html-keyboard-response","366","97403273","0.0-8.0-1.39","FL","7jnze5y1xt","1920","1080","de","er07rg24","null","","","","learningBlock2","","","","That was a dep.","null","","","","",""
"","html-keyboard-response","367","97404274","0.0-8.0-2.39","FL","7jnze5y1xt","1920","1080","de","er07rg24","null","","","","learningBlock2","","","","<div style=""font-size:60px;""> </div>","null","FL","learning/Slide120.JPG","That was a dep.","",""
"","image-keyboard-response","368","97404450","0.0-8.0-0.40","FL","7jnze5y1xt","1920","1080","de","er07rg24","null","","","","","","","","learning/Slide121.JPG","null","","","","",""
"","html-keyboard-response","369","97405602","0.0-8.0-1.40","FL","7jnze5y1xt","1920","1080","de","er07rg24","null","","","","learningBlock2","","","","That was a bim.","null","","","","",""
"","html-keyboard-response","370","97406604","0.0-8.0-2.40","FL","7jnze5y1xt","1920","1080","de","er07rg24","null","","","","learningBlock2","","","","<div style=""font-size:60px;""> </div>","null","FL","learning/Slide121.JPG","That was a bim.","",""
"","image-keyboard-response","371","97406781","0.0-8.0-0.41","FL","7jnze5y1xt","1920","1080","de","er07rg24","null","","","","","","","","learning/Slide122.JPG","null","","","","",""
"","html-keyboard-response","372","97407933","0.0-8.0-1.41","FL","7jnze5y1xt","1920","1080","de","er07rg24","null","","","","learningBlock2","","","","That was a wug.","null","","","","",""
"","html-keyboard-response","373","97408934","0.0-8.0-2.41","FL","7jnze5y1xt","1920","1080","de","er07rg24","null","","","","learningBlock2","","","","<div style=""font-size:60px;""> </div>","null","FL","learning/Slide122.JPG","That was a wug.","",""
"","image-keyboard-response","374","97409110","0.0-8.0-0.42","FL","7jnze5y1xt","1920","1080","de","er07rg24","null","","","","","","","","learning/Slide123.JPG","null","","","","",""
"","html-keyboard-response","375","97410262","0.0-8.0-1.42","FL","7jnze5y1xt","1920","1080","de","er07rg24","null","","","","learningBlock2","","","","That was a bim.","null","","","","",""
"","html-keyboard-response","376","97411263","0.0-8.0-2.42","FL","7jnze5y1xt","1920","1080","de","er07rg24","null","","","","learningBlock2","","","","<div style=""font-size:60px;""> </div>","null","FL","learning/Slide123.JPG","That was a bim.","",""
"","image-keyboard-response","377","97411439","0.0-8.0-0.43","FL","7jnze5y1xt","1920","1080","de","er07rg24","null","","","","","","","","learning/Slide124.JPG","null","","","","",""
"","html-keyboard-response","378","97412591","0.0-8.0-1.43","FL","7jnze5y1xt","1920","1080","de","er07rg24","null","","","","learningBlock2","","","","That was a tob.","null","","","","",""
"","html-keyboard-response","379","97413593","0.0-8.0-2.43","FL","7jnze5y1xt","1920","1080","de","er07rg24","null","","","","learningBlock2","","","","<div style=""font-size:60px;""> </div>","null","FL","learning/Slide124.JPG","That was a tob.","",""
"","image-keyboard-response","380","97413770","0.0-8.0-0.44","FL","7jnze5y1xt","1920","1080","de","er07rg24","null","","","","","","","","learning/Slide125.JPG","null","","","","",""
"","html-keyboard-response","381","97414922","0.0-8.0-1.44","FL","7jnze5y1xt","1920","1080","de","er07rg24","null","","","","learningBlock2","","","","That was a bim.","null","","","","",""
"","html-keyboard-response","382","97415923","0.0-8.0-2.44","FL","7jnze5y1xt","1920","1080","de","er07rg24","null","","","","learningBlock2","","","","<div style=""font-size:60px;""> </div>","null","FL","learning/Slide125.JPG","That was a bim.","",""
"","image-keyboard-response","383","97416101","0.0-8.0-0.45","FL","7jnze5y1xt","1920","1080","de","er07rg24","null","","","","","","","","learning/Slide126.JPG","null","","","","",""
"","html-keyboard-response","384","97417253","0.0-8.0-1.45","FL","7jnze5y1xt","1920","1080","de","er07rg24","null","","","","learningBlock2","","","","That was a tob.","null","","","","",""
"","html-keyboard-response","385","97418254","0.0-8.0-2.45","FL","7jnze5y1xt","1920","1080","de","er07rg24","null","","","","learningBlock2","","","","<div style=""font-size:60px;""> </div>","null","FL","learning/Slide126.JPG","That was a tob.","",""
"","image-keyboard-response","386","97418430","0.0-8.0-0.46","FL","7jnze5y1xt","1920","1080","de","er07rg24","null","","","","","","","","learning/Slide127.JPG","null","","","","",""
"","html-keyboard-response","387","97419582","0.0-8.0-1.46","FL","7jnze5y1xt","1920","1080","de","er07rg24","null","","","","learningBlock2","","","","That was a dep.","null","","","","",""
"","html-keyboard-response","388","97420584","0.0-8.0-2.46","FL","7jnze5y1xt","1920","1080","de","er07rg24","null","","","","learningBlock2","","","","<div style=""font-size:60px;""> </div>","null","FL","learning/Slide127.JPG","That was a dep.","",""
"","image-keyboard-response","389","97420761","0.0-8.0-0.47","FL","7jnze5y1xt","1920","1080","de","er07rg24","null","","","","","","","","learning/Slide128.JPG","null","","","","",""
"","html-keyboard-response","390","97421913","0.0-8.0-1.47","FL","7jnze5y1xt","1920","1080","de","er07rg24","null","","","","learningBlock2","","","","That was a wug.","null","","","","",""
"","html-keyboard-response","391","97422914","0.0-8.0-2.47","FL","7jnze5y1xt","1920","1080","de","er07rg24","null","","","","learningBlock2","","","","<div style=""font-size:60px;""> </div>","null","FL","learning/Slide128.JPG","That was a wug.","",""
"","image-keyboard-response","392","97423092","0.0-8.0-0.48","FL","7jnze5y1xt","1920","1080","de","er07rg24","null","","","","","","","","learning/Slide129.JPG","null","","","","",""
"","html-keyboard-response","393","97424243","0.0-8.0-1.48","FL","7jnze5y1xt","1920","1080","de","er07rg24","null","","","","learningBlock2","","","","That was a tob.","null","","","","",""
"","html-keyboard-response","394","97425245","0.0-8.0-2.48","FL","7jnze5y1xt","1920","1080","de","er07rg24","null","","","","learningBlock2","","","","<div style=""font-size:60px;""> </div>","null","FL","learning/Slide129.JPG","That was a tob.","",""
"","image-keyboard-response","395","97425422","0.0-8.0-0.49","FL","7jnze5y1xt","1920","1080","de","er07rg24","null","","","","","","","","learning/Slide130.JPG","null","","","","",""
"","html-keyboard-response","396","97426574","0.0-8.0-1.49","FL","7jnze5y1xt","1920","1080","de","er07rg24","null","","","","learningBlock2","","","","That was a wug.","null","","","","",""
"","html-keyboard-response","397","97427575","0.0-8.0-2.49","FL","7jnze5y1xt","1920","1080","de","er07rg24","null","","","","learningBlock2","","","","<div style=""font-size:60px;""> </div>","null","FL","learning/Slide130.JPG","That was a wug.","",""
"","image-keyboard-response","398","97427752","0.0-8.0-0.50","FL","7jnze5y1xt","1920","1080","de","er07rg24","null","","","","","","","","learning/Slide131.JPG","null","","","","",""
"","html-keyboard-response","399","97428903","0.0-8.0-1.50","FL","7jnze5y1xt","1920","1080","de","er07rg24","null","","","","learningBlock2","","","","That was a bim.","null","","","","",""
"","html-keyboard-response","400","97429905","0.0-8.0-2.50","FL","7jnze5y1xt","1920","1080","de","er07rg24","null","","","","learningBlock2","","","","<div style=""font-size:60px;""> </div>","null","FL","learning/Slide131.JPG","That was a bim.","",""
"","image-keyboard-response","401","97430082","0.0-8.0-0.51","FL","7jnze5y1xt","1920","1080","de","er07rg24","null","","","","","","","","learning/Slide132.JPG","null","","","","",""
"","html-keyboard-response","402","97431234","0.0-8.0-1.51","FL","7jnze5y1xt","1920","1080","de","er07rg24","null","","","","learningBlock2","","","","That was a dep.","null","","","","",""
"","html-keyboard-response","403","97432236","0.0-8.0-2.51","FL","7jnze5y1xt","1920","1080","de","er07rg24","null","","","","learningBlock2","","","","<div style=""font-size:60px;""> </div>","null","FL","learning/Slide132.JPG","That was a dep.","",""
"","image-keyboard-response","404","97432413","0.0-8.0-0.52","FL","7jnze5y1xt","1920","1080","de","er07rg24","null","","","","","","","","learning/Slide133.JPG","null","","","","",""
"","html-keyboard-response","405","97433565","0.0-8.0-1.52","FL","7jnze5y1xt","1920","1080","de","er07rg24","null","","","","learningBlock2","","","","That was a tob.","null","","","","",""
"","html-keyboard-response","406","97434566","0.0-8.0-2.52","FL","7jnze5y1xt","1920","1080","de","er07rg24","null","","","","learningBlock2","","","","<div style=""font-size:60px;""> </div>","null","FL","learning/Slide133.JPG","That was a tob.","",""
"","image-keyboard-response","407","97434743","0.0-8.0-0.53","FL","7jnze5y1xt","1920","1080","de","er07rg24","null","","","","","","","","learning/Slide134.JPG","null","","","","",""
"","html-keyboard-response","408","97435896","0.0-8.0-1.53","FL","7jnze5y1xt","1920","1080","de","er07rg24","null","","","","learningBlock2","","","","That was a dep.","null","","","","",""
"","html-keyboard-response","409","97436897","0.0-8.0-2.53","FL","7jnze5y1xt","1920","1080","de","er07rg24","null","","","","learningBlock2","","","","<div style=""font-size:60px;""> </div>","null","FL","learning/Slide134.JPG","That was a dep.","",""
"","image-keyboard-response","410","97437075","0.0-8.0-0.54","FL","7jnze5y1xt","1920","1080","de","er07rg24","null","","","","","","","","learning/Slide135.JPG","null","","","","",""
"","html-keyboard-response","411","97438227","0.0-8.0-1.54","FL","7jnze5y1xt","1920","1080","de","er07rg24","null","","","","learningBlock2","","","","That was a tob.","null","","","","",""
"","html-keyboard-response","412","97439229","0.0-8.0-2.54","FL","7jnze5y1xt","1920","1080","de","er07rg24","null","","","","learningBlock2","","","","<div style=""font-size:60px;""> </div>","null","FL","learning/Slide135.JPG","That was a tob.","",""
"","image-keyboard-response","413","97439405","0.0-8.0-0.55","FL","7jnze5y1xt","1920","1080","de","er07rg24","null","","","","","","","","learning/Slide136.JPG","null","","","","",""
"","html-keyboard-response","414","97440559","0.0-8.0-1.55","FL","7jnze5y1xt","1920","1080","de","er07rg24","null","","","","learningBlock2","","","","That was a wug.","null","","","","",""
"","html-keyboard-response","415","97441560","0.0-8.0-2.55","FL","7jnze5y1xt","1920","1080","de","er07rg24","null","","","","learningBlock2","","","","<div style=""font-size:60px;""> </div>","null","FL","learning/Slide136.JPG","That was a wug.","",""
"","image-keyboard-response","416","97441737","0.0-8.0-0.56","FL","7jnze5y1xt","1920","1080","de","er07rg24","null","","","","","","","","learning/Slide137.JPG","null","","","","",""
"","html-keyboard-response","417","97442889","0.0-8.0-1.56","FL","7jnze5y1xt","1920","1080","de","er07rg24","null","","","","learningBlock2","","","","That was a tob.","null","","","","",""
"","html-keyboard-response","418","97443891","0.0-8.0-2.56","FL","7jnze5y1xt","1920","1080","de","er07rg24","null","","","","learningBlock2","","","","<div style=""font-size:60px;""> </div>","null","FL","learning/Slide137.JPG","That was a tob.","",""
"","image-keyboard-response","419","97444068","0.0-8.0-0.57","FL","7jnze5y1xt","1920","1080","de","er07rg24","null","","","","","","","","learning/Slide138.JPG","null","","","","",""
"","html-keyboard-response","420","97445219","0.0-8.0-1.57","FL","7jnze5y1xt","1920","1080","de","er07rg24","null","","","","learningBlock2","","","","That was a bim.","null","","","","",""
"","html-keyboard-response","421","97446221","0.0-8.0-2.57","FL","7jnze5y1xt","1920","1080","de","er07rg24","null","","","","learningBlock2","","","","<div style=""font-size:60px;""> </div>","null","FL","learning/Slide138.JPG","That was a bim.","",""
"","image-keyboard-response","422","97446397","0.0-8.0-0.58","FL","7jnze5y1xt","1920","1080","de","er07rg24","null","","","","","","","","learning/Slide139.JPG","null","","","","",""
"","html-keyboard-response","423","97447549","0.0-8.0-1.58","FL","7jnze5y1xt","1920","1080","de","er07rg24","null","","","","learningBlock2","","","","That was a wug.","null","","","","",""
"","html-keyboard-response","424","97448551","0.0-8.0-2.58","FL","7jnze5y1xt","1920","1080","de","er07rg24","null","","","","learningBlock2","","","","<div style=""font-size:60px;""> </div>","null","FL","learning/Slide139.JPG","That was a wug.","",""
"","image-keyboard-response","425","97448728","0.0-8.0-0.59","FL","7jnze5y1xt","1920","1080","de","er07rg24","null","","","","","","","","learning/Slide140.JPG","null","","","","",""
"","html-keyboard-response","426","97449879","0.0-8.0-1.59","FL","7jnze5y1xt","1920","1080","de","er07rg24","null","","","","learningBlock2","","","","That was a dep.","null","","","","",""
"","html-keyboard-response","427","97450882","0.0-8.0-2.59","FL","7jnze5y1xt","1920","1080","de","er07rg24","null","","","","learningBlock2","","","","<div style=""font-size:60px;""> </div>","null","FL","learning/Slide140.JPG","That was a dep.","",""
"","image-keyboard-response","428","97451058","0.0-8.0-0.60","FL","7jnze5y1xt","1920","1080","de","er07rg24","null","","","","","","","","learning/Slide141.JPG","null","","","","",""
"","html-keyboard-response","429","97452211","0.0-8.0-1.60","FL","7jnze5y1xt","1920","1080","de","er07rg24","null","","","","learningBlock2","","","","That was a tob.","null","","","","",""
"","html-keyboard-response","430","97453212","0.0-8.0-2.60","FL","7jnze5y1xt","1920","1080","de","er07rg24","null","","","","learningBlock2","","","","<div style=""font-size:60px;""> </div>","null","FL","learning/Slide141.JPG","That was a tob.","",""
"","image-keyboard-response","431","97453389","0.0-8.0-0.61","FL","7jnze5y1xt","1920","1080","de","er07rg24","null","","","","","","","","learning/Slide142.JPG","null","","","","",""
"","html-keyboard-response","432","97454540","0.0-8.0-1.61","FL","7jnze5y1xt","1920","1080","de","er07rg24","null","","","","learningBlock2","","","","That was a wug.","null","","","","",""
"","html-keyboard-response","433","97455543","0.0-8.0-2.61","FL","7jnze5y1xt","1920","1080","de","er07rg24","null","","","","learningBlock2","","","","<div style=""font-size:60px;""> </div>","null","FL","learning/Slide142.JPG","That was a wug.","",""
"","image-keyboard-response","434","97455719","0.0-8.0-0.62","FL","7jnze5y1xt","1920","1080","de","er07rg24","null","","","","","","","","learning/Slide143.JPG","null","","","","",""
"","html-keyboard-response","435","97456872","0.0-8.0-1.62","FL","7jnze5y1xt","1920","1080","de","er07rg24","null","","","","learningBlock2","","","","That was a bim.","null","","","","",""
"","html-keyboard-response","436","97457872","0.0-8.0-2.62","FL","7jnze5y1xt","1920","1080","de","er07rg24","null","","","","learningBlock2","","","","<div style=""font-size:60px;""> </div>","null","FL","learning/Slide143.JPG","That was a bim.","",""
"","image-keyboard-response","437","97458049","0.0-8.0-0.63","FL","7jnze5y1xt","1920","1080","de","er07rg24","null","","","","","","","","learning/Slide144.JPG","null","","","","",""
"","html-keyboard-response","438","97459201","0.0-8.0-1.63","FL","7jnze5y1xt","1920","1080","de","er07rg24","null","","","","learningBlock2","","","","That was a dep.","null","","","","",""
"","html-keyboard-response","439","97460202","0.0-8.0-2.63","FL","7jnze5y1xt","1920","1080","de","er07rg24","null","","","","learningBlock2","","","","<div style=""font-size:60px;""> </div>","null","FL","learning/Slide144.JPG","That was a dep.","",""
"","image-keyboard-response","440","97460379","0.0-8.0-0.64","FL","7jnze5y1xt","1920","1080","de","er07rg24","null","","","","","","","","learning/Slide145.JPG","null","","","","",""
"","html-keyboard-response","441","97461531","0.0-8.0-1.64","FL","7jnze5y1xt","1920","1080","de","er07rg24","null","","","","learningBlock2","","","","That was a bim.","null","","","","",""
"","html-keyboard-response","442","97462533","0.0-8.0-2.64","FL","7jnze5y1xt","1920","1080","de","er07rg24","null","","","","learningBlock2","","","","<div style=""font-size:60px;""> </div>","null","FL","learning/Slide145.JPG","That was a bim.","",""
"","image-keyboard-response","443","97462709","0.0-8.0-0.65","FL","7jnze5y1xt","1920","1080","de","er07rg24","null","","","","","","","","learning/Slide146.JPG","null","","","","",""
"","html-keyboard-response","444","97463861","0.0-8.0-1.65","FL","7jnze5y1xt","1920","1080","de","er07rg24","null","","","","learningBlock2","","","","That was a tob.","null","","","","",""
"","html-keyboard-response","445","97464862","0.0-8.0-2.65","FL","7jnze5y1xt","1920","1080","de","er07rg24","null","","","","learningBlock2","","","","<div style=""font-size:60px;""> </div>","null","FL","learning/Slide146.JPG","That was a tob.","",""
"","image-keyboard-response","446","97465039","0.0-8.0-0.66","FL","7jnze5y1xt","1920","1080","de","er07rg24","null","","","","","","","","learning/Slide147.JPG","null","","","","",""
"","html-keyboard-response","447","97466191","0.0-8.0-1.66","FL","7jnze5y1xt","1920","1080","de","er07rg24","null","","","","learningBlock2","","","","That was a wug.","null","","","","",""
"","html-keyboard-response","448","97467192","0.0-8.0-2.66","FL","7jnze5y1xt","1920","1080","de","er07rg24","null","","","","learningBlock2","","","","<div style=""font-size:60px;""> </div>","null","FL","learning/Slide147.JPG","That was a wug.","",""
"","image-keyboard-response","449","97467368","0.0-8.0-0.67","FL","7jnze5y1xt","1920","1080","de","er07rg24","null","","","","","","","","learning/Slide148.JPG","null","","","","",""
"","html-keyboard-response","450","97468521","0.0-8.0-1.67","FL","7jnze5y1xt","1920","1080","de","er07rg24","null","","","","learningBlock2","","","","That was a bim.","null","","","","",""
"","html-keyboard-response","451","97469522","0.0-8.0-2.67","FL","7jnze5y1xt","1920","1080","de","er07rg24","null","","","","learningBlock2","","","","<div style=""font-size:60px;""> </div>","null","FL","learning/Slide148.JPG","That was a bim.","",""
"","image-keyboard-response","452","97469699","0.0-8.0-0.68","FL","7jnze5y1xt","1920","1080","de","er07rg24","null","","","","","","","","learning/Slide149.JPG","null","","","","",""
"","html-keyboard-response","453","97470850","0.0-8.0-1.68","FL","7jnze5y1xt","1920","1080","de","er07rg24","null","","","","learningBlock2","","","","That was a dep.","null","","","","",""
"","html-keyboard-response","454","97471852","0.0-8.0-2.68","FL","7jnze5y1xt","1920","1080","de","er07rg24","null","","","","learningBlock2","","","","<div style=""font-size:60px;""> </div>","null","FL","learning/Slide149.JPG","That was a dep.","",""
"","image-keyboard-response","455","97472028","0.0-8.0-0.69","FL","7jnze5y1xt","1920","1080","de","er07rg24","null","","","","","","","","learning/Slide150.JPG","null","","","","",""
"","html-keyboard-response","456","97473180","0.0-8.0-1.69","FL","7jnze5y1xt","1920","1080","de","er07rg24","null","","","","learningBlock2","","","","That was a wug.","null","","","","",""
"","html-keyboard-response","457","97474182","0.0-8.0-2.69","FL","7jnze5y1xt","1920","1080","de","er07rg24","null","","","","learningBlock2","","","","<div style=""font-size:60px;""> </div>","null","FL","learning/Slide150.JPG","That was a wug.","",""
"","image-keyboard-response","458","97474358","0.0-8.0-0.70","FL","7jnze5y1xt","1920","1080","de","er07rg24","null","","","","","","","","learning/Slide151.JPG","null","","","","",""
"","html-keyboard-response","459","97475510","0.0-8.0-1.70","FL","7jnze5y1xt","1920","1080","de","er07rg24","null","","","","learningBlock2","","","","That was a dep.","null","","","","",""
"","html-keyboard-response","460","97476512","0.0-8.0-2.70","FL","7jnze5y1xt","1920","1080","de","er07rg24","null","","","","learningBlock2","","","","<div style=""font-size:60px;""> </div>","null","FL","learning/Slide151.JPG","That was a dep.","",""
"","image-keyboard-response","461","97476689","0.0-8.0-0.71","FL","7jnze5y1xt","1920","1080","de","er07rg24","null","","","","","","","","learning/Slide152.JPG","null","","","","",""
"","html-keyboard-response","462","97477840","0.0-8.0-1.71","FL","7jnze5y1xt","1920","1080","de","er07rg24","null","","","","learningBlock2","","","","That was a wug.","null","","","","",""
"","html-keyboard-response","463","97478841","0.0-8.0-2.71","FL","7jnze5y1xt","1920","1080","de","er07rg24","null","","","","learningBlock2","","","","<div style=""font-size:60px;""> </div>","null","FL","learning/Slide152.JPG","That was a wug.","",""
"","image-keyboard-response","464","97479017","0.0-8.0-0.72","FL","7jnze5y1xt","1920","1080","de","er07rg24","null","","","","","","","","learning/Slide153.JPG","null","","","","",""
"","html-keyboard-response","465","97480170","0.0-8.0-1.72","FL","7jnze5y1xt","1920","1080","de","er07rg24","null","","","","learningBlock2","","","","That was a bim.","null","","","","",""
"","html-keyboard-response","466","97481171","0.0-8.0-2.72","FL","7jnze5y1xt","1920","1080","de","er07rg24","null","","","","learningBlock2","","","","<div style=""font-size:60px;""> </div>","null","FL","learning/Slide153.JPG","That was a bim.","",""
"","image-keyboard-response","467","97481348","0.0-8.0-0.73","FL","7jnze5y1xt","1920","1080","de","er07rg24","null","","","","","","","","learning/Slide154.JPG","null","","","","",""
"","html-keyboard-response","468","97482500","0.0-8.0-1.73","FL","7jnze5y1xt","1920","1080","de","er07rg24","null","","","","learningBlock2","","","","That was a tob.","null","","","","",""
"","html-keyboard-response","469","97483502","0.0-8.0-2.73","FL","7jnze5y1xt","1920","1080","de","er07rg24","null","","","","learningBlock2","","","","<div style=""font-size:60px;""> </div>","null","FL","learning/Slide154.JPG","That was a tob.","",""
"","image-keyboard-response","470","97483679","0.0-8.0-0.74","FL","7jnze5y1xt","1920","1080","de","er07rg24","null","","","","","","","","learning/Slide155.JPG","null","","","","",""
"","html-keyboard-response","471","97484831","0.0-8.0-1.74","FL","7jnze5y1xt","1920","1080","de","er07rg24","null","","","","learningBlock2","","","","That was a dep.","null","","","","",""
"","html-keyboard-response","472","97485832","0.0-8.0-2.74","FL","7jnze5y1xt","1920","1080","de","er07rg24","null","","","","learningBlock2","","","","<div style=""font-size:60px;""> </div>","null","FL","learning/Slide155.JPG","That was a dep.","",""
"","image-keyboard-response","473","97486009","0.0-8.0-0.75","FL","7jnze5y1xt","1920","1080","de","er07rg24","null","","","","","","","","learning/Slide156.JPG","null","","","","",""
"","html-keyboard-response","474","97487161","0.0-8.0-1.75","FL","7jnze5y1xt","1920","1080","de","er07rg24","null","","","","learningBlock2","","","","That was a bim.","null","","","","",""
"","html-keyboard-response","475","97488163","0.0-8.0-2.75","FL","7jnze5y1xt","1920","1080","de","er07rg24","null","","","","learningBlock2","","","","<div style=""font-size:60px;""> </div>","null","FL","learning/Slide156.JPG","That was a bim.","",""
"","image-keyboard-response","476","97488339","0.0-8.0-0.76","FL","7jnze5y1xt","1920","1080","de","er07rg24","null","","","","","","","","learning/Slide157.JPG","null","","","","",""
"","html-keyboard-response","477","97489491","0.0-8.0-1.76","FL","7jnze5y1xt","1920","1080","de","er07rg24","null","","","","learningBlock2","","","","That was a dep.","null","","","","",""
"","html-keyboard-response","478","97490493","0.0-8.0-2.76","FL","7jnze5y1xt","1920","1080","de","er07rg24","null","","","","learningBlock2","","","","<div style=""font-size:60px;""> </div>","null","FL","learning/Slide157.JPG","That was a dep.","",""
"","image-keyboard-response","479","97490669","0.0-8.0-0.77","FL","7jnze5y1xt","1920","1080","de","er07rg24","null","","","","","","","","learning/Slide158.JPG","null","","","","",""
"","html-keyboard-response","480","97491821","0.0-8.0-1.77","FL","7jnze5y1xt","1920","1080","de","er07rg24","null","","","","learningBlock2","","","","That was a tob.","null","","","","",""
"","html-keyboard-response","481","97492823","0.0-8.0-2.77","FL","7jnze5y1xt","1920","1080","de","er07rg24","null","","","","learningBlock2","","","","<div style=""font-size:60px;""> </div>","null","FL","learning/Slide158.JPG","That was a tob.","",""
