"success","trial_type","trial_index","time_elapsed","internal_node_id","condition","subject","screen_width","screen_height","language","codeword","rt","responses","url","view_history","test_part","final_height_px","final_width_px","scale_factor","stimulus","key_press","learningType","presentedImage","presentedLabel","button_pressed","response"
"true","fullscreen","0","5397","0.0-0.0","FL","hhm1sss4hy","1603","902","en","mi06ka18","","","","","","","","","","","","","","",""
"","survey-html-form","1","12462","0.0-1.0","FL","hhm1sss4hy","1603","902","en","mi06ka18","7051.045000000158","{""language"":""en""}","","","","","","","","","","","","",""
"","external-html","2","76620","0.0-3.0-0.0","FL","hhm1sss4hy","1603","902","en","mi06ka18","64115.87999999756","","text/information_english.html","","","","","","","","","","","",""
"","external-html","3","116169","0.0-3.0-1.0","FL","hhm1sss4hy","1603","902","en","mi06ka18","39501.51000000187","","text/consent_english.html","","","","","","","","","","","",""
"","survey-html-form","4","174012","0.0-3.0-2.0","FL","hhm1sss4hy","1603","902","en","mi06ka18","57835.504999995464","{""codeword_enter"":""mi06ka18""}","","","","","","","","","","","","",""
"","instructions","5","193311","0.0-4.0","FL","hhm1sss4hy","1603","902","en","mi06ka18","NA","","","[{""page_index"":0,""viewing_time"":3392.955000002985},{""page_index"":1,""viewing_time"":14396.290000004228}]","instructions","","","","","","","","","",""
"","resize","6","246265","0.0-5.0","FL","hhm1sss4hy","1603","902","en","mi06ka18","","","","","","","462","2.933333333333333","","","","","","",""
"","image-keyboard-response","7","246446","0.0-6.0-0.0","FL","hhm1sss4hy","1603","902","en","mi06ka18","null","","","","","","","","learning/Slide1.JPG","null","","","","",""
"","html-keyboard-response","8","247616","0.0-6.0-1.0","FL","hhm1sss4hy","1603","902","en","mi06ka18","null","","","","learningBlock1","","","","That was a tob.","null","","","","",""
"","html-keyboard-response","9","248624","0.0-6.0-2.0","FL","hhm1sss4hy","1603","902","en","mi06ka18","null","","","","learningBlock1","","","","<div style=""font-size:60px;""> </div>","null","FL","learning/Slide1.JPG","That was a tob.","",""
"","image-keyboard-response","10","248807","0.0-6.0-0.1","FL","hhm1sss4hy","1603","902","en","mi06ka18","null","","","","","","","","learning/Slide2.JPG","null","","","","",""
"","html-keyboard-response","11","249972","0.0-6.0-1.1","FL","hhm1sss4hy","1603","902","en","mi06ka18","null","","","","learningBlock1","","","","That was a wug.","null","","","","",""
"","html-keyboard-response","12","250983","0.0-6.0-2.1","FL","hhm1sss4hy","1603","902","en","mi06ka18","null","","","","learningBlock1","","","","<div style=""font-size:60px;""> </div>","null","FL","learning/Slide2.JPG","That was a wug.","",""
"","image-keyboard-response","13","251166","0.0-6.0-0.2","FL","hhm1sss4hy","1603","902","en","mi06ka18","null","","","","","","","","learning/Slide3.JPG","null","","","","",""
"","html-keyboard-response","14","252336","0.0-6.0-1.2","FL","hhm1sss4hy","1603","902","en","mi06ka18","null","","","","learningBlock1","","","","That was a bim.","null","","","","",""
"","html-keyboard-response","15","253345","0.0-6.0-2.2","FL","hhm1sss4hy","1603","902","en","mi06ka18","null","","","","learningBlock1","","","","<div style=""font-size:60px;""> </div>","null","FL","learning/Slide3.JPG","That was a bim.","",""
"","image-keyboard-response","16","253525","0.0-6.0-0.3","FL","hhm1sss4hy","1603","902","en","mi06ka18","null","","","","","","","","learning/Slide4.JPG","null","","","","",""
"","html-keyboard-response","17","254691","0.0-6.0-1.3","FL","hhm1sss4hy","1603","902","en","mi06ka18","null","","","","learningBlock1","","","","That was a dep.","null","","","","",""
"","html-keyboard-response","18","255697","0.0-6.0-2.3","FL","hhm1sss4hy","1603","902","en","mi06ka18","null","","","","learningBlock1","","","","<div style=""font-size:60px;""> </div>","null","FL","learning/Slide4.JPG","That was a dep.","",""
"","image-keyboard-response","19","255878","0.0-6.0-0.4","FL","hhm1sss4hy","1603","902","en","mi06ka18","null","","","","","","","","learning/Slide5.JPG","null","","","","",""
"","html-keyboard-response","20","257042","0.0-6.0-1.4","FL","hhm1sss4hy","1603","902","en","mi06ka18","null","","","","learningBlock1","","","","That was a wug.","null","","","","",""
"","html-keyboard-response","21","258052","0.0-6.0-2.4","FL","hhm1sss4hy","1603","902","en","mi06ka18","null","","","","learningBlock1","","","","<div style=""font-size:60px;""> </div>","null","FL","learning/Slide5.JPG","That was a wug.","",""
"","image-keyboard-response","22","258237","0.0-6.0-0.5","FL","hhm1sss4hy","1603","902","en","mi06ka18","null","","","","","","","","learning/Slide6.JPG","null","","","","",""
"","html-keyboard-response","23","259405","0.0-6.0-1.5","FL","hhm1sss4hy","1603","902","en","mi06ka18","null","","","","learningBlock1","","","","That was a dep.","null","","","","",""
"","html-keyboard-response","24","260412","0.0-6.0-2.5","FL","hhm1sss4hy","1603","902","en","mi06ka18","null","","","","learningBlock1","","","","<div style=""font-size:60px;""> </div>","null","FL","learning/Slide6.JPG","That was a dep.","",""
"","image-keyboard-response","25","260590","0.0-6.0-0.6","FL","hhm1sss4hy","1603","902","en","mi06ka18","null","","","","","","","","learning/Slide7.JPG","null","","","","",""
"","html-keyboard-response","26","261758","0.0-6.0-1.6","FL","hhm1sss4hy","1603","902","en","mi06ka18","null","","","","learningBlock1","","","","That was a wug.","null","","","","",""
"","html-keyboard-response","27","262764","0.0-6.0-2.6","FL","hhm1sss4hy","1603","902","en","mi06ka18","null","","","","learningBlock1","","","","<div style=""font-size:60px;""> </div>","null","FL","learning/Slide7.JPG","That was a wug.","",""
"","image-keyboard-response","28","262943","0.0-6.0-0.7","FL","hhm1sss4hy","1603","902","en","mi06ka18","null","","","","","","","","learning/Slide8.JPG","null","","","","",""
"","html-keyboard-response","29","264108","0.0-6.0-1.7","FL","hhm1sss4hy","1603","902","en","mi06ka18","null","","","","learningBlock1","","","","That was a bim.","null","","","","",""
"","html-keyboard-response","30","265114","0.0-6.0-2.7","FL","hhm1sss4hy","1603","902","en","mi06ka18","null","","","","learningBlock1","","","","<div style=""font-size:60px;""> </div>","null","FL","learning/Slide8.JPG","That was a bim.","",""
"","image-keyboard-response","31","265294","0.0-6.0-0.8","FL","hhm1sss4hy","1603","902","en","mi06ka18","null","","","","","","","","learning/Slide9.JPG","null","","","","",""
"","html-keyboard-response","32","266455","0.0-6.0-1.8","FL","hhm1sss4hy","1603","902","en","mi06ka18","null","","","","learningBlock1","","","","That was a wug.","null","","","","",""
"","html-keyboard-response","33","267461","0.0-6.0-2.8","FL","hhm1sss4hy","1603","902","en","mi06ka18","null","","","","learningBlock1","","","","<div style=""font-size:60px;""> </div>","null","FL","learning/Slide9.JPG","That was a wug.","",""
"","image-keyboard-response","34","267650","0.0-6.0-0.9","FL","hhm1sss4hy","1603","902","en","mi06ka18","null","","","","","","","","learning/Slide10.JPG","null","","","","",""
"","html-keyboard-response","35","268814","0.0-6.0-1.9","FL","hhm1sss4hy","1603","902","en","mi06ka18","null","","","","learningBlock1","","","","That was a dep.","null","","","","",""
"","html-keyboard-response","36","269817","0.0-6.0-2.9","FL","hhm1sss4hy","1603","902","en","mi06ka18","null","","","","learningBlock1","","","","<div style=""font-size:60px;""> </div>","null","FL","learning/Slide10.JPG","That was a dep.","",""
"","image-keyboard-response","37","269995","0.0-6.0-0.10","FL","hhm1sss4hy","1603","902","en","mi06ka18","null","","","","","","","","learning/Slide11.JPG","null","","","","",""
"","html-keyboard-response","38","271162","0.0-6.0-1.10","FL","hhm1sss4hy","1603","902","en","mi06ka18","null","","","","learningBlock1","","","","That was a tob.","null","","","","",""
"","html-keyboard-response","39","272168","0.0-6.0-2.10","FL","hhm1sss4hy","1603","902","en","mi06ka18","null","","","","learningBlock1","","","","<div style=""font-size:60px;""> </div>","null","FL","learning/Slide11.JPG","That was a tob.","",""
"","image-keyboard-response","40","272346","0.0-6.0-0.11","FL","hhm1sss4hy","1603","902","en","mi06ka18","null","","","","","","","","learning/Slide12.JPG","null","","","","",""
"","html-keyboard-response","41","273507","0.0-6.0-1.11","FL","hhm1sss4hy","1603","902","en","mi06ka18","null","","","","learningBlock1","","","","That was a dep.","null","","","","",""
"","html-keyboard-response","42","274511","0.0-6.0-2.11","FL","hhm1sss4hy","1603","902","en","mi06ka18","null","","","","learningBlock1","","","","<div style=""font-size:60px;""> </div>","null","FL","learning/Slide12.JPG","That was a dep.","",""
"","image-keyboard-response","43","274694","0.0-6.0-0.12","FL","hhm1sss4hy","1603","902","en","mi06ka18","null","","","","","","","","learning/Slide13.JPG","null","","","","",""
"","html-keyboard-response","44","275860","0.0-6.0-1.12","FL","hhm1sss4hy","1603","902","en","mi06ka18","null","","","","learningBlock1","","","","That was a bim.","null","","","","",""
"","html-keyboard-response","45","276863","0.0-6.0-2.12","FL","hhm1sss4hy","1603","902","en","mi06ka18","null","","","","learningBlock1","","","","<div style=""font-size:60px;""> </div>","null","FL","learning/Slide13.JPG","That was a bim.","",""
"","image-keyboard-response","46","277045","0.0-6.0-0.13","FL","hhm1sss4hy","1603","902","en","mi06ka18","null","","","","","","","","learning/Slide14.JPG","null","","","","",""
"","html-keyboard-response","47","278204","0.0-6.0-1.13","FL","hhm1sss4hy","1603","902","en","mi06ka18","null","","","","learningBlock1","","","","That was a wug.","null","","","","",""
"","html-keyboard-response","48","279215","0.0-6.0-2.13","FL","hhm1sss4hy","1603","902","en","mi06ka18","null","","","","learningBlock1","","","","<div style=""font-size:60px;""> </div>","null","FL","learning/Slide14.JPG","That was a wug.","",""
"","image-keyboard-response","49","279394","0.0-6.0-0.14","FL","hhm1sss4hy","1603","902","en","mi06ka18","null","","","","","","","","learning/Slide15.JPG","null","","","","",""
"","html-keyboard-response","50","280547","0.0-6.0-1.14","FL","hhm1sss4hy","1603","902","en","mi06ka18","null","","","","learningBlock1","","","","That was a tob.","null","","","","",""
"","html-keyboard-response","51","281555","0.0-6.0-2.14","FL","hhm1sss4hy","1603","902","en","mi06ka18","null","","","","learningBlock1","","","","<div style=""font-size:60px;""> </div>","null","FL","learning/Slide15.JPG","That was a tob.","",""
"","image-keyboard-response","52","281741","0.0-6.0-0.15","FL","hhm1sss4hy","1603","902","en","mi06ka18","null","","","","","","","","learning/Slide16.JPG","null","","","","",""
"","html-keyboard-response","53","282907","0.0-6.0-1.15","FL","hhm1sss4hy","1603","902","en","mi06ka18","null","","","","learningBlock1","","","","That was a dep.","null","","","","",""
"","html-keyboard-response","54","283912","0.0-6.0-2.15","FL","hhm1sss4hy","1603","902","en","mi06ka18","null","","","","learningBlock1","","","","<div style=""font-size:60px;""> </div>","null","FL","learning/Slide16.JPG","That was a dep.","",""
"","image-keyboard-response","55","284093","0.0-6.0-0.16","FL","hhm1sss4hy","1603","902","en","mi06ka18","null","","","","","","","","learning/Slide17.JPG","null","","","","",""
"","html-keyboard-response","56","285257","0.0-6.0-1.16","FL","hhm1sss4hy","1603","902","en","mi06ka18","null","","","","learningBlock1","","","","That was a bim.","null","","","","",""
"","html-keyboard-response","57","286263","0.0-6.0-2.16","FL","hhm1sss4hy","1603","902","en","mi06ka18","null","","","","learningBlock1","","","","<div style=""font-size:60px;""> </div>","null","FL","learning/Slide17.JPG","That was a bim.","",""
"","image-keyboard-response","58","286443","0.0-6.0-0.17","FL","hhm1sss4hy","1603","902","en","mi06ka18","null","","","","","","","","learning/Slide18.JPG","null","","","","",""
"","html-keyboard-response","59","287599","0.0-6.0-1.17","FL","hhm1sss4hy","1603","902","en","mi06ka18","null","","","","learningBlock1","","","","That was a tob.","null","","","","",""
"","html-keyboard-response","60","288602","0.0-6.0-2.17","FL","hhm1sss4hy","1603","902","en","mi06ka18","null","","","","learningBlock1","","","","<div style=""font-size:60px;""> </div>","null","FL","learning/Slide18.JPG","That was a tob.","",""
"","image-keyboard-response","61","288785","0.0-6.0-0.18","FL","hhm1sss4hy","1603","902","en","mi06ka18","null","","","","","","","","learning/Slide19.JPG","null","","","","",""
"","html-keyboard-response","62","289953","0.0-6.0-1.18","FL","hhm1sss4hy","1603","902","en","mi06ka18","null","","","","learningBlock1","","","","That was a wug.","null","","","","",""
"","html-keyboard-response","63","290955","0.0-6.0-2.18","FL","hhm1sss4hy","1603","902","en","mi06ka18","null","","","","learningBlock1","","","","<div style=""font-size:60px;""> </div>","null","FL","learning/Slide19.JPG","That was a wug.","",""
"","image-keyboard-response","64","291135","0.0-6.0-0.19","FL","hhm1sss4hy","1603","902","en","mi06ka18","null","","","","","","","","learning/Slide20.JPG","null","","","","",""
"","html-keyboard-response","65","292297","0.0-6.0-1.19","FL","hhm1sss4hy","1603","902","en","mi06ka18","null","","","","learningBlock1","","","","That was a bim.","null","","","","",""
"","html-keyboard-response","66","293301","0.0-6.0-2.19","FL","hhm1sss4hy","1603","902","en","mi06ka18","null","","","","learningBlock1","","","","<div style=""font-size:60px;""> </div>","null","FL","learning/Slide20.JPG","That was a bim.","",""
"","image-keyboard-response","67","293485","0.0-6.0-0.20","FL","hhm1sss4hy","1603","902","en","mi06ka18","null","","","","","","","","learning/Slide21.JPG","null","","","","",""
"","html-keyboard-response","68","294646","0.0-6.0-1.20","FL","hhm1sss4hy","1603","902","en","mi06ka18","null","","","","learningBlock1","","","","That was a dep.","null","","","","",""
"","html-keyboard-response","69","295655","0.0-6.0-2.20","FL","hhm1sss4hy","1603","902","en","mi06ka18","null","","","","learningBlock1","","","","<div style=""font-size:60px;""> </div>","null","FL","learning/Slide21.JPG","That was a dep.","",""
"","image-keyboard-response","70","295834","0.0-6.0-0.21","FL","hhm1sss4hy","1603","902","en","mi06ka18","null","","","","","","","","learning/Slide22.JPG","null","","","","",""
"","html-keyboard-response","71","296997","0.0-6.0-1.21","FL","hhm1sss4hy","1603","902","en","mi06ka18","null","","","","learningBlock1","","","","That was a bim.","null","","","","",""
"","html-keyboard-response","72","298006","0.0-6.0-2.21","FL","hhm1sss4hy","1603","902","en","mi06ka18","null","","","","learningBlock1","","","","<div style=""font-size:60px;""> </div>","null","FL","learning/Slide22.JPG","That was a bim.","",""
"","image-keyboard-response","73","298185","0.0-6.0-0.22","FL","hhm1sss4hy","1603","902","en","mi06ka18","null","","","","","","","","learning/Slide23.JPG","null","","","","",""
"","html-keyboard-response","74","299355","0.0-6.0-1.22","FL","hhm1sss4hy","1603","902","en","mi06ka18","null","","","","learningBlock1","","","","That was a tob.","null","","","","",""
"","html-keyboard-response","75","300365","0.0-6.0-2.22","FL","hhm1sss4hy","1603","902","en","mi06ka18","null","","","","learningBlock1","","","","<div style=""font-size:60px;""> </div>","null","FL","learning/Slide23.JPG","That was a tob.","",""
"","image-keyboard-response","76","300546","0.0-6.0-0.23","FL","hhm1sss4hy","1603","902","en","mi06ka18","null","","","","","","","","learning/Slide24.JPG","null","","","","",""
"","html-keyboard-response","77","301712","0.0-6.0-1.23","FL","hhm1sss4hy","1603","902","en","mi06ka18","null","","","","learningBlock1","","","","That was a wug.","null","","","","",""
"","html-keyboard-response","78","302716","0.0-6.0-2.23","FL","hhm1sss4hy","1603","902","en","mi06ka18","null","","","","learningBlock1","","","","<div style=""font-size:60px;""> </div>","null","FL","learning/Slide24.JPG","That was a wug.","",""
"","image-keyboard-response","79","302902","0.0-6.0-0.24","FL","hhm1sss4hy","1603","902","en","mi06ka18","null","","","","","","","","learning/Slide25.JPG","null","","","","",""
"","html-keyboard-response","80","304065","0.0-6.0-1.24","FL","hhm1sss4hy","1603","902","en","mi06ka18","null","","","","learningBlock1","","","","That was a dep.","null","","","","",""
"","html-keyboard-response","81","305069","0.0-6.0-2.24","FL","hhm1sss4hy","1603","902","en","mi06ka18","null","","","","learningBlock1","","","","<div style=""font-size:60px;""> </div>","null","FL","learning/Slide25.JPG","That was a dep.","",""
"","image-keyboard-response","82","305255","0.0-6.0-0.25","FL","hhm1sss4hy","1603","902","en","mi06ka18","null","","","","","","","","learning/Slide26.JPG","null","","","","",""
"","html-keyboard-response","83","306420","0.0-6.0-1.25","FL","hhm1sss4hy","1603","902","en","mi06ka18","null","","","","learningBlock1","","","","That was a wug.","null","","","","",""
"","html-keyboard-response","84","307427","0.0-6.0-2.25","FL","hhm1sss4hy","1603","902","en","mi06ka18","null","","","","learningBlock1","","","","<div style=""font-size:60px;""> </div>","null","FL","learning/Slide26.JPG","That was a wug.","",""
"","image-keyboard-response","85","307612","0.0-6.0-0.26","FL","hhm1sss4hy","1603","902","en","mi06ka18","null","","","","","","","","learning/Slide27.JPG","null","","","","",""
"","html-keyboard-response","86","308782","0.0-6.0-1.26","FL","hhm1sss4hy","1603","902","en","mi06ka18","null","","","","learningBlock1","","","","That was a bim.","null","","","","",""
"","html-keyboard-response","87","309790","0.0-6.0-2.26","FL","hhm1sss4hy","1603","902","en","mi06ka18","null","","","","learningBlock1","","","","<div style=""font-size:60px;""> </div>","null","FL","learning/Slide27.JPG","That was a bim.","",""
"","image-keyboard-response","88","309976","0.0-6.0-0.27","FL","hhm1sss4hy","1603","902","en","mi06ka18","null","","","","","","","","learning/Slide28.JPG","null","","","","",""
"","html-keyboard-response","89","311141","0.0-6.0-1.27","FL","hhm1sss4hy","1603","902","en","mi06ka18","null","","","","learningBlock1","","","","That was a dep.","null","","","","",""
"","html-keyboard-response","90","312144","0.0-6.0-2.27","FL","hhm1sss4hy","1603","902","en","mi06ka18","null","","","","learningBlock1","","","","<div style=""font-size:60px;""> </div>","null","FL","learning/Slide28.JPG","That was a dep.","",""
"","image-keyboard-response","91","312325","0.0-6.0-0.28","FL","hhm1sss4hy","1603","902","en","mi06ka18","null","","","","","","","","learning/Slide29.JPG","null","","","","",""
"","html-keyboard-response","92","313485","0.0-6.0-1.28","FL","hhm1sss4hy","1603","902","en","mi06ka18","null","","","","learningBlock1","","","","That was a tob.","null","","","","",""
"","html-keyboard-response","93","314497","0.0-6.0-2.28","FL","hhm1sss4hy","1603","902","en","mi06ka18","null","","","","learningBlock1","","","","<div style=""font-size:60px;""> </div>","null","FL","learning/Slide29.JPG","That was a tob.","",""
"","image-keyboard-response","94","314676","0.0-6.0-0.29","FL","hhm1sss4hy","1603","902","en","mi06ka18","null","","","","","","","","learning/Slide30.JPG","null","","","","",""
"","html-keyboard-response","95","315845","0.0-6.0-1.29","FL","hhm1sss4hy","1603","902","en","mi06ka18","null","","","","learningBlock1","","","","That was a dep.","null","","","","",""
"","html-keyboard-response","96","316857","0.0-6.0-2.29","FL","hhm1sss4hy","1603","902","en","mi06ka18","null","","","","learningBlock1","","","","<div style=""font-size:60px;""> </div>","null","FL","learning/Slide30.JPG","That was a dep.","",""
"","image-keyboard-response","97","317043","0.0-6.0-0.30","FL","hhm1sss4hy","1603","902","en","mi06ka18","null","","","","","","","","learning/Slide31.JPG","null","","","","",""
"","html-keyboard-response","98","318203","0.0-6.0-1.30","FL","hhm1sss4hy","1603","902","en","mi06ka18","null","","","","learningBlock1","","","","That was a wug.","null","","","","",""
"","html-keyboard-response","99","319215","0.0-6.0-2.30","FL","hhm1sss4hy","1603","902","en","mi06ka18","null","","","","learningBlock1","","","","<div style=""font-size:60px;""> </div>","null","FL","learning/Slide31.JPG","That was a wug.","",""
"","image-keyboard-response","100","319401","0.0-6.0-0.31","FL","hhm1sss4hy","1603","902","en","mi06ka18","null","","","","","","","","learning/Slide32.JPG","null","","","","",""
"","html-keyboard-response","101","320566","0.0-6.0-1.31","FL","hhm1sss4hy","1603","902","en","mi06ka18","null","","","","learningBlock1","","","","That was a tob.","null","","","","",""
"","html-keyboard-response","102","321576","0.0-6.0-2.31","FL","hhm1sss4hy","1603","902","en","mi06ka18","null","","","","learningBlock1","","","","<div style=""font-size:60px;""> </div>","null","FL","learning/Slide32.JPG","That was a tob.","",""
"","image-keyboard-response","103","321756","0.0-6.0-0.32","FL","hhm1sss4hy","1603","902","en","mi06ka18","null","","","","","","","","learning/Slide33.JPG","null","","","","",""
"","html-keyboard-response","104","322921","0.0-6.0-1.32","FL","hhm1sss4hy","1603","902","en","mi06ka18","null","","","","learningBlock1","","","","That was a bim.","null","","","","",""
"","html-keyboard-response","105","323933","0.0-6.0-2.32","FL","hhm1sss4hy","1603","902","en","mi06ka18","null","","","","learningBlock1","","","","<div style=""font-size:60px;""> </div>","null","FL","learning/Slide33.JPG","That was a bim.","",""
"","image-keyboard-response","106","324114","0.0-6.0-0.33","FL","hhm1sss4hy","1603","902","en","mi06ka18","null","","","","","","","","learning/Slide34.JPG","null","","","","",""
"","html-keyboard-response","107","325281","0.0-6.0-1.33","FL","hhm1sss4hy","1603","902","en","mi06ka18","null","","","","learningBlock1","","","","That was a tob.","null","","","","",""
"","html-keyboard-response","108","326291","0.0-6.0-2.33","FL","hhm1sss4hy","1603","902","en","mi06ka18","null","","","","learningBlock1","","","","<div style=""font-size:60px;""> </div>","null","FL","learning/Slide34.JPG","That was a tob.","",""
"","image-keyboard-response","109","326469","0.0-6.0-0.34","FL","hhm1sss4hy","1603","902","en","mi06ka18","null","","","","","","","","learning/Slide35.JPG","null","","","","",""
"","html-keyboard-response","110","327633","0.0-6.0-1.34","FL","hhm1sss4hy","1603","902","en","mi06ka18","null","","","","learningBlock1","","","","That was a bim.","null","","","","",""
"","html-keyboard-response","111","328637","0.0-6.0-2.34","FL","hhm1sss4hy","1603","902","en","mi06ka18","null","","","","learningBlock1","","","","<div style=""font-size:60px;""> </div>","null","FL","learning/Slide35.JPG","That was a bim.","",""
"","image-keyboard-response","112","328817","0.0-6.0-0.35","FL","hhm1sss4hy","1603","902","en","mi06ka18","null","","","","","","","","learning/Slide36.JPG","null","","","","",""
"","html-keyboard-response","113","329976","0.0-6.0-1.35","FL","hhm1sss4hy","1603","902","en","mi06ka18","null","","","","learningBlock1","","","","That was a dep.","null","","","","",""
"","html-keyboard-response","114","330983","0.0-6.0-2.35","FL","hhm1sss4hy","1603","902","en","mi06ka18","null","","","","learningBlock1","","","","<div style=""font-size:60px;""> </div>","null","FL","learning/Slide36.JPG","That was a dep.","",""
"","image-keyboard-response","115","331163","0.0-6.0-0.36","FL","hhm1sss4hy","1603","902","en","mi06ka18","null","","","","","","","","learning/Slide37.JPG","null","","","","",""
"","html-keyboard-response","116","332319","0.0-6.0-1.36","FL","hhm1sss4hy","1603","902","en","mi06ka18","null","","","","learningBlock1","","","","That was a tob.","null","","","","",""
"","html-keyboard-response","117","333324","0.0-6.0-2.36","FL","hhm1sss4hy","1603","902","en","mi06ka18","null","","","","learningBlock1","","","","<div style=""font-size:60px;""> </div>","null","FL","learning/Slide37.JPG","That was a tob.","",""
"","image-keyboard-response","118","333504","0.0-6.0-0.37","FL","hhm1sss4hy","1603","902","en","mi06ka18","null","","","","","","","","learning/Slide38.JPG","null","","","","",""
"","html-keyboard-response","119","334666","0.0-6.0-1.37","FL","hhm1sss4hy","1603","902","en","mi06ka18","null","","","","learningBlock1","","","","That was a wug.","null","","","","",""
"","html-keyboard-response","120","335673","0.0-6.0-2.37","FL","hhm1sss4hy","1603","902","en","mi06ka18","null","","","","learningBlock1","","","","<div style=""font-size:60px;""> </div>","null","FL","learning/Slide38.JPG","That was a wug.","",""
"","image-keyboard-response","121","335856","0.0-6.0-0.38","FL","hhm1sss4hy","1603","902","en","mi06ka18","null","","","","","","","","learning/Slide39.JPG","null","","","","",""
"","html-keyboard-response","122","337019","0.0-6.0-1.38","FL","hhm1sss4hy","1603","902","en","mi06ka18","null","","","","learningBlock1","","","","That was a bim.","null","","","","",""
"","html-keyboard-response","123","338026","0.0-6.0-2.38","FL","hhm1sss4hy","1603","902","en","mi06ka18","null","","","","learningBlock1","","","","<div style=""font-size:60px;""> </div>","null","FL","learning/Slide39.JPG","That was a bim.","",""
"","image-keyboard-response","124","338209","0.0-6.0-0.39","FL","hhm1sss4hy","1603","902","en","mi06ka18","null","","","","","","","","learning/Slide40.JPG","null","","","","",""
"","html-keyboard-response","125","339369","0.0-6.0-1.39","FL","hhm1sss4hy","1603","902","en","mi06ka18","null","","","","learningBlock1","","","","That was a tob.","null","","","","",""
"","html-keyboard-response","126","340375","0.0-6.0-2.39","FL","hhm1sss4hy","1603","902","en","mi06ka18","null","","","","learningBlock1","","","","<div style=""font-size:60px;""> </div>","null","FL","learning/Slide40.JPG","That was a tob.","",""
"","image-keyboard-response","127","340562","0.0-6.0-0.40","FL","hhm1sss4hy","1603","902","en","mi06ka18","null","","","","","","","","learning/Slide41.JPG","null","","","","",""
"","html-keyboard-response","128","341723","0.0-6.0-1.40","FL","hhm1sss4hy","1603","902","en","mi06ka18","null","","","","learningBlock1","","","","That was a bim.","null","","","","",""
"","html-keyboard-response","129","342732","0.0-6.0-2.40","FL","hhm1sss4hy","1603","902","en","mi06ka18","null","","","","learningBlock1","","","","<div style=""font-size:60px;""> </div>","null","FL","learning/Slide41.JPG","That was a bim.","",""
"","image-keyboard-response","130","342916","0.0-6.0-0.41","FL","hhm1sss4hy","1603","902","en","mi06ka18","null","","","","","","","","learning/Slide42.JPG","null","","","","",""
"","html-keyboard-response","131","344083","0.0-6.0-1.41","FL","hhm1sss4hy","1603","902","en","mi06ka18","null","","","","learningBlock1","","","","That was a dep.","null","","","","",""
"","html-keyboard-response","132","345094","0.0-6.0-2.41","FL","hhm1sss4hy","1603","902","en","mi06ka18","null","","","","learningBlock1","","","","<div style=""font-size:60px;""> </div>","null","FL","learning/Slide42.JPG","That was a dep.","",""
"","image-keyboard-response","133","345276","0.0-6.0-0.42","FL","hhm1sss4hy","1603","902","en","mi06ka18","null","","","","","","","","learning/Slide43.JPG","null","","","","",""
"","html-keyboard-response","134","346433","0.0-6.0-1.42","FL","hhm1sss4hy","1603","902","en","mi06ka18","null","","","","learningBlock1","","","","That was a wug.","null","","","","",""
"","html-keyboard-response","135","347444","0.0-6.0-2.42","FL","hhm1sss4hy","1603","902","en","mi06ka18","null","","","","learningBlock1","","","","<div style=""font-size:60px;""> </div>","null","FL","learning/Slide43.JPG","That was a wug.","",""
"","image-keyboard-response","136","347626","0.0-6.0-0.43","FL","hhm1sss4hy","1603","902","en","mi06ka18","null","","","","","","","","learning/Slide44.JPG","null","","","","",""
"","html-keyboard-response","137","348793","0.0-6.0-1.43","FL","hhm1sss4hy","1603","902","en","mi06ka18","null","","","","learningBlock1","","","","That was a bim.","null","","","","",""
"","html-keyboard-response","138","349799","0.0-6.0-2.43","FL","hhm1sss4hy","1603","902","en","mi06ka18","null","","","","learningBlock1","","","","<div style=""font-size:60px;""> </div>","null","FL","learning/Slide44.JPG","That was a bim.","",""
"","image-keyboard-response","139","349984","0.0-6.0-0.44","FL","hhm1sss4hy","1603","902","en","mi06ka18","null","","","","","","","","learning/Slide45.JPG","null","","","","",""
"","html-keyboard-response","140","351142","0.0-6.0-1.44","FL","hhm1sss4hy","1603","902","en","mi06ka18","null","","","","learningBlock1","","","","That was a wug.","null","","","","",""
"","html-keyboard-response","141","352153","0.0-6.0-2.44","FL","hhm1sss4hy","1603","902","en","mi06ka18","null","","","","learningBlock1","","","","<div style=""font-size:60px;""> </div>","null","FL","learning/Slide45.JPG","That was a wug.","",""
"","image-keyboard-response","142","352334","0.0-6.0-0.45","FL","hhm1sss4hy","1603","902","en","mi06ka18","null","","","","","","","","learning/Slide46.JPG","null","","","","",""
"","html-keyboard-response","143","353498","0.0-6.0-1.45","FL","hhm1sss4hy","1603","902","en","mi06ka18","null","","","","learningBlock1","","","","That was a dep.","null","","","","",""
"","html-keyboard-response","144","354503","0.0-6.0-2.45","FL","hhm1sss4hy","1603","902","en","mi06ka18","null","","","","learningBlock1","","","","<div style=""font-size:60px;""> </div>","null","FL","learning/Slide46.JPG","That was a dep.","",""
"","image-keyboard-response","145","354683","0.0-6.0-0.46","FL","hhm1sss4hy","1603","902","en","mi06ka18","null","","","","","","","","learning/Slide47.JPG","null","","","","",""
"","html-keyboard-response","146","355840","0.0-6.0-1.46","FL","hhm1sss4hy","1603","902","en","mi06ka18","null","","","","learningBlock1","","","","That was a tob.","null","","","","",""
"","html-keyboard-response","147","356845","0.0-6.0-2.46","FL","hhm1sss4hy","1603","902","en","mi06ka18","null","","","","learningBlock1","","","","<div style=""font-size:60px;""> </div>","null","FL","learning/Slide47.JPG","That was a tob.","",""
"","image-keyboard-response","148","357031","0.0-6.0-0.47","FL","hhm1sss4hy","1603","902","en","mi06ka18","null","","","","","","","","learning/Slide48.JPG","null","","","","",""
"","html-keyboard-response","149","358196","0.0-6.0-1.47","FL","hhm1sss4hy","1603","902","en","mi06ka18","null","","","","learningBlock1","","","","That was a bim.","null","","","","",""
"","html-keyboard-response","150","359202","0.0-6.0-2.47","FL","hhm1sss4hy","1603","902","en","mi06ka18","null","","","","learningBlock1","","","","<div style=""font-size:60px;""> </div>","null","FL","learning/Slide48.JPG","That was a bim.","",""
"","image-keyboard-response","151","359382","0.0-6.0-0.48","FL","hhm1sss4hy","1603","902","en","mi06ka18","null","","","","","","","","learning/Slide49.JPG","null","","","","",""
"","html-keyboard-response","152","360546","0.0-6.0-1.48","FL","hhm1sss4hy","1603","902","en","mi06ka18","null","","","","learningBlock1","","","","That was a dep.","null","","","","",""
"","html-keyboard-response","153","361554","0.0-6.0-2.48","FL","hhm1sss4hy","1603","902","en","mi06ka18","null","","","","learningBlock1","","","","<div style=""font-size:60px;""> </div>","null","FL","learning/Slide49.JPG","That was a dep.","",""
"","image-keyboard-response","154","361735","0.0-6.0-0.49","FL","hhm1sss4hy","1603","902","en","mi06ka18","null","","","","","","","","learning/Slide50.JPG","null","","","","",""
"","html-keyboard-response","155","362903","0.0-6.0-1.49","FL","hhm1sss4hy","1603","902","en","mi06ka18","null","","","","learningBlock1","","","","That was a tob.","null","","","","",""
"","html-keyboard-response","156","363908","0.0-6.0-2.49","FL","hhm1sss4hy","1603","902","en","mi06ka18","null","","","","learningBlock1","","","","<div style=""font-size:60px;""> </div>","null","FL","learning/Slide50.JPG","That was a tob.","",""
"","image-keyboard-response","157","364093","0.0-6.0-0.50","FL","hhm1sss4hy","1603","902","en","mi06ka18","null","","","","","","","","learning/Slide51.JPG","null","","","","",""
"","html-keyboard-response","158","365255","0.0-6.0-1.50","FL","hhm1sss4hy","1603","902","en","mi06ka18","null","","","","learningBlock1","","","","That was a bim.","null","","","","",""
"","html-keyboard-response","159","366261","0.0-6.0-2.50","FL","hhm1sss4hy","1603","902","en","mi06ka18","null","","","","learningBlock1","","","","<div style=""font-size:60px;""> </div>","null","FL","learning/Slide51.JPG","That was a bim.","",""
"","image-keyboard-response","160","366442","0.0-6.0-0.51","FL","hhm1sss4hy","1603","902","en","mi06ka18","null","","","","","","","","learning/Slide52.JPG","null","","","","",""
"","html-keyboard-response","161","367597","0.0-6.0-1.51","FL","hhm1sss4hy","1603","902","en","mi06ka18","null","","","","learningBlock1","","","","That was a wug.","null","","","","",""
"","html-keyboard-response","162","368601","0.0-6.0-2.51","FL","hhm1sss4hy","1603","902","en","mi06ka18","null","","","","learningBlock1","","","","<div style=""font-size:60px;""> </div>","null","FL","learning/Slide52.JPG","That was a wug.","",""
"","image-keyboard-response","163","368785","0.0-6.0-0.52","FL","hhm1sss4hy","1603","902","en","mi06ka18","null","","","","","","","","learning/Slide53.JPG","null","","","","",""
"","html-keyboard-response","164","369951","0.0-6.0-1.52","FL","hhm1sss4hy","1603","902","en","mi06ka18","null","","","","learningBlock1","","","","That was a tob.","null","","","","",""
"","html-keyboard-response","165","370961","0.0-6.0-2.52","FL","hhm1sss4hy","1603","902","en","mi06ka18","null","","","","learningBlock1","","","","<div style=""font-size:60px;""> </div>","null","FL","learning/Slide53.JPG","That was a tob.","",""
"","image-keyboard-response","166","371146","0.0-6.0-0.53","FL","hhm1sss4hy","1603","902","en","mi06ka18","null","","","","","","","","learning/Slide54.JPG","null","","","","",""
"","html-keyboard-response","167","372315","0.0-6.0-1.53","FL","hhm1sss4hy","1603","902","en","mi06ka18","null","","","","learningBlock1","","","","That was a dep.","null","","","","",""
"","html-keyboard-response","168","373324","0.0-6.0-2.53","FL","hhm1sss4hy","1603","902","en","mi06ka18","null","","","","learningBlock1","","","","<div style=""font-size:60px;""> </div>","null","FL","learning/Slide54.JPG","That was a dep.","",""
"","image-keyboard-response","169","373505","0.0-6.0-0.54","FL","hhm1sss4hy","1603","902","en","mi06ka18","null","","","","","","","","learning/Slide55.JPG","null","","","","",""
"","html-keyboard-response","170","374659","0.0-6.0-1.54","FL","hhm1sss4hy","1603","902","en","mi06ka18","null","","","","learningBlock1","","","","That was a bim.","null","","","","",""
"","html-keyboard-response","171","375663","0.0-6.0-2.54","FL","hhm1sss4hy","1603","902","en","mi06ka18","null","","","","learningBlock1","","","","<div style=""font-size:60px;""> </div>","null","FL","learning/Slide55.JPG","That was a bim.","",""
"","image-keyboard-response","172","375843","0.0-6.0-0.55","FL","hhm1sss4hy","1603","902","en","mi06ka18","null","","","","","","","","learning/Slide56.JPG","null","","","","",""
"","html-keyboard-response","173","377006","0.0-6.0-1.55","FL","hhm1sss4hy","1603","902","en","mi06ka18","null","","","","learningBlock1","","","","That was a tob.","null","","","","",""
"","html-keyboard-response","174","378010","0.0-6.0-2.55","FL","hhm1sss4hy","1603","902","en","mi06ka18","null","","","","learningBlock1","","","","<div style=""font-size:60px;""> </div>","null","FL","learning/Slide56.JPG","That was a tob.","",""
"","image-keyboard-response","175","378189","0.0-6.0-0.56","FL","hhm1sss4hy","1603","902","en","mi06ka18","null","","","","","","","","learning/Slide57.JPG","null","","","","",""
"","html-keyboard-response","176","379355","0.0-6.0-1.56","FL","hhm1sss4hy","1603","902","en","mi06ka18","null","","","","learningBlock1","","","","That was a dep.","null","","","","",""
"","html-keyboard-response","177","380363","0.0-6.0-2.56","FL","hhm1sss4hy","1603","902","en","mi06ka18","null","","","","learningBlock1","","","","<div style=""font-size:60px;""> </div>","null","FL","learning/Slide57.JPG","That was a dep.","",""
"","image-keyboard-response","178","380547","0.0-6.0-0.57","FL","hhm1sss4hy","1603","902","en","mi06ka18","null","","","","","","","","learning/Slide58.JPG","null","","","","",""
"","html-keyboard-response","179","381713","0.0-6.0-1.57","FL","hhm1sss4hy","1603","902","en","mi06ka18","null","","","","learningBlock1","","","","That was a wug.","null","","","","",""
"","html-keyboard-response","180","382723","0.0-6.0-2.57","FL","hhm1sss4hy","1603","902","en","mi06ka18","null","","","","learningBlock1","","","","<div style=""font-size:60px;""> </div>","null","FL","learning/Slide58.JPG","That was a wug.","",""
"","image-keyboard-response","181","382907","0.0-6.0-0.58","FL","hhm1sss4hy","1603","902","en","mi06ka18","null","","","","","","","","learning/Slide59.JPG","null","","","","",""
"","html-keyboard-response","182","384075","0.0-6.0-1.58","FL","hhm1sss4hy","1603","902","en","mi06ka18","null","","","","learningBlock1","","","","That was a dep.","null","","","","",""
"","html-keyboard-response","183","385080","0.0-6.0-2.58","FL","hhm1sss4hy","1603","902","en","mi06ka18","null","","","","learningBlock1","","","","<div style=""font-size:60px;""> </div>","null","FL","learning/Slide59.JPG","That was a dep.","",""
"","image-keyboard-response","184","385263","0.0-6.0-0.59","FL","hhm1sss4hy","1603","902","en","mi06ka18","null","","","","","","","","learning/Slide60.JPG","null","","","","",""
"","html-keyboard-response","185","386419","0.0-6.0-1.59","FL","hhm1sss4hy","1603","902","en","mi06ka18","null","","","","learningBlock1","","","","That was a wug.","null","","","","",""
"","html-keyboard-response","186","387430","0.0-6.0-2.59","FL","hhm1sss4hy","1603","902","en","mi06ka18","null","","","","learningBlock1","","","","<div style=""font-size:60px;""> </div>","null","FL","learning/Slide60.JPG","That was a wug.","",""
"","image-keyboard-response","187","387614","0.0-6.0-0.60","FL","hhm1sss4hy","1603","902","en","mi06ka18","null","","","","","","","","learning/Slide61.JPG","null","","","","",""
"","html-keyboard-response","188","388777","0.0-6.0-1.60","FL","hhm1sss4hy","1603","902","en","mi06ka18","null","","","","learningBlock1","","","","That was a bim.","null","","","","",""
"","html-keyboard-response","189","389783","0.0-6.0-2.60","FL","hhm1sss4hy","1603","902","en","mi06ka18","null","","","","learningBlock1","","","","<div style=""font-size:60px;""> </div>","null","FL","learning/Slide61.JPG","That was a bim.","",""
"","image-keyboard-response","190","389967","0.0-6.0-0.61","FL","hhm1sss4hy","1603","902","en","mi06ka18","null","","","","","","","","learning/Slide62.JPG","null","","","","",""
"","html-keyboard-response","191","391133","0.0-6.0-1.61","FL","hhm1sss4hy","1603","902","en","mi06ka18","null","","","","learningBlock1","","","","That was a dep.","null","","","","",""
"","html-keyboard-response","192","392140","0.0-6.0-2.61","FL","hhm1sss4hy","1603","902","en","mi06ka18","null","","","","learningBlock1","","","","<div style=""font-size:60px;""> </div>","null","FL","learning/Slide62.JPG","That was a dep.","",""
"","image-keyboard-response","193","392326","0.0-6.0-0.62","FL","hhm1sss4hy","1603","902","en","mi06ka18","null","","","","","","","","learning/Slide63.JPG","null","","","","",""
"","html-keyboard-response","194","393489","0.0-6.0-1.62","FL","hhm1sss4hy","1603","902","en","mi06ka18","null","","","","learningBlock1","","","","That was a bim.","null","","","","",""
"","html-keyboard-response","195","394497","0.0-6.0-2.62","FL","hhm1sss4hy","1603","902","en","mi06ka18","null","","","","learningBlock1","","","","<div style=""font-size:60px;""> </div>","null","FL","learning/Slide63.JPG","That was a bim.","",""
"","image-keyboard-response","196","394681","0.0-6.0-0.63","FL","hhm1sss4hy","1603","902","en","mi06ka18","null","","","","","","","","learning/Slide64.JPG","null","","","","",""
"","html-keyboard-response","197","395843","0.0-6.0-1.63","FL","hhm1sss4hy","1603","902","en","mi06ka18","null","","","","learningBlock1","","","","That was a tob.","null","","","","",""
"","html-keyboard-response","198","396852","0.0-6.0-2.63","FL","hhm1sss4hy","1603","902","en","mi06ka18","null","","","","learningBlock1","","","","<div style=""font-size:60px;""> </div>","null","FL","learning/Slide64.JPG","That was a tob.","",""
"","image-keyboard-response","199","397036","0.0-6.0-0.64","FL","hhm1sss4hy","1603","902","en","mi06ka18","null","","","","","","","","learning/Slide65.JPG","null","","","","",""
"","html-keyboard-response","200","398197","0.0-6.0-1.64","FL","hhm1sss4hy","1603","902","en","mi06ka18","null","","","","learningBlock1","","","","That was a wug.","null","","","","",""
"","html-keyboard-response","201","399201","0.0-6.0-2.64","FL","hhm1sss4hy","1603","902","en","mi06ka18","null","","","","learningBlock1","","","","<div style=""font-size:60px;""> </div>","null","FL","learning/Slide65.JPG","That was a wug.","",""
"","image-keyboard-response","202","399386","0.0-6.0-0.65","FL","hhm1sss4hy","1603","902","en","mi06ka18","null","","","","","","","","learning/Slide66.JPG","null","","","","",""
"","html-keyboard-response","203","400554","0.0-6.0-1.65","FL","hhm1sss4hy","1603","902","en","mi06ka18","null","","","","learningBlock1","","","","That was a dep.","null","","","","",""
"","html-keyboard-response","204","401557","0.0-6.0-2.65","FL","hhm1sss4hy","1603","902","en","mi06ka18","null","","","","learningBlock1","","","","<div style=""font-size:60px;""> </div>","null","FL","learning/Slide66.JPG","That was a dep.","",""
"","image-keyboard-response","205","401743","0.0-6.0-0.66","FL","hhm1sss4hy","1603","902","en","mi06ka18","null","","","","","","","","learning/Slide67.JPG","null","","","","",""
"","html-keyboard-response","206","402910","0.0-6.0-1.66","FL","hhm1sss4hy","1603","902","en","mi06ka18","null","","","","learningBlock1","","","","That was a tob.","null","","","","",""
"","html-keyboard-response","207","403921","0.0-6.0-2.66","FL","hhm1sss4hy","1603","902","en","mi06ka18","null","","","","learningBlock1","","","","<div style=""font-size:60px;""> </div>","null","FL","learning/Slide67.JPG","That was a tob.","",""
"","image-keyboard-response","208","404105","0.0-6.0-0.67","FL","hhm1sss4hy","1603","902","en","mi06ka18","null","","","","","","","","learning/Slide68.JPG","null","","","","",""
"","html-keyboard-response","209","405271","0.0-6.0-1.67","FL","hhm1sss4hy","1603","902","en","mi06ka18","null","","","","learningBlock1","","","","That was a wug.","null","","","","",""
"","html-keyboard-response","210","406280","0.0-6.0-2.67","FL","hhm1sss4hy","1603","902","en","mi06ka18","null","","","","learningBlock1","","","","<div style=""font-size:60px;""> </div>","null","FL","learning/Slide68.JPG","That was a wug.","",""
"","image-keyboard-response","211","406464","0.0-6.0-0.68","FL","hhm1sss4hy","1603","902","en","mi06ka18","null","","","","","","","","learning/Slide69.JPG","null","","","","",""
"","html-keyboard-response","212","407626","0.0-6.0-1.68","FL","hhm1sss4hy","1603","902","en","mi06ka18","null","","","","learningBlock1","","","","That was a tob.","null","","","","",""
"","html-keyboard-response","213","408630","0.0-6.0-2.68","FL","hhm1sss4hy","1603","902","en","mi06ka18","null","","","","learningBlock1","","","","<div style=""font-size:60px;""> </div>","null","FL","learning/Slide69.JPG","That was a tob.","",""
"","image-keyboard-response","214","408816","0.0-6.0-0.69","FL","hhm1sss4hy","1603","902","en","mi06ka18","null","","","","","","","","learning/Slide70.JPG","null","","","","",""
"","html-keyboard-response","215","409986","0.0-6.0-1.69","FL","hhm1sss4hy","1603","902","en","mi06ka18","null","","","","learningBlock1","","","","That was a dep.","null","","","","",""
"","html-keyboard-response","216","410993","0.0-6.0-2.69","FL","hhm1sss4hy","1603","902","en","mi06ka18","null","","","","learningBlock1","","","","<div style=""font-size:60px;""> </div>","null","FL","learning/Slide70.JPG","That was a dep.","",""
"","image-keyboard-response","217","411173","0.0-6.0-0.70","FL","hhm1sss4hy","1603","902","en","mi06ka18","null","","","","","","","","learning/Slide71.JPG","null","","","","",""
"","html-keyboard-response","218","412340","0.0-6.0-1.70","FL","hhm1sss4hy","1603","902","en","mi06ka18","null","","","","learningBlock1","","","","That was a wug.","null","","","","",""
"","html-keyboard-response","219","413344","0.0-6.0-2.70","FL","hhm1sss4hy","1603","902","en","mi06ka18","null","","","","learningBlock1","","","","<div style=""font-size:60px;""> </div>","null","FL","learning/Slide71.JPG","That was a wug.","",""
"","image-keyboard-response","220","413524","0.0-6.0-0.71","FL","hhm1sss4hy","1603","902","en","mi06ka18","null","","","","","","","","learning/Slide72.JPG","null","","","","",""
"","html-keyboard-response","221","414691","0.0-6.0-1.71","FL","hhm1sss4hy","1603","902","en","mi06ka18","null","","","","learningBlock1","","","","That was a bim.","null","","","","",""
"","html-keyboard-response","222","415703","0.0-6.0-2.71","FL","hhm1sss4hy","1603","902","en","mi06ka18","null","","","","learningBlock1","","","","<div style=""font-size:60px;""> </div>","null","FL","learning/Slide72.JPG","That was a bim.","",""
"","image-keyboard-response","223","415882","0.0-6.0-0.72","FL","hhm1sss4hy","1603","902","en","mi06ka18","null","","","","","","","","learning/Slide73.JPG","null","","","","",""
"","html-keyboard-response","224","417044","0.0-6.0-1.72","FL","hhm1sss4hy","1603","902","en","mi06ka18","null","","","","learningBlock1","","","","That was a wug.","null","","","","",""
"","html-keyboard-response","225","418047","0.0-6.0-2.72","FL","hhm1sss4hy","1603","902","en","mi06ka18","null","","","","learningBlock1","","","","<div style=""font-size:60px;""> </div>","null","FL","learning/Slide73.JPG","That was a wug.","",""
"","image-keyboard-response","226","418235","0.0-6.0-0.73","FL","hhm1sss4hy","1603","902","en","mi06ka18","null","","","","","","","","learning/Slide74.JPG","null","","","","",""
"","html-keyboard-response","227","419397","0.0-6.0-1.73","FL","hhm1sss4hy","1603","902","en","mi06ka18","null","","","","learningBlock1","","","","That was a dep.","null","","","","",""
"","html-keyboard-response","228","420400","0.0-6.0-2.73","FL","hhm1sss4hy","1603","902","en","mi06ka18","null","","","","learningBlock1","","","","<div style=""font-size:60px;""> </div>","null","FL","learning/Slide74.JPG","That was a dep.","",""
"","image-keyboard-response","229","420585","0.0-6.0-0.74","FL","hhm1sss4hy","1603","902","en","mi06ka18","null","","","","","","","","learning/Slide75.JPG","null","","","","",""
"","html-keyboard-response","230","421754","0.0-6.0-1.74","FL","hhm1sss4hy","1603","902","en","mi06ka18","null","","","","learningBlock1","","","","That was a tob.","null","","","","",""
"","html-keyboard-response","231","422756","0.0-6.0-2.74","FL","hhm1sss4hy","1603","902","en","mi06ka18","null","","","","learningBlock1","","","","<div style=""font-size:60px;""> </div>","null","FL","learning/Slide75.JPG","That was a tob.","",""
"","image-keyboard-response","232","422940","0.0-6.0-0.75","FL","hhm1sss4hy","1603","902","en","mi06ka18","null","","","","","","","","learning/Slide76.JPG","null","","","","",""
"","html-keyboard-response","233","424101","0.0-6.0-1.75","FL","hhm1sss4hy","1603","902","en","mi06ka18","null","","","","learningBlock1","","","","That was a bim.","null","","","","",""
"","html-keyboard-response","234","425104","0.0-6.0-2.75","FL","hhm1sss4hy","1603","902","en","mi06ka18","null","","","","learningBlock1","","","","<div style=""font-size:60px;""> </div>","null","FL","learning/Slide76.JPG","That was a bim.","",""
"","image-keyboard-response","235","425291","0.0-6.0-0.76","FL","hhm1sss4hy","1603","902","en","mi06ka18","null","","","","","","","","learning/Slide77.JPG","null","","","","",""
"","html-keyboard-response","236","426453","0.0-6.0-1.76","FL","hhm1sss4hy","1603","902","en","mi06ka18","null","","","","learningBlock1","","","","That was a tob.","null","","","","",""
"","html-keyboard-response","237","427459","0.0-6.0-2.76","FL","hhm1sss4hy","1603","902","en","mi06ka18","null","","","","learningBlock1","","","","<div style=""font-size:60px;""> </div>","null","FL","learning/Slide77.JPG","That was a tob.","",""
"","image-keyboard-response","238","427640","0.0-6.0-0.77","FL","hhm1sss4hy","1603","902","en","mi06ka18","null","","","","","","","","learning/Slide78.JPG","null","","","","",""
"","html-keyboard-response","239","428806","0.0-6.0-1.77","FL","hhm1sss4hy","1603","902","en","mi06ka18","null","","","","learningBlock1","","","","That was a wug.","null","","","","",""
"","html-keyboard-response","240","429811","0.0-6.0-2.77","FL","hhm1sss4hy","1603","902","en","mi06ka18","null","","","","learningBlock1","","","","<div style=""font-size:60px;""> </div>","null","FL","learning/Slide78.JPG","That was a wug.","",""
"","image-keyboard-response","241","429997","0.0-6.0-0.78","FL","hhm1sss4hy","1603","902","en","mi06ka18","null","","","","","","","","learning/Slide79.JPG","null","","","","",""
"","html-keyboard-response","242","431164","0.0-6.0-1.78","FL","hhm1sss4hy","1603","902","en","mi06ka18","null","","","","learningBlock1","","","","That was a bim.","null","","","","",""
"","html-keyboard-response","243","432174","0.0-6.0-2.78","FL","hhm1sss4hy","1603","902","en","mi06ka18","null","","","","learningBlock1","","","","<div style=""font-size:60px;""> </div>","null","FL","learning/Slide79.JPG","That was a bim.","",""
"","image-keyboard-response","244","432354","0.0-6.0-0.79","FL","hhm1sss4hy","1603","902","en","mi06ka18","null","","","","","","","","learning/Slide80.JPG","null","","","","",""
"","html-keyboard-response","245","433520","0.0-6.0-1.79","FL","hhm1sss4hy","1603","902","en","mi06ka18","null","","","","learningBlock1","","","","That was a tob.","null","","","","",""
"","html-keyboard-response","246","434525","0.0-6.0-2.79","FL","hhm1sss4hy","1603","902","en","mi06ka18","null","","","","learningBlock1","","","","<div style=""font-size:60px;""> </div>","null","FL","learning/Slide80.JPG","That was a tob.","",""
"","instructions","247","442846","0.0-7.0","FL","hhm1sss4hy","1603","902","en","mi06ka18","NA","","","[{""page_index"":0,""viewing_time"":8319.34000000183}]","instructions","","","","","","","","","",""
"","image-keyboard-response","248","443030","0.0-8.0-0.0","FL","hhm1sss4hy","1603","902","en","mi06ka18","null","","","","","","","","learning/Slide81.JPG","null","","","","",""
"","html-keyboard-response","249","444195","0.0-8.0-1.0","FL","hhm1sss4hy","1603","902","en","mi06ka18","null","","","","learningBlock2","","","","That was a wug.","null","","","","",""
"","html-keyboard-response","250","445205","0.0-8.0-2.0","FL","hhm1sss4hy","1603","902","en","mi06ka18","null","","","","learningBlock2","","","","<div style=""font-size:60px;""> </div>","null","FL","learning/Slide81.JPG","That was a wug.","",""
"","image-keyboard-response","251","445391","0.0-8.0-0.1","FL","hhm1sss4hy","1603","902","en","mi06ka18","null","","","","","","","","learning/Slide82.JPG","null","","","","",""
"","html-keyboard-response","252","446552","0.0-8.0-1.1","FL","hhm1sss4hy","1603","902","en","mi06ka18","null","","","","learningBlock2","","","","That was a bim.","null","","","","",""
"","html-keyboard-response","253","447563","0.0-8.0-2.1","FL","hhm1sss4hy","1603","902","en","mi06ka18","null","","","","learningBlock2","","","","<div style=""font-size:60px;""> </div>","null","FL","learning/Slide82.JPG","That was a bim.","",""
"","image-keyboard-response","254","447741","0.0-8.0-0.2","FL","hhm1sss4hy","1603","902","en","mi06ka18","null","","","","","","","","learning/Slide83.JPG","null","","","","",""
"","html-keyboard-response","255","448896","0.0-8.0-1.2","FL","hhm1sss4hy","1603","902","en","mi06ka18","null","","","","learningBlock2","","","","That was a wug.","null","","","","",""
"","html-keyboard-response","256","449902","0.0-8.0-2.2","FL","hhm1sss4hy","1603","902","en","mi06ka18","null","","","","learningBlock2","","","","<div style=""font-size:60px;""> </div>","null","FL","learning/Slide83.JPG","That was a wug.","",""
"","image-keyboard-response","257","450081","0.0-8.0-0.3","FL","hhm1sss4hy","1603","902","en","mi06ka18","null","","","","","","","","learning/Slide84.JPG","null","","","","",""
"","html-keyboard-response","258","451242","0.0-8.0-1.3","FL","hhm1sss4hy","1603","902","en","mi06ka18","null","","","","learningBlock2","","","","That was a dep.","null","","","","",""
"","html-keyboard-response","259","452247","0.0-8.0-2.3","FL","hhm1sss4hy","1603","902","en","mi06ka18","null","","","","learningBlock2","","","","<div style=""font-size:60px;""> </div>","null","FL","learning/Slide84.JPG","That was a dep.","",""
"","image-keyboard-response","260","452436","0.0-8.0-0.4","FL","hhm1sss4hy","1603","902","en","mi06ka18","null","","","","","","","","learning/Slide85.JPG","null","","","","",""
"","html-keyboard-response","261","453595","0.0-8.0-1.4","FL","hhm1sss4hy","1603","902","en","mi06ka18","null","","","","learningBlock2","","","","That was a bim.","null","","","","",""
"","html-keyboard-response","262","454607","0.0-8.0-2.4","FL","hhm1sss4hy","1603","902","en","mi06ka18","null","","","","learningBlock2","","","","<div style=""font-size:60px;""> </div>","null","FL","learning/Slide85.JPG","That was a bim.","",""
"","image-keyboard-response","263","454791","0.0-8.0-0.5","FL","hhm1sss4hy","1603","902","en","mi06ka18","null","","","","","","","","learning/Slide86.JPG","null","","","","",""
"","html-keyboard-response","264","455953","0.0-8.0-1.5","FL","hhm1sss4hy","1603","902","en","mi06ka18","null","","","","learningBlock2","","","","That was a tob.","null","","","","",""
"","html-keyboard-response","265","456957","0.0-8.0-2.5","FL","hhm1sss4hy","1603","902","en","mi06ka18","null","","","","learningBlock2","","","","<div style=""font-size:60px;""> </div>","null","FL","learning/Slide86.JPG","That was a tob.","",""
"","image-keyboard-response","266","457141","0.0-8.0-0.6","FL","hhm1sss4hy","1603","902","en","mi06ka18","null","","","","","","","","learning/Slide87.JPG","null","","","","",""
"","html-keyboard-response","267","458303","0.0-8.0-1.6","FL","hhm1sss4hy","1603","902","en","mi06ka18","null","","","","learningBlock2","","","","That was a wug.","null","","","","",""
"","html-keyboard-response","268","459313","0.0-8.0-2.6","FL","hhm1sss4hy","1603","902","en","mi06ka18","null","","","","learningBlock2","","","","<div style=""font-size:60px;""> </div>","null","FL","learning/Slide87.JPG","That was a wug.","",""
"","image-keyboard-response","269","459491","0.0-8.0-0.7","FL","hhm1sss4hy","1603","902","en","mi06ka18","null","","","","","","","","learning/Slide88.JPG","null","","","","",""
"","html-keyboard-response","270","460662","0.0-8.0-1.7","FL","hhm1sss4hy","1603","902","en","mi06ka18","null","","","","learningBlock2","","","","That was a tob.","null","","","","",""
"","html-keyboard-response","271","461673","0.0-8.0-2.7","FL","hhm1sss4hy","1603","902","en","mi06ka18","null","","","","learningBlock2","","","","<div style=""font-size:60px;""> </div>","null","FL","learning/Slide88.JPG","That was a tob.","",""
"","image-keyboard-response","272","461854","0.0-8.0-0.8","FL","hhm1sss4hy","1603","902","en","mi06ka18","null","","","","","","","","learning/Slide89.JPG","null","","","","",""
"","html-keyboard-response","273","463022","0.0-8.0-1.8","FL","hhm1sss4hy","1603","902","en","mi06ka18","null","","","","learningBlock2","","","","That was a bim.","null","","","","",""
"","html-keyboard-response","274","464025","0.0-8.0-2.8","FL","hhm1sss4hy","1603","902","en","mi06ka18","null","","","","learningBlock2","","","","<div style=""font-size:60px;""> </div>","null","FL","learning/Slide89.JPG","That was a bim.","",""
"","image-keyboard-response","275","464208","0.0-8.0-0.9","FL","hhm1sss4hy","1603","902","en","mi06ka18","null","","","","","","","","learning/Slide90.JPG","null","","","","",""
"","html-keyboard-response","276","465371","0.0-8.0-1.9","FL","hhm1sss4hy","1603","902","en","mi06ka18","null","","","","learningBlock2","","","","That was a dep.","null","","","","",""
"","html-keyboard-response","277","466382","0.0-8.0-2.9","FL","hhm1sss4hy","1603","902","en","mi06ka18","null","","","","learningBlock2","","","","<div style=""font-size:60px;""> </div>","null","FL","learning/Slide90.JPG","That was a dep.","",""
"","image-keyboard-response","278","466562","0.0-8.0-0.10","FL","hhm1sss4hy","1603","902","en","mi06ka18","null","","","","","","","","learning/Slide91.JPG","null","","","","",""
"","html-keyboard-response","279","467722","0.0-8.0-1.10","FL","hhm1sss4hy","1603","902","en","mi06ka18","null","","","","learningBlock2","","","","That was a wug.","null","","","","",""
"","html-keyboard-response","280","468732","0.0-8.0-2.10","FL","hhm1sss4hy","1603","902","en","mi06ka18","null","","","","learningBlock2","","","","<div style=""font-size:60px;""> </div>","null","FL","learning/Slide91.JPG","That was a wug.","",""
"","image-keyboard-response","281","468914","0.0-8.0-0.11","FL","hhm1sss4hy","1603","902","en","mi06ka18","null","","","","","","","","learning/Slide92.JPG","null","","","","",""
"","html-keyboard-response","282","470075","0.0-8.0-1.11","FL","hhm1sss4hy","1603","902","en","mi06ka18","null","","","","learningBlock2","","","","That was a tob.","null","","","","",""
"","html-keyboard-response","283","471086","0.0-8.0-2.11","FL","hhm1sss4hy","1603","902","en","mi06ka18","null","","","","learningBlock2","","","","<div style=""font-size:60px;""> </div>","null","FL","learning/Slide92.JPG","That was a tob.","",""
"","image-keyboard-response","284","471265","0.0-8.0-0.12","FL","hhm1sss4hy","1603","902","en","mi06ka18","null","","","","","","","","learning/Slide93.JPG","null","","","","",""
"","html-keyboard-response","285","472433","0.0-8.0-1.12","FL","hhm1sss4hy","1603","902","en","mi06ka18","null","","","","learningBlock2","","","","That was a bim.","null","","","","",""
"","html-keyboard-response","286","473442","0.0-8.0-2.12","FL","hhm1sss4hy","1603","902","en","mi06ka18","null","","","","learningBlock2","","","","<div style=""font-size:60px;""> </div>","null","FL","learning/Slide93.JPG","That was a bim.","",""
"","image-keyboard-response","287","473627","0.0-8.0-0.13","FL","hhm1sss4hy","1603","902","en","mi06ka18","null","","","","","","","","learning/Slide94.JPG","null","","","","",""
"","html-keyboard-response","288","474784","0.0-8.0-1.13","FL","hhm1sss4hy","1603","902","en","mi06ka18","null","","","","learningBlock2","","","","That was a tob.","null","","","","",""
"","html-keyboard-response","289","475794","0.0-8.0-2.13","FL","hhm1sss4hy","1603","902","en","mi06ka18","null","","","","learningBlock2","","","","<div style=""font-size:60px;""> </div>","null","FL","learning/Slide94.JPG","That was a tob.","",""
"","image-keyboard-response","290","475974","0.0-8.0-0.14","FL","hhm1sss4hy","1603","902","en","mi06ka18","null","","","","","","","","learning/Slide95.JPG","null","","","","",""
"","html-keyboard-response","291","477134","0.0-8.0-1.14","FL","hhm1sss4hy","1603","902","en","mi06ka18","null","","","","learningBlock2","","","","That was a wug.","null","","","","",""
"","html-keyboard-response","292","478142","0.0-8.0-2.14","FL","hhm1sss4hy","1603","902","en","mi06ka18","null","","","","learningBlock2","","","","<div style=""font-size:60px;""> </div>","null","FL","learning/Slide95.JPG","That was a wug.","",""
"","image-keyboard-response","293","478322","0.0-8.0-0.15","FL","hhm1sss4hy","1603","902","en","mi06ka18","null","","","","","","","","learning/Slide96.JPG","null","","","","",""
"","html-keyboard-response","294","479486","0.0-8.0-1.15","FL","hhm1sss4hy","1603","902","en","mi06ka18","null","","","","learningBlock2","","","","That was a tob.","null","","","","",""
"","html-keyboard-response","295","480490","0.0-8.0-2.15","FL","hhm1sss4hy","1603","902","en","mi06ka18","null","","","","learningBlock2","","","","<div style=""font-size:60px;""> </div>","null","FL","learning/Slide96.JPG","That was a tob.","",""
"","image-keyboard-response","296","480673","0.0-8.0-0.16","FL","hhm1sss4hy","1603","902","en","mi06ka18","null","","","","","","","","learning/Slide97.JPG","null","","","","",""
"","html-keyboard-response","297","481832","0.0-8.0-1.16","FL","hhm1sss4hy","1603","902","en","mi06ka18","null","","","","learningBlock2","","","","That was a dep.","null","","","","",""
"","html-keyboard-response","298","482843","0.0-8.0-2.16","FL","hhm1sss4hy","1603","902","en","mi06ka18","null","","","","learningBlock2","","","","<div style=""font-size:60px;""> </div>","null","FL","learning/Slide97.JPG","That was a dep.","",""
"","image-keyboard-response","299","483029","0.0-8.0-0.17","FL","hhm1sss4hy","1603","902","en","mi06ka18","null","","","","","","","","learning/Slide98.JPG","null","","","","",""
"","html-keyboard-response","300","484195","0.0-8.0-1.17","FL","hhm1sss4hy","1603","902","en","mi06ka18","null","","","","learningBlock2","","","","That was a bim.","null","","","","",""
"","html-keyboard-response","301","485200","0.0-8.0-2.17","FL","hhm1sss4hy","1603","902","en","mi06ka18","null","","","","learningBlock2","","","","<div style=""font-size:60px;""> </div>","null","FL","learning/Slide98.JPG","That was a bim.","",""
"","image-keyboard-response","302","485380","0.0-8.0-0.18","FL","hhm1sss4hy","1603","902","en","mi06ka18","null","","","","","","","","learning/Slide99.JPG","null","","","","",""
"","html-keyboard-response","303","486546","0.0-8.0-1.18","FL","hhm1sss4hy","1603","902","en","mi06ka18","null","","","","learningBlock2","","","","That was a dep.","null","","","","",""
"","html-keyboard-response","304","487556","0.0-8.0-2.18","FL","hhm1sss4hy","1603","902","en","mi06ka18","null","","","","learningBlock2","","","","<div style=""font-size:60px;""> </div>","null","FL","learning/Slide99.JPG","That was a dep.","",""
"","image-keyboard-response","305","487741","0.0-8.0-0.19","FL","hhm1sss4hy","1603","902","en","mi06ka18","null","","","","","","","","learning/Slide100.JPG","null","","","","",""
"","html-keyboard-response","306","488907","0.0-8.0-1.19","FL","hhm1sss4hy","1603","902","en","mi06ka18","null","","","","learningBlock2","","","","That was a bim.","null","","","","",""
"","html-keyboard-response","307","489912","0.0-8.0-2.19","FL","hhm1sss4hy","1603","902","en","mi06ka18","null","","","","learningBlock2","","","","<div style=""font-size:60px;""> </div>","null","FL","learning/Slide100.JPG","That was a bim.","",""
"","image-keyboard-response","308","490095","0.0-8.0-0.20","FL","hhm1sss4hy","1603","902","en","mi06ka18","null","","","","","","","","learning/Slide101.JPG","null","","","","",""
"","html-keyboard-response","309","491260","0.0-8.0-1.20","FL","hhm1sss4hy","1603","902","en","mi06ka18","null","","","","learningBlock2","","","","That was a tob.","null","","","","",""
"","html-keyboard-response","310","492265","0.0-8.0-2.20","FL","hhm1sss4hy","1603","902","en","mi06ka18","null","","","","learningBlock2","","","","<div style=""font-size:60px;""> </div>","null","FL","learning/Slide101.JPG","That was a tob.","",""
"","image-keyboard-response","311","492451","0.0-8.0-0.21","FL","hhm1sss4hy","1603","902","en","mi06ka18","null","","","","","","","","learning/Slide102.JPG","null","","","","",""
"","html-keyboard-response","312","493611","0.0-8.0-1.21","FL","hhm1sss4hy","1603","902","en","mi06ka18","null","","","","learningBlock2","","","","That was a bim.","null","","","","",""
"","html-keyboard-response","313","494616","0.0-8.0-2.21","FL","hhm1sss4hy","1603","902","en","mi06ka18","null","","","","learningBlock2","","","","<div style=""font-size:60px;""> </div>","null","FL","learning/Slide102.JPG","That was a bim.","",""
"","image-keyboard-response","314","494794","0.0-8.0-0.22","FL","hhm1sss4hy","1603","902","en","mi06ka18","null","","","","","","","","learning/Slide103.JPG","null","","","","",""
"","html-keyboard-response","315","495960","0.0-8.0-1.22","FL","hhm1sss4hy","1603","902","en","mi06ka18","null","","","","learningBlock2","","","","That was a dep.","null","","","","",""
"","html-keyboard-response","316","496963","0.0-8.0-2.22","FL","hhm1sss4hy","1603","902","en","mi06ka18","null","","","","learningBlock2","","","","<div style=""font-size:60px;""> </div>","null","FL","learning/Slide103.JPG","That was a dep.","",""
"","image-keyboard-response","317","497150","0.0-8.0-0.23","FL","hhm1sss4hy","1603","902","en","mi06ka18","null","","","","","","","","learning/Slide104.JPG","null","","","","",""
"","html-keyboard-response","318","498314","0.0-8.0-1.23","FL","hhm1sss4hy","1603","902","en","mi06ka18","null","","","","learningBlock2","","","","That was a tob.","null","","","","",""
"","html-keyboard-response","319","499326","0.0-8.0-2.23","FL","hhm1sss4hy","1603","902","en","mi06ka18","null","","","","learningBlock2","","","","<div style=""font-size:60px;""> </div>","null","FL","learning/Slide104.JPG","That was a tob.","",""
"","image-keyboard-response","320","499505","0.0-8.0-0.24","FL","hhm1sss4hy","1603","902","en","mi06ka18","null","","","","","","","","learning/Slide105.JPG","null","","","","",""
"","html-keyboard-response","321","500668","0.0-8.0-1.24","FL","hhm1sss4hy","1603","902","en","mi06ka18","null","","","","learningBlock2","","","","That was a dep.","null","","","","",""
"","html-keyboard-response","322","501673","0.0-8.0-2.24","FL","hhm1sss4hy","1603","902","en","mi06ka18","null","","","","learningBlock2","","","","<div style=""font-size:60px;""> </div>","null","FL","learning/Slide105.JPG","That was a dep.","",""
"","image-keyboard-response","323","501855","0.0-8.0-0.25","FL","hhm1sss4hy","1603","902","en","mi06ka18","null","","","","","","","","learning/Slide106.JPG","null","","","","",""
"","html-keyboard-response","324","503024","0.0-8.0-1.25","FL","hhm1sss4hy","1603","902","en","mi06ka18","null","","","","learningBlock2","","","","That was a wug.","null","","","","",""
"","html-keyboard-response","325","504030","0.0-8.0-2.25","FL","hhm1sss4hy","1603","902","en","mi06ka18","null","","","","learningBlock2","","","","<div style=""font-size:60px;""> </div>","null","FL","learning/Slide106.JPG","That was a wug.","",""
"","image-keyboard-response","326","504208","0.0-8.0-0.26","FL","hhm1sss4hy","1603","902","en","mi06ka18","null","","","","","","","","learning/Slide107.JPG","null","","","","",""
"","html-keyboard-response","327","505375","0.0-8.0-1.26","FL","hhm1sss4hy","1603","902","en","mi06ka18","null","","","","learningBlock2","","","","That was a bim.","null","","","","",""
"","html-keyboard-response","328","506381","0.0-8.0-2.26","FL","hhm1sss4hy","1603","902","en","mi06ka18","null","","","","learningBlock2","","","","<div style=""font-size:60px;""> </div>","null","FL","learning/Slide107.JPG","That was a bim.","",""
"","image-keyboard-response","329","506565","0.0-8.0-0.27","FL","hhm1sss4hy","1603","902","en","mi06ka18","null","","","","","","","","learning/Slide108.JPG","null","","","","",""
"","html-keyboard-response","330","507724","0.0-8.0-1.27","FL","hhm1sss4hy","1603","902","en","mi06ka18","null","","","","learningBlock2","","","","That was a dep.","null","","","","",""
"","html-keyboard-response","331","508729","0.0-8.0-2.27","FL","hhm1sss4hy","1603","902","en","mi06ka18","null","","","","learningBlock2","","","","<div style=""font-size:60px;""> </div>","null","FL","learning/Slide108.JPG","That was a dep.","",""
"","image-keyboard-response","332","508916","0.0-8.0-0.28","FL","hhm1sss4hy","1603","902","en","mi06ka18","null","","","","","","","","learning/Slide109.JPG","null","","","","",""
"","html-keyboard-response","333","510080","0.0-8.0-1.28","FL","hhm1sss4hy","1603","902","en","mi06ka18","null","","","","learningBlock2","","","","That was a wug.","null","","","","",""
"","html-keyboard-response","334","511083","0.0-8.0-2.28","FL","hhm1sss4hy","1603","902","en","mi06ka18","null","","","","learningBlock2","","","","<div style=""font-size:60px;""> </div>","null","FL","learning/Slide109.JPG","That was a wug.","",""
"","image-keyboard-response","335","511265","0.0-8.0-0.29","FL","hhm1sss4hy","1603","902","en","mi06ka18","null","","","","","","","","learning/Slide110.JPG","null","","","","",""
"","html-keyboard-response","336","512421","0.0-8.0-1.29","FL","hhm1sss4hy","1603","902","en","mi06ka18","null","","","","learningBlock2","","","","That was a bim.","null","","","","",""
"","html-keyboard-response","337","513426","0.0-8.0-2.29","FL","hhm1sss4hy","1603","902","en","mi06ka18","null","","","","learningBlock2","","","","<div style=""font-size:60px;""> </div>","null","FL","learning/Slide110.JPG","That was a bim.","",""
"","image-keyboard-response","338","513611","0.0-8.0-0.30","FL","hhm1sss4hy","1603","902","en","mi06ka18","null","","","","","","","","learning/Slide111.JPG","null","","","","",""
"","html-keyboard-response","339","514766","0.0-8.0-1.30","FL","hhm1sss4hy","1603","902","en","mi06ka18","null","","","","learningBlock2","","","","That was a tob.","null","","","","",""
"","html-keyboard-response","340","515773","0.0-8.0-2.30","FL","hhm1sss4hy","1603","902","en","mi06ka18","null","","","","learningBlock2","","","","<div style=""font-size:60px;""> </div>","null","FL","learning/Slide111.JPG","That was a tob.","",""
"","image-keyboard-response","341","515957","0.0-8.0-0.31","FL","hhm1sss4hy","1603","902","en","mi06ka18","null","","","","","","","","learning/Slide112.JPG","null","","","","",""
"","html-keyboard-response","342","517126","0.0-8.0-1.31","FL","hhm1sss4hy","1603","902","en","mi06ka18","null","","","","learningBlock2","","","","That was a wug.","null","","","","",""
"","html-keyboard-response","343","518135","0.0-8.0-2.31","FL","hhm1sss4hy","1603","902","en","mi06ka18","null","","","","learningBlock2","","","","<div style=""font-size:60px;""> </div>","null","FL","learning/Slide112.JPG","That was a wug.","",""
"","image-keyboard-response","344","518314","0.0-8.0-0.32","FL","hhm1sss4hy","1603","902","en","mi06ka18","null","","","","","","","","learning/Slide113.JPG","null","","","","",""
"","html-keyboard-response","345","519475","0.0-8.0-1.32","FL","hhm1sss4hy","1603","902","en","mi06ka18","null","","","","learningBlock2","","","","That was a tob.","null","","","","",""
"","html-keyboard-response","346","520486","0.0-8.0-2.32","FL","hhm1sss4hy","1603","902","en","mi06ka18","null","","","","learningBlock2","","","","<div style=""font-size:60px;""> </div>","null","FL","learning/Slide113.JPG","That was a tob.","",""
"","image-keyboard-response","347","520665","0.0-8.0-0.33","FL","hhm1sss4hy","1603","902","en","mi06ka18","null","","","","","","","","learning/Slide114.JPG","null","","","","",""
"","html-keyboard-response","348","521825","0.0-8.0-1.33","FL","hhm1sss4hy","1603","902","en","mi06ka18","null","","","","learningBlock2","","","","That was a wug.","null","","","","",""
"","html-keyboard-response","349","522836","0.0-8.0-2.33","FL","hhm1sss4hy","1603","902","en","mi06ka18","null","","","","learningBlock2","","","","<div style=""font-size:60px;""> </div>","null","FL","learning/Slide114.JPG","That was a wug.","",""
"","image-keyboard-response","350","523022","0.0-8.0-0.34","FL","hhm1sss4hy","1603","902","en","mi06ka18","null","","","","","","","","learning/Slide115.JPG","null","","","","",""
"","html-keyboard-response","351","524180","0.0-8.0-1.34","FL","hhm1sss4hy","1603","902","en","mi06ka18","null","","","","learningBlock2","","","","That was a bim.","null","","","","",""
"","html-keyboard-response","352","525183","0.0-8.0-2.34","FL","hhm1sss4hy","1603","902","en","mi06ka18","null","","","","learningBlock2","","","","<div style=""font-size:60px;""> </div>","null","FL","learning/Slide115.JPG","That was a bim.","",""
"","image-keyboard-response","353","525365","0.0-8.0-0.35","FL","hhm1sss4hy","1603","902","en","mi06ka18","null","","","","","","","","learning/Slide116.JPG","null","","","","",""
"","html-keyboard-response","354","526530","0.0-8.0-1.35","FL","hhm1sss4hy","1603","902","en","mi06ka18","null","","","","learningBlock2","","","","That was a dep.","null","","","","",""
"","html-keyboard-response","355","527536","0.0-8.0-2.35","FL","hhm1sss4hy","1603","902","en","mi06ka18","null","","","","learningBlock2","","","","<div style=""font-size:60px;""> </div>","null","FL","learning/Slide116.JPG","That was a dep.","",""
"","image-keyboard-response","356","527720","0.0-8.0-0.36","FL","hhm1sss4hy","1603","902","en","mi06ka18","null","","","","","","","","learning/Slide117.JPG","null","","","","",""
"","html-keyboard-response","357","528891","0.0-8.0-1.36","FL","hhm1sss4hy","1603","902","en","mi06ka18","null","","","","learningBlock2","","","","That was a tob.","null","","","","",""
"","html-keyboard-response","358","529900","0.0-8.0-2.36","FL","hhm1sss4hy","1603","902","en","mi06ka18","null","","","","learningBlock2","","","","<div style=""font-size:60px;""> </div>","null","FL","learning/Slide117.JPG","That was a tob.","",""
"","image-keyboard-response","359","530085","0.0-8.0-0.37","FL","hhm1sss4hy","1603","902","en","mi06ka18","null","","","","","","","","learning/Slide118.JPG","null","","","","",""
"","html-keyboard-response","360","531252","0.0-8.0-1.37","FL","hhm1sss4hy","1603","902","en","mi06ka18","null","","","","learningBlock2","","","","That was a dep.","null","","","","",""
"","html-keyboard-response","361","532264","0.0-8.0-2.37","FL","hhm1sss4hy","1603","902","en","mi06ka18","null","","","","learningBlock2","","","","<div style=""font-size:60px;""> </div>","null","FL","learning/Slide118.JPG","That was a dep.","",""
"","image-keyboard-response","362","532446","0.0-8.0-0.38","FL","hhm1sss4hy","1603","902","en","mi06ka18","null","","","","","","","","learning/Slide119.JPG","null","","","","",""
"","html-keyboard-response","363","533612","0.0-8.0-1.38","FL","hhm1sss4hy","1603","902","en","mi06ka18","null","","","","learningBlock2","","","","That was a wug.","null","","","","",""
"","html-keyboard-response","364","534616","0.0-8.0-2.38","FL","hhm1sss4hy","1603","902","en","mi06ka18","null","","","","learningBlock2","","","","<div style=""font-size:60px;""> </div>","null","FL","learning/Slide119.JPG","That was a wug.","",""
"","image-keyboard-response","365","534797","0.0-8.0-0.39","FL","hhm1sss4hy","1603","902","en","mi06ka18","null","","","","","","","","learning/Slide120.JPG","null","","","","",""
"","html-keyboard-response","366","535954","0.0-8.0-1.39","FL","hhm1sss4hy","1603","902","en","mi06ka18","null","","","","learningBlock2","","","","That was a dep.","null","","","","",""
"","html-keyboard-response","367","536962","0.0-8.0-2.39","FL","hhm1sss4hy","1603","902","en","mi06ka18","null","","","","learningBlock2","","","","<div style=""font-size:60px;""> </div>","null","FL","learning/Slide120.JPG","That was a dep.","",""
"","image-keyboard-response","368","537145","0.0-8.0-0.40","FL","hhm1sss4hy","1603","902","en","mi06ka18","null","","","","","","","","learning/Slide121.JPG","null","","","","",""
"","html-keyboard-response","369","538305","0.0-8.0-1.40","FL","hhm1sss4hy","1603","902","en","mi06ka18","null","","","","learningBlock2","","","","That was a bim.","null","","","","",""
"","html-keyboard-response","370","539316","0.0-8.0-2.40","FL","hhm1sss4hy","1603","902","en","mi06ka18","null","","","","learningBlock2","","","","<div style=""font-size:60px;""> </div>","null","FL","learning/Slide121.JPG","That was a bim.","",""
"","image-keyboard-response","371","539496","0.0-8.0-0.41","FL","hhm1sss4hy","1603","902","en","mi06ka18","null","","","","","","","","learning/Slide122.JPG","null","","","","",""
"","html-keyboard-response","372","540654","0.0-8.0-1.41","FL","hhm1sss4hy","1603","902","en","mi06ka18","null","","","","learningBlock2","","","","That was a wug.","null","","","","",""
"","html-keyboard-response","373","541656","0.0-8.0-2.41","FL","hhm1sss4hy","1603","902","en","mi06ka18","null","","","","learningBlock2","","","","<div style=""font-size:60px;""> </div>","null","FL","learning/Slide122.JPG","That was a wug.","",""
"","image-keyboard-response","374","541840","0.0-8.0-0.42","FL","hhm1sss4hy","1603","902","en","mi06ka18","null","","","","","","","","learning/Slide123.JPG","null","","","","",""
"","html-keyboard-response","375","543002","0.0-8.0-1.42","FL","hhm1sss4hy","1603","902","en","mi06ka18","null","","","","learningBlock2","","","","That was a bim.","null","","","","",""
"","html-keyboard-response","376","544007","0.0-8.0-2.42","FL","hhm1sss4hy","1603","902","en","mi06ka18","null","","","","learningBlock2","","","","<div style=""font-size:60px;""> </div>","null","FL","learning/Slide123.JPG","That was a bim.","",""
"","image-keyboard-response","377","544190","0.0-8.0-0.43","FL","hhm1sss4hy","1603","902","en","mi06ka18","null","","","","","","","","learning/Slide124.JPG","null","","","","",""
"","html-keyboard-response","378","545354","0.0-8.0-1.43","FL","hhm1sss4hy","1603","902","en","mi06ka18","null","","","","learningBlock2","","","","That was a tob.","null","","","","",""
"","html-keyboard-response","379","546364","0.0-8.0-2.43","FL","hhm1sss4hy","1603","902","en","mi06ka18","null","","","","learningBlock2","","","","<div style=""font-size:60px;""> </div>","null","FL","learning/Slide124.JPG","That was a tob.","",""
"","image-keyboard-response","380","546547","0.0-8.0-0.44","FL","hhm1sss4hy","1603","902","en","mi06ka18","null","","","","","","","","learning/Slide125.JPG","null","","","","",""
"","html-keyboard-response","381","547710","0.0-8.0-1.44","FL","hhm1sss4hy","1603","902","en","mi06ka18","null","","","","learningBlock2","","","","That was a bim.","null","","","","",""
"","html-keyboard-response","382","548714","0.0-8.0-2.44","FL","hhm1sss4hy","1603","902","en","mi06ka18","null","","","","learningBlock2","","","","<div style=""font-size:60px;""> </div>","null","FL","learning/Slide125.JPG","That was a bim.","",""
"","image-keyboard-response","383","548896","0.0-8.0-0.45","FL","hhm1sss4hy","1603","902","en","mi06ka18","null","","","","","","","","learning/Slide126.JPG","null","","","","",""
"","html-keyboard-response","384","550054","0.0-8.0-1.45","FL","hhm1sss4hy","1603","902","en","mi06ka18","null","","","","learningBlock2","","","","That was a tob.","null","","","","",""
"","html-keyboard-response","385","551063","0.0-8.0-2.45","FL","hhm1sss4hy","1603","902","en","mi06ka18","null","","","","learningBlock2","","","","<div style=""font-size:60px;""> </div>","null","FL","learning/Slide126.JPG","That was a tob.","",""
"","image-keyboard-response","386","551244","0.0-8.0-0.46","FL","hhm1sss4hy","1603","902","en","mi06ka18","null","","","","","","","","learning/Slide127.JPG","null","","","","",""
"","html-keyboard-response","387","552415","0.0-8.0-1.46","FL","hhm1sss4hy","1603","902","en","mi06ka18","null","","","","learningBlock2","","","","That was a dep.","null","","","","",""
"","html-keyboard-response","388","553421","0.0-8.0-2.46","FL","hhm1sss4hy","1603","902","en","mi06ka18","null","","","","learningBlock2","","","","<div style=""font-size:60px;""> </div>","null","FL","learning/Slide127.JPG","That was a dep.","",""
"","image-keyboard-response","389","553605","0.0-8.0-0.47","FL","hhm1sss4hy","1603","902","en","mi06ka18","null","","","","","","","","learning/Slide128.JPG","null","","","","",""
"","html-keyboard-response","390","554773","0.0-8.0-1.47","FL","hhm1sss4hy","1603","902","en","mi06ka18","null","","","","learningBlock2","","","","That was a wug.","null","","","","",""
"","html-keyboard-response","391","555782","0.0-8.0-2.47","FL","hhm1sss4hy","1603","902","en","mi06ka18","null","","","","learningBlock2","","","","<div style=""font-size:60px;""> </div>","null","FL","learning/Slide128.JPG","That was a wug.","",""
"","image-keyboard-response","392","555961","0.0-8.0-0.48","FL","hhm1sss4hy","1603","902","en","mi06ka18","null","","","","","","","","learning/Slide129.JPG","null","","","","",""
"","html-keyboard-response","393","557123","0.0-8.0-1.48","FL","hhm1sss4hy","1603","902","en","mi06ka18","null","","","","learningBlock2","","","","That was a tob.","null","","","","",""
"","html-keyboard-response","394","558129","0.0-8.0-2.48","FL","hhm1sss4hy","1603","902","en","mi06ka18","null","","","","learningBlock2","","","","<div style=""font-size:60px;""> </div>","null","FL","learning/Slide129.JPG","That was a tob.","",""
"","image-keyboard-response","395","558315","0.0-8.0-0.49","FL","hhm1sss4hy","1603","902","en","mi06ka18","null","","","","","","","","learning/Slide130.JPG","null","","","","",""
"","html-keyboard-response","396","559480","0.0-8.0-1.49","FL","hhm1sss4hy","1603","902","en","mi06ka18","null","","","","learningBlock2","","","","That was a wug.","null","","","","",""
"","html-keyboard-response","397","560487","0.0-8.0-2.49","FL","hhm1sss4hy","1603","902","en","mi06ka18","null","","","","learningBlock2","","","","<div style=""font-size:60px;""> </div>","null","FL","learning/Slide130.JPG","That was a wug.","",""
"","image-keyboard-response","398","560672","0.0-8.0-0.50","FL","hhm1sss4hy","1603","902","en","mi06ka18","null","","","","","","","","learning/Slide131.JPG","null","","","","",""
"","html-keyboard-response","399","561835","0.0-8.0-1.50","FL","hhm1sss4hy","1603","902","en","mi06ka18","null","","","","learningBlock2","","","","That was a bim.","null","","","","",""
"","html-keyboard-response","400","562849","0.0-8.0-2.50","FL","hhm1sss4hy","1603","902","en","mi06ka18","null","","","","learningBlock2","","","","<div style=""font-size:60px;""> </div>","null","FL","learning/Slide131.JPG","That was a bim.","",""
"","image-keyboard-response","401","563027","0.0-8.0-0.51","FL","hhm1sss4hy","1603","902","en","mi06ka18","null","","","","","","","","learning/Slide132.JPG","null","","","","",""
"","html-keyboard-response","402","564195","0.0-8.0-1.51","FL","hhm1sss4hy","1603","902","en","mi06ka18","null","","","","learningBlock2","","","","That was a dep.","null","","","","",""
"","html-keyboard-response","403","565207","0.0-8.0-2.51","FL","hhm1sss4hy","1603","902","en","mi06ka18","null","","","","learningBlock2","","","","<div style=""font-size:60px;""> </div>","null","FL","learning/Slide132.JPG","That was a dep.","",""
"","image-keyboard-response","404","565396","0.0-8.0-0.52","FL","hhm1sss4hy","1603","902","en","mi06ka18","null","","","","","","","","learning/Slide133.JPG","null","","","","",""
"","html-keyboard-response","405","566558","0.0-8.0-1.52","FL","hhm1sss4hy","1603","902","en","mi06ka18","null","","","","learningBlock2","","","","That was a tob.","null","","","","",""
"","html-keyboard-response","406","567562","0.0-8.0-2.52","FL","hhm1sss4hy","1603","902","en","mi06ka18","null","","","","learningBlock2","","","","<div style=""font-size:60px;""> </div>","null","FL","learning/Slide133.JPG","That was a tob.","",""
"","image-keyboard-response","407","567747","0.0-8.0-0.53","FL","hhm1sss4hy","1603","902","en","mi06ka18","null","","","","","","","","learning/Slide134.JPG","null","","","","",""
"","html-keyboard-response","408","568907","0.0-8.0-1.53","FL","hhm1sss4hy","1603","902","en","mi06ka18","null","","","","learningBlock2","","","","That was a dep.","null","","","","",""
"","html-keyboard-response","409","569914","0.0-8.0-2.53","FL","hhm1sss4hy","1603","902","en","mi06ka18","null","","","","learningBlock2","","","","<div style=""font-size:60px;""> </div>","null","FL","learning/Slide134.JPG","That was a dep.","",""
"","image-keyboard-response","410","570095","0.0-8.0-0.54","FL","hhm1sss4hy","1603","902","en","mi06ka18","null","","","","","","","","learning/Slide135.JPG","null","","","","",""
"","html-keyboard-response","411","571253","0.0-8.0-1.54","FL","hhm1sss4hy","1603","902","en","mi06ka18","null","","","","learningBlock2","","","","That was a tob.","null","","","","",""
"","html-keyboard-response","412","572264","0.0-8.0-2.54","FL","hhm1sss4hy","1603","902","en","mi06ka18","null","","","","learningBlock2","","","","<div style=""font-size:60px;""> </div>","null","FL","learning/Slide135.JPG","That was a tob.","",""
"","image-keyboard-response","413","572445","0.0-8.0-0.55","FL","hhm1sss4hy","1603","902","en","mi06ka18","null","","","","","","","","learning/Slide136.JPG","null","","","","",""
"","html-keyboard-response","414","573604","0.0-8.0-1.55","FL","hhm1sss4hy","1603","902","en","mi06ka18","null","","","","learningBlock2","","","","That was a wug.","null","","","","",""
"","html-keyboard-response","415","574614","0.0-8.0-2.55","FL","hhm1sss4hy","1603","902","en","mi06ka18","null","","","","learningBlock2","","","","<div style=""font-size:60px;""> </div>","null","FL","learning/Slide136.JPG","That was a wug.","",""
"","image-keyboard-response","416","574795","0.0-8.0-0.56","FL","hhm1sss4hy","1603","902","en","mi06ka18","null","","","","","","","","learning/Slide137.JPG","null","","","","",""
"","html-keyboard-response","417","575951","0.0-8.0-1.56","FL","hhm1sss4hy","1603","902","en","mi06ka18","null","","","","learningBlock2","","","","That was a tob.","null","","","","",""
"","html-keyboard-response","418","576958","0.0-8.0-2.56","FL","hhm1sss4hy","1603","902","en","mi06ka18","null","","","","learningBlock2","","","","<div style=""font-size:60px;""> </div>","null","FL","learning/Slide137.JPG","That was a tob.","",""
"","image-keyboard-response","419","577145","0.0-8.0-0.57","FL","hhm1sss4hy","1603","902","en","mi06ka18","null","","","","","","","","learning/Slide138.JPG","null","","","","",""
"","html-keyboard-response","420","578312","0.0-8.0-1.57","FL","hhm1sss4hy","1603","902","en","mi06ka18","null","","","","learningBlock2","","","","That was a bim.","null","","","","",""
"","html-keyboard-response","421","579317","0.0-8.0-2.57","FL","hhm1sss4hy","1603","902","en","mi06ka18","null","","","","learningBlock2","","","","<div style=""font-size:60px;""> </div>","null","FL","learning/Slide138.JPG","That was a bim.","",""
"","image-keyboard-response","422","579497","0.0-8.0-0.58","FL","hhm1sss4hy","1603","902","en","mi06ka18","null","","","","","","","","learning/Slide139.JPG","null","","","","",""
"","html-keyboard-response","423","580656","0.0-8.0-1.58","FL","hhm1sss4hy","1603","902","en","mi06ka18","null","","","","learningBlock2","","","","That was a wug.","null","","","","",""
"","html-keyboard-response","424","581664","0.0-8.0-2.58","FL","hhm1sss4hy","1603","902","en","mi06ka18","null","","","","learningBlock2","","","","<div style=""font-size:60px;""> </div>","null","FL","learning/Slide139.JPG","That was a wug.","",""
"","image-keyboard-response","425","581843","0.0-8.0-0.59","FL","hhm1sss4hy","1603","902","en","mi06ka18","null","","","","","","","","learning/Slide140.JPG","null","","","","",""
"","html-keyboard-response","426","583010","0.0-8.0-1.59","FL","hhm1sss4hy","1603","902","en","mi06ka18","null","","","","learningBlock2","","","","That was a dep.","null","","","","",""
"","html-keyboard-response","427","584020","0.0-8.0-2.59","FL","hhm1sss4hy","1603","902","en","mi06ka18","null","","","","learningBlock2","","","","<div style=""font-size:60px;""> </div>","null","FL","learning/Slide140.JPG","That was a dep.","",""
"","image-keyboard-response","428","584205","0.0-8.0-0.60","FL","hhm1sss4hy","1603","902","en","mi06ka18","null","","","","","","","","learning/Slide141.JPG","null","","","","",""
"","html-keyboard-response","429","585373","0.0-8.0-1.60","FL","hhm1sss4hy","1603","902","en","mi06ka18","null","","","","learningBlock2","","","","That was a tob.","null","","","","",""
"","html-keyboard-response","430","586377","0.0-8.0-2.60","FL","hhm1sss4hy","1603","902","en","mi06ka18","null","","","","learningBlock2","","","","<div style=""font-size:60px;""> </div>","null","FL","learning/Slide141.JPG","That was a tob.","",""
"","image-keyboard-response","431","586560","0.0-8.0-0.61","FL","hhm1sss4hy","1603","902","en","mi06ka18","null","","","","","","","","learning/Slide142.JPG","null","","","","",""
"","html-keyboard-response","432","587726","0.0-8.0-1.61","FL","hhm1sss4hy","1603","902","en","mi06ka18","null","","","","learningBlock2","","","","That was a wug.","null","","","","",""
"","html-keyboard-response","433","588732","0.0-8.0-2.61","FL","hhm1sss4hy","1603","902","en","mi06ka18","null","","","","learningBlock2","","","","<div style=""font-size:60px;""> </div>","null","FL","learning/Slide142.JPG","That was a wug.","",""
"","image-keyboard-response","434","588917","0.0-8.0-0.62","FL","hhm1sss4hy","1603","902","en","mi06ka18","null","","","","","","","","learning/Slide143.JPG","null","","","","",""
"","html-keyboard-response","435","590083","0.0-8.0-1.62","FL","hhm1sss4hy","1603","902","en","mi06ka18","null","","","","learningBlock2","","","","That was a bim.","null","","","","",""
"","html-keyboard-response","436","591092","0.0-8.0-2.62","FL","hhm1sss4hy","1603","902","en","mi06ka18","null","","","","learningBlock2","","","","<div style=""font-size:60px;""> </div>","null","FL","learning/Slide143.JPG","That was a bim.","",""
"","image-keyboard-response","437","591275","0.0-8.0-0.63","FL","hhm1sss4hy","1603","902","en","mi06ka18","null","","","","","","","","learning/Slide144.JPG","null","","","","",""
"","html-keyboard-response","438","592436","0.0-8.0-1.63","FL","hhm1sss4hy","1603","902","en","mi06ka18","null","","","","learningBlock2","","","","That was a dep.","null","","","","",""
"","html-keyboard-response","439","593445","0.0-8.0-2.63","FL","hhm1sss4hy","1603","902","en","mi06ka18","null","","","","learningBlock2","","","","<div style=""font-size:60px;""> </div>","null","FL","learning/Slide144.JPG","That was a dep.","",""
"","image-keyboard-response","440","593622","0.0-8.0-0.64","FL","hhm1sss4hy","1603","902","en","mi06ka18","null","","","","","","","","learning/Slide145.JPG","null","","","","",""
"","html-keyboard-response","441","594777","0.0-8.0-1.64","FL","hhm1sss4hy","1603","902","en","mi06ka18","null","","","","learningBlock2","","","","That was a bim.","null","","","","",""
"","html-keyboard-response","442","595784","0.0-8.0-2.64","FL","hhm1sss4hy","1603","902","en","mi06ka18","null","","","","learningBlock2","","","","<div style=""font-size:60px;""> </div>","null","FL","learning/Slide145.JPG","That was a bim.","",""
"","image-keyboard-response","443","595963","0.0-8.0-0.65","FL","hhm1sss4hy","1603","902","en","mi06ka18","null","","","","","","","","learning/Slide146.JPG","null","","","","",""
"","html-keyboard-response","444","597124","0.0-8.0-1.65","FL","hhm1sss4hy","1603","902","en","mi06ka18","null","","","","learningBlock2","","","","That was a tob.","null","","","","",""
"","html-keyboard-response","445","598135","0.0-8.0-2.65","FL","hhm1sss4hy","1603","902","en","mi06ka18","null","","","","learningBlock2","","","","<div style=""font-size:60px;""> </div>","null","FL","learning/Slide146.JPG","That was a tob.","",""
"","image-keyboard-response","446","598323","0.0-8.0-0.66","FL","hhm1sss4hy","1603","902","en","mi06ka18","null","","","","","","","","learning/Slide147.JPG","null","","","","",""
"","html-keyboard-response","447","599490","0.0-8.0-1.66","FL","hhm1sss4hy","1603","902","en","mi06ka18","null","","","","learningBlock2","","","","That was a wug.","null","","","","",""
"","html-keyboard-response","448","600494","0.0-8.0-2.66","FL","hhm1sss4hy","1603","902","en","mi06ka18","null","","","","learningBlock2","","","","<div style=""font-size:60px;""> </div>","null","FL","learning/Slide147.JPG","That was a wug.","",""
"","image-keyboard-response","449","600674","0.0-8.0-0.67","FL","hhm1sss4hy","1603","902","en","mi06ka18","null","","","","","","","","learning/Slide148.JPG","null","","","","",""
"","html-keyboard-response","450","601836","0.0-8.0-1.67","FL","hhm1sss4hy","1603","902","en","mi06ka18","null","","","","learningBlock2","","","","That was a bim.","null","","","","",""
"","html-keyboard-response","451","602841","0.0-8.0-2.67","FL","hhm1sss4hy","1603","902","en","mi06ka18","null","","","","learningBlock2","","","","<div style=""font-size:60px;""> </div>","null","FL","learning/Slide148.JPG","That was a bim.","",""
"","image-keyboard-response","452","603020","0.0-8.0-0.68","FL","hhm1sss4hy","1603","902","en","mi06ka18","null","","","","","","","","learning/Slide149.JPG","null","","","","",""
"","html-keyboard-response","453","604187","0.0-8.0-1.68","FL","hhm1sss4hy","1603","902","en","mi06ka18","null","","","","learningBlock2","","","","That was a dep.","null","","","","",""
"","html-keyboard-response","454","605193","0.0-8.0-2.68","FL","hhm1sss4hy","1603","902","en","mi06ka18","null","","","","learningBlock2","","","","<div style=""font-size:60px;""> </div>","null","FL","learning/Slide149.JPG","That was a dep.","",""
"","image-keyboard-response","455","605380","0.0-8.0-0.69","FL","hhm1sss4hy","1603","902","en","mi06ka18","null","","","","","","","","learning/Slide150.JPG","null","","","","",""
"","html-keyboard-response","456","606547","0.0-8.0-1.69","FL","hhm1sss4hy","1603","902","en","mi06ka18","null","","","","learningBlock2","","","","That was a wug.","null","","","","",""
"","html-keyboard-response","457","607553","0.0-8.0-2.69","FL","hhm1sss4hy","1603","902","en","mi06ka18","null","","","","learningBlock2","","","","<div style=""font-size:60px;""> </div>","null","FL","learning/Slide150.JPG","That was a wug.","",""
"","image-keyboard-response","458","607738","0.0-8.0-0.70","FL","hhm1sss4hy","1603","902","en","mi06ka18","null","","","","","","","","learning/Slide151.JPG","null","","","","",""
"","html-keyboard-response","459","608901","0.0-8.0-1.70","FL","hhm1sss4hy","1603","902","en","mi06ka18","null","","","","learningBlock2","","","","That was a dep.","null","","","","",""
"","html-keyboard-response","460","609905","0.0-8.0-2.70","FL","hhm1sss4hy","1603","902","en","mi06ka18","null","","","","learningBlock2","","","","<div style=""font-size:60px;""> </div>","null","FL","learning/Slide151.JPG","That was a dep.","",""
"","image-keyboard-response","461","610090","0.0-8.0-0.71","FL","hhm1sss4hy","1603","902","en","mi06ka18","null","","","","","","","","learning/Slide152.JPG","null","","","","",""
"","html-keyboard-response","462","611254","0.0-8.0-1.71","FL","hhm1sss4hy","1603","902","en","mi06ka18","null","","","","learningBlock2","","","","That was a wug.","null","","","","",""
"","html-keyboard-response","463","612260","0.0-8.0-2.71","FL","hhm1sss4hy","1603","902","en","mi06ka18","null","","","","learningBlock2","","","","<div style=""font-size:60px;""> </div>","null","FL","learning/Slide152.JPG","That was a wug.","",""
"","image-keyboard-response","464","612443","0.0-8.0-0.72","FL","hhm1sss4hy","1603","902","en","mi06ka18","null","","","","","","","","learning/Slide153.JPG","null","","","","",""
"","html-keyboard-response","465","613615","0.0-8.0-1.72","FL","hhm1sss4hy","1603","902","en","mi06ka18","null","","","","learningBlock2","","","","That was a bim.","null","","","","",""
"","html-keyboard-response","466","614624","0.0-8.0-2.72","FL","hhm1sss4hy","1603","902","en","mi06ka18","null","","","","learningBlock2","","","","<div style=""font-size:60px;""> </div>","null","FL","learning/Slide153.JPG","That was a bim.","",""
"","image-keyboard-response","467","614810","0.0-8.0-0.73","FL","hhm1sss4hy","1603","902","en","mi06ka18","null","","","","","","","","learning/Slide154.JPG","null","","","","",""
"","html-keyboard-response","468","615973","0.0-8.0-1.73","FL","hhm1sss4hy","1603","902","en","mi06ka18","null","","","","learningBlock2","","","","That was a tob.","null","","","","",""
"","html-keyboard-response","469","616976","0.0-8.0-2.73","FL","hhm1sss4hy","1603","902","en","mi06ka18","null","","","","learningBlock2","","","","<div style=""font-size:60px;""> </div>","null","FL","learning/Slide154.JPG","That was a tob.","",""
"","image-keyboard-response","470","617155","0.0-8.0-0.74","FL","hhm1sss4hy","1603","902","en","mi06ka18","null","","","","","","","","learning/Slide155.JPG","null","","","","",""
"","html-keyboard-response","471","618313","0.0-8.0-1.74","FL","hhm1sss4hy","1603","902","en","mi06ka18","null","","","","learningBlock2","","","","That was a dep.","null","","","","",""
"","html-keyboard-response","472","619322","0.0-8.0-2.74","FL","hhm1sss4hy","1603","902","en","mi06ka18","null","","","","learningBlock2","","","","<div style=""font-size:60px;""> </div>","null","FL","learning/Slide155.JPG","That was a dep.","",""
"","image-keyboard-response","473","619506","0.0-8.0-0.75","FL","hhm1sss4hy","1603","902","en","mi06ka18","null","","","","","","","","learning/Slide156.JPG","null","","","","",""
"","html-keyboard-response","474","620667","0.0-8.0-1.75","FL","hhm1sss4hy","1603","902","en","mi06ka18","null","","","","learningBlock2","","","","That was a bim.","null","","","","",""
"","html-keyboard-response","475","621673","0.0-8.0-2.75","FL","hhm1sss4hy","1603","902","en","mi06ka18","null","","","","learningBlock2","","","","<div style=""font-size:60px;""> </div>","null","FL","learning/Slide156.JPG","That was a bim.","",""
"","image-keyboard-response","476","621850","0.0-8.0-0.76","FL","hhm1sss4hy","1603","902","en","mi06ka18","null","","","","","","","","learning/Slide157.JPG","null","","","","",""
"","html-keyboard-response","477","623017","0.0-8.0-1.76","FL","hhm1sss4hy","1603","902","en","mi06ka18","null","","","","learningBlock2","","","","That was a dep.","null","","","","",""
"","html-keyboard-response","478","624023","0.0-8.0-2.76","FL","hhm1sss4hy","1603","902","en","mi06ka18","null","","","","learningBlock2","","","","<div style=""font-size:60px;""> </div>","null","FL","learning/Slide157.JPG","That was a dep.","",""
"","image-keyboard-response","479","624201","0.0-8.0-0.77","FL","hhm1sss4hy","1603","902","en","mi06ka18","null","","","","","","","","learning/Slide158.JPG","null","","","","",""
"","html-keyboard-response","480","625356","0.0-8.0-1.77","FL","hhm1sss4hy","1603","902","en","mi06ka18","null","","","","learningBlock2","","","","That was a tob.","null","","","","",""
"","html-keyboard-response","481","626361","0.0-8.0-2.77","FL","hhm1sss4hy","1603","902","en","mi06ka18","null","","","","learningBlock2","","","","<div style=""font-size:60px;""> </div>","null","FL","learning/Slide158.JPG","That was a tob.","",""
"","image-keyboard-response","482","626546","0.0-8.0-0.78","FL","hhm1sss4hy","1603","902","en","mi06ka18","null","","","","","","","","learning/Slide159.JPG","null","","","","",""
"","html-keyboard-response","483","627710","0.0-8.0-1.78","FL","hhm1sss4hy","1603","902","en","mi06ka18","null","","","","learningBlock2","","","","That was a dep.","null","","","","",""
"","html-keyboard-response","484","628713","0.0-8.0-2.78","FL","hhm1sss4hy","1603","902","en","mi06ka18","null","","","","learningBlock2","","","","<div style=""font-size:60px;""> </div>","null","FL","learning/Slide159.JPG","That was a dep.","",""
"","image-keyboard-response","485","628894","0.0-8.0-0.79","FL","hhm1sss4hy","1603","902","en","mi06ka18","null","","","","","","","","learning/Slide160.JPG","null","","","","",""
"","html-keyboard-response","486","630057","0.0-8.0-1.79","FL","hhm1sss4hy","1603","902","en","mi06ka18","null","","","","learningBlock2","","","","That was a wug.","null","","","","",""
"","html-keyboard-response","487","631065","0.0-8.0-2.79","FL","hhm1sss4hy","1603","902","en","mi06ka18","null","","","","learningBlock2","","","","<div style=""font-size:60px;""> </div>","null","FL","learning/Slide160.JPG","That was a wug.","",""
"","resize2","488","634893","0.0-9.0","FL","hhm1sss4hy","1603","902","en","mi06ka18","","","","","","","104","1.04","","","","","","",""
