"success","trial_type","trial_index","time_elapsed","internal_node_id","condition","subject","screen_width","screen_height","language","codeword","rt","responses","url","view_history","test_part","final_height_px","final_width_px","scale_factor","stimulus","key_press","learningType","presentedImage","presentedLabel","button_pressed","response"
"true","fullscreen","0","4681","0.0-0.0","LF","490hj15f5l","1280","720","en","el05rd15","","","","","","","","","","","","","","",""
"","survey-html-form","1","16151","0.0-1.0","LF","490hj15f5l","1280","720","en","el05rd15","11467.29000005871","{""language"":""en""}","","","","","","","","","","","","",""
"","external-html","2","50663","0.0-3.0-0.0","LF","490hj15f5l","1280","720","en","el05rd15","34437.79499991797","","text/information_english.html","","","","","","","","","","","",""
"","external-html","3","61329","0.0-3.0-1.0","LF","490hj15f5l","1280","720","en","el05rd15","10586.535000009462","","text/consent_english.html","","","","","","","","","","","",""
"","survey-html-form","4","145409","0.0-3.0-2.0","LF","490hj15f5l","1280","720","en","el05rd15","84078.50000006147","{""codeword_enter"":""el05rd15""}","","","","","","","","","","","","",""
"","instructions","5","167331","0.0-4.0","LF","490hj15f5l","1280","720","en","el05rd15","NA","","","[{""page_index"":0,""viewing_time"":4787.390000070445},{""page_index"":1,""viewing_time"":15631.579999928363}]","instructions","","","","","","","","","",""
"","resize","6","249085","0.0-5.0","LF","490hj15f5l","1280","720","en","el05rd15","","","","","","","390","2.4761904761904763","","","","","","",""
"","html-keyboard-response","7","250089","0.0-6.0-0.0","LF","490hj15f5l","1280","720","en","el05rd15","null","","","","learningBlock1","","","","This is a tob:","null","","","","",""
"","image-keyboard-response","8","250417","0.0-6.0-1.0","LF","490hj15f5l","1280","720","en","el05rd15","null","","","","","","","","learning/Slide1.JPG","null","","","","",""
"","html-keyboard-response","9","251419","0.0-6.0-2.0","LF","490hj15f5l","1280","720","en","el05rd15","null","","","","learningBlock1","","","","<div style=""font-size:60px;""> </div>","null","LF","learning/Slide1.JPG","This is a tob:","",""
"","html-keyboard-response","10","252421","0.0-6.0-0.1","LF","490hj15f5l","1280","720","en","el05rd15","null","","","","learningBlock1","","","","This is a wug:","null","","","","",""
"","image-keyboard-response","11","252748","0.0-6.0-1.1","LF","490hj15f5l","1280","720","en","el05rd15","null","","","","","","","","learning/Slide2.JPG","null","","","","",""
"","html-keyboard-response","12","253750","0.0-6.0-2.1","LF","490hj15f5l","1280","720","en","el05rd15","null","","","","learningBlock1","","","","<div style=""font-size:60px;""> </div>","null","LF","learning/Slide2.JPG","This is a wug:","",""
"","html-keyboard-response","13","254751","0.0-6.0-0.2","LF","490hj15f5l","1280","720","en","el05rd15","null","","","","learningBlock1","","","","This is a bim:","null","","","","",""
"","image-keyboard-response","14","255079","0.0-6.0-1.2","LF","490hj15f5l","1280","720","en","el05rd15","null","","","","","","","","learning/Slide3.JPG","null","","","","",""
"","html-keyboard-response","15","256081","0.0-6.0-2.2","LF","490hj15f5l","1280","720","en","el05rd15","null","","","","learningBlock1","","","","<div style=""font-size:60px;""> </div>","null","LF","learning/Slide3.JPG","This is a bim:","",""
"","html-keyboard-response","16","257083","0.0-6.0-0.3","LF","490hj15f5l","1280","720","en","el05rd15","null","","","","learningBlock1","","","","This is a dep:","null","","","","",""
"","image-keyboard-response","17","257410","0.0-6.0-1.3","LF","490hj15f5l","1280","720","en","el05rd15","null","","","","","","","","learning/Slide4.JPG","null","","","","",""
"","html-keyboard-response","18","258411","0.0-6.0-2.3","LF","490hj15f5l","1280","720","en","el05rd15","null","","","","learningBlock1","","","","<div style=""font-size:60px;""> </div>","null","LF","learning/Slide4.JPG","This is a dep:","",""
"","html-keyboard-response","19","259413","0.0-6.0-0.4","LF","490hj15f5l","1280","720","en","el05rd15","null","","","","learningBlock1","","","","This is a wug:","null","","","","",""
"","image-keyboard-response","20","259741","0.0-6.0-1.4","LF","490hj15f5l","1280","720","en","el05rd15","null","","","","","","","","learning/Slide5.JPG","null","","","","",""
"","html-keyboard-response","21","260743","0.0-6.0-2.4","LF","490hj15f5l","1280","720","en","el05rd15","null","","","","learningBlock1","","","","<div style=""font-size:60px;""> </div>","null","LF","learning/Slide5.JPG","This is a wug:","",""
"","html-keyboard-response","22","261745","0.0-6.0-0.5","LF","490hj15f5l","1280","720","en","el05rd15","null","","","","learningBlock1","","","","This is a dep:","null","","","","",""
"","image-keyboard-response","23","262073","0.0-6.0-1.5","LF","490hj15f5l","1280","720","en","el05rd15","null","","","","","","","","learning/Slide6.JPG","null","","","","",""
"","html-keyboard-response","24","263075","0.0-6.0-2.5","LF","490hj15f5l","1280","720","en","el05rd15","null","","","","learningBlock1","","","","<div style=""font-size:60px;""> </div>","null","LF","learning/Slide6.JPG","This is a dep:","",""
"","html-keyboard-response","25","264079","0.0-6.0-0.6","LF","490hj15f5l","1280","720","en","el05rd15","null","","","","learningBlock1","","","","This is a wug:","null","","","","",""
"","image-keyboard-response","26","264406","0.0-6.0-1.6","LF","490hj15f5l","1280","720","en","el05rd15","null","","","","","","","","learning/Slide7.JPG","null","","","","",""
"","html-keyboard-response","27","265407","0.0-6.0-2.6","LF","490hj15f5l","1280","720","en","el05rd15","null","","","","learningBlock1","","","","<div style=""font-size:60px;""> </div>","null","LF","learning/Slide7.JPG","This is a wug:","",""
"","html-keyboard-response","28","266408","0.0-6.0-0.7","LF","490hj15f5l","1280","720","en","el05rd15","null","","","","learningBlock1","","","","This is a bim:","null","","","","",""
"","image-keyboard-response","29","266735","0.0-6.0-1.7","LF","490hj15f5l","1280","720","en","el05rd15","null","","","","","","","","learning/Slide8.JPG","null","","","","",""
"","html-keyboard-response","30","267736","0.0-6.0-2.7","LF","490hj15f5l","1280","720","en","el05rd15","null","","","","learningBlock1","","","","<div style=""font-size:60px;""> </div>","null","LF","learning/Slide8.JPG","This is a bim:","",""
"","html-keyboard-response","31","268737","0.0-6.0-0.8","LF","490hj15f5l","1280","720","en","el05rd15","null","","","","learningBlock1","","","","This is a wug:","null","","","","",""
"","image-keyboard-response","32","269065","0.0-6.0-1.8","LF","490hj15f5l","1280","720","en","el05rd15","null","","","","","","","","learning/Slide9.JPG","null","","","","",""
"","html-keyboard-response","33","270067","0.0-6.0-2.8","LF","490hj15f5l","1280","720","en","el05rd15","null","","","","learningBlock1","","","","<div style=""font-size:60px;""> </div>","null","LF","learning/Slide9.JPG","This is a wug:","",""
"","html-keyboard-response","34","271070","0.0-6.0-0.9","LF","490hj15f5l","1280","720","en","el05rd15","null","","","","learningBlock1","","","","This is a dep:","null","","","","",""
"","image-keyboard-response","35","271398","0.0-6.0-1.9","LF","490hj15f5l","1280","720","en","el05rd15","null","","","","","","","","learning/Slide10.JPG","null","","","","",""
"","html-keyboard-response","36","272400","0.0-6.0-2.9","LF","490hj15f5l","1280","720","en","el05rd15","null","","","","learningBlock1","","","","<div style=""font-size:60px;""> </div>","null","LF","learning/Slide10.JPG","This is a dep:","",""
"","html-keyboard-response","37","273401","0.0-6.0-0.10","LF","490hj15f5l","1280","720","en","el05rd15","null","","","","learningBlock1","","","","This is a tob:","null","","","","",""
"","image-keyboard-response","38","273729","0.0-6.0-1.10","LF","490hj15f5l","1280","720","en","el05rd15","null","","","","","","","","learning/Slide11.JPG","null","","","","",""
"","html-keyboard-response","39","274730","0.0-6.0-2.10","LF","490hj15f5l","1280","720","en","el05rd15","null","","","","learningBlock1","","","","<div style=""font-size:60px;""> </div>","null","LF","learning/Slide11.JPG","This is a tob:","",""
"","html-keyboard-response","40","275733","0.0-6.0-0.11","LF","490hj15f5l","1280","720","en","el05rd15","null","","","","learningBlock1","","","","This is a dep:","null","","","","",""
"","image-keyboard-response","41","276061","0.0-6.0-1.11","LF","490hj15f5l","1280","720","en","el05rd15","null","","","","","","","","learning/Slide12.JPG","null","","","","",""
"","html-keyboard-response","42","277063","0.0-6.0-2.11","LF","490hj15f5l","1280","720","en","el05rd15","null","","","","learningBlock1","","","","<div style=""font-size:60px;""> </div>","null","LF","learning/Slide12.JPG","This is a dep:","",""
"","html-keyboard-response","43","278065","0.0-6.0-0.12","LF","490hj15f5l","1280","720","en","el05rd15","null","","","","learningBlock1","","","","This is a bim:","null","","","","",""
"","image-keyboard-response","44","278392","0.0-6.0-1.12","LF","490hj15f5l","1280","720","en","el05rd15","null","","","","","","","","learning/Slide13.JPG","null","","","","",""
"","html-keyboard-response","45","279393","0.0-6.0-2.12","LF","490hj15f5l","1280","720","en","el05rd15","null","","","","learningBlock1","","","","<div style=""font-size:60px;""> </div>","null","LF","learning/Slide13.JPG","This is a bim:","",""
"","html-keyboard-response","46","280395","0.0-6.0-0.13","LF","490hj15f5l","1280","720","en","el05rd15","null","","","","learningBlock1","","","","This is a wug:","null","","","","",""
"","image-keyboard-response","47","280724","0.0-6.0-1.13","LF","490hj15f5l","1280","720","en","el05rd15","null","","","","","","","","learning/Slide14.JPG","null","","","","",""
"","html-keyboard-response","48","281725","0.0-6.0-2.13","LF","490hj15f5l","1280","720","en","el05rd15","null","","","","learningBlock1","","","","<div style=""font-size:60px;""> </div>","null","LF","learning/Slide14.JPG","This is a wug:","",""
"","html-keyboard-response","49","282726","0.0-6.0-0.14","LF","490hj15f5l","1280","720","en","el05rd15","null","","","","learningBlock1","","","","This is a tob:","null","","","","",""
"","image-keyboard-response","50","283054","0.0-6.0-1.14","LF","490hj15f5l","1280","720","en","el05rd15","null","","","","","","","","learning/Slide15.JPG","null","","","","",""
"","html-keyboard-response","51","284056","0.0-6.0-2.14","LF","490hj15f5l","1280","720","en","el05rd15","null","","","","learningBlock1","","","","<div style=""font-size:60px;""> </div>","null","LF","learning/Slide15.JPG","This is a tob:","",""
"","html-keyboard-response","52","285058","0.0-6.0-0.15","LF","490hj15f5l","1280","720","en","el05rd15","null","","","","learningBlock1","","","","This is a dep:","null","","","","",""
"","image-keyboard-response","53","285386","0.0-6.0-1.15","LF","490hj15f5l","1280","720","en","el05rd15","null","","","","","","","","learning/Slide16.JPG","null","","","","",""
"","html-keyboard-response","54","286388","0.0-6.0-2.15","LF","490hj15f5l","1280","720","en","el05rd15","null","","","","learningBlock1","","","","<div style=""font-size:60px;""> </div>","null","LF","learning/Slide16.JPG","This is a dep:","",""
"","html-keyboard-response","55","287390","0.0-6.0-0.16","LF","490hj15f5l","1280","720","en","el05rd15","null","","","","learningBlock1","","","","This is a bim:","null","","","","",""
"","image-keyboard-response","56","287718","0.0-6.0-1.16","LF","490hj15f5l","1280","720","en","el05rd15","null","","","","","","","","learning/Slide17.JPG","null","","","","",""
"","html-keyboard-response","57","288719","0.0-6.0-2.16","LF","490hj15f5l","1280","720","en","el05rd15","null","","","","learningBlock1","","","","<div style=""font-size:60px;""> </div>","null","LF","learning/Slide17.JPG","This is a bim:","",""
"","html-keyboard-response","58","289721","0.0-6.0-0.17","LF","490hj15f5l","1280","720","en","el05rd15","null","","","","learningBlock1","","","","This is a tob:","null","","","","",""
"","image-keyboard-response","59","290048","0.0-6.0-1.17","LF","490hj15f5l","1280","720","en","el05rd15","null","","","","","","","","learning/Slide18.JPG","null","","","","",""
"","html-keyboard-response","60","291051","0.0-6.0-2.17","LF","490hj15f5l","1280","720","en","el05rd15","null","","","","learningBlock1","","","","<div style=""font-size:60px;""> </div>","null","LF","learning/Slide18.JPG","This is a tob:","",""
"","html-keyboard-response","61","292052","0.0-6.0-0.18","LF","490hj15f5l","1280","720","en","el05rd15","null","","","","learningBlock1","","","","This is a wug:","null","","","","",""
"","image-keyboard-response","62","292381","0.0-6.0-1.18","LF","490hj15f5l","1280","720","en","el05rd15","null","","","","","","","","learning/Slide19.JPG","null","","","","",""
"","html-keyboard-response","63","293383","0.0-6.0-2.18","LF","490hj15f5l","1280","720","en","el05rd15","null","","","","learningBlock1","","","","<div style=""font-size:60px;""> </div>","null","LF","learning/Slide19.JPG","This is a wug:","",""
"","html-keyboard-response","64","294385","0.0-6.0-0.19","LF","490hj15f5l","1280","720","en","el05rd15","null","","","","learningBlock1","","","","This is a bim:","null","","","","",""
"","image-keyboard-response","65","294713","0.0-6.0-1.19","LF","490hj15f5l","1280","720","en","el05rd15","null","","","","","","","","learning/Slide20.JPG","null","","","","",""
"","html-keyboard-response","66","295715","0.0-6.0-2.19","LF","490hj15f5l","1280","720","en","el05rd15","null","","","","learningBlock1","","","","<div style=""font-size:60px;""> </div>","null","LF","learning/Slide20.JPG","This is a bim:","",""
"","html-keyboard-response","67","296715","0.0-6.0-0.20","LF","490hj15f5l","1280","720","en","el05rd15","null","","","","learningBlock1","","","","This is a dep:","null","","","","",""
"","image-keyboard-response","68","297044","0.0-6.0-1.20","LF","490hj15f5l","1280","720","en","el05rd15","null","","","","","","","","learning/Slide21.JPG","null","","","","",""
"","html-keyboard-response","69","298048","0.0-6.0-2.20","LF","490hj15f5l","1280","720","en","el05rd15","null","","","","learningBlock1","","","","<div style=""font-size:60px;""> </div>","null","LF","learning/Slide21.JPG","This is a dep:","",""
"","html-keyboard-response","70","299050","0.0-6.0-0.21","LF","490hj15f5l","1280","720","en","el05rd15","null","","","","learningBlock1","","","","This is a bim:","null","","","","",""
"","image-keyboard-response","71","299378","0.0-6.0-1.21","LF","490hj15f5l","1280","720","en","el05rd15","null","","","","","","","","learning/Slide22.JPG","null","","","","",""
"","html-keyboard-response","72","300380","0.0-6.0-2.21","LF","490hj15f5l","1280","720","en","el05rd15","null","","","","learningBlock1","","","","<div style=""font-size:60px;""> </div>","null","LF","learning/Slide22.JPG","This is a bim:","",""
"","html-keyboard-response","73","301381","0.0-6.0-0.22","LF","490hj15f5l","1280","720","en","el05rd15","null","","","","learningBlock1","","","","This is a tob:","null","","","","",""
"","image-keyboard-response","74","301709","0.0-6.0-1.22","LF","490hj15f5l","1280","720","en","el05rd15","null","","","","","","","","learning/Slide23.JPG","null","","","","",""
"","html-keyboard-response","75","302711","0.0-6.0-2.22","LF","490hj15f5l","1280","720","en","el05rd15","null","","","","learningBlock1","","","","<div style=""font-size:60px;""> </div>","null","LF","learning/Slide23.JPG","This is a tob:","",""
"","html-keyboard-response","76","303713","0.0-6.0-0.23","LF","490hj15f5l","1280","720","en","el05rd15","null","","","","learningBlock1","","","","This is a wug:","null","","","","",""
"","image-keyboard-response","77","304040","0.0-6.0-1.23","LF","490hj15f5l","1280","720","en","el05rd15","null","","","","","","","","learning/Slide24.JPG","null","","","","",""
"","html-keyboard-response","78","305043","0.0-6.0-2.23","LF","490hj15f5l","1280","720","en","el05rd15","null","","","","learningBlock1","","","","<div style=""font-size:60px;""> </div>","null","LF","learning/Slide24.JPG","This is a wug:","",""
"","html-keyboard-response","79","306044","0.0-6.0-0.24","LF","490hj15f5l","1280","720","en","el05rd15","null","","","","learningBlock1","","","","This is a dep:","null","","","","",""
"","image-keyboard-response","80","306371","0.0-6.0-1.24","LF","490hj15f5l","1280","720","en","el05rd15","null","","","","","","","","learning/Slide25.JPG","null","","","","",""
"","html-keyboard-response","81","307372","0.0-6.0-2.24","LF","490hj15f5l","1280","720","en","el05rd15","null","","","","learningBlock1","","","","<div style=""font-size:60px;""> </div>","null","LF","learning/Slide25.JPG","This is a dep:","",""
"","html-keyboard-response","82","308374","0.0-6.0-0.25","LF","490hj15f5l","1280","720","en","el05rd15","null","","","","learningBlock1","","","","This is a wug:","null","","","","",""
"","image-keyboard-response","83","308701","0.0-6.0-1.25","LF","490hj15f5l","1280","720","en","el05rd15","null","","","","","","","","learning/Slide26.JPG","null","","","","",""
"","html-keyboard-response","84","309703","0.0-6.0-2.25","LF","490hj15f5l","1280","720","en","el05rd15","null","","","","learningBlock1","","","","<div style=""font-size:60px;""> </div>","null","LF","learning/Slide26.JPG","This is a wug:","",""
"","html-keyboard-response","85","310705","0.0-6.0-0.26","LF","490hj15f5l","1280","720","en","el05rd15","null","","","","learningBlock1","","","","This is a bim:","null","","","","",""
"","image-keyboard-response","86","311031","0.0-6.0-1.26","LF","490hj15f5l","1280","720","en","el05rd15","null","","","","","","","","learning/Slide27.JPG","null","","","","",""
"","html-keyboard-response","87","312032","0.0-6.0-2.26","LF","490hj15f5l","1280","720","en","el05rd15","null","","","","learningBlock1","","","","<div style=""font-size:60px;""> </div>","null","LF","learning/Slide27.JPG","This is a bim:","",""
"","html-keyboard-response","88","313034","0.0-6.0-0.27","LF","490hj15f5l","1280","720","en","el05rd15","null","","","","learningBlock1","","","","This is a dep:","null","","","","",""
"","image-keyboard-response","89","313362","0.0-6.0-1.27","LF","490hj15f5l","1280","720","en","el05rd15","null","","","","","","","","learning/Slide28.JPG","null","","","","",""
"","html-keyboard-response","90","314364","0.0-6.0-2.27","LF","490hj15f5l","1280","720","en","el05rd15","null","","","","learningBlock1","","","","<div style=""font-size:60px;""> </div>","null","LF","learning/Slide28.JPG","This is a dep:","",""
"","html-keyboard-response","91","315366","0.0-6.0-0.28","LF","490hj15f5l","1280","720","en","el05rd15","null","","","","learningBlock1","","","","This is a tob:","null","","","","",""
"","image-keyboard-response","92","315692","0.0-6.0-1.28","LF","490hj15f5l","1280","720","en","el05rd15","null","","","","","","","","learning/Slide29.JPG","null","","","","",""
"","html-keyboard-response","93","316694","0.0-6.0-2.28","LF","490hj15f5l","1280","720","en","el05rd15","null","","","","learningBlock1","","","","<div style=""font-size:60px;""> </div>","null","LF","learning/Slide29.JPG","This is a tob:","",""
"","html-keyboard-response","94","317695","0.0-6.0-0.29","LF","490hj15f5l","1280","720","en","el05rd15","null","","","","learningBlock1","","","","This is a dep:","null","","","","",""
"","image-keyboard-response","95","318023","0.0-6.0-1.29","LF","490hj15f5l","1280","720","en","el05rd15","null","","","","","","","","learning/Slide30.JPG","null","","","","",""
"","html-keyboard-response","96","319025","0.0-6.0-2.29","LF","490hj15f5l","1280","720","en","el05rd15","null","","","","learningBlock1","","","","<div style=""font-size:60px;""> </div>","null","LF","learning/Slide30.JPG","This is a dep:","",""
"","html-keyboard-response","97","320027","0.0-6.0-0.30","LF","490hj15f5l","1280","720","en","el05rd15","null","","","","learningBlock1","","","","This is a wug:","null","","","","",""
"","image-keyboard-response","98","320353","0.0-6.0-1.30","LF","490hj15f5l","1280","720","en","el05rd15","null","","","","","","","","learning/Slide31.JPG","null","","","","",""
"","html-keyboard-response","99","321355","0.0-6.0-2.30","LF","490hj15f5l","1280","720","en","el05rd15","null","","","","learningBlock1","","","","<div style=""font-size:60px;""> </div>","null","LF","learning/Slide31.JPG","This is a wug:","",""
"","html-keyboard-response","100","322357","0.0-6.0-0.31","LF","490hj15f5l","1280","720","en","el05rd15","null","","","","learningBlock1","","","","This is a tob:","null","","","","",""
"","image-keyboard-response","101","322684","0.0-6.0-1.31","LF","490hj15f5l","1280","720","en","el05rd15","null","","","","","","","","learning/Slide32.JPG","null","","","","",""
"","html-keyboard-response","102","323686","0.0-6.0-2.31","LF","490hj15f5l","1280","720","en","el05rd15","null","","","","learningBlock1","","","","<div style=""font-size:60px;""> </div>","null","LF","learning/Slide32.JPG","This is a tob:","",""
"","html-keyboard-response","103","324687","0.0-6.0-0.32","LF","490hj15f5l","1280","720","en","el05rd15","null","","","","learningBlock1","","","","This is a bim:","null","","","","",""
"","image-keyboard-response","104","325016","0.0-6.0-1.32","LF","490hj15f5l","1280","720","en","el05rd15","null","","","","","","","","learning/Slide33.JPG","null","","","","",""
"","html-keyboard-response","105","326018","0.0-6.0-2.32","LF","490hj15f5l","1280","720","en","el05rd15","null","","","","learningBlock1","","","","<div style=""font-size:60px;""> </div>","null","LF","learning/Slide33.JPG","This is a bim:","",""
"","html-keyboard-response","106","327020","0.0-6.0-0.33","LF","490hj15f5l","1280","720","en","el05rd15","null","","","","learningBlock1","","","","This is a tob:","null","","","","",""
"","image-keyboard-response","107","327348","0.0-6.0-1.33","LF","490hj15f5l","1280","720","en","el05rd15","null","","","","","","","","learning/Slide34.JPG","null","","","","",""
"","html-keyboard-response","108","328349","0.0-6.0-2.33","LF","490hj15f5l","1280","720","en","el05rd15","null","","","","learningBlock1","","","","<div style=""font-size:60px;""> </div>","null","LF","learning/Slide34.JPG","This is a tob:","",""
"","html-keyboard-response","109","329351","0.0-6.0-0.34","LF","490hj15f5l","1280","720","en","el05rd15","null","","","","learningBlock1","","","","This is a bim:","null","","","","",""
"","image-keyboard-response","110","329679","0.0-6.0-1.34","LF","490hj15f5l","1280","720","en","el05rd15","null","","","","","","","","learning/Slide35.JPG","null","","","","",""
"","html-keyboard-response","111","330680","0.0-6.0-2.34","LF","490hj15f5l","1280","720","en","el05rd15","null","","","","learningBlock1","","","","<div style=""font-size:60px;""> </div>","null","LF","learning/Slide35.JPG","This is a bim:","",""
"","html-keyboard-response","112","331682","0.0-6.0-0.35","LF","490hj15f5l","1280","720","en","el05rd15","null","","","","learningBlock1","","","","This is a dep:","null","","","","",""
"","image-keyboard-response","113","332010","0.0-6.0-1.35","LF","490hj15f5l","1280","720","en","el05rd15","null","","","","","","","","learning/Slide36.JPG","null","","","","",""
"","html-keyboard-response","114","333011","0.0-6.0-2.35","LF","490hj15f5l","1280","720","en","el05rd15","null","","","","learningBlock1","","","","<div style=""font-size:60px;""> </div>","null","LF","learning/Slide36.JPG","This is a dep:","",""
"","html-keyboard-response","115","334013","0.0-6.0-0.36","LF","490hj15f5l","1280","720","en","el05rd15","null","","","","learningBlock1","","","","This is a tob:","null","","","","",""
"","image-keyboard-response","116","334339","0.0-6.0-1.36","LF","490hj15f5l","1280","720","en","el05rd15","null","","","","","","","","learning/Slide37.JPG","null","","","","",""
"","html-keyboard-response","117","335340","0.0-6.0-2.36","LF","490hj15f5l","1280","720","en","el05rd15","null","","","","learningBlock1","","","","<div style=""font-size:60px;""> </div>","null","LF","learning/Slide37.JPG","This is a tob:","",""
"","html-keyboard-response","118","336342","0.0-6.0-0.37","LF","490hj15f5l","1280","720","en","el05rd15","null","","","","learningBlock1","","","","This is a wug:","null","","","","",""
"","image-keyboard-response","119","336669","0.0-6.0-1.37","LF","490hj15f5l","1280","720","en","el05rd15","null","","","","","","","","learning/Slide38.JPG","null","","","","",""
"","html-keyboard-response","120","337670","0.0-6.0-2.37","LF","490hj15f5l","1280","720","en","el05rd15","null","","","","learningBlock1","","","","<div style=""font-size:60px;""> </div>","null","LF","learning/Slide38.JPG","This is a wug:","",""
"","html-keyboard-response","121","338672","0.0-6.0-0.38","LF","490hj15f5l","1280","720","en","el05rd15","null","","","","learningBlock1","","","","This is a bim:","null","","","","",""
"","image-keyboard-response","122","339000","0.0-6.0-1.38","LF","490hj15f5l","1280","720","en","el05rd15","null","","","","","","","","learning/Slide39.JPG","null","","","","",""
"","html-keyboard-response","123","340001","0.0-6.0-2.38","LF","490hj15f5l","1280","720","en","el05rd15","null","","","","learningBlock1","","","","<div style=""font-size:60px;""> </div>","null","LF","learning/Slide39.JPG","This is a bim:","",""
"","html-keyboard-response","124","341002","0.0-6.0-0.39","LF","490hj15f5l","1280","720","en","el05rd15","null","","","","learningBlock1","","","","This is a tob:","null","","","","",""
"","image-keyboard-response","125","341331","0.0-6.0-1.39","LF","490hj15f5l","1280","720","en","el05rd15","null","","","","","","","","learning/Slide40.JPG","null","","","","",""
"","html-keyboard-response","126","342333","0.0-6.0-2.39","LF","490hj15f5l","1280","720","en","el05rd15","null","","","","learningBlock1","","","","<div style=""font-size:60px;""> </div>","null","LF","learning/Slide40.JPG","This is a tob:","",""
"","html-keyboard-response","127","343334","0.0-6.0-0.40","LF","490hj15f5l","1280","720","en","el05rd15","null","","","","learningBlock1","","","","This is a bim:","null","","","","",""
"","image-keyboard-response","128","343662","0.0-6.0-1.40","LF","490hj15f5l","1280","720","en","el05rd15","null","","","","","","","","learning/Slide41.JPG","null","","","","",""
"","html-keyboard-response","129","344664","0.0-6.0-2.40","LF","490hj15f5l","1280","720","en","el05rd15","null","","","","learningBlock1","","","","<div style=""font-size:60px;""> </div>","null","LF","learning/Slide41.JPG","This is a bim:","",""
"","html-keyboard-response","130","345665","0.0-6.0-0.41","LF","490hj15f5l","1280","720","en","el05rd15","null","","","","learningBlock1","","","","This is a dep:","null","","","","",""
"","image-keyboard-response","131","345994","0.0-6.0-1.41","LF","490hj15f5l","1280","720","en","el05rd15","null","","","","","","","","learning/Slide42.JPG","null","","","","",""
"","html-keyboard-response","132","346995","0.0-6.0-2.41","LF","490hj15f5l","1280","720","en","el05rd15","null","","","","learningBlock1","","","","<div style=""font-size:60px;""> </div>","null","LF","learning/Slide42.JPG","This is a dep:","",""
"","html-keyboard-response","133","347996","0.0-6.0-0.42","LF","490hj15f5l","1280","720","en","el05rd15","null","","","","learningBlock1","","","","This is a wug:","null","","","","",""
"","image-keyboard-response","134","348325","0.0-6.0-1.42","LF","490hj15f5l","1280","720","en","el05rd15","null","","","","","","","","learning/Slide43.JPG","null","","","","",""
"","html-keyboard-response","135","349327","0.0-6.0-2.42","LF","490hj15f5l","1280","720","en","el05rd15","null","","","","learningBlock1","","","","<div style=""font-size:60px;""> </div>","null","LF","learning/Slide43.JPG","This is a wug:","",""
"","html-keyboard-response","136","350328","0.0-6.0-0.43","LF","490hj15f5l","1280","720","en","el05rd15","null","","","","learningBlock1","","","","This is a bim:","null","","","","",""
"","image-keyboard-response","137","350656","0.0-6.0-1.43","LF","490hj15f5l","1280","720","en","el05rd15","null","","","","","","","","learning/Slide44.JPG","null","","","","",""
"","html-keyboard-response","138","351658","0.0-6.0-2.43","LF","490hj15f5l","1280","720","en","el05rd15","null","","","","learningBlock1","","","","<div style=""font-size:60px;""> </div>","null","LF","learning/Slide44.JPG","This is a bim:","",""
"","html-keyboard-response","139","352659","0.0-6.0-0.44","LF","490hj15f5l","1280","720","en","el05rd15","null","","","","learningBlock1","","","","This is a wug:","null","","","","",""
"","image-keyboard-response","140","352986","0.0-6.0-1.44","LF","490hj15f5l","1280","720","en","el05rd15","null","","","","","","","","learning/Slide45.JPG","null","","","","",""
"","html-keyboard-response","141","353987","0.0-6.0-2.44","LF","490hj15f5l","1280","720","en","el05rd15","null","","","","learningBlock1","","","","<div style=""font-size:60px;""> </div>","null","LF","learning/Slide45.JPG","This is a wug:","",""
"","html-keyboard-response","142","354989","0.0-6.0-0.45","LF","490hj15f5l","1280","720","en","el05rd15","null","","","","learningBlock1","","","","This is a dep:","null","","","","",""
"","image-keyboard-response","143","355317","0.0-6.0-1.45","LF","490hj15f5l","1280","720","en","el05rd15","null","","","","","","","","learning/Slide46.JPG","null","","","","",""
"","html-keyboard-response","144","356319","0.0-6.0-2.45","LF","490hj15f5l","1280","720","en","el05rd15","null","","","","learningBlock1","","","","<div style=""font-size:60px;""> </div>","null","LF","learning/Slide46.JPG","This is a dep:","",""
"","html-keyboard-response","145","357321","0.0-6.0-0.46","LF","490hj15f5l","1280","720","en","el05rd15","null","","","","learningBlock1","","","","This is a tob:","null","","","","",""
"","image-keyboard-response","146","357648","0.0-6.0-1.46","LF","490hj15f5l","1280","720","en","el05rd15","null","","","","","","","","learning/Slide47.JPG","null","","","","",""
"","html-keyboard-response","147","358649","0.0-6.0-2.46","LF","490hj15f5l","1280","720","en","el05rd15","null","","","","learningBlock1","","","","<div style=""font-size:60px;""> </div>","null","LF","learning/Slide47.JPG","This is a tob:","",""
"","html-keyboard-response","148","359652","0.0-6.0-0.47","LF","490hj15f5l","1280","720","en","el05rd15","null","","","","learningBlock1","","","","This is a bim:","null","","","","",""
"","image-keyboard-response","149","359978","0.0-6.0-1.47","LF","490hj15f5l","1280","720","en","el05rd15","null","","","","","","","","learning/Slide48.JPG","null","","","","",""
"","html-keyboard-response","150","360979","0.0-6.0-2.47","LF","490hj15f5l","1280","720","en","el05rd15","null","","","","learningBlock1","","","","<div style=""font-size:60px;""> </div>","null","LF","learning/Slide48.JPG","This is a bim:","",""
"","html-keyboard-response","151","361981","0.0-6.0-0.48","LF","490hj15f5l","1280","720","en","el05rd15","null","","","","learningBlock1","","","","This is a dep:","null","","","","",""
"","image-keyboard-response","152","362309","0.0-6.0-1.48","LF","490hj15f5l","1280","720","en","el05rd15","null","","","","","","","","learning/Slide49.JPG","null","","","","",""
"","html-keyboard-response","153","363311","0.0-6.0-2.48","LF","490hj15f5l","1280","720","en","el05rd15","null","","","","learningBlock1","","","","<div style=""font-size:60px;""> </div>","null","LF","learning/Slide49.JPG","This is a dep:","",""
"","html-keyboard-response","154","364313","0.0-6.0-0.49","LF","490hj15f5l","1280","720","en","el05rd15","null","","","","learningBlock1","","","","This is a tob:","null","","","","",""
"","image-keyboard-response","155","364639","0.0-6.0-1.49","LF","490hj15f5l","1280","720","en","el05rd15","null","","","","","","","","learning/Slide50.JPG","null","","","","",""
"","html-keyboard-response","156","365641","0.0-6.0-2.49","LF","490hj15f5l","1280","720","en","el05rd15","null","","","","learningBlock1","","","","<div style=""font-size:60px;""> </div>","null","LF","learning/Slide50.JPG","This is a tob:","",""
"","html-keyboard-response","157","366643","0.0-6.0-0.50","LF","490hj15f5l","1280","720","en","el05rd15","null","","","","learningBlock1","","","","This is a bim:","null","","","","",""
"","image-keyboard-response","158","366969","0.0-6.0-1.50","LF","490hj15f5l","1280","720","en","el05rd15","null","","","","","","","","learning/Slide51.JPG","null","","","","",""
"","html-keyboard-response","159","367971","0.0-6.0-2.50","LF","490hj15f5l","1280","720","en","el05rd15","null","","","","learningBlock1","","","","<div style=""font-size:60px;""> </div>","null","LF","learning/Slide51.JPG","This is a bim:","",""
"","html-keyboard-response","160","368973","0.0-6.0-0.51","LF","490hj15f5l","1280","720","en","el05rd15","null","","","","learningBlock1","","","","This is a wug:","null","","","","",""
"","image-keyboard-response","161","369302","0.0-6.0-1.51","LF","490hj15f5l","1280","720","en","el05rd15","null","","","","","","","","learning/Slide52.JPG","null","","","","",""
"","html-keyboard-response","162","370304","0.0-6.0-2.51","LF","490hj15f5l","1280","720","en","el05rd15","null","","","","learningBlock1","","","","<div style=""font-size:60px;""> </div>","null","LF","learning/Slide52.JPG","This is a wug:","",""
"","html-keyboard-response","163","371306","0.0-6.0-0.52","LF","490hj15f5l","1280","720","en","el05rd15","null","","","","learningBlock1","","","","This is a tob:","null","","","","",""
"","image-keyboard-response","164","371633","0.0-6.0-1.52","LF","490hj15f5l","1280","720","en","el05rd15","null","","","","","","","","learning/Slide53.JPG","null","","","","",""
"","html-keyboard-response","165","372634","0.0-6.0-2.52","LF","490hj15f5l","1280","720","en","el05rd15","null","","","","learningBlock1","","","","<div style=""font-size:60px;""> </div>","null","LF","learning/Slide53.JPG","This is a tob:","",""
"","html-keyboard-response","166","373636","0.0-6.0-0.53","LF","490hj15f5l","1280","720","en","el05rd15","null","","","","learningBlock1","","","","This is a dep:","null","","","","",""
"","image-keyboard-response","167","373963","0.0-6.0-1.53","LF","490hj15f5l","1280","720","en","el05rd15","null","","","","","","","","learning/Slide54.JPG","null","","","","",""
"","html-keyboard-response","168","374964","0.0-6.0-2.53","LF","490hj15f5l","1280","720","en","el05rd15","null","","","","learningBlock1","","","","<div style=""font-size:60px;""> </div>","null","LF","learning/Slide54.JPG","This is a dep:","",""
"","html-keyboard-response","169","375966","0.0-6.0-0.54","LF","490hj15f5l","1280","720","en","el05rd15","null","","","","learningBlock1","","","","This is a bim:","null","","","","",""
"","image-keyboard-response","170","376293","0.0-6.0-1.54","LF","490hj15f5l","1280","720","en","el05rd15","null","","","","","","","","learning/Slide55.JPG","null","","","","",""
"","html-keyboard-response","171","377296","0.0-6.0-2.54","LF","490hj15f5l","1280","720","en","el05rd15","null","","","","learningBlock1","","","","<div style=""font-size:60px;""> </div>","null","LF","learning/Slide55.JPG","This is a bim:","",""
"","html-keyboard-response","172","378297","0.0-6.0-0.55","LF","490hj15f5l","1280","720","en","el05rd15","null","","","","learningBlock1","","","","This is a tob:","null","","","","",""
"","image-keyboard-response","173","378626","0.0-6.0-1.55","LF","490hj15f5l","1280","720","en","el05rd15","null","","","","","","","","learning/Slide56.JPG","null","","","","",""
"","html-keyboard-response","174","379628","0.0-6.0-2.55","LF","490hj15f5l","1280","720","en","el05rd15","null","","","","learningBlock1","","","","<div style=""font-size:60px;""> </div>","null","LF","learning/Slide56.JPG","This is a tob:","",""
"","html-keyboard-response","175","380629","0.0-6.0-0.56","LF","490hj15f5l","1280","720","en","el05rd15","null","","","","learningBlock1","","","","This is a dep:","null","","","","",""
"","image-keyboard-response","176","380957","0.0-6.0-1.56","LF","490hj15f5l","1280","720","en","el05rd15","null","","","","","","","","learning/Slide57.JPG","null","","","","",""
"","html-keyboard-response","177","381959","0.0-6.0-2.56","LF","490hj15f5l","1280","720","en","el05rd15","null","","","","learningBlock1","","","","<div style=""font-size:60px;""> </div>","null","LF","learning/Slide57.JPG","This is a dep:","",""
"","html-keyboard-response","178","382960","0.0-6.0-0.57","LF","490hj15f5l","1280","720","en","el05rd15","null","","","","learningBlock1","","","","This is a wug:","null","","","","",""
"","image-keyboard-response","179","383287","0.0-6.0-1.57","LF","490hj15f5l","1280","720","en","el05rd15","null","","","","","","","","learning/Slide58.JPG","null","","","","",""
"","html-keyboard-response","180","384290","0.0-6.0-2.57","LF","490hj15f5l","1280","720","en","el05rd15","null","","","","learningBlock1","","","","<div style=""font-size:60px;""> </div>","null","LF","learning/Slide58.JPG","This is a wug:","",""
"","html-keyboard-response","181","385292","0.0-6.0-0.58","LF","490hj15f5l","1280","720","en","el05rd15","null","","","","learningBlock1","","","","This is a dep:","null","","","","",""
"","image-keyboard-response","182","385619","0.0-6.0-1.58","LF","490hj15f5l","1280","720","en","el05rd15","null","","","","","","","","learning/Slide59.JPG","null","","","","",""
"","html-keyboard-response","183","386620","0.0-6.0-2.58","LF","490hj15f5l","1280","720","en","el05rd15","null","","","","learningBlock1","","","","<div style=""font-size:60px;""> </div>","null","LF","learning/Slide59.JPG","This is a dep:","",""
"","html-keyboard-response","184","387623","0.0-6.0-0.59","LF","490hj15f5l","1280","720","en","el05rd15","null","","","","learningBlock1","","","","This is a wug:","null","","","","",""
"","image-keyboard-response","185","387951","0.0-6.0-1.59","LF","490hj15f5l","1280","720","en","el05rd15","null","","","","","","","","learning/Slide60.JPG","null","","","","",""
"","html-keyboard-response","186","388952","0.0-6.0-2.59","LF","490hj15f5l","1280","720","en","el05rd15","null","","","","learningBlock1","","","","<div style=""font-size:60px;""> </div>","null","LF","learning/Slide60.JPG","This is a wug:","",""
"","html-keyboard-response","187","389953","0.0-6.0-0.60","LF","490hj15f5l","1280","720","en","el05rd15","null","","","","learningBlock1","","","","This is a bim:","null","","","","",""
"","image-keyboard-response","188","390282","0.0-6.0-1.60","LF","490hj15f5l","1280","720","en","el05rd15","null","","","","","","","","learning/Slide61.JPG","null","","","","",""
"","html-keyboard-response","189","391284","0.0-6.0-2.60","LF","490hj15f5l","1280","720","en","el05rd15","null","","","","learningBlock1","","","","<div style=""font-size:60px;""> </div>","null","LF","learning/Slide61.JPG","This is a bim:","",""
"","html-keyboard-response","190","392286","0.0-6.0-0.61","LF","490hj15f5l","1280","720","en","el05rd15","null","","","","learningBlock1","","","","This is a dep:","null","","","","",""
"","image-keyboard-response","191","392613","0.0-6.0-1.61","LF","490hj15f5l","1280","720","en","el05rd15","null","","","","","","","","learning/Slide62.JPG","null","","","","",""
"","html-keyboard-response","192","393615","0.0-6.0-2.61","LF","490hj15f5l","1280","720","en","el05rd15","null","","","","learningBlock1","","","","<div style=""font-size:60px;""> </div>","null","LF","learning/Slide62.JPG","This is a dep:","",""
"","html-keyboard-response","193","394617","0.0-6.0-0.62","LF","490hj15f5l","1280","720","en","el05rd15","null","","","","learningBlock1","","","","This is a bim:","null","","","","",""
"","image-keyboard-response","194","394943","0.0-6.0-1.62","LF","490hj15f5l","1280","720","en","el05rd15","null","","","","","","","","learning/Slide63.JPG","null","","","","",""
"","html-keyboard-response","195","395945","0.0-6.0-2.62","LF","490hj15f5l","1280","720","en","el05rd15","null","","","","learningBlock1","","","","<div style=""font-size:60px;""> </div>","null","LF","learning/Slide63.JPG","This is a bim:","",""
"","html-keyboard-response","196","396947","0.0-6.0-0.63","LF","490hj15f5l","1280","720","en","el05rd15","null","","","","learningBlock1","","","","This is a tob:","null","","","","",""
"","image-keyboard-response","197","397278","0.0-6.0-1.63","LF","490hj15f5l","1280","720","en","el05rd15","null","","","","","","","","learning/Slide64.JPG","null","","","","",""
"","html-keyboard-response","198","398280","0.0-6.0-2.63","LF","490hj15f5l","1280","720","en","el05rd15","null","","","","learningBlock1","","","","<div style=""font-size:60px;""> </div>","null","LF","learning/Slide64.JPG","This is a tob:","",""
"","html-keyboard-response","199","399281","0.0-6.0-0.64","LF","490hj15f5l","1280","720","en","el05rd15","null","","","","learningBlock1","","","","This is a wug:","null","","","","",""
"","image-keyboard-response","200","399608","0.0-6.0-1.64","LF","490hj15f5l","1280","720","en","el05rd15","null","","","","","","","","learning/Slide65.JPG","null","","","","",""
"","html-keyboard-response","201","400609","0.0-6.0-2.64","LF","490hj15f5l","1280","720","en","el05rd15","null","","","","learningBlock1","","","","<div style=""font-size:60px;""> </div>","null","LF","learning/Slide65.JPG","This is a wug:","",""
"","html-keyboard-response","202","401612","0.0-6.0-0.65","LF","490hj15f5l","1280","720","en","el05rd15","null","","","","learningBlock1","","","","This is a dep:","null","","","","",""
"","image-keyboard-response","203","401941","0.0-6.0-1.65","LF","490hj15f5l","1280","720","en","el05rd15","null","","","","","","","","learning/Slide66.JPG","null","","","","",""
"","html-keyboard-response","204","402944","0.0-6.0-2.65","LF","490hj15f5l","1280","720","en","el05rd15","null","","","","learningBlock1","","","","<div style=""font-size:60px;""> </div>","null","LF","learning/Slide66.JPG","This is a dep:","",""
"","html-keyboard-response","205","403946","0.0-6.0-0.66","LF","490hj15f5l","1280","720","en","el05rd15","null","","","","learningBlock1","","","","This is a tob:","null","","","","",""
"","image-keyboard-response","206","404276","0.0-6.0-1.66","LF","490hj15f5l","1280","720","en","el05rd15","null","","","","","","","","learning/Slide67.JPG","null","","","","",""
"","html-keyboard-response","207","405279","0.0-6.0-2.66","LF","490hj15f5l","1280","720","en","el05rd15","null","","","","learningBlock1","","","","<div style=""font-size:60px;""> </div>","null","LF","learning/Slide67.JPG","This is a tob:","",""
"","html-keyboard-response","208","406283","0.0-6.0-0.67","LF","490hj15f5l","1280","720","en","el05rd15","null","","","","learningBlock1","","","","This is a wug:","null","","","","",""
"","image-keyboard-response","209","406612","0.0-6.0-1.67","LF","490hj15f5l","1280","720","en","el05rd15","null","","","","","","","","learning/Slide68.JPG","null","","","","",""
"","html-keyboard-response","210","407615","0.0-6.0-2.67","LF","490hj15f5l","1280","720","en","el05rd15","null","","","","learningBlock1","","","","<div style=""font-size:60px;""> </div>","null","LF","learning/Slide68.JPG","This is a wug:","",""
"","html-keyboard-response","211","408618","0.0-6.0-0.68","LF","490hj15f5l","1280","720","en","el05rd15","null","","","","learningBlock1","","","","This is a tob:","null","","","","",""
"","image-keyboard-response","212","408947","0.0-6.0-1.68","LF","490hj15f5l","1280","720","en","el05rd15","null","","","","","","","","learning/Slide69.JPG","null","","","","",""
"","html-keyboard-response","213","409951","0.0-6.0-2.68","LF","490hj15f5l","1280","720","en","el05rd15","null","","","","learningBlock1","","","","<div style=""font-size:60px;""> </div>","null","LF","learning/Slide69.JPG","This is a tob:","",""
"","html-keyboard-response","214","410954","0.0-6.0-0.69","LF","490hj15f5l","1280","720","en","el05rd15","null","","","","learningBlock1","","","","This is a dep:","null","","","","",""
"","image-keyboard-response","215","411283","0.0-6.0-1.69","LF","490hj15f5l","1280","720","en","el05rd15","null","","","","","","","","learning/Slide70.JPG","null","","","","",""
"","html-keyboard-response","216","412287","0.0-6.0-2.69","LF","490hj15f5l","1280","720","en","el05rd15","null","","","","learningBlock1","","","","<div style=""font-size:60px;""> </div>","null","LF","learning/Slide70.JPG","This is a dep:","",""
"","html-keyboard-response","217","413290","0.0-6.0-0.70","LF","490hj15f5l","1280","720","en","el05rd15","null","","","","learningBlock1","","","","This is a wug:","null","","","","",""
"","image-keyboard-response","218","413619","0.0-6.0-1.70","LF","490hj15f5l","1280","720","en","el05rd15","null","","","","","","","","learning/Slide71.JPG","null","","","","",""
"","html-keyboard-response","219","414622","0.0-6.0-2.70","LF","490hj15f5l","1280","720","en","el05rd15","null","","","","learningBlock1","","","","<div style=""font-size:60px;""> </div>","null","LF","learning/Slide71.JPG","This is a wug:","",""
"","html-keyboard-response","220","415625","0.0-6.0-0.71","LF","490hj15f5l","1280","720","en","el05rd15","null","","","","learningBlock1","","","","This is a bim:","null","","","","",""
"","image-keyboard-response","221","415954","0.0-6.0-1.71","LF","490hj15f5l","1280","720","en","el05rd15","null","","","","","","","","learning/Slide72.JPG","null","","","","",""
"","html-keyboard-response","222","416958","0.0-6.0-2.71","LF","490hj15f5l","1280","720","en","el05rd15","null","","","","learningBlock1","","","","<div style=""font-size:60px;""> </div>","null","LF","learning/Slide72.JPG","This is a bim:","",""
"","html-keyboard-response","223","417961","0.0-6.0-0.72","LF","490hj15f5l","1280","720","en","el05rd15","null","","","","learningBlock1","","","","This is a wug:","null","","","","",""
"","image-keyboard-response","224","418291","0.0-6.0-1.72","LF","490hj15f5l","1280","720","en","el05rd15","null","","","","","","","","learning/Slide73.JPG","null","","","","",""
"","html-keyboard-response","225","419296","0.0-6.0-2.72","LF","490hj15f5l","1280","720","en","el05rd15","null","","","","learningBlock1","","","","<div style=""font-size:60px;""> </div>","null","LF","learning/Slide73.JPG","This is a wug:","",""
"","html-keyboard-response","226","420300","0.0-6.0-0.73","LF","490hj15f5l","1280","720","en","el05rd15","null","","","","learningBlock1","","","","This is a dep:","null","","","","",""
"","image-keyboard-response","227","420628","0.0-6.0-1.73","LF","490hj15f5l","1280","720","en","el05rd15","null","","","","","","","","learning/Slide74.JPG","null","","","","",""
"","html-keyboard-response","228","421633","0.0-6.0-2.73","LF","490hj15f5l","1280","720","en","el05rd15","null","","","","learningBlock1","","","","<div style=""font-size:60px;""> </div>","null","LF","learning/Slide74.JPG","This is a dep:","",""
"","html-keyboard-response","229","422637","0.0-6.0-0.74","LF","490hj15f5l","1280","720","en","el05rd15","null","","","","learningBlock1","","","","This is a tob:","null","","","","",""
"","image-keyboard-response","230","422967","0.0-6.0-1.74","LF","490hj15f5l","1280","720","en","el05rd15","null","","","","","","","","learning/Slide75.JPG","null","","","","",""
"","html-keyboard-response","231","423970","0.0-6.0-2.74","LF","490hj15f5l","1280","720","en","el05rd15","null","","","","learningBlock1","","","","<div style=""font-size:60px;""> </div>","null","LF","learning/Slide75.JPG","This is a tob:","",""
"","html-keyboard-response","232","424973","0.0-6.0-0.75","LF","490hj15f5l","1280","720","en","el05rd15","null","","","","learningBlock1","","","","This is a bim:","null","","","","",""
"","image-keyboard-response","233","425304","0.0-6.0-1.75","LF","490hj15f5l","1280","720","en","el05rd15","null","","","","","","","","learning/Slide76.JPG","null","","","","",""
"","html-keyboard-response","234","426307","0.0-6.0-2.75","LF","490hj15f5l","1280","720","en","el05rd15","null","","","","learningBlock1","","","","<div style=""font-size:60px;""> </div>","null","LF","learning/Slide76.JPG","This is a bim:","",""
"","html-keyboard-response","235","427310","0.0-6.0-0.76","LF","490hj15f5l","1280","720","en","el05rd15","null","","","","learningBlock1","","","","This is a tob:","null","","","","",""
"","image-keyboard-response","236","427642","0.0-6.0-1.76","LF","490hj15f5l","1280","720","en","el05rd15","null","","","","","","","","learning/Slide77.JPG","null","","","","",""
"","html-keyboard-response","237","428643","0.0-6.0-2.76","LF","490hj15f5l","1280","720","en","el05rd15","null","","","","learningBlock1","","","","<div style=""font-size:60px;""> </div>","null","LF","learning/Slide77.JPG","This is a tob:","",""
"","html-keyboard-response","238","429647","0.0-6.0-0.77","LF","490hj15f5l","1280","720","en","el05rd15","null","","","","learningBlock1","","","","This is a wug:","null","","","","",""
"","image-keyboard-response","239","429976","0.0-6.0-1.77","LF","490hj15f5l","1280","720","en","el05rd15","null","","","","","","","","learning/Slide78.JPG","null","","","","",""
"","html-keyboard-response","240","430978","0.0-6.0-2.77","LF","490hj15f5l","1280","720","en","el05rd15","null","","","","learningBlock1","","","","<div style=""font-size:60px;""> </div>","null","LF","learning/Slide78.JPG","This is a wug:","",""
"","html-keyboard-response","241","431982","0.0-6.0-0.78","LF","490hj15f5l","1280","720","en","el05rd15","null","","","","learningBlock1","","","","This is a bim:","null","","","","",""
"","image-keyboard-response","242","432313","0.0-6.0-1.78","LF","490hj15f5l","1280","720","en","el05rd15","null","","","","","","","","learning/Slide79.JPG","null","","","","",""
"","html-keyboard-response","243","433316","0.0-6.0-2.78","LF","490hj15f5l","1280","720","en","el05rd15","null","","","","learningBlock1","","","","<div style=""font-size:60px;""> </div>","null","LF","learning/Slide79.JPG","This is a bim:","",""
"","html-keyboard-response","244","434320","0.0-6.0-0.79","LF","490hj15f5l","1280","720","en","el05rd15","null","","","","learningBlock1","","","","This is a tob:","null","","","","",""
"","image-keyboard-response","245","434648","0.0-6.0-1.79","LF","490hj15f5l","1280","720","en","el05rd15","null","","","","","","","","learning/Slide80.JPG","null","","","","",""
"","html-keyboard-response","246","435651","0.0-6.0-2.79","LF","490hj15f5l","1280","720","en","el05rd15","null","","","","learningBlock1","","","","<div style=""font-size:60px;""> </div>","null","LF","learning/Slide80.JPG","This is a tob:","",""
"","instructions","247","446265","0.0-7.0","LF","490hj15f5l","1280","720","en","el05rd15","NA","","","[{""page_index"":0,""viewing_time"":10611.965000047348}]","instructions","","","","","","","","","",""
"","html-keyboard-response","248","447267","0.0-8.0-0.0","LF","490hj15f5l","1280","720","en","el05rd15","null","","","","learningBlock2","","","","This is a wug:","null","","","","",""
"","image-keyboard-response","249","447597","0.0-8.0-1.0","LF","490hj15f5l","1280","720","en","el05rd15","null","","","","","","","","learning/Slide81.JPG","null","","","","",""
"","html-keyboard-response","250","448600","0.0-8.0-2.0","LF","490hj15f5l","1280","720","en","el05rd15","null","","","","learningBlock2","","","","<div style=""font-size:60px;""> </div>","null","LF","learning/Slide81.JPG","This is a wug:","",""
"","html-keyboard-response","251","449606","0.0-8.0-0.1","LF","490hj15f5l","1280","720","en","el05rd15","null","","","","learningBlock2","","","","This is a bim:","null","","","","",""
"","image-keyboard-response","252","449935","0.0-8.0-1.1","LF","490hj15f5l","1280","720","en","el05rd15","null","","","","","","","","learning/Slide82.JPG","null","","","","",""
"","html-keyboard-response","253","450938","0.0-8.0-2.1","LF","490hj15f5l","1280","720","en","el05rd15","null","","","","learningBlock2","","","","<div style=""font-size:60px;""> </div>","null","LF","learning/Slide82.JPG","This is a bim:","",""
"","html-keyboard-response","254","451942","0.0-8.0-0.2","LF","490hj15f5l","1280","720","en","el05rd15","null","","","","learningBlock2","","","","This is a wug:","null","","","","",""
"","image-keyboard-response","255","452270","0.0-8.0-1.2","LF","490hj15f5l","1280","720","en","el05rd15","null","","","","","","","","learning/Slide83.JPG","null","","","","",""
"","html-keyboard-response","256","453273","0.0-8.0-2.2","LF","490hj15f5l","1280","720","en","el05rd15","null","","","","learningBlock2","","","","<div style=""font-size:60px;""> </div>","null","LF","learning/Slide83.JPG","This is a wug:","",""
"","html-keyboard-response","257","454277","0.0-8.0-0.3","LF","490hj15f5l","1280","720","en","el05rd15","null","","","","learningBlock2","","","","This is a dep:","null","","","","",""
"","image-keyboard-response","258","454605","0.0-8.0-1.3","LF","490hj15f5l","1280","720","en","el05rd15","null","","","","","","","","learning/Slide84.JPG","null","","","","",""
"","html-keyboard-response","259","455609","0.0-8.0-2.3","LF","490hj15f5l","1280","720","en","el05rd15","null","","","","learningBlock2","","","","<div style=""font-size:60px;""> </div>","null","LF","learning/Slide84.JPG","This is a dep:","",""
"","html-keyboard-response","260","456613","0.0-8.0-0.4","LF","490hj15f5l","1280","720","en","el05rd15","null","","","","learningBlock2","","","","This is a bim:","null","","","","",""
"","image-keyboard-response","261","456942","0.0-8.0-1.4","LF","490hj15f5l","1280","720","en","el05rd15","null","","","","","","","","learning/Slide85.JPG","null","","","","",""
"","html-keyboard-response","262","457945","0.0-8.0-2.4","LF","490hj15f5l","1280","720","en","el05rd15","null","","","","learningBlock2","","","","<div style=""font-size:60px;""> </div>","null","LF","learning/Slide85.JPG","This is a bim:","",""
"","html-keyboard-response","263","458948","0.0-8.0-0.5","LF","490hj15f5l","1280","720","en","el05rd15","null","","","","learningBlock2","","","","This is a tob:","null","","","","",""
"","image-keyboard-response","264","459278","0.0-8.0-1.5","LF","490hj15f5l","1280","720","en","el05rd15","null","","","","","","","","learning/Slide86.JPG","null","","","","",""
"","html-keyboard-response","265","460281","0.0-8.0-2.5","LF","490hj15f5l","1280","720","en","el05rd15","null","","","","learningBlock2","","","","<div style=""font-size:60px;""> </div>","null","LF","learning/Slide86.JPG","This is a tob:","",""
"","html-keyboard-response","266","461285","0.0-8.0-0.6","LF","490hj15f5l","1280","720","en","el05rd15","null","","","","learningBlock2","","","","This is a wug:","null","","","","",""
"","image-keyboard-response","267","461614","0.0-8.0-1.6","LF","490hj15f5l","1280","720","en","el05rd15","null","","","","","","","","learning/Slide87.JPG","null","","","","",""
"","html-keyboard-response","268","462618","0.0-8.0-2.6","LF","490hj15f5l","1280","720","en","el05rd15","null","","","","learningBlock2","","","","<div style=""font-size:60px;""> </div>","null","LF","learning/Slide87.JPG","This is a wug:","",""
"","html-keyboard-response","269","463621","0.0-8.0-0.7","LF","490hj15f5l","1280","720","en","el05rd15","null","","","","learningBlock2","","","","This is a tob:","null","","","","",""
"","image-keyboard-response","270","463950","0.0-8.0-1.7","LF","490hj15f5l","1280","720","en","el05rd15","null","","","","","","","","learning/Slide88.JPG","null","","","","",""
"","html-keyboard-response","271","464954","0.0-8.0-2.7","LF","490hj15f5l","1280","720","en","el05rd15","null","","","","learningBlock2","","","","<div style=""font-size:60px;""> </div>","null","LF","learning/Slide88.JPG","This is a tob:","",""
"","html-keyboard-response","272","465958","0.0-8.0-0.8","LF","490hj15f5l","1280","720","en","el05rd15","null","","","","learningBlock2","","","","This is a bim:","null","","","","",""
"","image-keyboard-response","273","466286","0.0-8.0-1.8","LF","490hj15f5l","1280","720","en","el05rd15","null","","","","","","","","learning/Slide89.JPG","null","","","","",""
"","html-keyboard-response","274","467289","0.0-8.0-2.8","LF","490hj15f5l","1280","720","en","el05rd15","null","","","","learningBlock2","","","","<div style=""font-size:60px;""> </div>","null","LF","learning/Slide89.JPG","This is a bim:","",""
"","html-keyboard-response","275","468292","0.0-8.0-0.9","LF","490hj15f5l","1280","720","en","el05rd15","null","","","","learningBlock2","","","","This is a dep:","null","","","","",""
"","image-keyboard-response","276","468624","0.0-8.0-1.9","LF","490hj15f5l","1280","720","en","el05rd15","null","","","","","","","","learning/Slide90.JPG","null","","","","",""
"","html-keyboard-response","277","469629","0.0-8.0-2.9","LF","490hj15f5l","1280","720","en","el05rd15","null","","","","learningBlock2","","","","<div style=""font-size:60px;""> </div>","null","LF","learning/Slide90.JPG","This is a dep:","",""
"","html-keyboard-response","278","470632","0.0-8.0-0.10","LF","490hj15f5l","1280","720","en","el05rd15","null","","","","learningBlock2","","","","This is a wug:","null","","","","",""
"","image-keyboard-response","279","470961","0.0-8.0-1.10","LF","490hj15f5l","1280","720","en","el05rd15","null","","","","","","","","learning/Slide91.JPG","null","","","","",""
"","html-keyboard-response","280","471966","0.0-8.0-2.10","LF","490hj15f5l","1280","720","en","el05rd15","null","","","","learningBlock2","","","","<div style=""font-size:60px;""> </div>","null","LF","learning/Slide91.JPG","This is a wug:","",""
"","html-keyboard-response","281","472970","0.0-8.0-0.11","LF","490hj15f5l","1280","720","en","el05rd15","null","","","","learningBlock2","","","","This is a tob:","null","","","","",""
"","image-keyboard-response","282","473299","0.0-8.0-1.11","LF","490hj15f5l","1280","720","en","el05rd15","null","","","","","","","","learning/Slide92.JPG","null","","","","",""
"","html-keyboard-response","283","474302","0.0-8.0-2.11","LF","490hj15f5l","1280","720","en","el05rd15","null","","","","learningBlock2","","","","<div style=""font-size:60px;""> </div>","null","LF","learning/Slide92.JPG","This is a tob:","",""
"","html-keyboard-response","284","475306","0.0-8.0-0.12","LF","490hj15f5l","1280","720","en","el05rd15","null","","","","learningBlock2","","","","This is a bim:","null","","","","",""
"","image-keyboard-response","285","475636","0.0-8.0-1.12","LF","490hj15f5l","1280","720","en","el05rd15","null","","","","","","","","learning/Slide93.JPG","null","","","","",""
"","html-keyboard-response","286","476639","0.0-8.0-2.12","LF","490hj15f5l","1280","720","en","el05rd15","null","","","","learningBlock2","","","","<div style=""font-size:60px;""> </div>","null","LF","learning/Slide93.JPG","This is a bim:","",""
"","html-keyboard-response","287","477642","0.0-8.0-0.13","LF","490hj15f5l","1280","720","en","el05rd15","null","","","","learningBlock2","","","","This is a tob:","null","","","","",""
"","image-keyboard-response","288","477971","0.0-8.0-1.13","LF","490hj15f5l","1280","720","en","el05rd15","null","","","","","","","","learning/Slide94.JPG","null","","","","",""
"","html-keyboard-response","289","478976","0.0-8.0-2.13","LF","490hj15f5l","1280","720","en","el05rd15","null","","","","learningBlock2","","","","<div style=""font-size:60px;""> </div>","null","LF","learning/Slide94.JPG","This is a tob:","",""
"","html-keyboard-response","290","479978","0.0-8.0-0.14","LF","490hj15f5l","1280","720","en","el05rd15","null","","","","learningBlock2","","","","This is a wug:","null","","","","",""
"","image-keyboard-response","291","480309","0.0-8.0-1.14","LF","490hj15f5l","1280","720","en","el05rd15","null","","","","","","","","learning/Slide95.JPG","null","","","","",""
"","html-keyboard-response","292","481312","0.0-8.0-2.14","LF","490hj15f5l","1280","720","en","el05rd15","null","","","","learningBlock2","","","","<div style=""font-size:60px;""> </div>","null","LF","learning/Slide95.JPG","This is a wug:","",""
"","html-keyboard-response","293","482315","0.0-8.0-0.15","LF","490hj15f5l","1280","720","en","el05rd15","null","","","","learningBlock2","","","","This is a tob:","null","","","","",""
"","image-keyboard-response","294","482644","0.0-8.0-1.15","LF","490hj15f5l","1280","720","en","el05rd15","null","","","","","","","","learning/Slide96.JPG","null","","","","",""
"","html-keyboard-response","295","483646","0.0-8.0-2.15","LF","490hj15f5l","1280","720","en","el05rd15","null","","","","learningBlock2","","","","<div style=""font-size:60px;""> </div>","null","LF","learning/Slide96.JPG","This is a tob:","",""
"","html-keyboard-response","296","484649","0.0-8.0-0.16","LF","490hj15f5l","1280","720","en","el05rd15","null","","","","learningBlock2","","","","This is a dep:","null","","","","",""
"","image-keyboard-response","297","484978","0.0-8.0-1.16","LF","490hj15f5l","1280","720","en","el05rd15","null","","","","","","","","learning/Slide97.JPG","null","","","","",""
"","html-keyboard-response","298","485981","0.0-8.0-2.16","LF","490hj15f5l","1280","720","en","el05rd15","null","","","","learningBlock2","","","","<div style=""font-size:60px;""> </div>","null","LF","learning/Slide97.JPG","This is a dep:","",""
"","html-keyboard-response","299","486985","0.0-8.0-0.17","LF","490hj15f5l","1280","720","en","el05rd15","null","","","","learningBlock2","","","","This is a bim:","null","","","","",""
"","image-keyboard-response","300","487314","0.0-8.0-1.17","LF","490hj15f5l","1280","720","en","el05rd15","null","","","","","","","","learning/Slide98.JPG","null","","","","",""
"","html-keyboard-response","301","488317","0.0-8.0-2.17","LF","490hj15f5l","1280","720","en","el05rd15","null","","","","learningBlock2","","","","<div style=""font-size:60px;""> </div>","null","LF","learning/Slide98.JPG","This is a bim:","",""
"","html-keyboard-response","302","489321","0.0-8.0-0.18","LF","490hj15f5l","1280","720","en","el05rd15","null","","","","learningBlock2","","","","This is a dep:","null","","","","",""
"","image-keyboard-response","303","489649","0.0-8.0-1.18","LF","490hj15f5l","1280","720","en","el05rd15","null","","","","","","","","learning/Slide99.JPG","null","","","","",""
"","html-keyboard-response","304","490653","0.0-8.0-2.18","LF","490hj15f5l","1280","720","en","el05rd15","null","","","","learningBlock2","","","","<div style=""font-size:60px;""> </div>","null","LF","learning/Slide99.JPG","This is a dep:","",""
"","html-keyboard-response","305","491657","0.0-8.0-0.19","LF","490hj15f5l","1280","720","en","el05rd15","null","","","","learningBlock2","","","","This is a bim:","null","","","","",""
"","image-keyboard-response","306","491988","0.0-8.0-1.19","LF","490hj15f5l","1280","720","en","el05rd15","null","","","","","","","","learning/Slide100.JPG","null","","","","",""
"","html-keyboard-response","307","492991","0.0-8.0-2.19","LF","490hj15f5l","1280","720","en","el05rd15","null","","","","learningBlock2","","","","<div style=""font-size:60px;""> </div>","null","LF","learning/Slide100.JPG","This is a bim:","",""
"","html-keyboard-response","308","493996","0.0-8.0-0.20","LF","490hj15f5l","1280","720","en","el05rd15","null","","","","learningBlock2","","","","This is a tob:","null","","","","",""
"","image-keyboard-response","309","494324","0.0-8.0-1.20","LF","490hj15f5l","1280","720","en","el05rd15","null","","","","","","","","learning/Slide101.JPG","null","","","","",""
"","html-keyboard-response","310","495328","0.0-8.0-2.20","LF","490hj15f5l","1280","720","en","el05rd15","null","","","","learningBlock2","","","","<div style=""font-size:60px;""> </div>","null","LF","learning/Slide101.JPG","This is a tob:","",""
"","html-keyboard-response","311","496331","0.0-8.0-0.21","LF","490hj15f5l","1280","720","en","el05rd15","null","","","","learningBlock2","","","","This is a bim:","null","","","","",""
"","image-keyboard-response","312","496661","0.0-8.0-1.21","LF","490hj15f5l","1280","720","en","el05rd15","null","","","","","","","","learning/Slide102.JPG","null","","","","",""
"","html-keyboard-response","313","497664","0.0-8.0-2.21","LF","490hj15f5l","1280","720","en","el05rd15","null","","","","learningBlock2","","","","<div style=""font-size:60px;""> </div>","null","LF","learning/Slide102.JPG","This is a bim:","",""
"","html-keyboard-response","314","498668","0.0-8.0-0.22","LF","490hj15f5l","1280","720","en","el05rd15","null","","","","learningBlock2","","","","This is a dep:","null","","","","",""
"","image-keyboard-response","315","498996","0.0-8.0-1.22","LF","490hj15f5l","1280","720","en","el05rd15","null","","","","","","","","learning/Slide103.JPG","null","","","","",""
"","html-keyboard-response","316","499999","0.0-8.0-2.22","LF","490hj15f5l","1280","720","en","el05rd15","null","","","","learningBlock2","","","","<div style=""font-size:60px;""> </div>","null","LF","learning/Slide103.JPG","This is a dep:","",""
"","html-keyboard-response","317","501003","0.0-8.0-0.23","LF","490hj15f5l","1280","720","en","el05rd15","null","","","","learningBlock2","","","","This is a tob:","null","","","","",""
"","image-keyboard-response","318","501333","0.0-8.0-1.23","LF","490hj15f5l","1280","720","en","el05rd15","null","","","","","","","","learning/Slide104.JPG","null","","","","",""
"","html-keyboard-response","319","502337","0.0-8.0-2.23","LF","490hj15f5l","1280","720","en","el05rd15","null","","","","learningBlock2","","","","<div style=""font-size:60px;""> </div>","null","LF","learning/Slide104.JPG","This is a tob:","",""
"","html-keyboard-response","320","503341","0.0-8.0-0.24","LF","490hj15f5l","1280","720","en","el05rd15","null","","","","learningBlock2","","","","This is a dep:","null","","","","",""
"","image-keyboard-response","321","503671","0.0-8.0-1.24","LF","490hj15f5l","1280","720","en","el05rd15","null","","","","","","","","learning/Slide105.JPG","null","","","","",""
"","html-keyboard-response","322","504674","0.0-8.0-2.24","LF","490hj15f5l","1280","720","en","el05rd15","null","","","","learningBlock2","","","","<div style=""font-size:60px;""> </div>","null","LF","learning/Slide105.JPG","This is a dep:","",""
"","html-keyboard-response","323","505678","0.0-8.0-0.25","LF","490hj15f5l","1280","720","en","el05rd15","null","","","","learningBlock2","","","","This is a wug:","null","","","","",""
"","image-keyboard-response","324","506007","0.0-8.0-1.25","LF","490hj15f5l","1280","720","en","el05rd15","null","","","","","","","","learning/Slide106.JPG","null","","","","",""
"","html-keyboard-response","325","507009","0.0-8.0-2.25","LF","490hj15f5l","1280","720","en","el05rd15","null","","","","learningBlock2","","","","<div style=""font-size:60px;""> </div>","null","LF","learning/Slide106.JPG","This is a wug:","",""
"","html-keyboard-response","326","508013","0.0-8.0-0.26","LF","490hj15f5l","1280","720","en","el05rd15","null","","","","learningBlock2","","","","This is a bim:","null","","","","",""
"","image-keyboard-response","327","508342","0.0-8.0-1.26","LF","490hj15f5l","1280","720","en","el05rd15","null","","","","","","","","learning/Slide107.JPG","null","","","","",""
"","html-keyboard-response","328","509345","0.0-8.0-2.26","LF","490hj15f5l","1280","720","en","el05rd15","null","","","","learningBlock2","","","","<div style=""font-size:60px;""> </div>","null","LF","learning/Slide107.JPG","This is a bim:","",""
"","html-keyboard-response","329","510349","0.0-8.0-0.27","LF","490hj15f5l","1280","720","en","el05rd15","null","","","","learningBlock2","","","","This is a dep:","null","","","","",""
"","image-keyboard-response","330","510678","0.0-8.0-1.27","LF","490hj15f5l","1280","720","en","el05rd15","null","","","","","","","","learning/Slide108.JPG","null","","","","",""
"","html-keyboard-response","331","511681","0.0-8.0-2.27","LF","490hj15f5l","1280","720","en","el05rd15","null","","","","learningBlock2","","","","<div style=""font-size:60px;""> </div>","null","LF","learning/Slide108.JPG","This is a dep:","",""
"","html-keyboard-response","332","512685","0.0-8.0-0.28","LF","490hj15f5l","1280","720","en","el05rd15","null","","","","learningBlock2","","","","This is a wug:","null","","","","",""
"","image-keyboard-response","333","513014","0.0-8.0-1.28","LF","490hj15f5l","1280","720","en","el05rd15","null","","","","","","","","learning/Slide109.JPG","null","","","","",""
"","html-keyboard-response","334","514019","0.0-8.0-2.28","LF","490hj15f5l","1280","720","en","el05rd15","null","","","","learningBlock2","","","","<div style=""font-size:60px;""> </div>","null","LF","learning/Slide109.JPG","This is a wug:","",""
"","html-keyboard-response","335","515022","0.0-8.0-0.29","LF","490hj15f5l","1280","720","en","el05rd15","null","","","","learningBlock2","","","","This is a bim:","null","","","","",""
"","image-keyboard-response","336","515353","0.0-8.0-1.29","LF","490hj15f5l","1280","720","en","el05rd15","null","","","","","","","","learning/Slide110.JPG","null","","","","",""
"","html-keyboard-response","337","516354","0.0-8.0-2.29","LF","490hj15f5l","1280","720","en","el05rd15","null","","","","learningBlock2","","","","<div style=""font-size:60px;""> </div>","null","LF","learning/Slide110.JPG","This is a bim:","",""
"","html-keyboard-response","338","517357","0.0-8.0-0.30","LF","490hj15f5l","1280","720","en","el05rd15","null","","","","learningBlock2","","","","This is a tob:","null","","","","",""
"","image-keyboard-response","339","517686","0.0-8.0-1.30","LF","490hj15f5l","1280","720","en","el05rd15","null","","","","","","","","learning/Slide111.JPG","null","","","","",""
"","html-keyboard-response","340","518689","0.0-8.0-2.30","LF","490hj15f5l","1280","720","en","el05rd15","null","","","","learningBlock2","","","","<div style=""font-size:60px;""> </div>","null","LF","learning/Slide111.JPG","This is a tob:","",""
"","html-keyboard-response","341","519695","0.0-8.0-0.31","LF","490hj15f5l","1280","720","en","el05rd15","null","","","","learningBlock2","","","","This is a wug:","null","","","","",""
"","image-keyboard-response","342","520023","0.0-8.0-1.31","LF","490hj15f5l","1280","720","en","el05rd15","null","","","","","","","","learning/Slide112.JPG","null","","","","",""
"","html-keyboard-response","343","521027","0.0-8.0-2.31","LF","490hj15f5l","1280","720","en","el05rd15","null","","","","learningBlock2","","","","<div style=""font-size:60px;""> </div>","null","LF","learning/Slide112.JPG","This is a wug:","",""
"","html-keyboard-response","344","522031","0.0-8.0-0.32","LF","490hj15f5l","1280","720","en","el05rd15","null","","","","learningBlock2","","","","This is a tob:","null","","","","",""
"","image-keyboard-response","345","522360","0.0-8.0-1.32","LF","490hj15f5l","1280","720","en","el05rd15","null","","","","","","","","learning/Slide113.JPG","null","","","","",""
"","html-keyboard-response","346","523361","0.0-8.0-2.32","LF","490hj15f5l","1280","720","en","el05rd15","null","","","","learningBlock2","","","","<div style=""font-size:60px;""> </div>","null","LF","learning/Slide113.JPG","This is a tob:","",""
"","html-keyboard-response","347","524365","0.0-8.0-0.33","LF","490hj15f5l","1280","720","en","el05rd15","null","","","","learningBlock2","","","","This is a wug:","null","","","","",""
"","image-keyboard-response","348","524693","0.0-8.0-1.33","LF","490hj15f5l","1280","720","en","el05rd15","null","","","","","","","","learning/Slide114.JPG","null","","","","",""
"","html-keyboard-response","349","525696","0.0-8.0-2.33","LF","490hj15f5l","1280","720","en","el05rd15","null","","","","learningBlock2","","","","<div style=""font-size:60px;""> </div>","null","LF","learning/Slide114.JPG","This is a wug:","",""
"","html-keyboard-response","350","526700","0.0-8.0-0.34","LF","490hj15f5l","1280","720","en","el05rd15","null","","","","learningBlock2","","","","This is a bim:","null","","","","",""
"","image-keyboard-response","351","527028","0.0-8.0-1.34","LF","490hj15f5l","1280","720","en","el05rd15","null","","","","","","","","learning/Slide115.JPG","null","","","","",""
"","html-keyboard-response","352","528030","0.0-8.0-2.34","LF","490hj15f5l","1280","720","en","el05rd15","null","","","","learningBlock2","","","","<div style=""font-size:60px;""> </div>","null","LF","learning/Slide115.JPG","This is a bim:","",""
"","html-keyboard-response","353","529034","0.0-8.0-0.35","LF","490hj15f5l","1280","720","en","el05rd15","null","","","","learningBlock2","","","","This is a dep:","null","","","","",""
"","image-keyboard-response","354","529363","0.0-8.0-1.35","LF","490hj15f5l","1280","720","en","el05rd15","null","","","","","","","","learning/Slide116.JPG","null","","","","",""
"","html-keyboard-response","355","530367","0.0-8.0-2.35","LF","490hj15f5l","1280","720","en","el05rd15","null","","","","learningBlock2","","","","<div style=""font-size:60px;""> </div>","null","LF","learning/Slide116.JPG","This is a dep:","",""
"","html-keyboard-response","356","531371","0.0-8.0-0.36","LF","490hj15f5l","1280","720","en","el05rd15","null","","","","learningBlock2","","","","This is a tob:","null","","","","",""
"","image-keyboard-response","357","531701","0.0-8.0-1.36","LF","490hj15f5l","1280","720","en","el05rd15","null","","","","","","","","learning/Slide117.JPG","null","","","","",""
"","html-keyboard-response","358","532704","0.0-8.0-2.36","LF","490hj15f5l","1280","720","en","el05rd15","null","","","","learningBlock2","","","","<div style=""font-size:60px;""> </div>","null","LF","learning/Slide117.JPG","This is a tob:","",""
"","html-keyboard-response","359","533706","0.0-8.0-0.37","LF","490hj15f5l","1280","720","en","el05rd15","null","","","","learningBlock2","","","","This is a dep:","null","","","","",""
"","image-keyboard-response","360","534033","0.0-8.0-1.37","LF","490hj15f5l","1280","720","en","el05rd15","null","","","","","","","","learning/Slide118.JPG","null","","","","",""
"","html-keyboard-response","361","535036","0.0-8.0-2.37","LF","490hj15f5l","1280","720","en","el05rd15","null","","","","learningBlock2","","","","<div style=""font-size:60px;""> </div>","null","LF","learning/Slide118.JPG","This is a dep:","",""
"","html-keyboard-response","362","536040","0.0-8.0-0.38","LF","490hj15f5l","1280","720","en","el05rd15","null","","","","learningBlock2","","","","This is a wug:","null","","","","",""
"","image-keyboard-response","363","536369","0.0-8.0-1.38","LF","490hj15f5l","1280","720","en","el05rd15","null","","","","","","","","learning/Slide119.JPG","null","","","","",""
"","html-keyboard-response","364","537373","0.0-8.0-2.38","LF","490hj15f5l","1280","720","en","el05rd15","null","","","","learningBlock2","","","","<div style=""font-size:60px;""> </div>","null","LF","learning/Slide119.JPG","This is a wug:","",""
"","html-keyboard-response","365","538376","0.0-8.0-0.39","LF","490hj15f5l","1280","720","en","el05rd15","null","","","","learningBlock2","","","","This is a dep:","null","","","","",""
"","image-keyboard-response","366","538706","0.0-8.0-1.39","LF","490hj15f5l","1280","720","en","el05rd15","null","","","","","","","","learning/Slide120.JPG","null","","","","",""
"","html-keyboard-response","367","539710","0.0-8.0-2.39","LF","490hj15f5l","1280","720","en","el05rd15","null","","","","learningBlock2","","","","<div style=""font-size:60px;""> </div>","null","LF","learning/Slide120.JPG","This is a dep:","",""
"","html-keyboard-response","368","540714","0.0-8.0-0.40","LF","490hj15f5l","1280","720","en","el05rd15","null","","","","learningBlock2","","","","This is a bim:","null","","","","",""
"","image-keyboard-response","369","541044","0.0-8.0-1.40","LF","490hj15f5l","1280","720","en","el05rd15","null","","","","","","","","learning/Slide121.JPG","null","","","","",""
"","html-keyboard-response","370","542049","0.0-8.0-2.40","LF","490hj15f5l","1280","720","en","el05rd15","null","","","","learningBlock2","","","","<div style=""font-size:60px;""> </div>","null","LF","learning/Slide121.JPG","This is a bim:","",""
"","html-keyboard-response","371","543052","0.0-8.0-0.41","LF","490hj15f5l","1280","720","en","el05rd15","null","","","","learningBlock2","","","","This is a wug:","null","","","","",""
"","image-keyboard-response","372","543382","0.0-8.0-1.41","LF","490hj15f5l","1280","720","en","el05rd15","null","","","","","","","","learning/Slide122.JPG","null","","","","",""
"","html-keyboard-response","373","544384","0.0-8.0-2.41","LF","490hj15f5l","1280","720","en","el05rd15","null","","","","learningBlock2","","","","<div style=""font-size:60px;""> </div>","null","LF","learning/Slide122.JPG","This is a wug:","",""
"","html-keyboard-response","374","545389","0.0-8.0-0.42","LF","490hj15f5l","1280","720","en","el05rd15","null","","","","learningBlock2","","","","This is a bim:","null","","","","",""
"","image-keyboard-response","375","545718","0.0-8.0-1.42","LF","490hj15f5l","1280","720","en","el05rd15","null","","","","","","","","learning/Slide123.JPG","null","","","","",""
"","html-keyboard-response","376","546721","0.0-8.0-2.42","LF","490hj15f5l","1280","720","en","el05rd15","null","","","","learningBlock2","","","","<div style=""font-size:60px;""> </div>","null","LF","learning/Slide123.JPG","This is a bim:","",""
"","html-keyboard-response","377","547724","0.0-8.0-0.43","LF","490hj15f5l","1280","720","en","el05rd15","null","","","","learningBlock2","","","","This is a tob:","null","","","","",""
"","image-keyboard-response","378","548052","0.0-8.0-1.43","LF","490hj15f5l","1280","720","en","el05rd15","null","","","","","","","","learning/Slide124.JPG","null","","","","",""
"","html-keyboard-response","379","549055","0.0-8.0-2.43","LF","490hj15f5l","1280","720","en","el05rd15","null","","","","learningBlock2","","","","<div style=""font-size:60px;""> </div>","null","LF","learning/Slide124.JPG","This is a tob:","",""
"","html-keyboard-response","380","550058","0.0-8.0-0.44","LF","490hj15f5l","1280","720","en","el05rd15","null","","","","learningBlock2","","","","This is a bim:","null","","","","",""
"","image-keyboard-response","381","550388","0.0-8.0-1.44","LF","490hj15f5l","1280","720","en","el05rd15","null","","","","","","","","learning/Slide125.JPG","null","","","","",""
"","html-keyboard-response","382","551391","0.0-8.0-2.44","LF","490hj15f5l","1280","720","en","el05rd15","null","","","","learningBlock2","","","","<div style=""font-size:60px;""> </div>","null","LF","learning/Slide125.JPG","This is a bim:","",""
"","html-keyboard-response","383","552395","0.0-8.0-0.45","LF","490hj15f5l","1280","720","en","el05rd15","null","","","","learningBlock2","","","","This is a tob:","null","","","","",""
"","image-keyboard-response","384","552725","0.0-8.0-1.45","LF","490hj15f5l","1280","720","en","el05rd15","null","","","","","","","","learning/Slide126.JPG","null","","","","",""
"","html-keyboard-response","385","553729","0.0-8.0-2.45","LF","490hj15f5l","1280","720","en","el05rd15","null","","","","learningBlock2","","","","<div style=""font-size:60px;""> </div>","null","LF","learning/Slide126.JPG","This is a tob:","",""
"","html-keyboard-response","386","554733","0.0-8.0-0.46","LF","490hj15f5l","1280","720","en","el05rd15","null","","","","learningBlock2","","","","This is a dep:","null","","","","",""
"","image-keyboard-response","387","555063","0.0-8.0-1.46","LF","490hj15f5l","1280","720","en","el05rd15","null","","","","","","","","learning/Slide127.JPG","null","","","","",""
"","html-keyboard-response","388","556067","0.0-8.0-2.46","LF","490hj15f5l","1280","720","en","el05rd15","null","","","","learningBlock2","","","","<div style=""font-size:60px;""> </div>","null","LF","learning/Slide127.JPG","This is a dep:","",""
"","html-keyboard-response","389","557071","0.0-8.0-0.47","LF","490hj15f5l","1280","720","en","el05rd15","null","","","","learningBlock2","","","","This is a wug:","null","","","","",""
"","image-keyboard-response","390","557401","0.0-8.0-1.47","LF","490hj15f5l","1280","720","en","el05rd15","null","","","","","","","","learning/Slide128.JPG","null","","","","",""
"","html-keyboard-response","391","558403","0.0-8.0-2.47","LF","490hj15f5l","1280","720","en","el05rd15","null","","","","learningBlock2","","","","<div style=""font-size:60px;""> </div>","null","LF","learning/Slide128.JPG","This is a wug:","",""
"","html-keyboard-response","392","559406","0.0-8.0-0.48","LF","490hj15f5l","1280","720","en","el05rd15","null","","","","learningBlock2","","","","This is a tob:","null","","","","",""
"","image-keyboard-response","393","559737","0.0-8.0-1.48","LF","490hj15f5l","1280","720","en","el05rd15","null","","","","","","","","learning/Slide129.JPG","null","","","","",""
"","html-keyboard-response","394","560740","0.0-8.0-2.48","LF","490hj15f5l","1280","720","en","el05rd15","null","","","","learningBlock2","","","","<div style=""font-size:60px;""> </div>","null","LF","learning/Slide129.JPG","This is a tob:","",""
"","html-keyboard-response","395","561744","0.0-8.0-0.49","LF","490hj15f5l","1280","720","en","el05rd15","null","","","","learningBlock2","","","","This is a wug:","null","","","","",""
"","image-keyboard-response","396","562074","0.0-8.0-1.49","LF","490hj15f5l","1280","720","en","el05rd15","null","","","","","","","","learning/Slide130.JPG","null","","","","",""
"","html-keyboard-response","397","563077","0.0-8.0-2.49","LF","490hj15f5l","1280","720","en","el05rd15","null","","","","learningBlock2","","","","<div style=""font-size:60px;""> </div>","null","LF","learning/Slide130.JPG","This is a wug:","",""
"","html-keyboard-response","398","564082","0.0-8.0-0.50","LF","490hj15f5l","1280","720","en","el05rd15","null","","","","learningBlock2","","","","This is a bim:","null","","","","",""
"","image-keyboard-response","399","564413","0.0-8.0-1.50","LF","490hj15f5l","1280","720","en","el05rd15","null","","","","","","","","learning/Slide131.JPG","null","","","","",""
"","html-keyboard-response","400","565416","0.0-8.0-2.50","LF","490hj15f5l","1280","720","en","el05rd15","null","","","","learningBlock2","","","","<div style=""font-size:60px;""> </div>","null","LF","learning/Slide131.JPG","This is a bim:","",""
"","html-keyboard-response","401","566419","0.0-8.0-0.51","LF","490hj15f5l","1280","720","en","el05rd15","null","","","","learningBlock2","","","","This is a dep:","null","","","","",""
"","image-keyboard-response","402","566747","0.0-8.0-1.51","LF","490hj15f5l","1280","720","en","el05rd15","null","","","","","","","","learning/Slide132.JPG","null","","","","",""
"","html-keyboard-response","403","567748","0.0-8.0-2.51","LF","490hj15f5l","1280","720","en","el05rd15","null","","","","learningBlock2","","","","<div style=""font-size:60px;""> </div>","null","LF","learning/Slide132.JPG","This is a dep:","",""
"","html-keyboard-response","404","568751","0.0-8.0-0.52","LF","490hj15f5l","1280","720","en","el05rd15","null","","","","learningBlock2","","","","This is a tob:","null","","","","",""
"","image-keyboard-response","405","569078","0.0-8.0-1.52","LF","490hj15f5l","1280","720","en","el05rd15","null","","","","","","","","learning/Slide133.JPG","null","","","","",""
"","html-keyboard-response","406","570079","0.0-8.0-2.52","LF","490hj15f5l","1280","720","en","el05rd15","null","","","","learningBlock2","","","","<div style=""font-size:60px;""> </div>","null","LF","learning/Slide133.JPG","This is a tob:","",""
"","html-keyboard-response","407","571081","0.0-8.0-0.53","LF","490hj15f5l","1280","720","en","el05rd15","null","","","","learningBlock2","","","","This is a dep:","null","","","","",""
"","image-keyboard-response","408","571409","0.0-8.0-1.53","LF","490hj15f5l","1280","720","en","el05rd15","null","","","","","","","","learning/Slide134.JPG","null","","","","",""
"","html-keyboard-response","409","572410","0.0-8.0-2.53","LF","490hj15f5l","1280","720","en","el05rd15","null","","","","learningBlock2","","","","<div style=""font-size:60px;""> </div>","null","LF","learning/Slide134.JPG","This is a dep:","",""
"","html-keyboard-response","410","573412","0.0-8.0-0.54","LF","490hj15f5l","1280","720","en","el05rd15","null","","","","learningBlock2","","","","This is a tob:","null","","","","",""
"","image-keyboard-response","411","573740","0.0-8.0-1.54","LF","490hj15f5l","1280","720","en","el05rd15","null","","","","","","","","learning/Slide135.JPG","null","","","","",""
"","html-keyboard-response","412","574743","0.0-8.0-2.54","LF","490hj15f5l","1280","720","en","el05rd15","null","","","","learningBlock2","","","","<div style=""font-size:60px;""> </div>","null","LF","learning/Slide135.JPG","This is a tob:","",""
"","html-keyboard-response","413","575745","0.0-8.0-0.55","LF","490hj15f5l","1280","720","en","el05rd15","null","","","","learningBlock2","","","","This is a wug:","null","","","","",""
"","image-keyboard-response","414","576072","0.0-8.0-1.55","LF","490hj15f5l","1280","720","en","el05rd15","null","","","","","","","","learning/Slide136.JPG","null","","","","",""
"","html-keyboard-response","415","577075","0.0-8.0-2.55","LF","490hj15f5l","1280","720","en","el05rd15","null","","","","learningBlock2","","","","<div style=""font-size:60px;""> </div>","null","LF","learning/Slide136.JPG","This is a wug:","",""
"","html-keyboard-response","416","578076","0.0-8.0-0.56","LF","490hj15f5l","1280","720","en","el05rd15","null","","","","learningBlock2","","","","This is a tob:","null","","","","",""
"","image-keyboard-response","417","578405","0.0-8.0-1.56","LF","490hj15f5l","1280","720","en","el05rd15","null","","","","","","","","learning/Slide137.JPG","null","","","","",""
"","html-keyboard-response","418","579407","0.0-8.0-2.56","LF","490hj15f5l","1280","720","en","el05rd15","null","","","","learningBlock2","","","","<div style=""font-size:60px;""> </div>","null","LF","learning/Slide137.JPG","This is a tob:","",""
"","html-keyboard-response","419","580409","0.0-8.0-0.57","LF","490hj15f5l","1280","720","en","el05rd15","null","","","","learningBlock2","","","","This is a bim:","null","","","","",""
"","image-keyboard-response","420","580737","0.0-8.0-1.57","LF","490hj15f5l","1280","720","en","el05rd15","null","","","","","","","","learning/Slide138.JPG","null","","","","",""
"","html-keyboard-response","421","581739","0.0-8.0-2.57","LF","490hj15f5l","1280","720","en","el05rd15","null","","","","learningBlock2","","","","<div style=""font-size:60px;""> </div>","null","LF","learning/Slide138.JPG","This is a bim:","",""
"","html-keyboard-response","422","582740","0.0-8.0-0.58","LF","490hj15f5l","1280","720","en","el05rd15","null","","","","learningBlock2","","","","This is a wug:","null","","","","",""
"","image-keyboard-response","423","583069","0.0-8.0-1.58","LF","490hj15f5l","1280","720","en","el05rd15","null","","","","","","","","learning/Slide139.JPG","null","","","","",""
"","html-keyboard-response","424","584071","0.0-8.0-2.58","LF","490hj15f5l","1280","720","en","el05rd15","null","","","","learningBlock2","","","","<div style=""font-size:60px;""> </div>","null","LF","learning/Slide139.JPG","This is a wug:","",""
"","html-keyboard-response","425","585072","0.0-8.0-0.59","LF","490hj15f5l","1280","720","en","el05rd15","null","","","","learningBlock2","","","","This is a dep:","null","","","","",""
"","image-keyboard-response","426","585400","0.0-8.0-1.59","LF","490hj15f5l","1280","720","en","el05rd15","null","","","","","","","","learning/Slide140.JPG","null","","","","",""
"","html-keyboard-response","427","586402","0.0-8.0-2.59","LF","490hj15f5l","1280","720","en","el05rd15","null","","","","learningBlock2","","","","<div style=""font-size:60px;""> </div>","null","LF","learning/Slide140.JPG","This is a dep:","",""
"","html-keyboard-response","428","587405","0.0-8.0-0.60","LF","490hj15f5l","1280","720","en","el05rd15","null","","","","learningBlock2","","","","This is a tob:","null","","","","",""
"","image-keyboard-response","429","587732","0.0-8.0-1.60","LF","490hj15f5l","1280","720","en","el05rd15","null","","","","","","","","learning/Slide141.JPG","null","","","","",""
"","html-keyboard-response","430","588734","0.0-8.0-2.60","LF","490hj15f5l","1280","720","en","el05rd15","null","","","","learningBlock2","","","","<div style=""font-size:60px;""> </div>","null","LF","learning/Slide141.JPG","This is a tob:","",""
"","html-keyboard-response","431","589738","0.0-8.0-0.61","LF","490hj15f5l","1280","720","en","el05rd15","null","","","","learningBlock2","","","","This is a wug:","null","","","","",""
"","image-keyboard-response","432","590067","0.0-8.0-1.61","LF","490hj15f5l","1280","720","en","el05rd15","null","","","","","","","","learning/Slide142.JPG","null","","","","",""
"","html-keyboard-response","433","591071","0.0-8.0-2.61","LF","490hj15f5l","1280","720","en","el05rd15","null","","","","learningBlock2","","","","<div style=""font-size:60px;""> </div>","null","LF","learning/Slide142.JPG","This is a wug:","",""
"","html-keyboard-response","434","592074","0.0-8.0-0.62","LF","490hj15f5l","1280","720","en","el05rd15","null","","","","learningBlock2","","","","This is a bim:","null","","","","",""
"","image-keyboard-response","435","592403","0.0-8.0-1.62","LF","490hj15f5l","1280","720","en","el05rd15","null","","","","","","","","learning/Slide143.JPG","null","","","","",""
"","html-keyboard-response","436","593407","0.0-8.0-2.62","LF","490hj15f5l","1280","720","en","el05rd15","null","","","","learningBlock2","","","","<div style=""font-size:60px;""> </div>","null","LF","learning/Slide143.JPG","This is a bim:","",""
"","html-keyboard-response","437","594412","0.0-8.0-0.63","LF","490hj15f5l","1280","720","en","el05rd15","null","","","","learningBlock2","","","","This is a dep:","null","","","","",""
"","image-keyboard-response","438","594741","0.0-8.0-1.63","LF","490hj15f5l","1280","720","en","el05rd15","null","","","","","","","","learning/Slide144.JPG","null","","","","",""
"","html-keyboard-response","439","595745","0.0-8.0-2.63","LF","490hj15f5l","1280","720","en","el05rd15","null","","","","learningBlock2","","","","<div style=""font-size:60px;""> </div>","null","LF","learning/Slide144.JPG","This is a dep:","",""
"","html-keyboard-response","440","596748","0.0-8.0-0.64","LF","490hj15f5l","1280","720","en","el05rd15","null","","","","learningBlock2","","","","This is a bim:","null","","","","",""
"","image-keyboard-response","441","597078","0.0-8.0-1.64","LF","490hj15f5l","1280","720","en","el05rd15","null","","","","","","","","learning/Slide145.JPG","null","","","","",""
"","html-keyboard-response","442","598081","0.0-8.0-2.64","LF","490hj15f5l","1280","720","en","el05rd15","null","","","","learningBlock2","","","","<div style=""font-size:60px;""> </div>","null","LF","learning/Slide145.JPG","This is a bim:","",""
"","html-keyboard-response","443","599085","0.0-8.0-0.65","LF","490hj15f5l","1280","720","en","el05rd15","null","","","","learningBlock2","","","","This is a tob:","null","","","","",""
"","image-keyboard-response","444","599414","0.0-8.0-1.65","LF","490hj15f5l","1280","720","en","el05rd15","null","","","","","","","","learning/Slide146.JPG","null","","","","",""
"","html-keyboard-response","445","600418","0.0-8.0-2.65","LF","490hj15f5l","1280","720","en","el05rd15","null","","","","learningBlock2","","","","<div style=""font-size:60px;""> </div>","null","LF","learning/Slide146.JPG","This is a tob:","",""
"","html-keyboard-response","446","601422","0.0-8.0-0.66","LF","490hj15f5l","1280","720","en","el05rd15","null","","","","learningBlock2","","","","This is a wug:","null","","","","",""
"","image-keyboard-response","447","601750","0.0-8.0-1.66","LF","490hj15f5l","1280","720","en","el05rd15","null","","","","","","","","learning/Slide147.JPG","null","","","","",""
"","html-keyboard-response","448","602754","0.0-8.0-2.66","LF","490hj15f5l","1280","720","en","el05rd15","null","","","","learningBlock2","","","","<div style=""font-size:60px;""> </div>","null","LF","learning/Slide147.JPG","This is a wug:","",""
"","html-keyboard-response","449","603757","0.0-8.0-0.67","LF","490hj15f5l","1280","720","en","el05rd15","null","","","","learningBlock2","","","","This is a bim:","null","","","","",""
"","image-keyboard-response","450","604087","0.0-8.0-1.67","LF","490hj15f5l","1280","720","en","el05rd15","null","","","","","","","","learning/Slide148.JPG","null","","","","",""
"","html-keyboard-response","451","605090","0.0-8.0-2.67","LF","490hj15f5l","1280","720","en","el05rd15","null","","","","learningBlock2","","","","<div style=""font-size:60px;""> </div>","null","LF","learning/Slide148.JPG","This is a bim:","",""
"","html-keyboard-response","452","606093","0.0-8.0-0.68","LF","490hj15f5l","1280","720","en","el05rd15","null","","","","learningBlock2","","","","This is a dep:","null","","","","",""
"","image-keyboard-response","453","606424","0.0-8.0-1.68","LF","490hj15f5l","1280","720","en","el05rd15","null","","","","","","","","learning/Slide149.JPG","null","","","","",""
"","html-keyboard-response","454","607428","0.0-8.0-2.68","LF","490hj15f5l","1280","720","en","el05rd15","null","","","","learningBlock2","","","","<div style=""font-size:60px;""> </div>","null","LF","learning/Slide149.JPG","This is a dep:","",""
"","html-keyboard-response","455","608432","0.0-8.0-0.69","LF","490hj15f5l","1280","720","en","el05rd15","null","","","","learningBlock2","","","","This is a wug:","null","","","","",""
"","image-keyboard-response","456","608760","0.0-8.0-1.69","LF","490hj15f5l","1280","720","en","el05rd15","null","","","","","","","","learning/Slide150.JPG","null","","","","",""
"","html-keyboard-response","457","609764","0.0-8.0-2.69","LF","490hj15f5l","1280","720","en","el05rd15","null","","","","learningBlock2","","","","<div style=""font-size:60px;""> </div>","null","LF","learning/Slide150.JPG","This is a wug:","",""
"","html-keyboard-response","458","610768","0.0-8.0-0.70","LF","490hj15f5l","1280","720","en","el05rd15","null","","","","learningBlock2","","","","This is a dep:","null","","","","",""
"","image-keyboard-response","459","611096","0.0-8.0-1.70","LF","490hj15f5l","1280","720","en","el05rd15","null","","","","","","","","learning/Slide151.JPG","null","","","","",""
"","html-keyboard-response","460","612100","0.0-8.0-2.70","LF","490hj15f5l","1280","720","en","el05rd15","null","","","","learningBlock2","","","","<div style=""font-size:60px;""> </div>","null","LF","learning/Slide151.JPG","This is a dep:","",""
"","html-keyboard-response","461","613103","0.0-8.0-0.71","LF","490hj15f5l","1280","720","en","el05rd15","null","","","","learningBlock2","","","","This is a wug:","null","","","","",""
"","image-keyboard-response","462","613433","0.0-8.0-1.71","LF","490hj15f5l","1280","720","en","el05rd15","null","","","","","","","","learning/Slide152.JPG","null","","","","",""
"","html-keyboard-response","463","614437","0.0-8.0-2.71","LF","490hj15f5l","1280","720","en","el05rd15","null","","","","learningBlock2","","","","<div style=""font-size:60px;""> </div>","null","LF","learning/Slide152.JPG","This is a wug:","",""
"","html-keyboard-response","464","615438","0.0-8.0-0.72","LF","490hj15f5l","1280","720","en","el05rd15","null","","","","learningBlock2","","","","This is a bim:","null","","","","",""
"","image-keyboard-response","465","615767","0.0-8.0-1.72","LF","490hj15f5l","1280","720","en","el05rd15","null","","","","","","","","learning/Slide153.JPG","null","","","","",""
"","html-keyboard-response","466","616772","0.0-8.0-2.72","LF","490hj15f5l","1280","720","en","el05rd15","null","","","","learningBlock2","","","","<div style=""font-size:60px;""> </div>","null","LF","learning/Slide153.JPG","This is a bim:","",""
"","html-keyboard-response","467","617776","0.0-8.0-0.73","LF","490hj15f5l","1280","720","en","el05rd15","null","","","","learningBlock2","","","","This is a tob:","null","","","","",""
"","image-keyboard-response","468","618105","0.0-8.0-1.73","LF","490hj15f5l","1280","720","en","el05rd15","null","","","","","","","","learning/Slide154.JPG","null","","","","",""
"","html-keyboard-response","469","619108","0.0-8.0-2.73","LF","490hj15f5l","1280","720","en","el05rd15","null","","","","learningBlock2","","","","<div style=""font-size:60px;""> </div>","null","LF","learning/Slide154.JPG","This is a tob:","",""
"","html-keyboard-response","470","620112","0.0-8.0-0.74","LF","490hj15f5l","1280","720","en","el05rd15","null","","","","learningBlock2","","","","This is a dep:","null","","","","",""
"","image-keyboard-response","471","620441","0.0-8.0-1.74","LF","490hj15f5l","1280","720","en","el05rd15","null","","","","","","","","learning/Slide155.JPG","null","","","","",""
"","html-keyboard-response","472","621445","0.0-8.0-2.74","LF","490hj15f5l","1280","720","en","el05rd15","null","","","","learningBlock2","","","","<div style=""font-size:60px;""> </div>","null","LF","learning/Slide155.JPG","This is a dep:","",""
"","html-keyboard-response","473","622449","0.0-8.0-0.75","LF","490hj15f5l","1280","720","en","el05rd15","null","","","","learningBlock2","","","","This is a bim:","null","","","","",""
"","image-keyboard-response","474","622777","0.0-8.0-1.75","LF","490hj15f5l","1280","720","en","el05rd15","null","","","","","","","","learning/Slide156.JPG","null","","","","",""
"","html-keyboard-response","475","623781","0.0-8.0-2.75","LF","490hj15f5l","1280","720","en","el05rd15","null","","","","learningBlock2","","","","<div style=""font-size:60px;""> </div>","null","LF","learning/Slide156.JPG","This is a bim:","",""
"","html-keyboard-response","476","624784","0.0-8.0-0.76","LF","490hj15f5l","1280","720","en","el05rd15","null","","","","learningBlock2","","","","This is a dep:","null","","","","",""
"","image-keyboard-response","477","625113","0.0-8.0-1.76","LF","490hj15f5l","1280","720","en","el05rd15","null","","","","","","","","learning/Slide157.JPG","null","","","","",""
"","html-keyboard-response","478","626117","0.0-8.0-2.76","LF","490hj15f5l","1280","720","en","el05rd15","null","","","","learningBlock2","","","","<div style=""font-size:60px;""> </div>","null","LF","learning/Slide157.JPG","This is a dep:","",""
"","html-keyboard-response","479","627120","0.0-8.0-0.77","LF","490hj15f5l","1280","720","en","el05rd15","null","","","","learningBlock2","","","","This is a tob:","null","","","","",""
"","image-keyboard-response","480","627449","0.0-8.0-1.77","LF","490hj15f5l","1280","720","en","el05rd15","null","","","","","","","","learning/Slide158.JPG","null","","","","",""
"","html-keyboard-response","481","628454","0.0-8.0-2.77","LF","490hj15f5l","1280","720","en","el05rd15","null","","","","learningBlock2","","","","<div style=""font-size:60px;""> </div>","null","LF","learning/Slide158.JPG","This is a tob:","",""
"","html-keyboard-response","482","629457","0.0-8.0-0.78","LF","490hj15f5l","1280","720","en","el05rd15","null","","","","learningBlock2","","","","This is a dep:","null","","","","",""
"","image-keyboard-response","483","629785","0.0-8.0-1.78","LF","490hj15f5l","1280","720","en","el05rd15","null","","","","","","","","learning/Slide159.JPG","null","","","","",""
"","html-keyboard-response","484","630790","0.0-8.0-2.78","LF","490hj15f5l","1280","720","en","el05rd15","null","","","","learningBlock2","","","","<div style=""font-size:60px;""> </div>","null","LF","learning/Slide159.JPG","This is a dep:","",""
"","html-keyboard-response","485","631794","0.0-8.0-0.79","LF","490hj15f5l","1280","720","en","el05rd15","null","","","","learningBlock2","","","","This is a wug:","null","","","","",""
"","image-keyboard-response","486","632123","0.0-8.0-1.79","LF","490hj15f5l","1280","720","en","el05rd15","null","","","","","","","","learning/Slide160.JPG","null","","","","",""
"","html-keyboard-response","487","633127","0.0-8.0-2.79","LF","490hj15f5l","1280","720","en","el05rd15","null","","","","learningBlock2","","","","<div style=""font-size:60px;""> </div>","null","LF","learning/Slide160.JPG","This is a wug:","",""
"","resize2","488","637673","0.0-9.0","LF","490hj15f5l","1280","720","en","el05rd15","","","","","","","104","1.04","","","","","","",""
"","instructions","489","648529","0.0-10.0","LF","490hj15f5l","1280","720","en","el05rd15","NA","","","[{""page_index"":0,""viewing_time"":10854.954999987967}]","instructions","","","","","","","","","",""
