"success","trial_type","trial_index","time_elapsed","internal_node_id","condition","subject","screen_width","screen_height","language","codeword","rt","responses","url","view_history","test_part","final_height_px","final_width_px","scale_factor","stimulus","key_press","learningType","presentedImage","presentedLabel","button_pressed","response"
"true","fullscreen","0","895598","0.0-0.0","LF","acgok0jj2j","1920","1080","de","VO06AS02","","","","","","","","","","","","","","",""
"","survey-html-form","1","907319","0.0-1.0","LF","acgok0jj2j","1920","1080","de","VO06AS02","11715.490000000107","{""language"":""de""}","","","","","","","","","","","","",""
"","external-html","2","1047393","0.0-2.0-0.0","LF","acgok0jj2j","1920","1080","de","VO06AS02","139991.24000000034","","text/information.html","","","","","","","","","","","",""
"","external-html","3","1094657","0.0-2.0-1.0","LF","acgok0jj2j","1920","1080","de","VO06AS02","47197.769999999786","","text/consent.html","","","","","","","","","","","",""
"","survey-html-form","4","1185564","0.0-2.0-2.0","LF","acgok0jj2j","1920","1080","de","VO06AS02","90903.04500000016","{""codeword_enter"":""VO06AS02""}","","","","","","","","","","","","",""
"","instructions","5","1206224","0.0-4.0","LF","acgok0jj2j","1920","1080","de","VO06AS02","NA","","","[{""page_index"":0,""viewing_time"":3408.0399999998044},{""page_index"":1,""viewing_time"":15739.770000000251}]","instructions","","","","","","","","","",""
"","resize","6","1414396","0.0-5.0","LF","acgok0jj2j","1920","1080","de","VO06AS02","","","","","","","310","1.9682539682539681","","","","","","",""
"","html-keyboard-response","7","1415399","0.0-6.0-0.0","LF","acgok0jj2j","1920","1080","de","VO06AS02","null","","","","learningBlock1","","","","This is a tob:","null","","","","",""
"","image-keyboard-response","8","1415734","0.0-6.0-1.0","LF","acgok0jj2j","1920","1080","de","VO06AS02","null","","","","","","","","learning/Slide1.JPG","null","","","","",""
"","html-keyboard-response","9","1416752","0.0-6.0-2.0","LF","acgok0jj2j","1920","1080","de","VO06AS02","null","","","","learningBlock1","","","","<div style=""font-size:60px;""> </div>","null","LF","learning/Slide1.JPG","This is a tob:","",""
"","html-keyboard-response","10","1417757","0.0-6.0-0.1","LF","acgok0jj2j","1920","1080","de","VO06AS02","null","","","","learningBlock1","","","","This is a wug:","null","","","","",""
"","image-keyboard-response","11","1418084","0.0-6.0-1.1","LF","acgok0jj2j","1920","1080","de","VO06AS02","null","","","","","","","","learning/Slide2.JPG","null","","","","",""
"","html-keyboard-response","12","1419101","0.0-6.0-2.1","LF","acgok0jj2j","1920","1080","de","VO06AS02","null","","","","learningBlock1","","","","<div style=""font-size:60px;""> </div>","null","LF","learning/Slide2.JPG","This is a wug:","",""
"","html-keyboard-response","13","1420108","0.0-6.0-0.2","LF","acgok0jj2j","1920","1080","de","VO06AS02","null","","","","learningBlock1","","","","This is a bim:","null","","","","",""
"","image-keyboard-response","14","1420450","0.0-6.0-1.2","LF","acgok0jj2j","1920","1080","de","VO06AS02","null","","","","","","","","learning/Slide3.JPG","null","","","","",""
"","html-keyboard-response","15","1421459","0.0-6.0-2.2","LF","acgok0jj2j","1920","1080","de","VO06AS02","null","","","","learningBlock1","","","","<div style=""font-size:60px;""> </div>","null","LF","learning/Slide3.JPG","This is a bim:","",""
"","html-keyboard-response","16","1422467","0.0-6.0-0.3","LF","acgok0jj2j","1920","1080","de","VO06AS02","null","","","","learningBlock1","","","","This is a dep:","null","","","","",""
"","image-keyboard-response","17","1422810","0.0-6.0-1.3","LF","acgok0jj2j","1920","1080","de","VO06AS02","null","","","","","","","","learning/Slide4.JPG","null","","","","",""
"","html-keyboard-response","18","1423821","0.0-6.0-2.3","LF","acgok0jj2j","1920","1080","de","VO06AS02","null","","","","learningBlock1","","","","<div style=""font-size:60px;""> </div>","null","LF","learning/Slide4.JPG","This is a dep:","",""
"","html-keyboard-response","19","1424831","0.0-6.0-0.4","LF","acgok0jj2j","1920","1080","de","VO06AS02","null","","","","learningBlock1","","","","This is a wug:","null","","","","",""
"","image-keyboard-response","20","1425161","0.0-6.0-1.4","LF","acgok0jj2j","1920","1080","de","VO06AS02","null","","","","","","","","learning/Slide5.JPG","null","","","","",""
"","html-keyboard-response","21","1426167","0.0-6.0-2.4","LF","acgok0jj2j","1920","1080","de","VO06AS02","null","","","","learningBlock1","","","","<div style=""font-size:60px;""> </div>","null","LF","learning/Slide5.JPG","This is a wug:","",""
"","html-keyboard-response","22","1427177","0.0-6.0-0.5","LF","acgok0jj2j","1920","1080","de","VO06AS02","null","","","","learningBlock1","","","","This is a dep:","null","","","","",""
"","image-keyboard-response","23","1427520","0.0-6.0-1.5","LF","acgok0jj2j","1920","1080","de","VO06AS02","null","","","","","","","","learning/Slide6.JPG","null","","","","",""
"","html-keyboard-response","24","1428533","0.0-6.0-2.5","LF","acgok0jj2j","1920","1080","de","VO06AS02","null","","","","learningBlock1","","","","<div style=""font-size:60px;""> </div>","null","LF","learning/Slide6.JPG","This is a dep:","",""
"","html-keyboard-response","25","1429543","0.0-6.0-0.6","LF","acgok0jj2j","1920","1080","de","VO06AS02","null","","","","learningBlock1","","","","This is a wug:","null","","","","",""
"","image-keyboard-response","26","1429871","0.0-6.0-1.6","LF","acgok0jj2j","1920","1080","de","VO06AS02","null","","","","","","","","learning/Slide7.JPG","null","","","","",""
"","html-keyboard-response","27","1430880","0.0-6.0-2.6","LF","acgok0jj2j","1920","1080","de","VO06AS02","null","","","","learningBlock1","","","","<div style=""font-size:60px;""> </div>","null","LF","learning/Slide7.JPG","This is a wug:","",""
"","html-keyboard-response","28","1431888","0.0-6.0-0.7","LF","acgok0jj2j","1920","1080","de","VO06AS02","null","","","","learningBlock1","","","","This is a bim:","null","","","","",""
"","image-keyboard-response","29","1432216","0.0-6.0-1.7","LF","acgok0jj2j","1920","1080","de","VO06AS02","null","","","","","","","","learning/Slide8.JPG","null","","","","",""
"","html-keyboard-response","30","1433226","0.0-6.0-2.7","LF","acgok0jj2j","1920","1080","de","VO06AS02","null","","","","learningBlock1","","","","<div style=""font-size:60px;""> </div>","null","LF","learning/Slide8.JPG","This is a bim:","",""
"","html-keyboard-response","31","1434235","0.0-6.0-0.8","LF","acgok0jj2j","1920","1080","de","VO06AS02","null","","","","learningBlock1","","","","This is a wug:","null","","","","",""
"","image-keyboard-response","32","1434576","0.0-6.0-1.8","LF","acgok0jj2j","1920","1080","de","VO06AS02","null","","","","","","","","learning/Slide9.JPG","null","","","","",""
"","html-keyboard-response","33","1435583","0.0-6.0-2.8","LF","acgok0jj2j","1920","1080","de","VO06AS02","null","","","","learningBlock1","","","","<div style=""font-size:60px;""> </div>","null","LF","learning/Slide9.JPG","This is a wug:","",""
"","html-keyboard-response","34","1436592","0.0-6.0-0.9","LF","acgok0jj2j","1920","1080","de","VO06AS02","null","","","","learningBlock1","","","","This is a dep:","null","","","","",""
"","image-keyboard-response","35","1436924","0.0-6.0-1.9","LF","acgok0jj2j","1920","1080","de","VO06AS02","null","","","","","","","","learning/Slide10.JPG","null","","","","",""
"","html-keyboard-response","36","1437941","0.0-6.0-2.9","LF","acgok0jj2j","1920","1080","de","VO06AS02","null","","","","learningBlock1","","","","<div style=""font-size:60px;""> </div>","null","LF","learning/Slide10.JPG","This is a dep:","",""
"","html-keyboard-response","37","1438950","0.0-6.0-0.10","LF","acgok0jj2j","1920","1080","de","VO06AS02","null","","","","learningBlock1","","","","This is a tob:","null","","","","",""
"","image-keyboard-response","38","1439278","0.0-6.0-1.10","LF","acgok0jj2j","1920","1080","de","VO06AS02","null","","","","","","","","learning/Slide11.JPG","null","","","","",""
"","html-keyboard-response","39","1440287","0.0-6.0-2.10","LF","acgok0jj2j","1920","1080","de","VO06AS02","null","","","","learningBlock1","","","","<div style=""font-size:60px;""> </div>","null","LF","learning/Slide11.JPG","This is a tob:","",""
"","html-keyboard-response","40","1441302","0.0-6.0-0.11","LF","acgok0jj2j","1920","1080","de","VO06AS02","null","","","","learningBlock1","","","","This is a dep:","null","","","","",""
"","image-keyboard-response","41","1441634","0.0-6.0-1.11","LF","acgok0jj2j","1920","1080","de","VO06AS02","null","","","","","","","","learning/Slide12.JPG","null","","","","",""
"","html-keyboard-response","42","1442643","0.0-6.0-2.11","LF","acgok0jj2j","1920","1080","de","VO06AS02","null","","","","learningBlock1","","","","<div style=""font-size:60px;""> </div>","null","LF","learning/Slide12.JPG","This is a dep:","",""
"","html-keyboard-response","43","1443653","0.0-6.0-0.12","LF","acgok0jj2j","1920","1080","de","VO06AS02","null","","","","learningBlock1","","","","This is a bim:","null","","","","",""
"","image-keyboard-response","44","1443981","0.0-6.0-1.12","LF","acgok0jj2j","1920","1080","de","VO06AS02","null","","","","","","","","learning/Slide13.JPG","null","","","","",""
"","html-keyboard-response","45","1444988","0.0-6.0-2.12","LF","acgok0jj2j","1920","1080","de","VO06AS02","null","","","","learningBlock1","","","","<div style=""font-size:60px;""> </div>","null","LF","learning/Slide13.JPG","This is a bim:","",""
"","html-keyboard-response","46","1446000","0.0-6.0-0.13","LF","acgok0jj2j","1920","1080","de","VO06AS02","null","","","","learningBlock1","","","","This is a wug:","null","","","","",""
"","image-keyboard-response","47","1446329","0.0-6.0-1.13","LF","acgok0jj2j","1920","1080","de","VO06AS02","null","","","","","","","","learning/Slide14.JPG","null","","","","",""
"","html-keyboard-response","48","1447335","0.0-6.0-2.13","LF","acgok0jj2j","1920","1080","de","VO06AS02","null","","","","learningBlock1","","","","<div style=""font-size:60px;""> </div>","null","LF","learning/Slide14.JPG","This is a wug:","",""
"","html-keyboard-response","49","1448346","0.0-6.0-0.14","LF","acgok0jj2j","1920","1080","de","VO06AS02","null","","","","learningBlock1","","","","This is a tob:","null","","","","",""
"","image-keyboard-response","50","1448687","0.0-6.0-1.14","LF","acgok0jj2j","1920","1080","de","VO06AS02","null","","","","","","","","learning/Slide15.JPG","null","","","","",""
"","html-keyboard-response","51","1449701","0.0-6.0-2.14","LF","acgok0jj2j","1920","1080","de","VO06AS02","null","","","","learningBlock1","","","","<div style=""font-size:60px;""> </div>","null","LF","learning/Slide15.JPG","This is a tob:","",""
"","html-keyboard-response","52","1450709","0.0-6.0-0.15","LF","acgok0jj2j","1920","1080","de","VO06AS02","null","","","","learningBlock1","","","","This is a dep:","null","","","","",""
"","image-keyboard-response","53","1451036","0.0-6.0-1.15","LF","acgok0jj2j","1920","1080","de","VO06AS02","null","","","","","","","","learning/Slide16.JPG","null","","","","",""
"","html-keyboard-response","54","1452048","0.0-6.0-2.15","LF","acgok0jj2j","1920","1080","de","VO06AS02","null","","","","learningBlock1","","","","<div style=""font-size:60px;""> </div>","null","LF","learning/Slide16.JPG","This is a dep:","",""
"","html-keyboard-response","55","1453058","0.0-6.0-0.16","LF","acgok0jj2j","1920","1080","de","VO06AS02","null","","","","learningBlock1","","","","This is a bim:","null","","","","",""
"","image-keyboard-response","56","1453386","0.0-6.0-1.16","LF","acgok0jj2j","1920","1080","de","VO06AS02","null","","","","","","","","learning/Slide17.JPG","null","","","","",""
"","html-keyboard-response","57","1454392","0.0-6.0-2.16","LF","acgok0jj2j","1920","1080","de","VO06AS02","null","","","","learningBlock1","","","","<div style=""font-size:60px;""> </div>","null","LF","learning/Slide17.JPG","This is a bim:","",""
"","html-keyboard-response","58","1455401","0.0-6.0-0.17","LF","acgok0jj2j","1920","1080","de","VO06AS02","null","","","","learningBlock1","","","","This is a tob:","null","","","","",""
"","image-keyboard-response","59","1455740","0.0-6.0-1.17","LF","acgok0jj2j","1920","1080","de","VO06AS02","null","","","","","","","","learning/Slide18.JPG","null","","","","",""
"","html-keyboard-response","60","1456755","0.0-6.0-2.17","LF","acgok0jj2j","1920","1080","de","VO06AS02","null","","","","learningBlock1","","","","<div style=""font-size:60px;""> </div>","null","LF","learning/Slide18.JPG","This is a tob:","",""
"","html-keyboard-response","61","1457763","0.0-6.0-0.18","LF","acgok0jj2j","1920","1080","de","VO06AS02","null","","","","learningBlock1","","","","This is a wug:","null","","","","",""
"","image-keyboard-response","62","1458095","0.0-6.0-1.18","LF","acgok0jj2j","1920","1080","de","VO06AS02","null","","","","","","","","learning/Slide19.JPG","null","","","","",""
"","html-keyboard-response","63","1459104","0.0-6.0-2.18","LF","acgok0jj2j","1920","1080","de","VO06AS02","null","","","","learningBlock1","","","","<div style=""font-size:60px;""> </div>","null","LF","learning/Slide19.JPG","This is a wug:","",""
"","html-keyboard-response","64","1460116","0.0-6.0-0.19","LF","acgok0jj2j","1920","1080","de","VO06AS02","null","","","","learningBlock1","","","","This is a bim:","null","","","","",""
"","image-keyboard-response","65","1460447","0.0-6.0-1.19","LF","acgok0jj2j","1920","1080","de","VO06AS02","null","","","","","","","","learning/Slide20.JPG","null","","","","",""
"","html-keyboard-response","66","1461452","0.0-6.0-2.19","LF","acgok0jj2j","1920","1080","de","VO06AS02","null","","","","learningBlock1","","","","<div style=""font-size:60px;""> </div>","null","LF","learning/Slide20.JPG","This is a bim:","",""
"","html-keyboard-response","67","1462460","0.0-6.0-0.20","LF","acgok0jj2j","1920","1080","de","VO06AS02","null","","","","learningBlock1","","","","This is a dep:","null","","","","",""
"","image-keyboard-response","68","1462805","0.0-6.0-1.20","LF","acgok0jj2j","1920","1080","de","VO06AS02","null","","","","","","","","learning/Slide21.JPG","null","","","","",""
"","html-keyboard-response","69","1463818","0.0-6.0-2.20","LF","acgok0jj2j","1920","1080","de","VO06AS02","null","","","","learningBlock1","","","","<div style=""font-size:60px;""> </div>","null","LF","learning/Slide21.JPG","This is a dep:","",""
"","html-keyboard-response","70","1464827","0.0-6.0-0.21","LF","acgok0jj2j","1920","1080","de","VO06AS02","null","","","","learningBlock1","","","","This is a bim:","null","","","","",""
"","image-keyboard-response","71","1465155","0.0-6.0-1.21","LF","acgok0jj2j","1920","1080","de","VO06AS02","null","","","","","","","","learning/Slide22.JPG","null","","","","",""
"","html-keyboard-response","72","1466163","0.0-6.0-2.21","LF","acgok0jj2j","1920","1080","de","VO06AS02","null","","","","learningBlock1","","","","<div style=""font-size:60px;""> </div>","null","LF","learning/Slide22.JPG","This is a bim:","",""
"","html-keyboard-response","73","1467172","0.0-6.0-0.22","LF","acgok0jj2j","1920","1080","de","VO06AS02","null","","","","learningBlock1","","","","This is a tob:","null","","","","",""
"","image-keyboard-response","74","1467500","0.0-6.0-1.22","LF","acgok0jj2j","1920","1080","de","VO06AS02","null","","","","","","","","learning/Slide23.JPG","null","","","","",""
"","html-keyboard-response","75","1468511","0.0-6.0-2.22","LF","acgok0jj2j","1920","1080","de","VO06AS02","null","","","","learningBlock1","","","","<div style=""font-size:60px;""> </div>","null","LF","learning/Slide23.JPG","This is a tob:","",""
"","html-keyboard-response","76","1469523","0.0-6.0-0.23","LF","acgok0jj2j","1920","1080","de","VO06AS02","null","","","","learningBlock1","","","","This is a wug:","null","","","","",""
"","image-keyboard-response","77","1469854","0.0-6.0-1.23","LF","acgok0jj2j","1920","1080","de","VO06AS02","null","","","","","","","","learning/Slide24.JPG","null","","","","",""
"","html-keyboard-response","78","1470867","0.0-6.0-2.23","LF","acgok0jj2j","1920","1080","de","VO06AS02","null","","","","learningBlock1","","","","<div style=""font-size:60px;""> </div>","null","LF","learning/Slide24.JPG","This is a wug:","",""
"","html-keyboard-response","79","1471883","0.0-6.0-0.24","LF","acgok0jj2j","1920","1080","de","VO06AS02","null","","","","learningBlock1","","","","This is a dep:","null","","","","",""
"","image-keyboard-response","80","1472211","0.0-6.0-1.24","LF","acgok0jj2j","1920","1080","de","VO06AS02","null","","","","","","","","learning/Slide25.JPG","null","","","","",""
"","html-keyboard-response","81","1473223","0.0-6.0-2.24","LF","acgok0jj2j","1920","1080","de","VO06AS02","null","","","","learningBlock1","","","","<div style=""font-size:60px;""> </div>","null","LF","learning/Slide25.JPG","This is a dep:","",""
"","html-keyboard-response","82","1474232","0.0-6.0-0.25","LF","acgok0jj2j","1920","1080","de","VO06AS02","null","","","","learningBlock1","","","","This is a wug:","null","","","","",""
"","image-keyboard-response","83","1474564","0.0-6.0-1.25","LF","acgok0jj2j","1920","1080","de","VO06AS02","null","","","","","","","","learning/Slide26.JPG","null","","","","",""
"","html-keyboard-response","84","1475568","0.0-6.0-2.25","LF","acgok0jj2j","1920","1080","de","VO06AS02","null","","","","learningBlock1","","","","<div style=""font-size:60px;""> </div>","null","LF","learning/Slide26.JPG","This is a wug:","",""
"","html-keyboard-response","85","1476585","0.0-6.0-0.26","LF","acgok0jj2j","1920","1080","de","VO06AS02","null","","","","learningBlock1","","","","This is a bim:","null","","","","",""
"","image-keyboard-response","86","1476917","0.0-6.0-1.26","LF","acgok0jj2j","1920","1080","de","VO06AS02","null","","","","","","","","learning/Slide27.JPG","null","","","","",""
"","html-keyboard-response","87","1477925","0.0-6.0-2.26","LF","acgok0jj2j","1920","1080","de","VO06AS02","null","","","","learningBlock1","","","","<div style=""font-size:60px;""> </div>","null","LF","learning/Slide27.JPG","This is a bim:","",""
"","html-keyboard-response","88","1478939","0.0-6.0-0.27","LF","acgok0jj2j","1920","1080","de","VO06AS02","null","","","","learningBlock1","","","","This is a dep:","null","","","","",""
"","image-keyboard-response","89","1479266","0.0-6.0-1.27","LF","acgok0jj2j","1920","1080","de","VO06AS02","null","","","","","","","","learning/Slide28.JPG","null","","","","",""
"","html-keyboard-response","90","1480278","0.0-6.0-2.27","LF","acgok0jj2j","1920","1080","de","VO06AS02","null","","","","learningBlock1","","","","<div style=""font-size:60px;""> </div>","null","LF","learning/Slide28.JPG","This is a dep:","",""
"","html-keyboard-response","91","1481290","0.0-6.0-0.28","LF","acgok0jj2j","1920","1080","de","VO06AS02","null","","","","learningBlock1","","","","This is a tob:","null","","","","",""
"","image-keyboard-response","92","1481618","0.0-6.0-1.28","LF","acgok0jj2j","1920","1080","de","VO06AS02","null","","","","","","","","learning/Slide29.JPG","null","","","","",""
"","html-keyboard-response","93","1482624","0.0-6.0-2.28","LF","acgok0jj2j","1920","1080","de","VO06AS02","null","","","","learningBlock1","","","","<div style=""font-size:60px;""> </div>","null","LF","learning/Slide29.JPG","This is a tob:","",""
"","html-keyboard-response","94","1483637","0.0-6.0-0.29","LF","acgok0jj2j","1920","1080","de","VO06AS02","null","","","","learningBlock1","","","","This is a dep:","null","","","","",""
"","image-keyboard-response","95","1483970","0.0-6.0-1.29","LF","acgok0jj2j","1920","1080","de","VO06AS02","null","","","","","","","","learning/Slide30.JPG","null","","","","",""
"","html-keyboard-response","96","1484975","0.0-6.0-2.29","LF","acgok0jj2j","1920","1080","de","VO06AS02","null","","","","learningBlock1","","","","<div style=""font-size:60px;""> </div>","null","LF","learning/Slide30.JPG","This is a dep:","",""
"","html-keyboard-response","97","1485987","0.0-6.0-0.30","LF","acgok0jj2j","1920","1080","de","VO06AS02","null","","","","learningBlock1","","","","This is a wug:","null","","","","",""
"","image-keyboard-response","98","1486318","0.0-6.0-1.30","LF","acgok0jj2j","1920","1080","de","VO06AS02","null","","","","","","","","learning/Slide31.JPG","null","","","","",""
"","html-keyboard-response","99","1487327","0.0-6.0-2.30","LF","acgok0jj2j","1920","1080","de","VO06AS02","null","","","","learningBlock1","","","","<div style=""font-size:60px;""> </div>","null","LF","learning/Slide31.JPG","This is a wug:","",""
"","html-keyboard-response","100","1488331","0.0-6.0-0.31","LF","acgok0jj2j","1920","1080","de","VO06AS02","null","","","","learningBlock1","","","","This is a tob:","null","","","","",""
"","image-keyboard-response","101","1488675","0.0-6.0-1.31","LF","acgok0jj2j","1920","1080","de","VO06AS02","null","","","","","","","","learning/Slide32.JPG","null","","","","",""
"","html-keyboard-response","102","1489681","0.0-6.0-2.31","LF","acgok0jj2j","1920","1080","de","VO06AS02","null","","","","learningBlock1","","","","<div style=""font-size:60px;""> </div>","null","LF","learning/Slide32.JPG","This is a tob:","",""
"","html-keyboard-response","103","1490696","0.0-6.0-0.32","LF","acgok0jj2j","1920","1080","de","VO06AS02","null","","","","learningBlock1","","","","This is a bim:","null","","","","",""
"","image-keyboard-response","104","1491038","0.0-6.0-1.32","LF","acgok0jj2j","1920","1080","de","VO06AS02","null","","","","","","","","learning/Slide33.JPG","null","","","","",""
"","html-keyboard-response","105","1492050","0.0-6.0-2.32","LF","acgok0jj2j","1920","1080","de","VO06AS02","null","","","","learningBlock1","","","","<div style=""font-size:60px;""> </div>","null","LF","learning/Slide33.JPG","This is a bim:","",""
"","html-keyboard-response","106","1493063","0.0-6.0-0.33","LF","acgok0jj2j","1920","1080","de","VO06AS02","null","","","","learningBlock1","","","","This is a tob:","null","","","","",""
"","image-keyboard-response","107","1493390","0.0-6.0-1.33","LF","acgok0jj2j","1920","1080","de","VO06AS02","null","","","","","","","","learning/Slide34.JPG","null","","","","",""
"","html-keyboard-response","108","1494403","0.0-6.0-2.33","LF","acgok0jj2j","1920","1080","de","VO06AS02","null","","","","learningBlock1","","","","<div style=""font-size:60px;""> </div>","null","LF","learning/Slide34.JPG","This is a tob:","",""
"","html-keyboard-response","109","1495417","0.0-6.0-0.34","LF","acgok0jj2j","1920","1080","de","VO06AS02","null","","","","learningBlock1","","","","This is a bim:","null","","","","",""
"","image-keyboard-response","110","1495757","0.0-6.0-1.34","LF","acgok0jj2j","1920","1080","de","VO06AS02","null","","","","","","","","learning/Slide35.JPG","null","","","","",""
"","html-keyboard-response","111","1496772","0.0-6.0-2.34","LF","acgok0jj2j","1920","1080","de","VO06AS02","null","","","","learningBlock1","","","","<div style=""font-size:60px;""> </div>","null","LF","learning/Slide35.JPG","This is a bim:","",""
"","html-keyboard-response","112","1497778","0.0-6.0-0.35","LF","acgok0jj2j","1920","1080","de","VO06AS02","null","","","","learningBlock1","","","","This is a dep:","null","","","","",""
"","image-keyboard-response","113","1498111","0.0-6.0-1.35","LF","acgok0jj2j","1920","1080","de","VO06AS02","null","","","","","","","","learning/Slide36.JPG","null","","","","",""
"","html-keyboard-response","114","1499115","0.0-6.0-2.35","LF","acgok0jj2j","1920","1080","de","VO06AS02","null","","","","learningBlock1","","","","<div style=""font-size:60px;""> </div>","null","LF","learning/Slide36.JPG","This is a dep:","",""
"","html-keyboard-response","115","1500131","0.0-6.0-0.36","LF","acgok0jj2j","1920","1080","de","VO06AS02","null","","","","learningBlock1","","","","This is a tob:","null","","","","",""
"","image-keyboard-response","116","1500464","0.0-6.0-1.36","LF","acgok0jj2j","1920","1080","de","VO06AS02","null","","","","","","","","learning/Slide37.JPG","null","","","","",""
"","html-keyboard-response","117","1501480","0.0-6.0-2.36","LF","acgok0jj2j","1920","1080","de","VO06AS02","null","","","","learningBlock1","","","","<div style=""font-size:60px;""> </div>","null","LF","learning/Slide37.JPG","This is a tob:","",""
"","html-keyboard-response","118","1502489","0.0-6.0-0.37","LF","acgok0jj2j","1920","1080","de","VO06AS02","null","","","","learningBlock1","","","","This is a wug:","null","","","","",""
"","image-keyboard-response","119","1502835","0.0-6.0-1.37","LF","acgok0jj2j","1920","1080","de","VO06AS02","null","","","","","","","","learning/Slide38.JPG","null","","","","",""
"","html-keyboard-response","120","1503848","0.0-6.0-2.37","LF","acgok0jj2j","1920","1080","de","VO06AS02","null","","","","learningBlock1","","","","<div style=""font-size:60px;""> </div>","null","LF","learning/Slide38.JPG","This is a wug:","",""
"","html-keyboard-response","121","1504858","0.0-6.0-0.38","LF","acgok0jj2j","1920","1080","de","VO06AS02","null","","","","learningBlock1","","","","This is a bim:","null","","","","",""
"","image-keyboard-response","122","1505200","0.0-6.0-1.38","LF","acgok0jj2j","1920","1080","de","VO06AS02","null","","","","","","","","learning/Slide39.JPG","null","","","","",""
"","html-keyboard-response","123","1506215","0.0-6.0-2.38","LF","acgok0jj2j","1920","1080","de","VO06AS02","null","","","","learningBlock1","","","","<div style=""font-size:60px;""> </div>","null","LF","learning/Slide39.JPG","This is a bim:","",""
"","html-keyboard-response","124","1507225","0.0-6.0-0.39","LF","acgok0jj2j","1920","1080","de","VO06AS02","null","","","","learningBlock1","","","","This is a tob:","null","","","","",""
"","image-keyboard-response","125","1507553","0.0-6.0-1.39","LF","acgok0jj2j","1920","1080","de","VO06AS02","null","","","","","","","","learning/Slide40.JPG","null","","","","",""
"","html-keyboard-response","126","1508562","0.0-6.0-2.39","LF","acgok0jj2j","1920","1080","de","VO06AS02","null","","","","learningBlock1","","","","<div style=""font-size:60px;""> </div>","null","LF","learning/Slide40.JPG","This is a tob:","",""
"","html-keyboard-response","127","1509569","0.0-6.0-0.40","LF","acgok0jj2j","1920","1080","de","VO06AS02","null","","","","learningBlock1","","","","This is a bim:","null","","","","",""
"","image-keyboard-response","128","1509897","0.0-6.0-1.40","LF","acgok0jj2j","1920","1080","de","VO06AS02","null","","","","","","","","learning/Slide41.JPG","null","","","","",""
"","html-keyboard-response","129","1510903","0.0-6.0-2.40","LF","acgok0jj2j","1920","1080","de","VO06AS02","null","","","","learningBlock1","","","","<div style=""font-size:60px;""> </div>","null","LF","learning/Slide41.JPG","This is a bim:","",""
"","html-keyboard-response","130","1511919","0.0-6.0-0.41","LF","acgok0jj2j","1920","1080","de","VO06AS02","null","","","","learningBlock1","","","","This is a dep:","null","","","","",""
"","image-keyboard-response","131","1512251","0.0-6.0-1.41","LF","acgok0jj2j","1920","1080","de","VO06AS02","null","","","","","","","","learning/Slide42.JPG","null","","","","",""
"","html-keyboard-response","132","1513254","0.0-6.0-2.41","LF","acgok0jj2j","1920","1080","de","VO06AS02","null","","","","learningBlock1","","","","<div style=""font-size:60px;""> </div>","null","LF","learning/Slide42.JPG","This is a dep:","",""
"","html-keyboard-response","133","1514268","0.0-6.0-0.42","LF","acgok0jj2j","1920","1080","de","VO06AS02","null","","","","learningBlock1","","","","This is a wug:","null","","","","",""
"","image-keyboard-response","134","1514595","0.0-6.0-1.42","LF","acgok0jj2j","1920","1080","de","VO06AS02","null","","","","","","","","learning/Slide43.JPG","null","","","","",""
"","html-keyboard-response","135","1515602","0.0-6.0-2.42","LF","acgok0jj2j","1920","1080","de","VO06AS02","null","","","","learningBlock1","","","","<div style=""font-size:60px;""> </div>","null","LF","learning/Slide43.JPG","This is a wug:","",""
"","html-keyboard-response","136","1516617","0.0-6.0-0.43","LF","acgok0jj2j","1920","1080","de","VO06AS02","null","","","","learningBlock1","","","","This is a bim:","null","","","","",""
"","image-keyboard-response","137","1516949","0.0-6.0-1.43","LF","acgok0jj2j","1920","1080","de","VO06AS02","null","","","","","","","","learning/Slide44.JPG","null","","","","",""
"","html-keyboard-response","138","1517954","0.0-6.0-2.43","LF","acgok0jj2j","1920","1080","de","VO06AS02","null","","","","learningBlock1","","","","<div style=""font-size:60px;""> </div>","null","LF","learning/Slide44.JPG","This is a bim:","",""
"","html-keyboard-response","139","1518963","0.0-6.0-0.44","LF","acgok0jj2j","1920","1080","de","VO06AS02","null","","","","learningBlock1","","","","This is a wug:","null","","","","",""
"","image-keyboard-response","140","1519303","0.0-6.0-1.44","LF","acgok0jj2j","1920","1080","de","VO06AS02","null","","","","","","","","learning/Slide45.JPG","null","","","","",""
"","html-keyboard-response","141","1520314","0.0-6.0-2.44","LF","acgok0jj2j","1920","1080","de","VO06AS02","null","","","","learningBlock1","","","","<div style=""font-size:60px;""> </div>","null","LF","learning/Slide45.JPG","This is a wug:","",""
"","html-keyboard-response","142","1521324","0.0-6.0-0.45","LF","acgok0jj2j","1920","1080","de","VO06AS02","null","","","","learningBlock1","","","","This is a dep:","null","","","","",""
"","image-keyboard-response","143","1521652","0.0-6.0-1.45","LF","acgok0jj2j","1920","1080","de","VO06AS02","null","","","","","","","","learning/Slide46.JPG","null","","","","",""
"","html-keyboard-response","144","1522663","0.0-6.0-2.45","LF","acgok0jj2j","1920","1080","de","VO06AS02","null","","","","learningBlock1","","","","<div style=""font-size:60px;""> </div>","null","LF","learning/Slide46.JPG","This is a dep:","",""
"","html-keyboard-response","145","1523675","0.0-6.0-0.46","LF","acgok0jj2j","1920","1080","de","VO06AS02","null","","","","learningBlock1","","","","This is a tob:","null","","","","",""
"","image-keyboard-response","146","1524003","0.0-6.0-1.46","LF","acgok0jj2j","1920","1080","de","VO06AS02","null","","","","","","","","learning/Slide47.JPG","null","","","","",""
"","html-keyboard-response","147","1525012","0.0-6.0-2.46","LF","acgok0jj2j","1920","1080","de","VO06AS02","null","","","","learningBlock1","","","","<div style=""font-size:60px;""> </div>","null","LF","learning/Slide47.JPG","This is a tob:","",""
"","html-keyboard-response","148","1526025","0.0-6.0-0.47","LF","acgok0jj2j","1920","1080","de","VO06AS02","null","","","","learningBlock1","","","","This is a bim:","null","","","","",""
"","image-keyboard-response","149","1526366","0.0-6.0-1.47","LF","acgok0jj2j","1920","1080","de","VO06AS02","null","","","","","","","","learning/Slide48.JPG","null","","","","",""
"","html-keyboard-response","150","1527380","0.0-6.0-2.47","LF","acgok0jj2j","1920","1080","de","VO06AS02","null","","","","learningBlock1","","","","<div style=""font-size:60px;""> </div>","null","LF","learning/Slide48.JPG","This is a bim:","",""
"","html-keyboard-response","151","1528395","0.0-6.0-0.48","LF","acgok0jj2j","1920","1080","de","VO06AS02","null","","","","learningBlock1","","","","This is a dep:","null","","","","",""
"","image-keyboard-response","152","1528723","0.0-6.0-1.48","LF","acgok0jj2j","1920","1080","de","VO06AS02","null","","","","","","","","learning/Slide49.JPG","null","","","","",""
"","html-keyboard-response","153","1529735","0.0-6.0-2.48","LF","acgok0jj2j","1920","1080","de","VO06AS02","null","","","","learningBlock1","","","","<div style=""font-size:60px;""> </div>","null","LF","learning/Slide49.JPG","This is a dep:","",""
"","html-keyboard-response","154","1530745","0.0-6.0-0.49","LF","acgok0jj2j","1920","1080","de","VO06AS02","null","","","","learningBlock1","","","","This is a tob:","null","","","","",""
"","image-keyboard-response","155","1531079","0.0-6.0-1.49","LF","acgok0jj2j","1920","1080","de","VO06AS02","null","","","","","","","","learning/Slide50.JPG","null","","","","",""
"","html-keyboard-response","156","1532085","0.0-6.0-2.49","LF","acgok0jj2j","1920","1080","de","VO06AS02","null","","","","learningBlock1","","","","<div style=""font-size:60px;""> </div>","null","LF","learning/Slide50.JPG","This is a tob:","",""
"","html-keyboard-response","157","1533088","0.0-6.0-0.50","LF","acgok0jj2j","1920","1080","de","VO06AS02","null","","","","learningBlock1","","","","This is a bim:","null","","","","",""
"","image-keyboard-response","158","1533415","0.0-6.0-1.50","LF","acgok0jj2j","1920","1080","de","VO06AS02","null","","","","","","","","learning/Slide51.JPG","null","","","","",""
"","html-keyboard-response","159","1534428","0.0-6.0-2.50","LF","acgok0jj2j","1920","1080","de","VO06AS02","null","","","","learningBlock1","","","","<div style=""font-size:60px;""> </div>","null","LF","learning/Slide51.JPG","This is a bim:","",""
"","html-keyboard-response","160","1535443","0.0-6.0-0.51","LF","acgok0jj2j","1920","1080","de","VO06AS02","null","","","","learningBlock1","","","","This is a wug:","null","","","","",""
"","image-keyboard-response","161","1535770","0.0-6.0-1.51","LF","acgok0jj2j","1920","1080","de","VO06AS02","null","","","","","","","","learning/Slide52.JPG","null","","","","",""
"","html-keyboard-response","162","1536772","0.0-6.0-2.51","LF","acgok0jj2j","1920","1080","de","VO06AS02","null","","","","learningBlock1","","","","<div style=""font-size:60px;""> </div>","null","LF","learning/Slide52.JPG","This is a wug:","",""
"","html-keyboard-response","163","1537783","0.0-6.0-0.52","LF","acgok0jj2j","1920","1080","de","VO06AS02","null","","","","learningBlock1","","","","This is a tob:","null","","","","",""
"","image-keyboard-response","164","1538110","0.0-6.0-1.52","LF","acgok0jj2j","1920","1080","de","VO06AS02","null","","","","","","","","learning/Slide53.JPG","null","","","","",""
"","html-keyboard-response","165","1539125","0.0-6.0-2.52","LF","acgok0jj2j","1920","1080","de","VO06AS02","null","","","","learningBlock1","","","","<div style=""font-size:60px;""> </div>","null","LF","learning/Slide53.JPG","This is a tob:","",""
"","html-keyboard-response","166","1540135","0.0-6.0-0.53","LF","acgok0jj2j","1920","1080","de","VO06AS02","null","","","","learningBlock1","","","","This is a dep:","null","","","","",""
"","image-keyboard-response","167","1540462","0.0-6.0-1.53","LF","acgok0jj2j","1920","1080","de","VO06AS02","null","","","","","","","","learning/Slide54.JPG","null","","","","",""
"","html-keyboard-response","168","1541472","0.0-6.0-2.53","LF","acgok0jj2j","1920","1080","de","VO06AS02","null","","","","learningBlock1","","","","<div style=""font-size:60px;""> </div>","null","LF","learning/Slide54.JPG","This is a dep:","",""
"","html-keyboard-response","169","1542485","0.0-6.0-0.54","LF","acgok0jj2j","1920","1080","de","VO06AS02","null","","","","learningBlock1","","","","This is a bim:","null","","","","",""
"","image-keyboard-response","170","1542813","0.0-6.0-1.54","LF","acgok0jj2j","1920","1080","de","VO06AS02","null","","","","","","","","learning/Slide55.JPG","null","","","","",""
"","html-keyboard-response","171","1543825","0.0-6.0-2.54","LF","acgok0jj2j","1920","1080","de","VO06AS02","null","","","","learningBlock1","","","","<div style=""font-size:60px;""> </div>","null","LF","learning/Slide55.JPG","This is a bim:","",""
"","html-keyboard-response","172","1544837","0.0-6.0-0.55","LF","acgok0jj2j","1920","1080","de","VO06AS02","null","","","","learningBlock1","","","","This is a tob:","null","","","","",""
"","image-keyboard-response","173","1545165","0.0-6.0-1.55","LF","acgok0jj2j","1920","1080","de","VO06AS02","null","","","","","","","","learning/Slide56.JPG","null","","","","",""
"","html-keyboard-response","174","1546176","0.0-6.0-2.55","LF","acgok0jj2j","1920","1080","de","VO06AS02","null","","","","learningBlock1","","","","<div style=""font-size:60px;""> </div>","null","LF","learning/Slide56.JPG","This is a tob:","",""
"","html-keyboard-response","175","1547191","0.0-6.0-0.56","LF","acgok0jj2j","1920","1080","de","VO06AS02","null","","","","learningBlock1","","","","This is a dep:","null","","","","",""
"","image-keyboard-response","176","1547532","0.0-6.0-1.56","LF","acgok0jj2j","1920","1080","de","VO06AS02","null","","","","","","","","learning/Slide57.JPG","null","","","","",""
"","html-keyboard-response","177","1548543","0.0-6.0-2.56","LF","acgok0jj2j","1920","1080","de","VO06AS02","null","","","","learningBlock1","","","","<div style=""font-size:60px;""> </div>","null","LF","learning/Slide57.JPG","This is a dep:","",""
"","html-keyboard-response","178","1549554","0.0-6.0-0.57","LF","acgok0jj2j","1920","1080","de","VO06AS02","null","","","","learningBlock1","","","","This is a wug:","null","","","","",""
"","image-keyboard-response","179","1549881","0.0-6.0-1.57","LF","acgok0jj2j","1920","1080","de","VO06AS02","null","","","","","","","","learning/Slide58.JPG","null","","","","",""
"","html-keyboard-response","180","1550892","0.0-6.0-2.57","LF","acgok0jj2j","1920","1080","de","VO06AS02","null","","","","learningBlock1","","","","<div style=""font-size:60px;""> </div>","null","LF","learning/Slide58.JPG","This is a wug:","",""
"","html-keyboard-response","181","1551904","0.0-6.0-0.58","LF","acgok0jj2j","1920","1080","de","VO06AS02","null","","","","learningBlock1","","","","This is a dep:","null","","","","",""
"","image-keyboard-response","182","1552231","0.0-6.0-1.58","LF","acgok0jj2j","1920","1080","de","VO06AS02","null","","","","","","","","learning/Slide59.JPG","null","","","","",""
"","html-keyboard-response","183","1553242","0.0-6.0-2.58","LF","acgok0jj2j","1920","1080","de","VO06AS02","null","","","","learningBlock1","","","","<div style=""font-size:60px;""> </div>","null","LF","learning/Slide59.JPG","This is a dep:","",""
"","html-keyboard-response","184","1554248","0.0-6.0-0.59","LF","acgok0jj2j","1920","1080","de","VO06AS02","null","","","","learningBlock1","","","","This is a wug:","null","","","","",""
"","image-keyboard-response","185","1554588","0.0-6.0-1.59","LF","acgok0jj2j","1920","1080","de","VO06AS02","null","","","","","","","","learning/Slide60.JPG","null","","","","",""
"","html-keyboard-response","186","1555597","0.0-6.0-2.59","LF","acgok0jj2j","1920","1080","de","VO06AS02","null","","","","learningBlock1","","","","<div style=""font-size:60px;""> </div>","null","LF","learning/Slide60.JPG","This is a wug:","",""
"","html-keyboard-response","187","1556602","0.0-6.0-0.60","LF","acgok0jj2j","1920","1080","de","VO06AS02","null","","","","learningBlock1","","","","This is a bim:","null","","","","",""
"","image-keyboard-response","188","1556943","0.0-6.0-1.60","LF","acgok0jj2j","1920","1080","de","VO06AS02","null","","","","","","","","learning/Slide61.JPG","null","","","","",""
"","html-keyboard-response","189","1557957","0.0-6.0-2.60","LF","acgok0jj2j","1920","1080","de","VO06AS02","null","","","","learningBlock1","","","","<div style=""font-size:60px;""> </div>","null","LF","learning/Slide61.JPG","This is a bim:","",""
"","html-keyboard-response","190","1558971","0.0-6.0-0.61","LF","acgok0jj2j","1920","1080","de","VO06AS02","null","","","","learningBlock1","","","","This is a dep:","null","","","","",""
"","image-keyboard-response","191","1559301","0.0-6.0-1.61","LF","acgok0jj2j","1920","1080","de","VO06AS02","null","","","","","","","","learning/Slide62.JPG","null","","","","",""
"","html-keyboard-response","192","1560308","0.0-6.0-2.61","LF","acgok0jj2j","1920","1080","de","VO06AS02","null","","","","learningBlock1","","","","<div style=""font-size:60px;""> </div>","null","LF","learning/Slide62.JPG","This is a dep:","",""
"","html-keyboard-response","193","1561321","0.0-6.0-0.62","LF","acgok0jj2j","1920","1080","de","VO06AS02","null","","","","learningBlock1","","","","This is a bim:","null","","","","",""
"","image-keyboard-response","194","1561652","0.0-6.0-1.62","LF","acgok0jj2j","1920","1080","de","VO06AS02","null","","","","","","","","learning/Slide63.JPG","null","","","","",""
"","html-keyboard-response","195","1562660","0.0-6.0-2.62","LF","acgok0jj2j","1920","1080","de","VO06AS02","null","","","","learningBlock1","","","","<div style=""font-size:60px;""> </div>","null","LF","learning/Slide63.JPG","This is a bim:","",""
"","html-keyboard-response","196","1563677","0.0-6.0-0.63","LF","acgok0jj2j","1920","1080","de","VO06AS02","null","","","","learningBlock1","","","","This is a tob:","null","","","","",""
"","image-keyboard-response","197","1564019","0.0-6.0-1.63","LF","acgok0jj2j","1920","1080","de","VO06AS02","null","","","","","","","","learning/Slide64.JPG","null","","","","",""
"","html-keyboard-response","198","1565026","0.0-6.0-2.63","LF","acgok0jj2j","1920","1080","de","VO06AS02","null","","","","learningBlock1","","","","<div style=""font-size:60px;""> </div>","null","LF","learning/Slide64.JPG","This is a tob:","",""
"","html-keyboard-response","199","1566040","0.0-6.0-0.64","LF","acgok0jj2j","1920","1080","de","VO06AS02","null","","","","learningBlock1","","","","This is a wug:","null","","","","",""
"","image-keyboard-response","200","1566367","0.0-6.0-1.64","LF","acgok0jj2j","1920","1080","de","VO06AS02","null","","","","","","","","learning/Slide65.JPG","null","","","","",""
"","html-keyboard-response","201","1567378","0.0-6.0-2.64","LF","acgok0jj2j","1920","1080","de","VO06AS02","null","","","","learningBlock1","","","","<div style=""font-size:60px;""> </div>","null","LF","learning/Slide65.JPG","This is a wug:","",""
"","html-keyboard-response","202","1568390","0.0-6.0-0.65","LF","acgok0jj2j","1920","1080","de","VO06AS02","null","","","","learningBlock1","","","","This is a dep:","null","","","","",""
"","image-keyboard-response","203","1568731","0.0-6.0-1.65","LF","acgok0jj2j","1920","1080","de","VO06AS02","null","","","","","","","","learning/Slide66.JPG","null","","","","",""
"","html-keyboard-response","204","1569740","0.0-6.0-2.65","LF","acgok0jj2j","1920","1080","de","VO06AS02","null","","","","learningBlock1","","","","<div style=""font-size:60px;""> </div>","null","LF","learning/Slide66.JPG","This is a dep:","",""
"","html-keyboard-response","205","1570749","0.0-6.0-0.66","LF","acgok0jj2j","1920","1080","de","VO06AS02","null","","","","learningBlock1","","","","This is a tob:","null","","","","",""
"","image-keyboard-response","206","1571092","0.0-6.0-1.66","LF","acgok0jj2j","1920","1080","de","VO06AS02","null","","","","","","","","learning/Slide67.JPG","null","","","","",""
"","html-keyboard-response","207","1572100","0.0-6.0-2.66","LF","acgok0jj2j","1920","1080","de","VO06AS02","null","","","","learningBlock1","","","","<div style=""font-size:60px;""> </div>","null","LF","learning/Slide67.JPG","This is a tob:","",""
"","html-keyboard-response","208","1573110","0.0-6.0-0.67","LF","acgok0jj2j","1920","1080","de","VO06AS02","null","","","","learningBlock1","","","","This is a wug:","null","","","","",""
"","image-keyboard-response","209","1573452","0.0-6.0-1.67","LF","acgok0jj2j","1920","1080","de","VO06AS02","null","","","","","","","","learning/Slide68.JPG","null","","","","",""
"","html-keyboard-response","210","1574468","0.0-6.0-2.67","LF","acgok0jj2j","1920","1080","de","VO06AS02","null","","","","learningBlock1","","","","<div style=""font-size:60px;""> </div>","null","LF","learning/Slide68.JPG","This is a wug:","",""
"","html-keyboard-response","211","1575483","0.0-6.0-0.68","LF","acgok0jj2j","1920","1080","de","VO06AS02","null","","","","learningBlock1","","","","This is a tob:","null","","","","",""
"","image-keyboard-response","212","1575815","0.0-6.0-1.68","LF","acgok0jj2j","1920","1080","de","VO06AS02","null","","","","","","","","learning/Slide69.JPG","null","","","","",""
"","html-keyboard-response","213","1576832","0.0-6.0-2.68","LF","acgok0jj2j","1920","1080","de","VO06AS02","null","","","","learningBlock1","","","","<div style=""font-size:60px;""> </div>","null","LF","learning/Slide69.JPG","This is a tob:","",""
"","html-keyboard-response","214","1577835","0.0-6.0-0.69","LF","acgok0jj2j","1920","1080","de","VO06AS02","null","","","","learningBlock1","","","","This is a dep:","null","","","","",""
"","image-keyboard-response","215","1578164","0.0-6.0-1.69","LF","acgok0jj2j","1920","1080","de","VO06AS02","null","","","","","","","","learning/Slide70.JPG","null","","","","",""
"","html-keyboard-response","216","1579178","0.0-6.0-2.69","LF","acgok0jj2j","1920","1080","de","VO06AS02","null","","","","learningBlock1","","","","<div style=""font-size:60px;""> </div>","null","LF","learning/Slide70.JPG","This is a dep:","",""
"","html-keyboard-response","217","1580187","0.0-6.0-0.70","LF","acgok0jj2j","1920","1080","de","VO06AS02","null","","","","learningBlock1","","","","This is a wug:","null","","","","",""
"","image-keyboard-response","218","1580515","0.0-6.0-1.70","LF","acgok0jj2j","1920","1080","de","VO06AS02","null","","","","","","","","learning/Slide71.JPG","null","","","","",""
"","html-keyboard-response","219","1581519","0.0-6.0-2.70","LF","acgok0jj2j","1920","1080","de","VO06AS02","null","","","","learningBlock1","","","","<div style=""font-size:60px;""> </div>","null","LF","learning/Slide71.JPG","This is a wug:","",""
"","html-keyboard-response","220","1582534","0.0-6.0-0.71","LF","acgok0jj2j","1920","1080","de","VO06AS02","null","","","","learningBlock1","","","","This is a bim:","null","","","","",""
"","image-keyboard-response","221","1582866","0.0-6.0-1.71","LF","acgok0jj2j","1920","1080","de","VO06AS02","null","","","","","","","","learning/Slide72.JPG","null","","","","",""
"","html-keyboard-response","222","1583873","0.0-6.0-2.71","LF","acgok0jj2j","1920","1080","de","VO06AS02","null","","","","learningBlock1","","","","<div style=""font-size:60px;""> </div>","null","LF","learning/Slide72.JPG","This is a bim:","",""
"","html-keyboard-response","223","1584883","0.0-6.0-0.72","LF","acgok0jj2j","1920","1080","de","VO06AS02","null","","","","learningBlock1","","","","This is a wug:","null","","","","",""
"","image-keyboard-response","224","1585215","0.0-6.0-1.72","LF","acgok0jj2j","1920","1080","de","VO06AS02","null","","","","","","","","learning/Slide73.JPG","null","","","","",""
"","html-keyboard-response","225","1586223","0.0-6.0-2.72","LF","acgok0jj2j","1920","1080","de","VO06AS02","null","","","","learningBlock1","","","","<div style=""font-size:60px;""> </div>","null","LF","learning/Slide73.JPG","This is a wug:","",""
"","html-keyboard-response","226","1587233","0.0-6.0-0.73","LF","acgok0jj2j","1920","1080","de","VO06AS02","null","","","","learningBlock1","","","","This is a dep:","null","","","","",""
"","image-keyboard-response","227","1587560","0.0-6.0-1.73","LF","acgok0jj2j","1920","1080","de","VO06AS02","null","","","","","","","","learning/Slide74.JPG","null","","","","",""
"","html-keyboard-response","228","1588573","0.0-6.0-2.73","LF","acgok0jj2j","1920","1080","de","VO06AS02","null","","","","learningBlock1","","","","<div style=""font-size:60px;""> </div>","null","LF","learning/Slide74.JPG","This is a dep:","",""
"","html-keyboard-response","229","1589585","0.0-6.0-0.74","LF","acgok0jj2j","1920","1080","de","VO06AS02","null","","","","learningBlock1","","","","This is a tob:","null","","","","",""
"","image-keyboard-response","230","1589916","0.0-6.0-1.74","LF","acgok0jj2j","1920","1080","de","VO06AS02","null","","","","","","","","learning/Slide75.JPG","null","","","","",""
"","html-keyboard-response","231","1590934","0.0-6.0-2.74","LF","acgok0jj2j","1920","1080","de","VO06AS02","null","","","","learningBlock1","","","","<div style=""font-size:60px;""> </div>","null","LF","learning/Slide75.JPG","This is a tob:","",""
"","html-keyboard-response","232","1591943","0.0-6.0-0.75","LF","acgok0jj2j","1920","1080","de","VO06AS02","null","","","","learningBlock1","","","","This is a bim:","null","","","","",""
"","image-keyboard-response","233","1592273","0.0-6.0-1.75","LF","acgok0jj2j","1920","1080","de","VO06AS02","null","","","","","","","","learning/Slide76.JPG","null","","","","",""
"","html-keyboard-response","234","1593289","0.0-6.0-2.75","LF","acgok0jj2j","1920","1080","de","VO06AS02","null","","","","learningBlock1","","","","<div style=""font-size:60px;""> </div>","null","LF","learning/Slide76.JPG","This is a bim:","",""
"","html-keyboard-response","235","1594298","0.0-6.0-0.76","LF","acgok0jj2j","1920","1080","de","VO06AS02","null","","","","learningBlock1","","","","This is a tob:","null","","","","",""
"","image-keyboard-response","236","1594629","0.0-6.0-1.76","LF","acgok0jj2j","1920","1080","de","VO06AS02","null","","","","","","","","learning/Slide77.JPG","null","","","","",""
"","html-keyboard-response","237","1595633","0.0-6.0-2.76","LF","acgok0jj2j","1920","1080","de","VO06AS02","null","","","","learningBlock1","","","","<div style=""font-size:60px;""> </div>","null","LF","learning/Slide77.JPG","This is a tob:","",""
"","html-keyboard-response","238","1596647","0.0-6.0-0.77","LF","acgok0jj2j","1920","1080","de","VO06AS02","null","","","","learningBlock1","","","","This is a wug:","null","","","","",""
"","image-keyboard-response","239","1596979","0.0-6.0-1.77","LF","acgok0jj2j","1920","1080","de","VO06AS02","null","","","","","","","","learning/Slide78.JPG","null","","","","",""
"","html-keyboard-response","240","1597990","0.0-6.0-2.77","LF","acgok0jj2j","1920","1080","de","VO06AS02","null","","","","learningBlock1","","","","<div style=""font-size:60px;""> </div>","null","LF","learning/Slide78.JPG","This is a wug:","",""
"","html-keyboard-response","241","1599000","0.0-6.0-0.78","LF","acgok0jj2j","1920","1080","de","VO06AS02","null","","","","learningBlock1","","","","This is a bim:","null","","","","",""
"","image-keyboard-response","242","1599328","0.0-6.0-1.78","LF","acgok0jj2j","1920","1080","de","VO06AS02","null","","","","","","","","learning/Slide79.JPG","null","","","","",""
"","html-keyboard-response","243","1600334","0.0-6.0-2.78","LF","acgok0jj2j","1920","1080","de","VO06AS02","null","","","","learningBlock1","","","","<div style=""font-size:60px;""> </div>","null","LF","learning/Slide79.JPG","This is a bim:","",""
"","html-keyboard-response","244","1601347","0.0-6.0-0.79","LF","acgok0jj2j","1920","1080","de","VO06AS02","null","","","","learningBlock1","","","","This is a tob:","null","","","","",""
"","image-keyboard-response","245","1601678","0.0-6.0-1.79","LF","acgok0jj2j","1920","1080","de","VO06AS02","null","","","","","","","","learning/Slide80.JPG","null","","","","",""
"","html-keyboard-response","246","1602695","0.0-6.0-2.79","LF","acgok0jj2j","1920","1080","de","VO06AS02","null","","","","learningBlock1","","","","<div style=""font-size:60px;""> </div>","null","LF","learning/Slide80.JPG","This is a tob:","",""
"","instructions","247","1677544","0.0-7.0","LF","acgok0jj2j","1920","1080","de","VO06AS02","NA","","","[{""page_index"":0,""viewing_time"":74846.96500000032}]","instructions","","","","","","","","","",""
"","html-keyboard-response","248","1678555","0.0-8.0-0.0","LF","acgok0jj2j","1920","1080","de","VO06AS02","null","","","","learningBlock2","","","","This is a wug:","null","","","","",""
"","image-keyboard-response","249","1678883","0.0-8.0-1.0","LF","acgok0jj2j","1920","1080","de","VO06AS02","null","","","","","","","","learning/Slide81.JPG","null","","","","",""
"","html-keyboard-response","250","1679896","0.0-8.0-2.0","LF","acgok0jj2j","1920","1080","de","VO06AS02","null","","","","learningBlock2","","","","<div style=""font-size:60px;""> </div>","null","LF","learning/Slide81.JPG","This is a wug:","",""
"","html-keyboard-response","251","1680905","0.0-8.0-0.1","LF","acgok0jj2j","1920","1080","de","VO06AS02","null","","","","learningBlock2","","","","This is a bim:","null","","","","",""
"","image-keyboard-response","252","1681232","0.0-8.0-1.1","LF","acgok0jj2j","1920","1080","de","VO06AS02","null","","","","","","","","learning/Slide82.JPG","null","","","","",""
"","html-keyboard-response","253","1682245","0.0-8.0-2.1","LF","acgok0jj2j","1920","1080","de","VO06AS02","null","","","","learningBlock2","","","","<div style=""font-size:60px;""> </div>","null","LF","learning/Slide82.JPG","This is a bim:","",""
"","html-keyboard-response","254","1683257","0.0-8.0-0.2","LF","acgok0jj2j","1920","1080","de","VO06AS02","null","","","","learningBlock2","","","","This is a wug:","null","","","","",""
"","image-keyboard-response","255","1683597","0.0-8.0-1.2","LF","acgok0jj2j","1920","1080","de","VO06AS02","null","","","","","","","","learning/Slide83.JPG","null","","","","",""
"","html-keyboard-response","256","1684609","0.0-8.0-2.2","LF","acgok0jj2j","1920","1080","de","VO06AS02","null","","","","learningBlock2","","","","<div style=""font-size:60px;""> </div>","null","LF","learning/Slide83.JPG","This is a wug:","",""
"","html-keyboard-response","257","1685618","0.0-8.0-0.3","LF","acgok0jj2j","1920","1080","de","VO06AS02","null","","","","learningBlock2","","","","This is a dep:","null","","","","",""
"","image-keyboard-response","258","1685945","0.0-8.0-1.3","LF","acgok0jj2j","1920","1080","de","VO06AS02","null","","","","","","","","learning/Slide84.JPG","null","","","","",""
"","html-keyboard-response","259","1686952","0.0-8.0-2.3","LF","acgok0jj2j","1920","1080","de","VO06AS02","null","","","","learningBlock2","","","","<div style=""font-size:60px;""> </div>","null","LF","learning/Slide84.JPG","This is a dep:","",""
"","html-keyboard-response","260","1687962","0.0-8.0-0.4","LF","acgok0jj2j","1920","1080","de","VO06AS02","null","","","","learningBlock2","","","","This is a bim:","null","","","","",""
"","image-keyboard-response","261","1688294","0.0-8.0-1.4","LF","acgok0jj2j","1920","1080","de","VO06AS02","null","","","","","","","","learning/Slide85.JPG","null","","","","",""
"","html-keyboard-response","262","1689302","0.0-8.0-2.4","LF","acgok0jj2j","1920","1080","de","VO06AS02","null","","","","learningBlock2","","","","<div style=""font-size:60px;""> </div>","null","LF","learning/Slide85.JPG","This is a bim:","",""
"","html-keyboard-response","263","1690312","0.0-8.0-0.5","LF","acgok0jj2j","1920","1080","de","VO06AS02","null","","","","learningBlock2","","","","This is a tob:","null","","","","",""
"","image-keyboard-response","264","1690653","0.0-8.0-1.5","LF","acgok0jj2j","1920","1080","de","VO06AS02","null","","","","","","","","learning/Slide86.JPG","null","","","","",""
"","html-keyboard-response","265","1691667","0.0-8.0-2.5","LF","acgok0jj2j","1920","1080","de","VO06AS02","null","","","","learningBlock2","","","","<div style=""font-size:60px;""> </div>","null","LF","learning/Slide86.JPG","This is a tob:","",""
"","html-keyboard-response","266","1692675","0.0-8.0-0.6","LF","acgok0jj2j","1920","1080","de","VO06AS02","null","","","","learningBlock2","","","","This is a wug:","null","","","","",""
"","image-keyboard-response","267","1693002","0.0-8.0-1.6","LF","acgok0jj2j","1920","1080","de","VO06AS02","null","","","","","","","","learning/Slide87.JPG","null","","","","",""
"","html-keyboard-response","268","1694009","0.0-8.0-2.6","LF","acgok0jj2j","1920","1080","de","VO06AS02","null","","","","learningBlock2","","","","<div style=""font-size:60px;""> </div>","null","LF","learning/Slide87.JPG","This is a wug:","",""
"","html-keyboard-response","269","1695021","0.0-8.0-0.7","LF","acgok0jj2j","1920","1080","de","VO06AS02","null","","","","learningBlock2","","","","This is a tob:","null","","","","",""
"","image-keyboard-response","270","1695353","0.0-8.0-1.7","LF","acgok0jj2j","1920","1080","de","VO06AS02","null","","","","","","","","learning/Slide88.JPG","null","","","","",""
"","html-keyboard-response","271","1696361","0.0-8.0-2.7","LF","acgok0jj2j","1920","1080","de","VO06AS02","null","","","","learningBlock2","","","","<div style=""font-size:60px;""> </div>","null","LF","learning/Slide88.JPG","This is a tob:","",""
"","html-keyboard-response","272","1697372","0.0-8.0-0.8","LF","acgok0jj2j","1920","1080","de","VO06AS02","null","","","","learningBlock2","","","","This is a bim:","null","","","","",""
"","image-keyboard-response","273","1697713","0.0-8.0-1.8","LF","acgok0jj2j","1920","1080","de","VO06AS02","null","","","","","","","","learning/Slide89.JPG","null","","","","",""
"","html-keyboard-response","274","1698721","0.0-8.0-2.8","LF","acgok0jj2j","1920","1080","de","VO06AS02","null","","","","learningBlock2","","","","<div style=""font-size:60px;""> </div>","null","LF","learning/Slide89.JPG","This is a bim:","",""
"","html-keyboard-response","275","1699734","0.0-8.0-0.9","LF","acgok0jj2j","1920","1080","de","VO06AS02","null","","","","learningBlock2","","","","This is a dep:","null","","","","",""
"","image-keyboard-response","276","1700067","0.0-8.0-1.9","LF","acgok0jj2j","1920","1080","de","VO06AS02","null","","","","","","","","learning/Slide90.JPG","null","","","","",""
"","html-keyboard-response","277","1701075","0.0-8.0-2.9","LF","acgok0jj2j","1920","1080","de","VO06AS02","null","","","","learningBlock2","","","","<div style=""font-size:60px;""> </div>","null","LF","learning/Slide90.JPG","This is a dep:","",""
"","html-keyboard-response","278","1702088","0.0-8.0-0.10","LF","acgok0jj2j","1920","1080","de","VO06AS02","null","","","","learningBlock2","","","","This is a wug:","null","","","","",""
"","image-keyboard-response","279","1702420","0.0-8.0-1.10","LF","acgok0jj2j","1920","1080","de","VO06AS02","null","","","","","","","","learning/Slide91.JPG","null","","","","",""
"","html-keyboard-response","280","1703437","0.0-8.0-2.10","LF","acgok0jj2j","1920","1080","de","VO06AS02","null","","","","learningBlock2","","","","<div style=""font-size:60px;""> </div>","null","LF","learning/Slide91.JPG","This is a wug:","",""
"","html-keyboard-response","281","1704448","0.0-8.0-0.11","LF","acgok0jj2j","1920","1080","de","VO06AS02","null","","","","learningBlock2","","","","This is a tob:","null","","","","",""
"","image-keyboard-response","282","1704779","0.0-8.0-1.11","LF","acgok0jj2j","1920","1080","de","VO06AS02","null","","","","","","","","learning/Slide92.JPG","null","","","","",""
"","html-keyboard-response","283","1705783","0.0-8.0-2.11","LF","acgok0jj2j","1920","1080","de","VO06AS02","null","","","","learningBlock2","","","","<div style=""font-size:60px;""> </div>","null","LF","learning/Slide92.JPG","This is a tob:","",""
"","html-keyboard-response","284","1706792","0.0-8.0-0.12","LF","acgok0jj2j","1920","1080","de","VO06AS02","null","","","","learningBlock2","","","","This is a bim:","null","","","","",""
"","image-keyboard-response","285","1707119","0.0-8.0-1.12","LF","acgok0jj2j","1920","1080","de","VO06AS02","null","","","","","","","","learning/Slide93.JPG","null","","","","",""
"","html-keyboard-response","286","1708127","0.0-8.0-2.12","LF","acgok0jj2j","1920","1080","de","VO06AS02","null","","","","learningBlock2","","","","<div style=""font-size:60px;""> </div>","null","LF","learning/Slide93.JPG","This is a bim:","",""
"","html-keyboard-response","287","1709131","0.0-8.0-0.13","LF","acgok0jj2j","1920","1080","de","VO06AS02","null","","","","learningBlock2","","","","This is a tob:","null","","","","",""
"","image-keyboard-response","288","1709459","0.0-8.0-1.13","LF","acgok0jj2j","1920","1080","de","VO06AS02","null","","","","","","","","learning/Slide94.JPG","null","","","","",""
"","html-keyboard-response","289","1710466","0.0-8.0-2.13","LF","acgok0jj2j","1920","1080","de","VO06AS02","null","","","","learningBlock2","","","","<div style=""font-size:60px;""> </div>","null","LF","learning/Slide94.JPG","This is a tob:","",""
"","html-keyboard-response","290","1711478","0.0-8.0-0.14","LF","acgok0jj2j","1920","1080","de","VO06AS02","null","","","","learningBlock2","","","","This is a wug:","null","","","","",""
"","image-keyboard-response","291","1711811","0.0-8.0-1.14","LF","acgok0jj2j","1920","1080","de","VO06AS02","null","","","","","","","","learning/Slide95.JPG","null","","","","",""
"","html-keyboard-response","292","1712818","0.0-8.0-2.14","LF","acgok0jj2j","1920","1080","de","VO06AS02","null","","","","learningBlock2","","","","<div style=""font-size:60px;""> </div>","null","LF","learning/Slide95.JPG","This is a wug:","",""
"","html-keyboard-response","293","1713832","0.0-8.0-0.15","LF","acgok0jj2j","1920","1080","de","VO06AS02","null","","","","learningBlock2","","","","This is a tob:","null","","","","",""
"","image-keyboard-response","294","1714165","0.0-8.0-1.15","LF","acgok0jj2j","1920","1080","de","VO06AS02","null","","","","","","","","learning/Slide96.JPG","null","","","","",""
"","html-keyboard-response","295","1715182","0.0-8.0-2.15","LF","acgok0jj2j","1920","1080","de","VO06AS02","null","","","","learningBlock2","","","","<div style=""font-size:60px;""> </div>","null","LF","learning/Slide96.JPG","This is a tob:","",""
"","html-keyboard-response","296","1716193","0.0-8.0-0.16","LF","acgok0jj2j","1920","1080","de","VO06AS02","null","","","","learningBlock2","","","","This is a dep:","null","","","","",""
"","image-keyboard-response","297","1716521","0.0-8.0-1.16","LF","acgok0jj2j","1920","1080","de","VO06AS02","null","","","","","","","","learning/Slide97.JPG","null","","","","",""
"","html-keyboard-response","298","1717531","0.0-8.0-2.16","LF","acgok0jj2j","1920","1080","de","VO06AS02","null","","","","learningBlock2","","","","<div style=""font-size:60px;""> </div>","null","LF","learning/Slide97.JPG","This is a dep:","",""
"","html-keyboard-response","299","1718541","0.0-8.0-0.17","LF","acgok0jj2j","1920","1080","de","VO06AS02","null","","","","learningBlock2","","","","This is a bim:","null","","","","",""
"","image-keyboard-response","300","1718886","0.0-8.0-1.17","LF","acgok0jj2j","1920","1080","de","VO06AS02","null","","","","","","","","learning/Slide98.JPG","null","","","","",""
"","html-keyboard-response","301","1719896","0.0-8.0-2.17","LF","acgok0jj2j","1920","1080","de","VO06AS02","null","","","","learningBlock2","","","","<div style=""font-size:60px;""> </div>","null","LF","learning/Slide98.JPG","This is a bim:","",""
"","html-keyboard-response","302","1720907","0.0-8.0-0.18","LF","acgok0jj2j","1920","1080","de","VO06AS02","null","","","","learningBlock2","","","","This is a dep:","null","","","","",""
"","image-keyboard-response","303","1721234","0.0-8.0-1.18","LF","acgok0jj2j","1920","1080","de","VO06AS02","null","","","","","","","","learning/Slide99.JPG","null","","","","",""
"","html-keyboard-response","304","1722247","0.0-8.0-2.18","LF","acgok0jj2j","1920","1080","de","VO06AS02","null","","","","learningBlock2","","","","<div style=""font-size:60px;""> </div>","null","LF","learning/Slide99.JPG","This is a dep:","",""
"","html-keyboard-response","305","1723259","0.0-8.0-0.19","LF","acgok0jj2j","1920","1080","de","VO06AS02","null","","","","learningBlock2","","","","This is a bim:","null","","","","",""
"","image-keyboard-response","306","1723586","0.0-8.0-1.19","LF","acgok0jj2j","1920","1080","de","VO06AS02","null","","","","","","","","learning/Slide100.JPG","null","","","","",""
"","html-keyboard-response","307","1724598","0.0-8.0-2.19","LF","acgok0jj2j","1920","1080","de","VO06AS02","null","","","","learningBlock2","","","","<div style=""font-size:60px;""> </div>","null","LF","learning/Slide100.JPG","This is a bim:","",""
"","html-keyboard-response","308","1725611","0.0-8.0-0.20","LF","acgok0jj2j","1920","1080","de","VO06AS02","null","","","","learningBlock2","","","","This is a tob:","null","","","","",""
"","image-keyboard-response","309","1725953","0.0-8.0-1.20","LF","acgok0jj2j","1920","1080","de","VO06AS02","null","","","","","","","","learning/Slide101.JPG","null","","","","",""
"","html-keyboard-response","310","1726965","0.0-8.0-2.20","LF","acgok0jj2j","1920","1080","de","VO06AS02","null","","","","learningBlock2","","","","<div style=""font-size:60px;""> </div>","null","LF","learning/Slide101.JPG","This is a tob:","",""
"","html-keyboard-response","311","1727973","0.0-8.0-0.21","LF","acgok0jj2j","1920","1080","de","VO06AS02","null","","","","learningBlock2","","","","This is a bim:","null","","","","",""
"","image-keyboard-response","312","1728301","0.0-8.0-1.21","LF","acgok0jj2j","1920","1080","de","VO06AS02","null","","","","","","","","learning/Slide102.JPG","null","","","","",""
"","html-keyboard-response","313","1729310","0.0-8.0-2.21","LF","acgok0jj2j","1920","1080","de","VO06AS02","null","","","","learningBlock2","","","","<div style=""font-size:60px;""> </div>","null","LF","learning/Slide102.JPG","This is a bim:","",""
"","html-keyboard-response","314","1730313","0.0-8.0-0.22","LF","acgok0jj2j","1920","1080","de","VO06AS02","null","","","","learningBlock2","","","","This is a dep:","null","","","","",""
"","image-keyboard-response","315","1730643","0.0-8.0-1.22","LF","acgok0jj2j","1920","1080","de","VO06AS02","null","","","","","","","","learning/Slide103.JPG","null","","","","",""
"","html-keyboard-response","316","1731646","0.0-8.0-2.22","LF","acgok0jj2j","1920","1080","de","VO06AS02","null","","","","learningBlock2","","","","<div style=""font-size:60px;""> </div>","null","LF","learning/Slide103.JPG","This is a dep:","",""
"","html-keyboard-response","317","1732657","0.0-8.0-0.23","LF","acgok0jj2j","1920","1080","de","VO06AS02","null","","","","learningBlock2","","","","This is a tob:","null","","","","",""
"","image-keyboard-response","318","1732997","0.0-8.0-1.23","LF","acgok0jj2j","1920","1080","de","VO06AS02","null","","","","","","","","learning/Slide104.JPG","null","","","","",""
"","html-keyboard-response","319","1734006","0.0-8.0-2.23","LF","acgok0jj2j","1920","1080","de","VO06AS02","null","","","","learningBlock2","","","","<div style=""font-size:60px;""> </div>","null","LF","learning/Slide104.JPG","This is a tob:","",""
"","html-keyboard-response","320","1735013","0.0-8.0-0.24","LF","acgok0jj2j","1920","1080","de","VO06AS02","null","","","","learningBlock2","","","","This is a dep:","null","","","","",""
"","image-keyboard-response","321","1735345","0.0-8.0-1.24","LF","acgok0jj2j","1920","1080","de","VO06AS02","null","","","","","","","","learning/Slide105.JPG","null","","","","",""
"","html-keyboard-response","322","1736351","0.0-8.0-2.24","LF","acgok0jj2j","1920","1080","de","VO06AS02","null","","","","learningBlock2","","","","<div style=""font-size:60px;""> </div>","null","LF","learning/Slide105.JPG","This is a dep:","",""
"","html-keyboard-response","323","1737362","0.0-8.0-0.25","LF","acgok0jj2j","1920","1080","de","VO06AS02","null","","","","learningBlock2","","","","This is a wug:","null","","","","",""
"","image-keyboard-response","324","1737704","0.0-8.0-1.25","LF","acgok0jj2j","1920","1080","de","VO06AS02","null","","","","","","","","learning/Slide106.JPG","null","","","","",""
"","html-keyboard-response","325","1738716","0.0-8.0-2.25","LF","acgok0jj2j","1920","1080","de","VO06AS02","null","","","","learningBlock2","","","","<div style=""font-size:60px;""> </div>","null","LF","learning/Slide106.JPG","This is a wug:","",""
"","html-keyboard-response","326","1739726","0.0-8.0-0.26","LF","acgok0jj2j","1920","1080","de","VO06AS02","null","","","","learningBlock2","","","","This is a bim:","null","","","","",""
"","image-keyboard-response","327","1740057","0.0-8.0-1.26","LF","acgok0jj2j","1920","1080","de","VO06AS02","null","","","","","","","","learning/Slide107.JPG","null","","","","",""
"","html-keyboard-response","328","1741069","0.0-8.0-2.26","LF","acgok0jj2j","1920","1080","de","VO06AS02","null","","","","learningBlock2","","","","<div style=""font-size:60px;""> </div>","null","LF","learning/Slide107.JPG","This is a bim:","",""
"","html-keyboard-response","329","1742084","0.0-8.0-0.27","LF","acgok0jj2j","1920","1080","de","VO06AS02","null","","","","learningBlock2","","","","This is a dep:","null","","","","",""
"","image-keyboard-response","330","1742413","0.0-8.0-1.27","LF","acgok0jj2j","1920","1080","de","VO06AS02","null","","","","","","","","learning/Slide108.JPG","null","","","","",""
"","html-keyboard-response","331","1743422","0.0-8.0-2.27","LF","acgok0jj2j","1920","1080","de","VO06AS02","null","","","","learningBlock2","","","","<div style=""font-size:60px;""> </div>","null","LF","learning/Slide108.JPG","This is a dep:","",""
"","html-keyboard-response","332","1744429","0.0-8.0-0.28","LF","acgok0jj2j","1920","1080","de","VO06AS02","null","","","","learningBlock2","","","","This is a wug:","null","","","","",""
"","image-keyboard-response","333","1744757","0.0-8.0-1.28","LF","acgok0jj2j","1920","1080","de","VO06AS02","null","","","","","","","","learning/Slide109.JPG","null","","","","",""
"","html-keyboard-response","334","1745767","0.0-8.0-2.28","LF","acgok0jj2j","1920","1080","de","VO06AS02","null","","","","learningBlock2","","","","<div style=""font-size:60px;""> </div>","null","LF","learning/Slide109.JPG","This is a wug:","",""
"","html-keyboard-response","335","1746778","0.0-8.0-0.29","LF","acgok0jj2j","1920","1080","de","VO06AS02","null","","","","learningBlock2","","","","This is a bim:","null","","","","",""
"","image-keyboard-response","336","1747109","0.0-8.0-1.29","LF","acgok0jj2j","1920","1080","de","VO06AS02","null","","","","","","","","learning/Slide110.JPG","null","","","","",""
"","html-keyboard-response","337","1748117","0.0-8.0-2.29","LF","acgok0jj2j","1920","1080","de","VO06AS02","null","","","","learningBlock2","","","","<div style=""font-size:60px;""> </div>","null","LF","learning/Slide110.JPG","This is a bim:","",""
"","html-keyboard-response","338","1749130","0.0-8.0-0.30","LF","acgok0jj2j","1920","1080","de","VO06AS02","null","","","","learningBlock2","","","","This is a tob:","null","","","","",""
"","image-keyboard-response","339","1749468","0.0-8.0-1.30","LF","acgok0jj2j","1920","1080","de","VO06AS02","null","","","","","","","","learning/Slide111.JPG","null","","","","",""
"","html-keyboard-response","340","1750476","0.0-8.0-2.30","LF","acgok0jj2j","1920","1080","de","VO06AS02","null","","","","learningBlock2","","","","<div style=""font-size:60px;""> </div>","null","LF","learning/Slide111.JPG","This is a tob:","",""
"","html-keyboard-response","341","1751486","0.0-8.0-0.31","LF","acgok0jj2j","1920","1080","de","VO06AS02","null","","","","learningBlock2","","","","This is a wug:","null","","","","",""
"","image-keyboard-response","342","1751828","0.0-8.0-1.31","LF","acgok0jj2j","1920","1080","de","VO06AS02","null","","","","","","","","learning/Slide112.JPG","null","","","","",""
"","html-keyboard-response","343","1752841","0.0-8.0-2.31","LF","acgok0jj2j","1920","1080","de","VO06AS02","null","","","","learningBlock2","","","","<div style=""font-size:60px;""> </div>","null","LF","learning/Slide112.JPG","This is a wug:","",""
"","html-keyboard-response","344","1753848","0.0-8.0-0.32","LF","acgok0jj2j","1920","1080","de","VO06AS02","null","","","","learningBlock2","","","","This is a tob:","null","","","","",""
"","image-keyboard-response","345","1754183","0.0-8.0-1.32","LF","acgok0jj2j","1920","1080","de","VO06AS02","null","","","","","","","","learning/Slide113.JPG","null","","","","",""
"","html-keyboard-response","346","1755197","0.0-8.0-2.32","LF","acgok0jj2j","1920","1080","de","VO06AS02","null","","","","learningBlock2","","","","<div style=""font-size:60px;""> </div>","null","LF","learning/Slide113.JPG","This is a tob:","",""
"","html-keyboard-response","347","1756206","0.0-8.0-0.33","LF","acgok0jj2j","1920","1080","de","VO06AS02","null","","","","learningBlock2","","","","This is a wug:","null","","","","",""
"","image-keyboard-response","348","1756535","0.0-8.0-1.33","LF","acgok0jj2j","1920","1080","de","VO06AS02","null","","","","","","","","learning/Slide114.JPG","null","","","","",""
"","html-keyboard-response","349","1757540","0.0-8.0-2.33","LF","acgok0jj2j","1920","1080","de","VO06AS02","null","","","","learningBlock2","","","","<div style=""font-size:60px;""> </div>","null","LF","learning/Slide114.JPG","This is a wug:","",""
"","html-keyboard-response","350","1758553","0.0-8.0-0.34","LF","acgok0jj2j","1920","1080","de","VO06AS02","null","","","","learningBlock2","","","","This is a bim:","null","","","","",""
"","image-keyboard-response","351","1758881","0.0-8.0-1.34","LF","acgok0jj2j","1920","1080","de","VO06AS02","null","","","","","","","","learning/Slide115.JPG","null","","","","",""
"","html-keyboard-response","352","1759891","0.0-8.0-2.34","LF","acgok0jj2j","1920","1080","de","VO06AS02","null","","","","learningBlock2","","","","<div style=""font-size:60px;""> </div>","null","LF","learning/Slide115.JPG","This is a bim:","",""
"","html-keyboard-response","353","1760898","0.0-8.0-0.35","LF","acgok0jj2j","1920","1080","de","VO06AS02","null","","","","learningBlock2","","","","This is a dep:","null","","","","",""
"","image-keyboard-response","354","1761232","0.0-8.0-1.35","LF","acgok0jj2j","1920","1080","de","VO06AS02","null","","","","","","","","learning/Slide116.JPG","null","","","","",""
"","html-keyboard-response","355","1762241","0.0-8.0-2.35","LF","acgok0jj2j","1920","1080","de","VO06AS02","null","","","","learningBlock2","","","","<div style=""font-size:60px;""> </div>","null","LF","learning/Slide116.JPG","This is a dep:","",""
"","html-keyboard-response","356","1763249","0.0-8.0-0.36","LF","acgok0jj2j","1920","1080","de","VO06AS02","null","","","","learningBlock2","","","","This is a tob:","null","","","","",""
"","image-keyboard-response","357","1763576","0.0-8.0-1.36","LF","acgok0jj2j","1920","1080","de","VO06AS02","null","","","","","","","","learning/Slide117.JPG","null","","","","",""
"","html-keyboard-response","358","1764584","0.0-8.0-2.36","LF","acgok0jj2j","1920","1080","de","VO06AS02","null","","","","learningBlock2","","","","<div style=""font-size:60px;""> </div>","null","LF","learning/Slide117.JPG","This is a tob:","",""
"","html-keyboard-response","359","1765594","0.0-8.0-0.37","LF","acgok0jj2j","1920","1080","de","VO06AS02","null","","","","learningBlock2","","","","This is a dep:","null","","","","",""
"","image-keyboard-response","360","1765928","0.0-8.0-1.37","LF","acgok0jj2j","1920","1080","de","VO06AS02","null","","","","","","","","learning/Slide118.JPG","null","","","","",""
"","html-keyboard-response","361","1766930","0.0-8.0-2.37","LF","acgok0jj2j","1920","1080","de","VO06AS02","null","","","","learningBlock2","","","","<div style=""font-size:60px;""> </div>","null","LF","learning/Slide118.JPG","This is a dep:","",""
"","html-keyboard-response","362","1767945","0.0-8.0-0.38","LF","acgok0jj2j","1920","1080","de","VO06AS02","null","","","","learningBlock2","","","","This is a wug:","null","","","","",""
"","image-keyboard-response","363","1768277","0.0-8.0-1.38","LF","acgok0jj2j","1920","1080","de","VO06AS02","null","","","","","","","","learning/Slide119.JPG","null","","","","",""
"","html-keyboard-response","364","1769284","0.0-8.0-2.38","LF","acgok0jj2j","1920","1080","de","VO06AS02","null","","","","learningBlock2","","","","<div style=""font-size:60px;""> </div>","null","LF","learning/Slide119.JPG","This is a wug:","",""
"","html-keyboard-response","365","1770295","0.0-8.0-0.39","LF","acgok0jj2j","1920","1080","de","VO06AS02","null","","","","learningBlock2","","","","This is a dep:","null","","","","",""
"","image-keyboard-response","366","1770623","0.0-8.0-1.39","LF","acgok0jj2j","1920","1080","de","VO06AS02","null","","","","","","","","learning/Slide120.JPG","null","","","","",""
"","html-keyboard-response","367","1771635","0.0-8.0-2.39","LF","acgok0jj2j","1920","1080","de","VO06AS02","null","","","","learningBlock2","","","","<div style=""font-size:60px;""> </div>","null","LF","learning/Slide120.JPG","This is a dep:","",""
"","html-keyboard-response","368","1772648","0.0-8.0-0.40","LF","acgok0jj2j","1920","1080","de","VO06AS02","null","","","","learningBlock2","","","","This is a bim:","null","","","","",""
"","image-keyboard-response","369","1772976","0.0-8.0-1.40","LF","acgok0jj2j","1920","1080","de","VO06AS02","null","","","","","","","","learning/Slide121.JPG","null","","","","",""
"","html-keyboard-response","370","1773985","0.0-8.0-2.40","LF","acgok0jj2j","1920","1080","de","VO06AS02","null","","","","learningBlock2","","","","<div style=""font-size:60px;""> </div>","null","LF","learning/Slide121.JPG","This is a bim:","",""
"","html-keyboard-response","371","1774993","0.0-8.0-0.41","LF","acgok0jj2j","1920","1080","de","VO06AS02","null","","","","learningBlock2","","","","This is a wug:","null","","","","",""
"","image-keyboard-response","372","1775336","0.0-8.0-1.41","LF","acgok0jj2j","1920","1080","de","VO06AS02","null","","","","","","","","learning/Slide122.JPG","null","","","","",""
"","html-keyboard-response","373","1776346","0.0-8.0-2.41","LF","acgok0jj2j","1920","1080","de","VO06AS02","null","","","","learningBlock2","","","","<div style=""font-size:60px;""> </div>","null","LF","learning/Slide122.JPG","This is a wug:","",""
"","html-keyboard-response","374","1777358","0.0-8.0-0.42","LF","acgok0jj2j","1920","1080","de","VO06AS02","null","","","","learningBlock2","","","","This is a bim:","null","","","","",""
"","image-keyboard-response","375","1777685","0.0-8.0-1.42","LF","acgok0jj2j","1920","1080","de","VO06AS02","null","","","","","","","","learning/Slide123.JPG","null","","","","",""
"","html-keyboard-response","376","1778692","0.0-8.0-2.42","LF","acgok0jj2j","1920","1080","de","VO06AS02","null","","","","learningBlock2","","","","<div style=""font-size:60px;""> </div>","null","LF","learning/Slide123.JPG","This is a bim:","",""
"","html-keyboard-response","377","1779703","0.0-8.0-0.43","LF","acgok0jj2j","1920","1080","de","VO06AS02","null","","","","learningBlock2","","","","This is a tob:","null","","","","",""
"","image-keyboard-response","378","1780046","0.0-8.0-1.43","LF","acgok0jj2j","1920","1080","de","VO06AS02","null","","","","","","","","learning/Slide124.JPG","null","","","","",""
"","html-keyboard-response","379","1781059","0.0-8.0-2.43","LF","acgok0jj2j","1920","1080","de","VO06AS02","null","","","","learningBlock2","","","","<div style=""font-size:60px;""> </div>","null","LF","learning/Slide124.JPG","This is a tob:","",""
"","html-keyboard-response","380","1782073","0.0-8.0-0.44","LF","acgok0jj2j","1920","1080","de","VO06AS02","null","","","","learningBlock2","","","","This is a bim:","null","","","","",""
"","image-keyboard-response","381","1782407","0.0-8.0-1.44","LF","acgok0jj2j","1920","1080","de","VO06AS02","null","","","","","","","","learning/Slide125.JPG","null","","","","",""
"","html-keyboard-response","382","1783412","0.0-8.0-2.44","LF","acgok0jj2j","1920","1080","de","VO06AS02","null","","","","learningBlock2","","","","<div style=""font-size:60px;""> </div>","null","LF","learning/Slide125.JPG","This is a bim:","",""
"","html-keyboard-response","383","1784420","0.0-8.0-0.45","LF","acgok0jj2j","1920","1080","de","VO06AS02","null","","","","learningBlock2","","","","This is a tob:","null","","","","",""
"","image-keyboard-response","384","1784747","0.0-8.0-1.45","LF","acgok0jj2j","1920","1080","de","VO06AS02","null","","","","","","","","learning/Slide126.JPG","null","","","","",""
"","html-keyboard-response","385","1785754","0.0-8.0-2.45","LF","acgok0jj2j","1920","1080","de","VO06AS02","null","","","","learningBlock2","","","","<div style=""font-size:60px;""> </div>","null","LF","learning/Slide126.JPG","This is a tob:","",""
"","html-keyboard-response","386","1786766","0.0-8.0-0.46","LF","acgok0jj2j","1920","1080","de","VO06AS02","null","","","","learningBlock2","","","","This is a dep:","null","","","","",""
"","image-keyboard-response","387","1787094","0.0-8.0-1.46","LF","acgok0jj2j","1920","1080","de","VO06AS02","null","","","","","","","","learning/Slide127.JPG","null","","","","",""
"","html-keyboard-response","388","1788102","0.0-8.0-2.46","LF","acgok0jj2j","1920","1080","de","VO06AS02","null","","","","learningBlock2","","","","<div style=""font-size:60px;""> </div>","null","LF","learning/Slide127.JPG","This is a dep:","",""
"","html-keyboard-response","389","1789113","0.0-8.0-0.47","LF","acgok0jj2j","1920","1080","de","VO06AS02","null","","","","learningBlock2","","","","This is a wug:","null","","","","",""
"","image-keyboard-response","390","1789441","0.0-8.0-1.47","LF","acgok0jj2j","1920","1080","de","VO06AS02","null","","","","","","","","learning/Slide128.JPG","null","","","","",""
"","html-keyboard-response","391","1790453","0.0-8.0-2.47","LF","acgok0jj2j","1920","1080","de","VO06AS02","null","","","","learningBlock2","","","","<div style=""font-size:60px;""> </div>","null","LF","learning/Slide128.JPG","This is a wug:","",""
"","html-keyboard-response","392","1791462","0.0-8.0-0.48","LF","acgok0jj2j","1920","1080","de","VO06AS02","null","","","","learningBlock2","","","","This is a tob:","null","","","","",""
"","image-keyboard-response","393","1791791","0.0-8.0-1.48","LF","acgok0jj2j","1920","1080","de","VO06AS02","null","","","","","","","","learning/Slide129.JPG","null","","","","",""
"","html-keyboard-response","394","1792798","0.0-8.0-2.48","LF","acgok0jj2j","1920","1080","de","VO06AS02","null","","","","learningBlock2","","","","<div style=""font-size:60px;""> </div>","null","LF","learning/Slide129.JPG","This is a tob:","",""
"","html-keyboard-response","395","1793811","0.0-8.0-0.49","LF","acgok0jj2j","1920","1080","de","VO06AS02","null","","","","learningBlock2","","","","This is a wug:","null","","","","",""
"","image-keyboard-response","396","1794150","0.0-8.0-1.49","LF","acgok0jj2j","1920","1080","de","VO06AS02","null","","","","","","","","learning/Slide130.JPG","null","","","","",""
"","html-keyboard-response","397","1795161","0.0-8.0-2.49","LF","acgok0jj2j","1920","1080","de","VO06AS02","null","","","","learningBlock2","","","","<div style=""font-size:60px;""> </div>","null","LF","learning/Slide130.JPG","This is a wug:","",""
"","html-keyboard-response","398","1796168","0.0-8.0-0.50","LF","acgok0jj2j","1920","1080","de","VO06AS02","null","","","","learningBlock2","","","","This is a bim:","null","","","","",""
"","image-keyboard-response","399","1796501","0.0-8.0-1.50","LF","acgok0jj2j","1920","1080","de","VO06AS02","null","","","","","","","","learning/Slide131.JPG","null","","","","",""
"","html-keyboard-response","400","1797508","0.0-8.0-2.50","LF","acgok0jj2j","1920","1080","de","VO06AS02","null","","","","learningBlock2","","","","<div style=""font-size:60px;""> </div>","null","LF","learning/Slide131.JPG","This is a bim:","",""
"","html-keyboard-response","401","1798522","0.0-8.0-0.51","LF","acgok0jj2j","1920","1080","de","VO06AS02","null","","","","learningBlock2","","","","This is a dep:","null","","","","",""
"","image-keyboard-response","402","1798851","0.0-8.0-1.51","LF","acgok0jj2j","1920","1080","de","VO06AS02","null","","","","","","","","learning/Slide132.JPG","null","","","","",""
"","html-keyboard-response","403","1799863","0.0-8.0-2.51","LF","acgok0jj2j","1920","1080","de","VO06AS02","null","","","","learningBlock2","","","","<div style=""font-size:60px;""> </div>","null","LF","learning/Slide132.JPG","This is a dep:","",""
"","html-keyboard-response","404","1800874","0.0-8.0-0.52","LF","acgok0jj2j","1920","1080","de","VO06AS02","null","","","","learningBlock2","","","","This is a tob:","null","","","","",""
"","image-keyboard-response","405","1801202","0.0-8.0-1.52","LF","acgok0jj2j","1920","1080","de","VO06AS02","null","","","","","","","","learning/Slide133.JPG","null","","","","",""
"","html-keyboard-response","406","1802212","0.0-8.0-2.52","LF","acgok0jj2j","1920","1080","de","VO06AS02","null","","","","learningBlock2","","","","<div style=""font-size:60px;""> </div>","null","LF","learning/Slide133.JPG","This is a tob:","",""
"","html-keyboard-response","407","1803222","0.0-8.0-0.53","LF","acgok0jj2j","1920","1080","de","VO06AS02","null","","","","learningBlock2","","","","This is a dep:","null","","","","",""
"","image-keyboard-response","408","1803550","0.0-8.0-1.53","LF","acgok0jj2j","1920","1080","de","VO06AS02","null","","","","","","","","learning/Slide134.JPG","null","","","","",""
"","html-keyboard-response","409","1804559","0.0-8.0-2.53","LF","acgok0jj2j","1920","1080","de","VO06AS02","null","","","","learningBlock2","","","","<div style=""font-size:60px;""> </div>","null","LF","learning/Slide134.JPG","This is a dep:","",""
"","html-keyboard-response","410","1805571","0.0-8.0-0.54","LF","acgok0jj2j","1920","1080","de","VO06AS02","null","","","","learningBlock2","","","","This is a tob:","null","","","","",""
"","image-keyboard-response","411","1805913","0.0-8.0-1.54","LF","acgok0jj2j","1920","1080","de","VO06AS02","null","","","","","","","","learning/Slide135.JPG","null","","","","",""
"","html-keyboard-response","412","1806922","0.0-8.0-2.54","LF","acgok0jj2j","1920","1080","de","VO06AS02","null","","","","learningBlock2","","","","<div style=""font-size:60px;""> </div>","null","LF","learning/Slide135.JPG","This is a tob:","",""
"","html-keyboard-response","413","1807932","0.0-8.0-0.55","LF","acgok0jj2j","1920","1080","de","VO06AS02","null","","","","learningBlock2","","","","This is a wug:","null","","","","",""
"","image-keyboard-response","414","1808264","0.0-8.0-1.55","LF","acgok0jj2j","1920","1080","de","VO06AS02","null","","","","","","","","learning/Slide136.JPG","null","","","","",""
"","html-keyboard-response","415","1809279","0.0-8.0-2.55","LF","acgok0jj2j","1920","1080","de","VO06AS02","null","","","","learningBlock2","","","","<div style=""font-size:60px;""> </div>","null","LF","learning/Slide136.JPG","This is a wug:","",""
"","html-keyboard-response","416","1810289","0.0-8.0-0.56","LF","acgok0jj2j","1920","1080","de","VO06AS02","null","","","","learningBlock2","","","","This is a tob:","null","","","","",""
"","image-keyboard-response","417","1810634","0.0-8.0-1.56","LF","acgok0jj2j","1920","1080","de","VO06AS02","null","","","","","","","","learning/Slide137.JPG","null","","","","",""
"","html-keyboard-response","418","1811646","0.0-8.0-2.56","LF","acgok0jj2j","1920","1080","de","VO06AS02","null","","","","learningBlock2","","","","<div style=""font-size:60px;""> </div>","null","LF","learning/Slide137.JPG","This is a tob:","",""
"","html-keyboard-response","419","1812653","0.0-8.0-0.57","LF","acgok0jj2j","1920","1080","de","VO06AS02","null","","","","learningBlock2","","","","This is a bim:","null","","","","",""
"","image-keyboard-response","420","1812994","0.0-8.0-1.57","LF","acgok0jj2j","1920","1080","de","VO06AS02","null","","","","","","","","learning/Slide138.JPG","null","","","","",""
"","html-keyboard-response","421","1814006","0.0-8.0-2.57","LF","acgok0jj2j","1920","1080","de","VO06AS02","null","","","","learningBlock2","","","","<div style=""font-size:60px;""> </div>","null","LF","learning/Slide138.JPG","This is a bim:","",""
"","html-keyboard-response","422","1815017","0.0-8.0-0.58","LF","acgok0jj2j","1920","1080","de","VO06AS02","null","","","","learningBlock2","","","","This is a wug:","null","","","","",""
"","image-keyboard-response","423","1815345","0.0-8.0-1.58","LF","acgok0jj2j","1920","1080","de","VO06AS02","null","","","","","","","","learning/Slide139.JPG","null","","","","",""
"","html-keyboard-response","424","1816355","0.0-8.0-2.58","LF","acgok0jj2j","1920","1080","de","VO06AS02","null","","","","learningBlock2","","","","<div style=""font-size:60px;""> </div>","null","LF","learning/Slide139.JPG","This is a wug:","",""
"","html-keyboard-response","425","1817364","0.0-8.0-0.59","LF","acgok0jj2j","1920","1080","de","VO06AS02","null","","","","learningBlock2","","","","This is a dep:","null","","","","",""
"","image-keyboard-response","426","1817696","0.0-8.0-1.59","LF","acgok0jj2j","1920","1080","de","VO06AS02","null","","","","","","","","learning/Slide140.JPG","null","","","","",""
"","html-keyboard-response","427","1818703","0.0-8.0-2.59","LF","acgok0jj2j","1920","1080","de","VO06AS02","null","","","","learningBlock2","","","","<div style=""font-size:60px;""> </div>","null","LF","learning/Slide140.JPG","This is a dep:","",""
"","html-keyboard-response","428","1819717","0.0-8.0-0.60","LF","acgok0jj2j","1920","1080","de","VO06AS02","null","","","","learningBlock2","","","","This is a tob:","null","","","","",""
"","image-keyboard-response","429","1820044","0.0-8.0-1.60","LF","acgok0jj2j","1920","1080","de","VO06AS02","null","","","","","","","","learning/Slide141.JPG","null","","","","",""
"","html-keyboard-response","430","1821046","0.0-8.0-2.60","LF","acgok0jj2j","1920","1080","de","VO06AS02","null","","","","learningBlock2","","","","<div style=""font-size:60px;""> </div>","null","LF","learning/Slide141.JPG","This is a tob:","",""
"","html-keyboard-response","431","1822059","0.0-8.0-0.61","LF","acgok0jj2j","1920","1080","de","VO06AS02","null","","","","learningBlock2","","","","This is a wug:","null","","","","",""
"","image-keyboard-response","432","1822404","0.0-8.0-1.61","LF","acgok0jj2j","1920","1080","de","VO06AS02","null","","","","","","","","learning/Slide142.JPG","null","","","","",""
"","html-keyboard-response","433","1823413","0.0-8.0-2.61","LF","acgok0jj2j","1920","1080","de","VO06AS02","null","","","","learningBlock2","","","","<div style=""font-size:60px;""> </div>","null","LF","learning/Slide142.JPG","This is a wug:","",""
"","html-keyboard-response","434","1824424","0.0-8.0-0.62","LF","acgok0jj2j","1920","1080","de","VO06AS02","null","","","","learningBlock2","","","","This is a bim:","null","","","","",""
"","image-keyboard-response","435","1824758","0.0-8.0-1.62","LF","acgok0jj2j","1920","1080","de","VO06AS02","null","","","","","","","","learning/Slide143.JPG","null","","","","",""
"","html-keyboard-response","436","1825767","0.0-8.0-2.62","LF","acgok0jj2j","1920","1080","de","VO06AS02","null","","","","learningBlock2","","","","<div style=""font-size:60px;""> </div>","null","LF","learning/Slide143.JPG","This is a bim:","",""
"","html-keyboard-response","437","1826777","0.0-8.0-0.63","LF","acgok0jj2j","1920","1080","de","VO06AS02","null","","","","learningBlock2","","","","This is a dep:","null","","","","",""
"","image-keyboard-response","438","1827120","0.0-8.0-1.63","LF","acgok0jj2j","1920","1080","de","VO06AS02","null","","","","","","","","learning/Slide144.JPG","null","","","","",""
"","html-keyboard-response","439","1828129","0.0-8.0-2.63","LF","acgok0jj2j","1920","1080","de","VO06AS02","null","","","","learningBlock2","","","","<div style=""font-size:60px;""> </div>","null","LF","learning/Slide144.JPG","This is a dep:","",""
"","html-keyboard-response","440","1829142","0.0-8.0-0.64","LF","acgok0jj2j","1920","1080","de","VO06AS02","null","","","","learningBlock2","","","","This is a bim:","null","","","","",""
"","image-keyboard-response","441","1829474","0.0-8.0-1.64","LF","acgok0jj2j","1920","1080","de","VO06AS02","null","","","","","","","","learning/Slide145.JPG","null","","","","",""
"","html-keyboard-response","442","1830477","0.0-8.0-2.64","LF","acgok0jj2j","1920","1080","de","VO06AS02","null","","","","learningBlock2","","","","<div style=""font-size:60px;""> </div>","null","LF","learning/Slide145.JPG","This is a bim:","",""
"","html-keyboard-response","443","1831487","0.0-8.0-0.65","LF","acgok0jj2j","1920","1080","de","VO06AS02","null","","","","learningBlock2","","","","This is a tob:","null","","","","",""
"","image-keyboard-response","444","1831817","0.0-8.0-1.65","LF","acgok0jj2j","1920","1080","de","VO06AS02","null","","","","","","","","learning/Slide146.JPG","null","","","","",""
"","html-keyboard-response","445","1832823","0.0-8.0-2.65","LF","acgok0jj2j","1920","1080","de","VO06AS02","null","","","","learningBlock2","","","","<div style=""font-size:60px;""> </div>","null","LF","learning/Slide146.JPG","This is a tob:","",""
"","html-keyboard-response","446","1833835","0.0-8.0-0.66","LF","acgok0jj2j","1920","1080","de","VO06AS02","null","","","","learningBlock2","","","","This is a wug:","null","","","","",""
"","image-keyboard-response","447","1834165","0.0-8.0-1.66","LF","acgok0jj2j","1920","1080","de","VO06AS02","null","","","","","","","","learning/Slide147.JPG","null","","","","",""
"","html-keyboard-response","448","1835172","0.0-8.0-2.66","LF","acgok0jj2j","1920","1080","de","VO06AS02","null","","","","learningBlock2","","","","<div style=""font-size:60px;""> </div>","null","LF","learning/Slide147.JPG","This is a wug:","",""
"","html-keyboard-response","449","1836178","0.0-8.0-0.67","LF","acgok0jj2j","1920","1080","de","VO06AS02","null","","","","learningBlock2","","","","This is a bim:","null","","","","",""
"","image-keyboard-response","450","1836506","0.0-8.0-1.67","LF","acgok0jj2j","1920","1080","de","VO06AS02","null","","","","","","","","learning/Slide148.JPG","null","","","","",""
"","html-keyboard-response","451","1837523","0.0-8.0-2.67","LF","acgok0jj2j","1920","1080","de","VO06AS02","null","","","","learningBlock2","","","","<div style=""font-size:60px;""> </div>","null","LF","learning/Slide148.JPG","This is a bim:","",""
"","html-keyboard-response","452","1838534","0.0-8.0-0.68","LF","acgok0jj2j","1920","1080","de","VO06AS02","null","","","","learningBlock2","","","","This is a dep:","null","","","","",""
"","image-keyboard-response","453","1838867","0.0-8.0-1.68","LF","acgok0jj2j","1920","1080","de","VO06AS02","null","","","","","","","","learning/Slide149.JPG","null","","","","",""
"","html-keyboard-response","454","1839881","0.0-8.0-2.68","LF","acgok0jj2j","1920","1080","de","VO06AS02","null","","","","learningBlock2","","","","<div style=""font-size:60px;""> </div>","null","LF","learning/Slide149.JPG","This is a dep:","",""
"","html-keyboard-response","455","1840891","0.0-8.0-0.69","LF","acgok0jj2j","1920","1080","de","VO06AS02","null","","","","learningBlock2","","","","This is a wug:","null","","","","",""
"","image-keyboard-response","456","1841232","0.0-8.0-1.69","LF","acgok0jj2j","1920","1080","de","VO06AS02","null","","","","","","","","learning/Slide150.JPG","null","","","","",""
"","html-keyboard-response","457","1842242","0.0-8.0-2.69","LF","acgok0jj2j","1920","1080","de","VO06AS02","null","","","","learningBlock2","","","","<div style=""font-size:60px;""> </div>","null","LF","learning/Slide150.JPG","This is a wug:","",""
"","html-keyboard-response","458","1843258","0.0-8.0-0.70","LF","acgok0jj2j","1920","1080","de","VO06AS02","null","","","","learningBlock2","","","","This is a dep:","null","","","","",""
"","image-keyboard-response","459","1843599","0.0-8.0-1.70","LF","acgok0jj2j","1920","1080","de","VO06AS02","null","","","","","","","","learning/Slide151.JPG","null","","","","",""
"","html-keyboard-response","460","1844612","0.0-8.0-2.70","LF","acgok0jj2j","1920","1080","de","VO06AS02","null","","","","learningBlock2","","","","<div style=""font-size:60px;""> </div>","null","LF","learning/Slide151.JPG","This is a dep:","",""
"","html-keyboard-response","461","1845618","0.0-8.0-0.71","LF","acgok0jj2j","1920","1080","de","VO06AS02","null","","","","learningBlock2","","","","This is a wug:","null","","","","",""
"","image-keyboard-response","462","1845951","0.0-8.0-1.71","LF","acgok0jj2j","1920","1080","de","VO06AS02","null","","","","","","","","learning/Slide152.JPG","null","","","","",""
"","html-keyboard-response","463","1846957","0.0-8.0-2.71","LF","acgok0jj2j","1920","1080","de","VO06AS02","null","","","","learningBlock2","","","","<div style=""font-size:60px;""> </div>","null","LF","learning/Slide152.JPG","This is a wug:","",""
"","html-keyboard-response","464","1847960","0.0-8.0-0.72","LF","acgok0jj2j","1920","1080","de","VO06AS02","null","","","","learningBlock2","","","","This is a bim:","null","","","","",""
"","image-keyboard-response","465","1848293","0.0-8.0-1.72","LF","acgok0jj2j","1920","1080","de","VO06AS02","null","","","","","","","","learning/Slide153.JPG","null","","","","",""
"","html-keyboard-response","466","1849302","0.0-8.0-2.72","LF","acgok0jj2j","1920","1080","de","VO06AS02","null","","","","learningBlock2","","","","<div style=""font-size:60px;""> </div>","null","LF","learning/Slide153.JPG","This is a bim:","",""
"","html-keyboard-response","467","1850311","0.0-8.0-0.73","LF","acgok0jj2j","1920","1080","de","VO06AS02","null","","","","learningBlock2","","","","This is a tob:","null","","","","",""
"","image-keyboard-response","468","1850639","0.0-8.0-1.73","LF","acgok0jj2j","1920","1080","de","VO06AS02","null","","","","","","","","learning/Slide154.JPG","null","","","","",""
"","html-keyboard-response","469","1851646","0.0-8.0-2.73","LF","acgok0jj2j","1920","1080","de","VO06AS02","null","","","","learningBlock2","","","","<div style=""font-size:60px;""> </div>","null","LF","learning/Slide154.JPG","This is a tob:","",""
"","html-keyboard-response","470","1852656","0.0-8.0-0.74","LF","acgok0jj2j","1920","1080","de","VO06AS02","null","","","","learningBlock2","","","","This is a dep:","null","","","","",""
"","image-keyboard-response","471","1852984","0.0-8.0-1.74","LF","acgok0jj2j","1920","1080","de","VO06AS02","null","","","","","","","","learning/Slide155.JPG","null","","","","",""
"","html-keyboard-response","472","1853994","0.0-8.0-2.74","LF","acgok0jj2j","1920","1080","de","VO06AS02","null","","","","learningBlock2","","","","<div style=""font-size:60px;""> </div>","null","LF","learning/Slide155.JPG","This is a dep:","",""
"","html-keyboard-response","473","1855007","0.0-8.0-0.75","LF","acgok0jj2j","1920","1080","de","VO06AS02","null","","","","learningBlock2","","","","This is a bim:","null","","","","",""
"","image-keyboard-response","474","1855335","0.0-8.0-1.75","LF","acgok0jj2j","1920","1080","de","VO06AS02","null","","","","","","","","learning/Slide156.JPG","null","","","","",""
"","html-keyboard-response","475","1856346","0.0-8.0-2.75","LF","acgok0jj2j","1920","1080","de","VO06AS02","null","","","","learningBlock2","","","","<div style=""font-size:60px;""> </div>","null","LF","learning/Slide156.JPG","This is a bim:","",""
"","html-keyboard-response","476","1857354","0.0-8.0-0.76","LF","acgok0jj2j","1920","1080","de","VO06AS02","null","","","","learningBlock2","","","","This is a dep:","null","","","","",""
"","image-keyboard-response","477","1857683","0.0-8.0-1.76","LF","acgok0jj2j","1920","1080","de","VO06AS02","null","","","","","","","","learning/Slide157.JPG","null","","","","",""
"","html-keyboard-response","478","1858696","0.0-8.0-2.76","LF","acgok0jj2j","1920","1080","de","VO06AS02","null","","","","learningBlock2","","","","<div style=""font-size:60px;""> </div>","null","LF","learning/Slide157.JPG","This is a dep:","",""
"","html-keyboard-response","479","1859707","0.0-8.0-0.77","LF","acgok0jj2j","1920","1080","de","VO06AS02","null","","","","learningBlock2","","","","This is a tob:","null","","","","",""
"","image-keyboard-response","480","1860047","0.0-8.0-1.77","LF","acgok0jj2j","1920","1080","de","VO06AS02","null","","","","","","","","learning/Slide158.JPG","null","","","","",""
"","html-keyboard-response","481","1861056","0.0-8.0-2.77","LF","acgok0jj2j","1920","1080","de","VO06AS02","null","","","","learningBlock2","","","","<div style=""font-size:60px;""> </div>","null","LF","learning/Slide158.JPG","This is a tob:","",""
"","html-keyboard-response","482","1862072","0.0-8.0-0.78","LF","acgok0jj2j","1920","1080","de","VO06AS02","null","","","","learningBlock2","","","","This is a dep:","null","","","","",""
"","image-keyboard-response","483","1862404","0.0-8.0-1.78","LF","acgok0jj2j","1920","1080","de","VO06AS02","null","","","","","","","","learning/Slide159.JPG","null","","","","",""
"","html-keyboard-response","484","1863412","0.0-8.0-2.78","LF","acgok0jj2j","1920","1080","de","VO06AS02","null","","","","learningBlock2","","","","<div style=""font-size:60px;""> </div>","null","LF","learning/Slide159.JPG","This is a dep:","",""
