"success","trial_type","trial_index","time_elapsed","internal_node_id","condition","subject","screen_width","screen_height","language","codeword","rt","responses","url","view_history","test_part","final_height_px","final_width_px","scale_factor","stimulus","key_press","learningType","presentedImage","presentedLabel","button_pressed","response"
"true","fullscreen","0","2703","0.0-0.0","FL","s48cjlol2y","1440","900","de","er04rt18","","","","","","","","","","","","","","",""
"","survey-html-form","1","5861","0.0-1.0","FL","s48cjlol2y","1440","900","de","er04rt18","3155.064999999013","{""language"":""de""}","","","","","","","","","","","","",""
"","external-html","2","14795","0.0-2.0-0.0","FL","s48cjlol2y","1440","900","de","er04rt18","8915.599999992992","","text/information.html","","","","","","","","","","","",""
"","external-html","3","26286","0.0-2.0-1.0","FL","s48cjlol2y","1440","900","de","er04rt18","11343.229999998584","","text/consent.html","","","","","","","","","","","",""
"","survey-html-form","4","61354","0.0-2.0-2.0","FL","s48cjlol2y","1440","900","de","er04rt18","35059.364999993704","{""codeword_enter"":""er04rt18""}","","","","","","","","","","","","",""
"","instructions","5","86456","0.0-4.0","FL","s48cjlol2y","1440","900","de","er04rt18","NA","","","[{""page_index"":0,""viewing_time"":13988.610000000335},{""page_index"":1,""viewing_time"":9608.089999994263}]","instructions","","","","","","","","","",""
"","resize","6","126942","0.0-5.0","FL","s48cjlol2y","1440","900","de","er04rt18","","","","","","","438","2.780952380952381","","","","","","",""
"","image-keyboard-response","7","127121","0.0-6.0-0.0","FL","s48cjlol2y","1440","900","de","er04rt18","null","","","","","","","","learning/Slide1.JPG","null","","","","",""
"","html-keyboard-response","8","128274","0.0-6.0-1.0","FL","s48cjlol2y","1440","900","de","er04rt18","null","","","","learningBlock1","","","","That was a tob.","null","","","","",""
"","html-keyboard-response","9","129276","0.0-6.0-2.0","FL","s48cjlol2y","1440","900","de","er04rt18","null","","","","learningBlock1","","","","<div style=""font-size:60px;""> </div>","null","FL","learning/Slide1.JPG","That was a tob.","",""
"","image-keyboard-response","10","129457","0.0-6.0-0.1","FL","s48cjlol2y","1440","900","de","er04rt18","null","","","","","","","","learning/Slide2.JPG","null","","","","",""
"","html-keyboard-response","11","130610","0.0-6.0-1.1","FL","s48cjlol2y","1440","900","de","er04rt18","null","","","","learningBlock1","","","","That was a wug.","null","","","","",""
"","html-keyboard-response","12","131615","0.0-6.0-2.1","FL","s48cjlol2y","1440","900","de","er04rt18","null","","","","learningBlock1","","","","<div style=""font-size:60px;""> </div>","null","FL","learning/Slide2.JPG","That was a wug.","",""
"","image-keyboard-response","13","131796","0.0-6.0-0.2","FL","s48cjlol2y","1440","900","de","er04rt18","null","","","","","","","","learning/Slide3.JPG","null","","","","",""
"","html-keyboard-response","14","132950","0.0-6.0-1.2","FL","s48cjlol2y","1440","900","de","er04rt18","null","","","","learningBlock1","","","","That was a bim.","null","","","","",""
"","html-keyboard-response","15","133954","0.0-6.0-2.2","FL","s48cjlol2y","1440","900","de","er04rt18","null","","","","learningBlock1","","","","<div style=""font-size:60px;""> </div>","null","FL","learning/Slide3.JPG","That was a bim.","",""
"","image-keyboard-response","16","134136","0.0-6.0-0.3","FL","s48cjlol2y","1440","900","de","er04rt18","null","","","","","","","","learning/Slide4.JPG","null","","","","",""
"","html-keyboard-response","17","135293","0.0-6.0-1.3","FL","s48cjlol2y","1440","900","de","er04rt18","null","","","","learningBlock1","","","","That was a dep.","null","","","","",""
"","html-keyboard-response","18","136297","0.0-6.0-2.3","FL","s48cjlol2y","1440","900","de","er04rt18","null","","","","learningBlock1","","","","<div style=""font-size:60px;""> </div>","null","FL","learning/Slide4.JPG","That was a dep.","",""
"","image-keyboard-response","19","136475","0.0-6.0-0.4","FL","s48cjlol2y","1440","900","de","er04rt18","null","","","","","","","","learning/Slide5.JPG","null","","","","",""
"","html-keyboard-response","20","137636","0.0-6.0-1.4","FL","s48cjlol2y","1440","900","de","er04rt18","null","","","","learningBlock1","","","","That was a wug.","null","","","","",""
"","html-keyboard-response","21","138641","0.0-6.0-2.4","FL","s48cjlol2y","1440","900","de","er04rt18","null","","","","learningBlock1","","","","<div style=""font-size:60px;""> </div>","null","FL","learning/Slide5.JPG","That was a wug.","",""
"","image-keyboard-response","22","138819","0.0-6.0-0.5","FL","s48cjlol2y","1440","900","de","er04rt18","null","","","","","","","","learning/Slide6.JPG","null","","","","",""
"","html-keyboard-response","23","139978","0.0-6.0-1.5","FL","s48cjlol2y","1440","900","de","er04rt18","null","","","","learningBlock1","","","","That was a dep.","null","","","","",""
"","html-keyboard-response","24","140982","0.0-6.0-2.5","FL","s48cjlol2y","1440","900","de","er04rt18","null","","","","learningBlock1","","","","<div style=""font-size:60px;""> </div>","null","FL","learning/Slide6.JPG","That was a dep.","",""
"","image-keyboard-response","25","141162","0.0-6.0-0.6","FL","s48cjlol2y","1440","900","de","er04rt18","null","","","","","","","","learning/Slide7.JPG","null","","","","",""
"","html-keyboard-response","26","142324","0.0-6.0-1.6","FL","s48cjlol2y","1440","900","de","er04rt18","null","","","","learningBlock1","","","","That was a wug.","null","","","","",""
"","html-keyboard-response","27","143328","0.0-6.0-2.6","FL","s48cjlol2y","1440","900","de","er04rt18","null","","","","learningBlock1","","","","<div style=""font-size:60px;""> </div>","null","FL","learning/Slide7.JPG","That was a wug.","",""
"","image-keyboard-response","28","143507","0.0-6.0-0.7","FL","s48cjlol2y","1440","900","de","er04rt18","null","","","","","","","","learning/Slide8.JPG","null","","","","",""
"","html-keyboard-response","29","144666","0.0-6.0-1.7","FL","s48cjlol2y","1440","900","de","er04rt18","null","","","","learningBlock1","","","","That was a bim.","null","","","","",""
"","html-keyboard-response","30","145670","0.0-6.0-2.7","FL","s48cjlol2y","1440","900","de","er04rt18","null","","","","learningBlock1","","","","<div style=""font-size:60px;""> </div>","null","FL","learning/Slide8.JPG","That was a bim.","",""
"","image-keyboard-response","31","145849","0.0-6.0-0.8","FL","s48cjlol2y","1440","900","de","er04rt18","null","","","","","","","","learning/Slide9.JPG","null","","","","",""
"","html-keyboard-response","32","147011","0.0-6.0-1.8","FL","s48cjlol2y","1440","900","de","er04rt18","null","","","","learningBlock1","","","","That was a wug.","null","","","","",""
"","html-keyboard-response","33","148015","0.0-6.0-2.8","FL","s48cjlol2y","1440","900","de","er04rt18","null","","","","learningBlock1","","","","<div style=""font-size:60px;""> </div>","null","FL","learning/Slide9.JPG","That was a wug.","",""
"","image-keyboard-response","34","148199","0.0-6.0-0.9","FL","s48cjlol2y","1440","900","de","er04rt18","null","","","","","","","","learning/Slide10.JPG","null","","","","",""
"","html-keyboard-response","35","149358","0.0-6.0-1.9","FL","s48cjlol2y","1440","900","de","er04rt18","null","","","","learningBlock1","","","","That was a dep.","null","","","","",""
"","html-keyboard-response","36","150363","0.0-6.0-2.9","FL","s48cjlol2y","1440","900","de","er04rt18","null","","","","learningBlock1","","","","<div style=""font-size:60px;""> </div>","null","FL","learning/Slide10.JPG","That was a dep.","",""
"","image-keyboard-response","37","150539","0.0-6.0-0.10","FL","s48cjlol2y","1440","900","de","er04rt18","null","","","","","","","","learning/Slide11.JPG","null","","","","",""
"","html-keyboard-response","38","151698","0.0-6.0-1.10","FL","s48cjlol2y","1440","900","de","er04rt18","null","","","","learningBlock1","","","","That was a tob.","null","","","","",""
"","html-keyboard-response","39","152704","0.0-6.0-2.10","FL","s48cjlol2y","1440","900","de","er04rt18","null","","","","learningBlock1","","","","<div style=""font-size:60px;""> </div>","null","FL","learning/Slide11.JPG","That was a tob.","",""
"","image-keyboard-response","40","152885","0.0-6.0-0.11","FL","s48cjlol2y","1440","900","de","er04rt18","null","","","","","","","","learning/Slide12.JPG","null","","","","",""
"","html-keyboard-response","41","154046","0.0-6.0-1.11","FL","s48cjlol2y","1440","900","de","er04rt18","null","","","","learningBlock1","","","","That was a dep.","null","","","","",""
"","html-keyboard-response","42","155050","0.0-6.0-2.11","FL","s48cjlol2y","1440","900","de","er04rt18","null","","","","learningBlock1","","","","<div style=""font-size:60px;""> </div>","null","FL","learning/Slide12.JPG","That was a dep.","",""
"","image-keyboard-response","43","155232","0.0-6.0-0.12","FL","s48cjlol2y","1440","900","de","er04rt18","null","","","","","","","","learning/Slide13.JPG","null","","","","",""
"","html-keyboard-response","44","156392","0.0-6.0-1.12","FL","s48cjlol2y","1440","900","de","er04rt18","null","","","","learningBlock1","","","","That was a bim.","null","","","","",""
"","html-keyboard-response","45","157396","0.0-6.0-2.12","FL","s48cjlol2y","1440","900","de","er04rt18","null","","","","learningBlock1","","","","<div style=""font-size:60px;""> </div>","null","FL","learning/Slide13.JPG","That was a bim.","",""
"","image-keyboard-response","46","157577","0.0-6.0-0.13","FL","s48cjlol2y","1440","900","de","er04rt18","null","","","","","","","","learning/Slide14.JPG","null","","","","",""
"","html-keyboard-response","47","158738","0.0-6.0-1.13","FL","s48cjlol2y","1440","900","de","er04rt18","null","","","","learningBlock1","","","","That was a wug.","null","","","","",""
"","html-keyboard-response","48","159743","0.0-6.0-2.13","FL","s48cjlol2y","1440","900","de","er04rt18","null","","","","learningBlock1","","","","<div style=""font-size:60px;""> </div>","null","FL","learning/Slide14.JPG","That was a wug.","",""
"","image-keyboard-response","49","159919","0.0-6.0-0.14","FL","s48cjlol2y","1440","900","de","er04rt18","null","","","","","","","","learning/Slide15.JPG","null","","","","",""
"","html-keyboard-response","50","161076","0.0-6.0-1.14","FL","s48cjlol2y","1440","900","de","er04rt18","null","","","","learningBlock1","","","","That was a tob.","null","","","","",""
"","html-keyboard-response","51","162079","0.0-6.0-2.14","FL","s48cjlol2y","1440","900","de","er04rt18","null","","","","learningBlock1","","","","<div style=""font-size:60px;""> </div>","null","FL","learning/Slide15.JPG","That was a tob.","",""
"","image-keyboard-response","52","162261","0.0-6.0-0.15","FL","s48cjlol2y","1440","900","de","er04rt18","null","","","","","","","","learning/Slide16.JPG","null","","","","",""
"","html-keyboard-response","53","163417","0.0-6.0-1.15","FL","s48cjlol2y","1440","900","de","er04rt18","null","","","","learningBlock1","","","","That was a dep.","null","","","","",""
"","html-keyboard-response","54","164420","0.0-6.0-2.15","FL","s48cjlol2y","1440","900","de","er04rt18","null","","","","learningBlock1","","","","<div style=""font-size:60px;""> </div>","null","FL","learning/Slide16.JPG","That was a dep.","",""
"","image-keyboard-response","55","164597","0.0-6.0-0.16","FL","s48cjlol2y","1440","900","de","er04rt18","null","","","","","","","","learning/Slide17.JPG","null","","","","",""
"","html-keyboard-response","56","165753","0.0-6.0-1.16","FL","s48cjlol2y","1440","900","de","er04rt18","null","","","","learningBlock1","","","","That was a bim.","null","","","","",""
"","html-keyboard-response","57","166757","0.0-6.0-2.16","FL","s48cjlol2y","1440","900","de","er04rt18","null","","","","learningBlock1","","","","<div style=""font-size:60px;""> </div>","null","FL","learning/Slide17.JPG","That was a bim.","",""
"","image-keyboard-response","58","166935","0.0-6.0-0.17","FL","s48cjlol2y","1440","900","de","er04rt18","null","","","","","","","","learning/Slide18.JPG","null","","","","",""
"","html-keyboard-response","59","168092","0.0-6.0-1.17","FL","s48cjlol2y","1440","900","de","er04rt18","null","","","","learningBlock1","","","","That was a tob.","null","","","","",""
"","html-keyboard-response","60","169096","0.0-6.0-2.17","FL","s48cjlol2y","1440","900","de","er04rt18","null","","","","learningBlock1","","","","<div style=""font-size:60px;""> </div>","null","FL","learning/Slide18.JPG","That was a tob.","",""
"","image-keyboard-response","61","169276","0.0-6.0-0.18","FL","s48cjlol2y","1440","900","de","er04rt18","null","","","","","","","","learning/Slide19.JPG","null","","","","",""
"","html-keyboard-response","62","170430","0.0-6.0-1.18","FL","s48cjlol2y","1440","900","de","er04rt18","null","","","","learningBlock1","","","","That was a wug.","null","","","","",""
"","html-keyboard-response","63","171433","0.0-6.0-2.18","FL","s48cjlol2y","1440","900","de","er04rt18","null","","","","learningBlock1","","","","<div style=""font-size:60px;""> </div>","null","FL","learning/Slide19.JPG","That was a wug.","",""
"","image-keyboard-response","64","171610","0.0-6.0-0.19","FL","s48cjlol2y","1440","900","de","er04rt18","null","","","","","","","","learning/Slide20.JPG","null","","","","",""
"","html-keyboard-response","65","172766","0.0-6.0-1.19","FL","s48cjlol2y","1440","900","de","er04rt18","null","","","","learningBlock1","","","","That was a bim.","null","","","","",""
"","html-keyboard-response","66","173770","0.0-6.0-2.19","FL","s48cjlol2y","1440","900","de","er04rt18","null","","","","learningBlock1","","","","<div style=""font-size:60px;""> </div>","null","FL","learning/Slide20.JPG","That was a bim.","",""
"","image-keyboard-response","67","173951","0.0-6.0-0.20","FL","s48cjlol2y","1440","900","de","er04rt18","null","","","","","","","","learning/Slide21.JPG","null","","","","",""
"","html-keyboard-response","68","175108","0.0-6.0-1.20","FL","s48cjlol2y","1440","900","de","er04rt18","null","","","","learningBlock1","","","","That was a dep.","null","","","","",""
"","html-keyboard-response","69","176111","0.0-6.0-2.20","FL","s48cjlol2y","1440","900","de","er04rt18","null","","","","learningBlock1","","","","<div style=""font-size:60px;""> </div>","null","FL","learning/Slide21.JPG","That was a dep.","",""
"","image-keyboard-response","70","176293","0.0-6.0-0.21","FL","s48cjlol2y","1440","900","de","er04rt18","null","","","","","","","","learning/Slide22.JPG","null","","","","",""
"","html-keyboard-response","71","177447","0.0-6.0-1.21","FL","s48cjlol2y","1440","900","de","er04rt18","null","","","","learningBlock1","","","","That was a bim.","null","","","","",""
"","html-keyboard-response","72","178451","0.0-6.0-2.21","FL","s48cjlol2y","1440","900","de","er04rt18","null","","","","learningBlock1","","","","<div style=""font-size:60px;""> </div>","null","FL","learning/Slide22.JPG","That was a bim.","",""
"","image-keyboard-response","73","178633","0.0-6.0-0.22","FL","s48cjlol2y","1440","900","de","er04rt18","null","","","","","","","","learning/Slide23.JPG","null","","","","",""
"","html-keyboard-response","74","179789","0.0-6.0-1.22","FL","s48cjlol2y","1440","900","de","er04rt18","null","","","","learningBlock1","","","","That was a tob.","null","","","","",""
"","html-keyboard-response","75","180790","0.0-6.0-2.22","FL","s48cjlol2y","1440","900","de","er04rt18","null","","","","learningBlock1","","","","<div style=""font-size:60px;""> </div>","null","FL","learning/Slide23.JPG","That was a tob.","",""
"","image-keyboard-response","76","180971","0.0-6.0-0.23","FL","s48cjlol2y","1440","900","de","er04rt18","null","","","","","","","","learning/Slide24.JPG","null","","","","",""
"","html-keyboard-response","77","182132","0.0-6.0-1.23","FL","s48cjlol2y","1440","900","de","er04rt18","null","","","","learningBlock1","","","","That was a wug.","null","","","","",""
"","html-keyboard-response","78","183137","0.0-6.0-2.23","FL","s48cjlol2y","1440","900","de","er04rt18","null","","","","learningBlock1","","","","<div style=""font-size:60px;""> </div>","null","FL","learning/Slide24.JPG","That was a wug.","",""
"","image-keyboard-response","79","183316","0.0-6.0-0.24","FL","s48cjlol2y","1440","900","de","er04rt18","null","","","","","","","","learning/Slide25.JPG","null","","","","",""
"","html-keyboard-response","80","184477","0.0-6.0-1.24","FL","s48cjlol2y","1440","900","de","er04rt18","null","","","","learningBlock1","","","","That was a dep.","null","","","","",""
"","html-keyboard-response","81","185482","0.0-6.0-2.24","FL","s48cjlol2y","1440","900","de","er04rt18","null","","","","learningBlock1","","","","<div style=""font-size:60px;""> </div>","null","FL","learning/Slide25.JPG","That was a dep.","",""
"","image-keyboard-response","82","185661","0.0-6.0-0.25","FL","s48cjlol2y","1440","900","de","er04rt18","null","","","","","","","","learning/Slide26.JPG","null","","","","",""
"","html-keyboard-response","83","186819","0.0-6.0-1.25","FL","s48cjlol2y","1440","900","de","er04rt18","null","","","","learningBlock1","","","","That was a wug.","null","","","","",""
"","html-keyboard-response","84","187825","0.0-6.0-2.25","FL","s48cjlol2y","1440","900","de","er04rt18","null","","","","learningBlock1","","","","<div style=""font-size:60px;""> </div>","null","FL","learning/Slide26.JPG","That was a wug.","",""
"","image-keyboard-response","85","188006","0.0-6.0-0.26","FL","s48cjlol2y","1440","900","de","er04rt18","null","","","","","","","","learning/Slide27.JPG","null","","","","",""
"","html-keyboard-response","86","189162","0.0-6.0-1.26","FL","s48cjlol2y","1440","900","de","er04rt18","null","","","","learningBlock1","","","","That was a bim.","null","","","","",""
"","html-keyboard-response","87","190166","0.0-6.0-2.26","FL","s48cjlol2y","1440","900","de","er04rt18","null","","","","learningBlock1","","","","<div style=""font-size:60px;""> </div>","null","FL","learning/Slide27.JPG","That was a bim.","",""
"","image-keyboard-response","88","190347","0.0-6.0-0.27","FL","s48cjlol2y","1440","900","de","er04rt18","null","","","","","","","","learning/Slide28.JPG","null","","","","",""
"","html-keyboard-response","89","191507","0.0-6.0-1.27","FL","s48cjlol2y","1440","900","de","er04rt18","null","","","","learningBlock1","","","","That was a dep.","null","","","","",""
"","html-keyboard-response","90","192511","0.0-6.0-2.27","FL","s48cjlol2y","1440","900","de","er04rt18","null","","","","learningBlock1","","","","<div style=""font-size:60px;""> </div>","null","FL","learning/Slide28.JPG","That was a dep.","",""
"","image-keyboard-response","91","192692","0.0-6.0-0.28","FL","s48cjlol2y","1440","900","de","er04rt18","null","","","","","","","","learning/Slide29.JPG","null","","","","",""
"","html-keyboard-response","92","193851","0.0-6.0-1.28","FL","s48cjlol2y","1440","900","de","er04rt18","null","","","","learningBlock1","","","","That was a tob.","null","","","","",""
"","html-keyboard-response","93","194855","0.0-6.0-2.28","FL","s48cjlol2y","1440","900","de","er04rt18","null","","","","learningBlock1","","","","<div style=""font-size:60px;""> </div>","null","FL","learning/Slide29.JPG","That was a tob.","",""
"","image-keyboard-response","94","195034","0.0-6.0-0.29","FL","s48cjlol2y","1440","900","de","er04rt18","null","","","","","","","","learning/Slide30.JPG","null","","","","",""
"","html-keyboard-response","95","196189","0.0-6.0-1.29","FL","s48cjlol2y","1440","900","de","er04rt18","null","","","","learningBlock1","","","","That was a dep.","null","","","","",""
"","html-keyboard-response","96","197193","0.0-6.0-2.29","FL","s48cjlol2y","1440","900","de","er04rt18","null","","","","learningBlock1","","","","<div style=""font-size:60px;""> </div>","null","FL","learning/Slide30.JPG","That was a dep.","",""
"","image-keyboard-response","97","197371","0.0-6.0-0.30","FL","s48cjlol2y","1440","900","de","er04rt18","null","","","","","","","","learning/Slide31.JPG","null","","","","",""
"","html-keyboard-response","98","198531","0.0-6.0-1.30","FL","s48cjlol2y","1440","900","de","er04rt18","null","","","","learningBlock1","","","","That was a wug.","null","","","","",""
"","html-keyboard-response","99","199535","0.0-6.0-2.30","FL","s48cjlol2y","1440","900","de","er04rt18","null","","","","learningBlock1","","","","<div style=""font-size:60px;""> </div>","null","FL","learning/Slide31.JPG","That was a wug.","",""
"","image-keyboard-response","100","199717","0.0-6.0-0.31","FL","s48cjlol2y","1440","900","de","er04rt18","null","","","","","","","","learning/Slide32.JPG","null","","","","",""
"","html-keyboard-response","101","200874","0.0-6.0-1.31","FL","s48cjlol2y","1440","900","de","er04rt18","null","","","","learningBlock1","","","","That was a tob.","null","","","","",""
"","html-keyboard-response","102","201878","0.0-6.0-2.31","FL","s48cjlol2y","1440","900","de","er04rt18","null","","","","learningBlock1","","","","<div style=""font-size:60px;""> </div>","null","FL","learning/Slide32.JPG","That was a tob.","",""
"","image-keyboard-response","103","202059","0.0-6.0-0.32","FL","s48cjlol2y","1440","900","de","er04rt18","null","","","","","","","","learning/Slide33.JPG","null","","","","",""
"","html-keyboard-response","104","203220","0.0-6.0-1.32","FL","s48cjlol2y","1440","900","de","er04rt18","null","","","","learningBlock1","","","","That was a bim.","null","","","","",""
"","html-keyboard-response","105","204225","0.0-6.0-2.32","FL","s48cjlol2y","1440","900","de","er04rt18","null","","","","learningBlock1","","","","<div style=""font-size:60px;""> </div>","null","FL","learning/Slide33.JPG","That was a bim.","",""
"","image-keyboard-response","106","204405","0.0-6.0-0.33","FL","s48cjlol2y","1440","900","de","er04rt18","null","","","","","","","","learning/Slide34.JPG","null","","","","",""
"","html-keyboard-response","107","205561","0.0-6.0-1.33","FL","s48cjlol2y","1440","900","de","er04rt18","null","","","","learningBlock1","","","","That was a tob.","null","","","","",""
"","html-keyboard-response","108","206565","0.0-6.0-2.33","FL","s48cjlol2y","1440","900","de","er04rt18","null","","","","learningBlock1","","","","<div style=""font-size:60px;""> </div>","null","FL","learning/Slide34.JPG","That was a tob.","",""
"","image-keyboard-response","109","206741","0.0-6.0-0.34","FL","s48cjlol2y","1440","900","de","er04rt18","null","","","","","","","","learning/Slide35.JPG","null","","","","",""
"","html-keyboard-response","110","207899","0.0-6.0-1.34","FL","s48cjlol2y","1440","900","de","er04rt18","null","","","","learningBlock1","","","","That was a bim.","null","","","","",""
"","html-keyboard-response","111","208904","0.0-6.0-2.34","FL","s48cjlol2y","1440","900","de","er04rt18","null","","","","learningBlock1","","","","<div style=""font-size:60px;""> </div>","null","FL","learning/Slide35.JPG","That was a bim.","",""
"","image-keyboard-response","112","209085","0.0-6.0-0.35","FL","s48cjlol2y","1440","900","de","er04rt18","null","","","","","","","","learning/Slide36.JPG","null","","","","",""
"","html-keyboard-response","113","210245","0.0-6.0-1.35","FL","s48cjlol2y","1440","900","de","er04rt18","null","","","","learningBlock1","","","","That was a dep.","null","","","","",""
"","html-keyboard-response","114","211250","0.0-6.0-2.35","FL","s48cjlol2y","1440","900","de","er04rt18","null","","","","learningBlock1","","","","<div style=""font-size:60px;""> </div>","null","FL","learning/Slide36.JPG","That was a dep.","",""
"","image-keyboard-response","115","211428","0.0-6.0-0.36","FL","s48cjlol2y","1440","900","de","er04rt18","null","","","","","","","","learning/Slide37.JPG","null","","","","",""
"","html-keyboard-response","116","212584","0.0-6.0-1.36","FL","s48cjlol2y","1440","900","de","er04rt18","null","","","","learningBlock1","","","","That was a tob.","null","","","","",""
"","html-keyboard-response","117","213590","0.0-6.0-2.36","FL","s48cjlol2y","1440","900","de","er04rt18","null","","","","learningBlock1","","","","<div style=""font-size:60px;""> </div>","null","FL","learning/Slide37.JPG","That was a tob.","",""
"","image-keyboard-response","118","213771","0.0-6.0-0.37","FL","s48cjlol2y","1440","900","de","er04rt18","null","","","","","","","","learning/Slide38.JPG","null","","","","",""
"","html-keyboard-response","119","214928","0.0-6.0-1.37","FL","s48cjlol2y","1440","900","de","er04rt18","null","","","","learningBlock1","","","","That was a wug.","null","","","","",""
"","html-keyboard-response","120","215932","0.0-6.0-2.37","FL","s48cjlol2y","1440","900","de","er04rt18","null","","","","learningBlock1","","","","<div style=""font-size:60px;""> </div>","null","FL","learning/Slide38.JPG","That was a wug.","",""
"","image-keyboard-response","121","216113","0.0-6.0-0.38","FL","s48cjlol2y","1440","900","de","er04rt18","null","","","","","","","","learning/Slide39.JPG","null","","","","",""
"","html-keyboard-response","122","217272","0.0-6.0-1.38","FL","s48cjlol2y","1440","900","de","er04rt18","null","","","","learningBlock1","","","","That was a bim.","null","","","","",""
"","html-keyboard-response","123","218277","0.0-6.0-2.38","FL","s48cjlol2y","1440","900","de","er04rt18","null","","","","learningBlock1","","","","<div style=""font-size:60px;""> </div>","null","FL","learning/Slide39.JPG","That was a bim.","",""
"","image-keyboard-response","124","218458","0.0-6.0-0.39","FL","s48cjlol2y","1440","900","de","er04rt18","null","","","","","","","","learning/Slide40.JPG","null","","","","",""
"","html-keyboard-response","125","219615","0.0-6.0-1.39","FL","s48cjlol2y","1440","900","de","er04rt18","null","","","","learningBlock1","","","","That was a tob.","null","","","","",""
"","html-keyboard-response","126","220618","0.0-6.0-2.39","FL","s48cjlol2y","1440","900","de","er04rt18","null","","","","learningBlock1","","","","<div style=""font-size:60px;""> </div>","null","FL","learning/Slide40.JPG","That was a tob.","",""
"","image-keyboard-response","127","220800","0.0-6.0-0.40","FL","s48cjlol2y","1440","900","de","er04rt18","null","","","","","","","","learning/Slide41.JPG","null","","","","",""
"","html-keyboard-response","128","221961","0.0-6.0-1.40","FL","s48cjlol2y","1440","900","de","er04rt18","null","","","","learningBlock1","","","","That was a bim.","null","","","","",""
"","html-keyboard-response","129","222964","0.0-6.0-2.40","FL","s48cjlol2y","1440","900","de","er04rt18","null","","","","learningBlock1","","","","<div style=""font-size:60px;""> </div>","null","FL","learning/Slide41.JPG","That was a bim.","",""
"","image-keyboard-response","130","223144","0.0-6.0-0.41","FL","s48cjlol2y","1440","900","de","er04rt18","null","","","","","","","","learning/Slide42.JPG","null","","","","",""
"","html-keyboard-response","131","224300","0.0-6.0-1.41","FL","s48cjlol2y","1440","900","de","er04rt18","null","","","","learningBlock1","","","","That was a dep.","null","","","","",""
"","html-keyboard-response","132","225304","0.0-6.0-2.41","FL","s48cjlol2y","1440","900","de","er04rt18","null","","","","learningBlock1","","","","<div style=""font-size:60px;""> </div>","null","FL","learning/Slide42.JPG","That was a dep.","",""
"","image-keyboard-response","133","225483","0.0-6.0-0.42","FL","s48cjlol2y","1440","900","de","er04rt18","null","","","","","","","","learning/Slide43.JPG","null","","","","",""
"","html-keyboard-response","134","226641","0.0-6.0-1.42","FL","s48cjlol2y","1440","900","de","er04rt18","null","","","","learningBlock1","","","","That was a wug.","null","","","","",""
"","html-keyboard-response","135","227643","0.0-6.0-2.42","FL","s48cjlol2y","1440","900","de","er04rt18","null","","","","learningBlock1","","","","<div style=""font-size:60px;""> </div>","null","FL","learning/Slide43.JPG","That was a wug.","",""
"","image-keyboard-response","136","227819","0.0-6.0-0.43","FL","s48cjlol2y","1440","900","de","er04rt18","null","","","","","","","","learning/Slide44.JPG","null","","","","",""
"","html-keyboard-response","137","228976","0.0-6.0-1.43","FL","s48cjlol2y","1440","900","de","er04rt18","null","","","","learningBlock1","","","","That was a bim.","null","","","","",""
"","html-keyboard-response","138","229980","0.0-6.0-2.43","FL","s48cjlol2y","1440","900","de","er04rt18","null","","","","learningBlock1","","","","<div style=""font-size:60px;""> </div>","null","FL","learning/Slide44.JPG","That was a bim.","",""
"","image-keyboard-response","139","230160","0.0-6.0-0.44","FL","s48cjlol2y","1440","900","de","er04rt18","null","","","","","","","","learning/Slide45.JPG","null","","","","",""
"","html-keyboard-response","140","231322","0.0-6.0-1.44","FL","s48cjlol2y","1440","900","de","er04rt18","null","","","","learningBlock1","","","","That was a wug.","null","","","","",""
"","html-keyboard-response","141","232326","0.0-6.0-2.44","FL","s48cjlol2y","1440","900","de","er04rt18","null","","","","learningBlock1","","","","<div style=""font-size:60px;""> </div>","null","FL","learning/Slide45.JPG","That was a wug.","",""
"","image-keyboard-response","142","232507","0.0-6.0-0.45","FL","s48cjlol2y","1440","900","de","er04rt18","null","","","","","","","","learning/Slide46.JPG","null","","","","",""
"","html-keyboard-response","143","233665","0.0-6.0-1.45","FL","s48cjlol2y","1440","900","de","er04rt18","null","","","","learningBlock1","","","","That was a dep.","null","","","","",""
"","html-keyboard-response","144","234669","0.0-6.0-2.45","FL","s48cjlol2y","1440","900","de","er04rt18","null","","","","learningBlock1","","","","<div style=""font-size:60px;""> </div>","null","FL","learning/Slide46.JPG","That was a dep.","",""
"","image-keyboard-response","145","234851","0.0-6.0-0.46","FL","s48cjlol2y","1440","900","de","er04rt18","null","","","","","","","","learning/Slide47.JPG","null","","","","",""
"","html-keyboard-response","146","236007","0.0-6.0-1.46","FL","s48cjlol2y","1440","900","de","er04rt18","null","","","","learningBlock1","","","","That was a tob.","null","","","","",""
"","html-keyboard-response","147","237009","0.0-6.0-2.46","FL","s48cjlol2y","1440","900","de","er04rt18","null","","","","learningBlock1","","","","<div style=""font-size:60px;""> </div>","null","FL","learning/Slide47.JPG","That was a tob.","",""
"","image-keyboard-response","148","237185","0.0-6.0-0.47","FL","s48cjlol2y","1440","900","de","er04rt18","null","","","","","","","","learning/Slide48.JPG","null","","","","",""
"","html-keyboard-response","149","238346","0.0-6.0-1.47","FL","s48cjlol2y","1440","900","de","er04rt18","null","","","","learningBlock1","","","","That was a bim.","null","","","","",""
"","html-keyboard-response","150","239350","0.0-6.0-2.47","FL","s48cjlol2y","1440","900","de","er04rt18","null","","","","learningBlock1","","","","<div style=""font-size:60px;""> </div>","null","FL","learning/Slide48.JPG","That was a bim.","",""
"","image-keyboard-response","151","239532","0.0-6.0-0.48","FL","s48cjlol2y","1440","900","de","er04rt18","null","","","","","","","","learning/Slide49.JPG","null","","","","",""
"","html-keyboard-response","152","240689","0.0-6.0-1.48","FL","s48cjlol2y","1440","900","de","er04rt18","null","","","","learningBlock1","","","","That was a dep.","null","","","","",""
"","html-keyboard-response","153","241692","0.0-6.0-2.48","FL","s48cjlol2y","1440","900","de","er04rt18","null","","","","learningBlock1","","","","<div style=""font-size:60px;""> </div>","null","FL","learning/Slide49.JPG","That was a dep.","",""
"","image-keyboard-response","154","241869","0.0-6.0-0.49","FL","s48cjlol2y","1440","900","de","er04rt18","null","","","","","","","","learning/Slide50.JPG","null","","","","",""
"","html-keyboard-response","155","243026","0.0-6.0-1.49","FL","s48cjlol2y","1440","900","de","er04rt18","null","","","","learningBlock1","","","","That was a tob.","null","","","","",""
"","html-keyboard-response","156","244030","0.0-6.0-2.49","FL","s48cjlol2y","1440","900","de","er04rt18","null","","","","learningBlock1","","","","<div style=""font-size:60px;""> </div>","null","FL","learning/Slide50.JPG","That was a tob.","",""
"","image-keyboard-response","157","244211","0.0-6.0-0.50","FL","s48cjlol2y","1440","900","de","er04rt18","null","","","","","","","","learning/Slide51.JPG","null","","","","",""
"","html-keyboard-response","158","245372","0.0-6.0-1.50","FL","s48cjlol2y","1440","900","de","er04rt18","null","","","","learningBlock1","","","","That was a bim.","null","","","","",""
"","html-keyboard-response","159","246375","0.0-6.0-2.50","FL","s48cjlol2y","1440","900","de","er04rt18","null","","","","learningBlock1","","","","<div style=""font-size:60px;""> </div>","null","FL","learning/Slide51.JPG","That was a bim.","",""
"","image-keyboard-response","160","246556","0.0-6.0-0.51","FL","s48cjlol2y","1440","900","de","er04rt18","null","","","","","","","","learning/Slide52.JPG","null","","","","",""
"","html-keyboard-response","161","247708","0.0-6.0-1.51","FL","s48cjlol2y","1440","900","de","er04rt18","null","","","","learningBlock1","","","","That was a wug.","null","","","","",""
"","html-keyboard-response","162","248713","0.0-6.0-2.51","FL","s48cjlol2y","1440","900","de","er04rt18","null","","","","learningBlock1","","","","<div style=""font-size:60px;""> </div>","null","FL","learning/Slide52.JPG","That was a wug.","",""
"","image-keyboard-response","163","248893","0.0-6.0-0.52","FL","s48cjlol2y","1440","900","de","er04rt18","null","","","","","","","","learning/Slide53.JPG","null","","","","",""
"","html-keyboard-response","164","250052","0.0-6.0-1.52","FL","s48cjlol2y","1440","900","de","er04rt18","null","","","","learningBlock1","","","","That was a tob.","null","","","","",""
"","html-keyboard-response","165","251056","0.0-6.0-2.52","FL","s48cjlol2y","1440","900","de","er04rt18","null","","","","learningBlock1","","","","<div style=""font-size:60px;""> </div>","null","FL","learning/Slide53.JPG","That was a tob.","",""
"","image-keyboard-response","166","251233","0.0-6.0-0.53","FL","s48cjlol2y","1440","900","de","er04rt18","null","","","","","","","","learning/Slide54.JPG","null","","","","",""
"","html-keyboard-response","167","252386","0.0-6.0-1.53","FL","s48cjlol2y","1440","900","de","er04rt18","null","","","","learningBlock1","","","","That was a dep.","null","","","","",""
"","html-keyboard-response","168","253390","0.0-6.0-2.53","FL","s48cjlol2y","1440","900","de","er04rt18","null","","","","learningBlock1","","","","<div style=""font-size:60px;""> </div>","null","FL","learning/Slide54.JPG","That was a dep.","",""
"","image-keyboard-response","169","253571","0.0-6.0-0.54","FL","s48cjlol2y","1440","900","de","er04rt18","null","","","","","","","","learning/Slide55.JPG","null","","","","",""
"","html-keyboard-response","170","254726","0.0-6.0-1.54","FL","s48cjlol2y","1440","900","de","er04rt18","null","","","","learningBlock1","","","","That was a bim.","null","","","","",""
"","html-keyboard-response","171","255730","0.0-6.0-2.54","FL","s48cjlol2y","1440","900","de","er04rt18","null","","","","learningBlock1","","","","<div style=""font-size:60px;""> </div>","null","FL","learning/Slide55.JPG","That was a bim.","",""
"","image-keyboard-response","172","255909","0.0-6.0-0.55","FL","s48cjlol2y","1440","900","de","er04rt18","null","","","","","","","","learning/Slide56.JPG","null","","","","",""
"","html-keyboard-response","173","257065","0.0-6.0-1.55","FL","s48cjlol2y","1440","900","de","er04rt18","null","","","","learningBlock1","","","","That was a tob.","null","","","","",""
"","html-keyboard-response","174","258069","0.0-6.0-2.55","FL","s48cjlol2y","1440","900","de","er04rt18","null","","","","learningBlock1","","","","<div style=""font-size:60px;""> </div>","null","FL","learning/Slide56.JPG","That was a tob.","",""
"","image-keyboard-response","175","258247","0.0-6.0-0.56","FL","s48cjlol2y","1440","900","de","er04rt18","null","","","","","","","","learning/Slide57.JPG","null","","","","",""
"","html-keyboard-response","176","259403","0.0-6.0-1.56","FL","s48cjlol2y","1440","900","de","er04rt18","null","","","","learningBlock1","","","","That was a dep.","null","","","","",""
"","html-keyboard-response","177","260406","0.0-6.0-2.56","FL","s48cjlol2y","1440","900","de","er04rt18","null","","","","learningBlock1","","","","<div style=""font-size:60px;""> </div>","null","FL","learning/Slide57.JPG","That was a dep.","",""
"","image-keyboard-response","178","260587","0.0-6.0-0.57","FL","s48cjlol2y","1440","900","de","er04rt18","null","","","","","","","","learning/Slide58.JPG","null","","","","",""
"","html-keyboard-response","179","261740","0.0-6.0-1.57","FL","s48cjlol2y","1440","900","de","er04rt18","null","","","","learningBlock1","","","","That was a wug.","null","","","","",""
"","html-keyboard-response","180","262744","0.0-6.0-2.57","FL","s48cjlol2y","1440","900","de","er04rt18","null","","","","learningBlock1","","","","<div style=""font-size:60px;""> </div>","null","FL","learning/Slide58.JPG","That was a wug.","",""
"","image-keyboard-response","181","262925","0.0-6.0-0.58","FL","s48cjlol2y","1440","900","de","er04rt18","null","","","","","","","","learning/Slide59.JPG","null","","","","",""
"","html-keyboard-response","182","264086","0.0-6.0-1.58","FL","s48cjlol2y","1440","900","de","er04rt18","null","","","","learningBlock1","","","","That was a dep.","null","","","","",""
"","html-keyboard-response","183","265090","0.0-6.0-2.58","FL","s48cjlol2y","1440","900","de","er04rt18","null","","","","learningBlock1","","","","<div style=""font-size:60px;""> </div>","null","FL","learning/Slide59.JPG","That was a dep.","",""
"","image-keyboard-response","184","265271","0.0-6.0-0.59","FL","s48cjlol2y","1440","900","de","er04rt18","null","","","","","","","","learning/Slide60.JPG","null","","","","",""
"","html-keyboard-response","185","266432","0.0-6.0-1.59","FL","s48cjlol2y","1440","900","de","er04rt18","null","","","","learningBlock1","","","","That was a wug.","null","","","","",""
"","html-keyboard-response","186","267437","0.0-6.0-2.59","FL","s48cjlol2y","1440","900","de","er04rt18","null","","","","learningBlock1","","","","<div style=""font-size:60px;""> </div>","null","FL","learning/Slide60.JPG","That was a wug.","",""
"","image-keyboard-response","187","267618","0.0-6.0-0.60","FL","s48cjlol2y","1440","900","de","er04rt18","null","","","","","","","","learning/Slide61.JPG","null","","","","",""
"","html-keyboard-response","188","268776","0.0-6.0-1.60","FL","s48cjlol2y","1440","900","de","er04rt18","null","","","","learningBlock1","","","","That was a bim.","null","","","","",""
"","html-keyboard-response","189","269780","0.0-6.0-2.60","FL","s48cjlol2y","1440","900","de","er04rt18","null","","","","learningBlock1","","","","<div style=""font-size:60px;""> </div>","null","FL","learning/Slide61.JPG","That was a bim.","",""
"","image-keyboard-response","190","269958","0.0-6.0-0.61","FL","s48cjlol2y","1440","900","de","er04rt18","null","","","","","","","","learning/Slide62.JPG","null","","","","",""
"","html-keyboard-response","191","271119","0.0-6.0-1.61","FL","s48cjlol2y","1440","900","de","er04rt18","null","","","","learningBlock1","","","","That was a dep.","null","","","","",""
"","html-keyboard-response","192","272123","0.0-6.0-2.61","FL","s48cjlol2y","1440","900","de","er04rt18","null","","","","learningBlock1","","","","<div style=""font-size:60px;""> </div>","null","FL","learning/Slide62.JPG","That was a dep.","",""
"","image-keyboard-response","193","272302","0.0-6.0-0.62","FL","s48cjlol2y","1440","900","de","er04rt18","null","","","","","","","","learning/Slide63.JPG","null","","","","",""
"","html-keyboard-response","194","273460","0.0-6.0-1.62","FL","s48cjlol2y","1440","900","de","er04rt18","null","","","","learningBlock1","","","","That was a bim.","null","","","","",""
"","html-keyboard-response","195","274464","0.0-6.0-2.62","FL","s48cjlol2y","1440","900","de","er04rt18","null","","","","learningBlock1","","","","<div style=""font-size:60px;""> </div>","null","FL","learning/Slide63.JPG","That was a bim.","",""
"","image-keyboard-response","196","274645","0.0-6.0-0.63","FL","s48cjlol2y","1440","900","de","er04rt18","null","","","","","","","","learning/Slide64.JPG","null","","","","",""
"","html-keyboard-response","197","275807","0.0-6.0-1.63","FL","s48cjlol2y","1440","900","de","er04rt18","null","","","","learningBlock1","","","","That was a tob.","null","","","","",""
"","html-keyboard-response","198","276812","0.0-6.0-2.63","FL","s48cjlol2y","1440","900","de","er04rt18","null","","","","learningBlock1","","","","<div style=""font-size:60px;""> </div>","null","FL","learning/Slide64.JPG","That was a tob.","",""
"","image-keyboard-response","199","276990","0.0-6.0-0.64","FL","s48cjlol2y","1440","900","de","er04rt18","null","","","","","","","","learning/Slide65.JPG","null","","","","",""
"","html-keyboard-response","200","278151","0.0-6.0-1.64","FL","s48cjlol2y","1440","900","de","er04rt18","null","","","","learningBlock1","","","","That was a wug.","null","","","","",""
"","html-keyboard-response","201","279155","0.0-6.0-2.64","FL","s48cjlol2y","1440","900","de","er04rt18","null","","","","learningBlock1","","","","<div style=""font-size:60px;""> </div>","null","FL","learning/Slide65.JPG","That was a wug.","",""
"","image-keyboard-response","202","279332","0.0-6.0-0.65","FL","s48cjlol2y","1440","900","de","er04rt18","null","","","","","","","","learning/Slide66.JPG","null","","","","",""
"","html-keyboard-response","203","280492","0.0-6.0-1.65","FL","s48cjlol2y","1440","900","de","er04rt18","null","","","","learningBlock1","","","","That was a dep.","null","","","","",""
"","html-keyboard-response","204","281497","0.0-6.0-2.65","FL","s48cjlol2y","1440","900","de","er04rt18","null","","","","learningBlock1","","","","<div style=""font-size:60px;""> </div>","null","FL","learning/Slide66.JPG","That was a dep.","",""
"","image-keyboard-response","205","281678","0.0-6.0-0.66","FL","s48cjlol2y","1440","900","de","er04rt18","null","","","","","","","","learning/Slide67.JPG","null","","","","",""
"","html-keyboard-response","206","282837","0.0-6.0-1.66","FL","s48cjlol2y","1440","900","de","er04rt18","null","","","","learningBlock1","","","","That was a tob.","null","","","","",""
"","html-keyboard-response","207","283841","0.0-6.0-2.66","FL","s48cjlol2y","1440","900","de","er04rt18","null","","","","learningBlock1","","","","<div style=""font-size:60px;""> </div>","null","FL","learning/Slide67.JPG","That was a tob.","",""
"","image-keyboard-response","208","284022","0.0-6.0-0.67","FL","s48cjlol2y","1440","900","de","er04rt18","null","","","","","","","","learning/Slide68.JPG","null","","","","",""
"","html-keyboard-response","209","285184","0.0-6.0-1.67","FL","s48cjlol2y","1440","900","de","er04rt18","null","","","","learningBlock1","","","","That was a wug.","null","","","","",""
"","html-keyboard-response","210","286188","0.0-6.0-2.67","FL","s48cjlol2y","1440","900","de","er04rt18","null","","","","learningBlock1","","","","<div style=""font-size:60px;""> </div>","null","FL","learning/Slide68.JPG","That was a wug.","",""
"","image-keyboard-response","211","286369","0.0-6.0-0.68","FL","s48cjlol2y","1440","900","de","er04rt18","null","","","","","","","","learning/Slide69.JPG","null","","","","",""
"","html-keyboard-response","212","287526","0.0-6.0-1.68","FL","s48cjlol2y","1440","900","de","er04rt18","null","","","","learningBlock1","","","","That was a tob.","null","","","","",""
"","html-keyboard-response","213","288529","0.0-6.0-2.68","FL","s48cjlol2y","1440","900","de","er04rt18","null","","","","learningBlock1","","","","<div style=""font-size:60px;""> </div>","null","FL","learning/Slide69.JPG","That was a tob.","",""
"","image-keyboard-response","214","288708","0.0-6.0-0.69","FL","s48cjlol2y","1440","900","de","er04rt18","null","","","","","","","","learning/Slide70.JPG","null","","","","",""
"","html-keyboard-response","215","289869","0.0-6.0-1.69","FL","s48cjlol2y","1440","900","de","er04rt18","null","","","","learningBlock1","","","","That was a dep.","null","","","","",""
"","html-keyboard-response","216","290873","0.0-6.0-2.69","FL","s48cjlol2y","1440","900","de","er04rt18","null","","","","learningBlock1","","","","<div style=""font-size:60px;""> </div>","null","FL","learning/Slide70.JPG","That was a dep.","",""
"","image-keyboard-response","217","291055","0.0-6.0-0.70","FL","s48cjlol2y","1440","900","de","er04rt18","null","","","","","","","","learning/Slide71.JPG","null","","","","",""
"","html-keyboard-response","218","292215","0.0-6.0-1.70","FL","s48cjlol2y","1440","900","de","er04rt18","null","","","","learningBlock1","","","","That was a wug.","null","","","","",""
"","html-keyboard-response","219","293219","0.0-6.0-2.70","FL","s48cjlol2y","1440","900","de","er04rt18","null","","","","learningBlock1","","","","<div style=""font-size:60px;""> </div>","null","FL","learning/Slide71.JPG","That was a wug.","",""
"","image-keyboard-response","220","293401","0.0-6.0-0.71","FL","s48cjlol2y","1440","900","de","er04rt18","null","","","","","","","","learning/Slide72.JPG","null","","","","",""
"","html-keyboard-response","221","294561","0.0-6.0-1.71","FL","s48cjlol2y","1440","900","de","er04rt18","null","","","","learningBlock1","","","","That was a bim.","null","","","","",""
"","html-keyboard-response","222","295565","0.0-6.0-2.71","FL","s48cjlol2y","1440","900","de","er04rt18","null","","","","learningBlock1","","","","<div style=""font-size:60px;""> </div>","null","FL","learning/Slide72.JPG","That was a bim.","",""
"","image-keyboard-response","223","295746","0.0-6.0-0.72","FL","s48cjlol2y","1440","900","de","er04rt18","null","","","","","","","","learning/Slide73.JPG","null","","","","",""
"","html-keyboard-response","224","296904","0.0-6.0-1.72","FL","s48cjlol2y","1440","900","de","er04rt18","null","","","","learningBlock1","","","","That was a wug.","null","","","","",""
"","html-keyboard-response","225","297908","0.0-6.0-2.72","FL","s48cjlol2y","1440","900","de","er04rt18","null","","","","learningBlock1","","","","<div style=""font-size:60px;""> </div>","null","FL","learning/Slide73.JPG","That was a wug.","",""
"","image-keyboard-response","226","298089","0.0-6.0-0.73","FL","s48cjlol2y","1440","900","de","er04rt18","null","","","","","","","","learning/Slide74.JPG","null","","","","",""
"","html-keyboard-response","227","299242","0.0-6.0-1.73","FL","s48cjlol2y","1440","900","de","er04rt18","null","","","","learningBlock1","","","","That was a dep.","null","","","","",""
"","html-keyboard-response","228","300246","0.0-6.0-2.73","FL","s48cjlol2y","1440","900","de","er04rt18","null","","","","learningBlock1","","","","<div style=""font-size:60px;""> </div>","null","FL","learning/Slide74.JPG","That was a dep.","",""
"","image-keyboard-response","229","300427","0.0-6.0-0.74","FL","s48cjlol2y","1440","900","de","er04rt18","null","","","","","","","","learning/Slide75.JPG","null","","","","",""
"","html-keyboard-response","230","301578","0.0-6.0-1.74","FL","s48cjlol2y","1440","900","de","er04rt18","null","","","","learningBlock1","","","","That was a tob.","null","","","","",""
"","html-keyboard-response","231","302583","0.0-6.0-2.74","FL","s48cjlol2y","1440","900","de","er04rt18","null","","","","learningBlock1","","","","<div style=""font-size:60px;""> </div>","null","FL","learning/Slide75.JPG","That was a tob.","",""
"","image-keyboard-response","232","302762","0.0-6.0-0.75","FL","s48cjlol2y","1440","900","de","er04rt18","null","","","","","","","","learning/Slide76.JPG","null","","","","",""
"","html-keyboard-response","233","303923","0.0-6.0-1.75","FL","s48cjlol2y","1440","900","de","er04rt18","null","","","","learningBlock1","","","","That was a bim.","null","","","","",""
"","html-keyboard-response","234","304927","0.0-6.0-2.75","FL","s48cjlol2y","1440","900","de","er04rt18","null","","","","learningBlock1","","","","<div style=""font-size:60px;""> </div>","null","FL","learning/Slide76.JPG","That was a bim.","",""
"","image-keyboard-response","235","305105","0.0-6.0-0.76","FL","s48cjlol2y","1440","900","de","er04rt18","null","","","","","","","","learning/Slide77.JPG","null","","","","",""
"","html-keyboard-response","236","306263","0.0-6.0-1.76","FL","s48cjlol2y","1440","900","de","er04rt18","null","","","","learningBlock1","","","","That was a tob.","null","","","","",""
"","html-keyboard-response","237","307265","0.0-6.0-2.76","FL","s48cjlol2y","1440","900","de","er04rt18","null","","","","learningBlock1","","","","<div style=""font-size:60px;""> </div>","null","FL","learning/Slide77.JPG","That was a tob.","",""
"","image-keyboard-response","238","307444","0.0-6.0-0.77","FL","s48cjlol2y","1440","900","de","er04rt18","null","","","","","","","","learning/Slide78.JPG","null","","","","",""
"","html-keyboard-response","239","308601","0.0-6.0-1.77","FL","s48cjlol2y","1440","900","de","er04rt18","null","","","","learningBlock1","","","","That was a wug.","null","","","","",""
"","html-keyboard-response","240","309605","0.0-6.0-2.77","FL","s48cjlol2y","1440","900","de","er04rt18","null","","","","learningBlock1","","","","<div style=""font-size:60px;""> </div>","null","FL","learning/Slide78.JPG","That was a wug.","",""
"","image-keyboard-response","241","309786","0.0-6.0-0.78","FL","s48cjlol2y","1440","900","de","er04rt18","null","","","","","","","","learning/Slide79.JPG","null","","","","",""
"","html-keyboard-response","242","310938","0.0-6.0-1.78","FL","s48cjlol2y","1440","900","de","er04rt18","null","","","","learningBlock1","","","","That was a bim.","null","","","","",""
"","html-keyboard-response","243","311942","0.0-6.0-2.78","FL","s48cjlol2y","1440","900","de","er04rt18","null","","","","learningBlock1","","","","<div style=""font-size:60px;""> </div>","null","FL","learning/Slide79.JPG","That was a bim.","",""
"","image-keyboard-response","244","312123","0.0-6.0-0.79","FL","s48cjlol2y","1440","900","de","er04rt18","null","","","","","","","","learning/Slide80.JPG","null","","","","",""
"","html-keyboard-response","245","313281","0.0-6.0-1.79","FL","s48cjlol2y","1440","900","de","er04rt18","null","","","","learningBlock1","","","","That was a tob.","null","","","","",""
"","html-keyboard-response","246","314285","0.0-6.0-2.79","FL","s48cjlol2y","1440","900","de","er04rt18","null","","","","learningBlock1","","","","<div style=""font-size:60px;""> </div>","null","FL","learning/Slide80.JPG","That was a tob.","",""
"","instructions","247","321055","0.0-7.0","FL","s48cjlol2y","1440","900","de","er04rt18","NA","","","[{""page_index"":0,""viewing_time"":6768.5399999900255}]","instructions","","","","","","","","","",""
"","image-keyboard-response","248","321234","0.0-8.0-0.0","FL","s48cjlol2y","1440","900","de","er04rt18","null","","","","","","","","learning/Slide81.JPG","null","","","","",""
"","html-keyboard-response","249","322385","0.0-8.0-1.0","FL","s48cjlol2y","1440","900","de","er04rt18","null","","","","learningBlock2","","","","That was a wug.","null","","","","",""
"","html-keyboard-response","250","323389","0.0-8.0-2.0","FL","s48cjlol2y","1440","900","de","er04rt18","null","","","","learningBlock2","","","","<div style=""font-size:60px;""> </div>","null","FL","learning/Slide81.JPG","That was a wug.","",""
"","image-keyboard-response","251","323565","0.0-8.0-0.1","FL","s48cjlol2y","1440","900","de","er04rt18","null","","","","","","","","learning/Slide82.JPG","null","","","","",""
"","html-keyboard-response","252","324723","0.0-8.0-1.1","FL","s48cjlol2y","1440","900","de","er04rt18","null","","","","learningBlock2","","","","That was a bim.","null","","","","",""
"","html-keyboard-response","253","325727","0.0-8.0-2.1","FL","s48cjlol2y","1440","900","de","er04rt18","null","","","","learningBlock2","","","","<div style=""font-size:60px;""> </div>","null","FL","learning/Slide82.JPG","That was a bim.","",""
"","image-keyboard-response","254","325905","0.0-8.0-0.2","FL","s48cjlol2y","1440","900","de","er04rt18","null","","","","","","","","learning/Slide83.JPG","null","","","","",""
"","html-keyboard-response","255","327064","0.0-8.0-1.2","FL","s48cjlol2y","1440","900","de","er04rt18","null","","","","learningBlock2","","","","That was a wug.","null","","","","",""
"","html-keyboard-response","256","328067","0.0-8.0-2.2","FL","s48cjlol2y","1440","900","de","er04rt18","null","","","","learningBlock2","","","","<div style=""font-size:60px;""> </div>","null","FL","learning/Slide83.JPG","That was a wug.","",""
"","image-keyboard-response","257","328248","0.0-8.0-0.3","FL","s48cjlol2y","1440","900","de","er04rt18","null","","","","","","","","learning/Slide84.JPG","null","","","","",""
"","html-keyboard-response","258","329409","0.0-8.0-1.3","FL","s48cjlol2y","1440","900","de","er04rt18","null","","","","learningBlock2","","","","That was a dep.","null","","","","",""
"","html-keyboard-response","259","330413","0.0-8.0-2.3","FL","s48cjlol2y","1440","900","de","er04rt18","null","","","","learningBlock2","","","","<div style=""font-size:60px;""> </div>","null","FL","learning/Slide84.JPG","That was a dep.","",""
"","image-keyboard-response","260","330593","0.0-8.0-0.4","FL","s48cjlol2y","1440","900","de","er04rt18","null","","","","","","","","learning/Slide85.JPG","null","","","","",""
"","html-keyboard-response","261","331750","0.0-8.0-1.4","FL","s48cjlol2y","1440","900","de","er04rt18","null","","","","learningBlock2","","","","That was a bim.","null","","","","",""
"","html-keyboard-response","262","332754","0.0-8.0-2.4","FL","s48cjlol2y","1440","900","de","er04rt18","null","","","","learningBlock2","","","","<div style=""font-size:60px;""> </div>","null","FL","learning/Slide85.JPG","That was a bim.","",""
"","image-keyboard-response","263","332935","0.0-8.0-0.5","FL","s48cjlol2y","1440","900","de","er04rt18","null","","","","","","","","learning/Slide86.JPG","null","","","","",""
"","html-keyboard-response","264","334093","0.0-8.0-1.5","FL","s48cjlol2y","1440","900","de","er04rt18","null","","","","learningBlock2","","","","That was a tob.","null","","","","",""
"","html-keyboard-response","265","335098","0.0-8.0-2.5","FL","s48cjlol2y","1440","900","de","er04rt18","null","","","","learningBlock2","","","","<div style=""font-size:60px;""> </div>","null","FL","learning/Slide86.JPG","That was a tob.","",""
"","image-keyboard-response","266","335279","0.0-8.0-0.6","FL","s48cjlol2y","1440","900","de","er04rt18","null","","","","","","","","learning/Slide87.JPG","null","","","","",""
"","html-keyboard-response","267","336436","0.0-8.0-1.6","FL","s48cjlol2y","1440","900","de","er04rt18","null","","","","learningBlock2","","","","That was a wug.","null","","","","",""
"","html-keyboard-response","268","337440","0.0-8.0-2.6","FL","s48cjlol2y","1440","900","de","er04rt18","null","","","","learningBlock2","","","","<div style=""font-size:60px;""> </div>","null","FL","learning/Slide87.JPG","That was a wug.","",""
"","image-keyboard-response","269","337616","0.0-8.0-0.7","FL","s48cjlol2y","1440","900","de","er04rt18","null","","","","","","","","learning/Slide88.JPG","null","","","","",""
"","html-keyboard-response","270","338772","0.0-8.0-1.7","FL","s48cjlol2y","1440","900","de","er04rt18","null","","","","learningBlock2","","","","That was a tob.","null","","","","",""
"","html-keyboard-response","271","339776","0.0-8.0-2.7","FL","s48cjlol2y","1440","900","de","er04rt18","null","","","","learningBlock2","","","","<div style=""font-size:60px;""> </div>","null","FL","learning/Slide88.JPG","That was a tob.","",""
"","image-keyboard-response","272","339956","0.0-8.0-0.8","FL","s48cjlol2y","1440","900","de","er04rt18","null","","","","","","","","learning/Slide89.JPG","null","","","","",""
"","html-keyboard-response","273","341113","0.0-8.0-1.8","FL","s48cjlol2y","1440","900","de","er04rt18","null","","","","learningBlock2","","","","That was a bim.","null","","","","",""
"","html-keyboard-response","274","342117","0.0-8.0-2.8","FL","s48cjlol2y","1440","900","de","er04rt18","null","","","","learningBlock2","","","","<div style=""font-size:60px;""> </div>","null","FL","learning/Slide89.JPG","That was a bim.","",""
"","image-keyboard-response","275","342298","0.0-8.0-0.9","FL","s48cjlol2y","1440","900","de","er04rt18","null","","","","","","","","learning/Slide90.JPG","null","","","","",""
"","html-keyboard-response","276","343460","0.0-8.0-1.9","FL","s48cjlol2y","1440","900","de","er04rt18","null","","","","learningBlock2","","","","That was a dep.","null","","","","",""
"","html-keyboard-response","277","344464","0.0-8.0-2.9","FL","s48cjlol2y","1440","900","de","er04rt18","null","","","","learningBlock2","","","","<div style=""font-size:60px;""> </div>","null","FL","learning/Slide90.JPG","That was a dep.","",""
"","image-keyboard-response","278","344645","0.0-8.0-0.10","FL","s48cjlol2y","1440","900","de","er04rt18","null","","","","","","","","learning/Slide91.JPG","null","","","","",""
"","html-keyboard-response","279","345806","0.0-8.0-1.10","FL","s48cjlol2y","1440","900","de","er04rt18","null","","","","learningBlock2","","","","That was a wug.","null","","","","",""
"","html-keyboard-response","280","346811","0.0-8.0-2.10","FL","s48cjlol2y","1440","900","de","er04rt18","null","","","","learningBlock2","","","","<div style=""font-size:60px;""> </div>","null","FL","learning/Slide91.JPG","That was a wug.","",""
"","image-keyboard-response","281","346988","0.0-8.0-0.11","FL","s48cjlol2y","1440","900","de","er04rt18","null","","","","","","","","learning/Slide92.JPG","null","","","","",""
"","html-keyboard-response","282","348148","0.0-8.0-1.11","FL","s48cjlol2y","1440","900","de","er04rt18","null","","","","learningBlock2","","","","That was a tob.","null","","","","",""
"","html-keyboard-response","283","349153","0.0-8.0-2.11","FL","s48cjlol2y","1440","900","de","er04rt18","null","","","","learningBlock2","","","","<div style=""font-size:60px;""> </div>","null","FL","learning/Slide92.JPG","That was a tob.","",""
"","image-keyboard-response","284","349329","0.0-8.0-0.12","FL","s48cjlol2y","1440","900","de","er04rt18","null","","","","","","","","learning/Slide93.JPG","null","","","","",""
"","html-keyboard-response","285","350481","0.0-8.0-1.12","FL","s48cjlol2y","1440","900","de","er04rt18","null","","","","learningBlock2","","","","That was a bim.","null","","","","",""
"","html-keyboard-response","286","351485","0.0-8.0-2.12","FL","s48cjlol2y","1440","900","de","er04rt18","null","","","","learningBlock2","","","","<div style=""font-size:60px;""> </div>","null","FL","learning/Slide93.JPG","That was a bim.","",""
"","image-keyboard-response","287","351666","0.0-8.0-0.13","FL","s48cjlol2y","1440","900","de","er04rt18","null","","","","","","","","learning/Slide94.JPG","null","","","","",""
"","html-keyboard-response","288","352827","0.0-8.0-1.13","FL","s48cjlol2y","1440","900","de","er04rt18","null","","","","learningBlock2","","","","That was a tob.","null","","","","",""
"","html-keyboard-response","289","353831","0.0-8.0-2.13","FL","s48cjlol2y","1440","900","de","er04rt18","null","","","","learningBlock2","","","","<div style=""font-size:60px;""> </div>","null","FL","learning/Slide94.JPG","That was a tob.","",""
"","image-keyboard-response","290","354007","0.0-8.0-0.14","FL","s48cjlol2y","1440","900","de","er04rt18","null","","","","","","","","learning/Slide95.JPG","null","","","","",""
"","html-keyboard-response","291","355165","0.0-8.0-1.14","FL","s48cjlol2y","1440","900","de","er04rt18","null","","","","learningBlock2","","","","That was a wug.","null","","","","",""
"","html-keyboard-response","292","356169","0.0-8.0-2.14","FL","s48cjlol2y","1440","900","de","er04rt18","null","","","","learningBlock2","","","","<div style=""font-size:60px;""> </div>","null","FL","learning/Slide95.JPG","That was a wug.","",""
"","image-keyboard-response","293","356351","0.0-8.0-0.15","FL","s48cjlol2y","1440","900","de","er04rt18","null","","","","","","","","learning/Slide96.JPG","null","","","","",""
"","html-keyboard-response","294","357509","0.0-8.0-1.15","FL","s48cjlol2y","1440","900","de","er04rt18","null","","","","learningBlock2","","","","That was a tob.","null","","","","",""
"","html-keyboard-response","295","358513","0.0-8.0-2.15","FL","s48cjlol2y","1440","900","de","er04rt18","null","","","","learningBlock2","","","","<div style=""font-size:60px;""> </div>","null","FL","learning/Slide96.JPG","That was a tob.","",""
"","image-keyboard-response","296","358694","0.0-8.0-0.16","FL","s48cjlol2y","1440","900","de","er04rt18","null","","","","","","","","learning/Slide97.JPG","null","","","","",""
"","html-keyboard-response","297","359855","0.0-8.0-1.16","FL","s48cjlol2y","1440","900","de","er04rt18","null","","","","learningBlock2","","","","That was a dep.","null","","","","",""
"","html-keyboard-response","298","360860","0.0-8.0-2.16","FL","s48cjlol2y","1440","900","de","er04rt18","null","","","","learningBlock2","","","","<div style=""font-size:60px;""> </div>","null","FL","learning/Slide97.JPG","That was a dep.","",""
"","image-keyboard-response","299","361039","0.0-8.0-0.17","FL","s48cjlol2y","1440","900","de","er04rt18","null","","","","","","","","learning/Slide98.JPG","null","","","","",""
"","html-keyboard-response","300","362200","0.0-8.0-1.17","FL","s48cjlol2y","1440","900","de","er04rt18","null","","","","learningBlock2","","","","That was a bim.","null","","","","",""
"","html-keyboard-response","301","363202","0.0-8.0-2.17","FL","s48cjlol2y","1440","900","de","er04rt18","null","","","","learningBlock2","","","","<div style=""font-size:60px;""> </div>","null","FL","learning/Slide98.JPG","That was a bim.","",""
"","image-keyboard-response","302","363381","0.0-8.0-0.18","FL","s48cjlol2y","1440","900","de","er04rt18","null","","","","","","","","learning/Slide99.JPG","null","","","","",""
"","html-keyboard-response","303","364535","0.0-8.0-1.18","FL","s48cjlol2y","1440","900","de","er04rt18","null","","","","learningBlock2","","","","That was a dep.","null","","","","",""
"","html-keyboard-response","304","365538","0.0-8.0-2.18","FL","s48cjlol2y","1440","900","de","er04rt18","null","","","","learningBlock2","","","","<div style=""font-size:60px;""> </div>","null","FL","learning/Slide99.JPG","That was a dep.","",""
"","image-keyboard-response","305","365719","0.0-8.0-0.19","FL","s48cjlol2y","1440","900","de","er04rt18","null","","","","","","","","learning/Slide100.JPG","null","","","","",""
"","html-keyboard-response","306","366878","0.0-8.0-1.19","FL","s48cjlol2y","1440","900","de","er04rt18","null","","","","learningBlock2","","","","That was a bim.","null","","","","",""
"","html-keyboard-response","307","367882","0.0-8.0-2.19","FL","s48cjlol2y","1440","900","de","er04rt18","null","","","","learningBlock2","","","","<div style=""font-size:60px;""> </div>","null","FL","learning/Slide100.JPG","That was a bim.","",""
"","image-keyboard-response","308","368063","0.0-8.0-0.20","FL","s48cjlol2y","1440","900","de","er04rt18","null","","","","","","","","learning/Slide101.JPG","null","","","","",""
"","html-keyboard-response","309","369224","0.0-8.0-1.20","FL","s48cjlol2y","1440","900","de","er04rt18","null","","","","learningBlock2","","","","That was a tob.","null","","","","",""
"","html-keyboard-response","310","370229","0.0-8.0-2.20","FL","s48cjlol2y","1440","900","de","er04rt18","null","","","","learningBlock2","","","","<div style=""font-size:60px;""> </div>","null","FL","learning/Slide101.JPG","That was a tob.","",""
"","image-keyboard-response","311","370410","0.0-8.0-0.21","FL","s48cjlol2y","1440","900","de","er04rt18","null","","","","","","","","learning/Slide102.JPG","null","","","","",""
"","html-keyboard-response","312","371571","0.0-8.0-1.21","FL","s48cjlol2y","1440","900","de","er04rt18","null","","","","learningBlock2","","","","That was a bim.","null","","","","",""
"","html-keyboard-response","313","372575","0.0-8.0-2.21","FL","s48cjlol2y","1440","900","de","er04rt18","null","","","","learningBlock2","","","","<div style=""font-size:60px;""> </div>","null","FL","learning/Slide102.JPG","That was a bim.","",""
"","image-keyboard-response","314","372752","0.0-8.0-0.22","FL","s48cjlol2y","1440","900","de","er04rt18","null","","","","","","","","learning/Slide103.JPG","null","","","","",""
"","html-keyboard-response","315","373912","0.0-8.0-1.22","FL","s48cjlol2y","1440","900","de","er04rt18","null","","","","learningBlock2","","","","That was a dep.","null","","","","",""
"","html-keyboard-response","316","374916","0.0-8.0-2.22","FL","s48cjlol2y","1440","900","de","er04rt18","null","","","","learningBlock2","","","","<div style=""font-size:60px;""> </div>","null","FL","learning/Slide103.JPG","That was a dep.","",""
"","image-keyboard-response","317","375097","0.0-8.0-0.23","FL","s48cjlol2y","1440","900","de","er04rt18","null","","","","","","","","learning/Slide104.JPG","null","","","","",""
"","html-keyboard-response","318","376259","0.0-8.0-1.23","FL","s48cjlol2y","1440","900","de","er04rt18","null","","","","learningBlock2","","","","That was a tob.","null","","","","",""
"","html-keyboard-response","319","377263","0.0-8.0-2.23","FL","s48cjlol2y","1440","900","de","er04rt18","null","","","","learningBlock2","","","","<div style=""font-size:60px;""> </div>","null","FL","learning/Slide104.JPG","That was a tob.","",""
"","image-keyboard-response","320","377439","0.0-8.0-0.24","FL","s48cjlol2y","1440","900","de","er04rt18","null","","","","","","","","learning/Slide105.JPG","null","","","","",""
"","html-keyboard-response","321","378598","0.0-8.0-1.24","FL","s48cjlol2y","1440","900","de","er04rt18","null","","","","learningBlock2","","","","That was a dep.","null","","","","",""
"","html-keyboard-response","322","379603","0.0-8.0-2.24","FL","s48cjlol2y","1440","900","de","er04rt18","null","","","","learningBlock2","","","","<div style=""font-size:60px;""> </div>","null","FL","learning/Slide105.JPG","That was a dep.","",""
"","image-keyboard-response","323","379784","0.0-8.0-0.25","FL","s48cjlol2y","1440","900","de","er04rt18","null","","","","","","","","learning/Slide106.JPG","null","","","","",""
"","html-keyboard-response","324","380946","0.0-8.0-1.25","FL","s48cjlol2y","1440","900","de","er04rt18","null","","","","learningBlock2","","","","That was a wug.","null","","","","",""
"","html-keyboard-response","325","381950","0.0-8.0-2.25","FL","s48cjlol2y","1440","900","de","er04rt18","null","","","","learningBlock2","","","","<div style=""font-size:60px;""> </div>","null","FL","learning/Slide106.JPG","That was a wug.","",""
"","image-keyboard-response","326","382126","0.0-8.0-0.26","FL","s48cjlol2y","1440","900","de","er04rt18","null","","","","","","","","learning/Slide107.JPG","null","","","","",""
"","html-keyboard-response","327","383284","0.0-8.0-1.26","FL","s48cjlol2y","1440","900","de","er04rt18","null","","","","learningBlock2","","","","That was a bim.","null","","","","",""
"","html-keyboard-response","328","384288","0.0-8.0-2.26","FL","s48cjlol2y","1440","900","de","er04rt18","null","","","","learningBlock2","","","","<div style=""font-size:60px;""> </div>","null","FL","learning/Slide107.JPG","That was a bim.","",""
"","image-keyboard-response","329","384467","0.0-8.0-0.27","FL","s48cjlol2y","1440","900","de","er04rt18","null","","","","","","","","learning/Slide108.JPG","null","","","","",""
"","html-keyboard-response","330","385628","0.0-8.0-1.27","FL","s48cjlol2y","1440","900","de","er04rt18","null","","","","learningBlock2","","","","That was a dep.","null","","","","",""
"","html-keyboard-response","331","386632","0.0-8.0-2.27","FL","s48cjlol2y","1440","900","de","er04rt18","null","","","","learningBlock2","","","","<div style=""font-size:60px;""> </div>","null","FL","learning/Slide108.JPG","That was a dep.","",""
"","image-keyboard-response","332","386814","0.0-8.0-0.28","FL","s48cjlol2y","1440","900","de","er04rt18","null","","","","","","","","learning/Slide109.JPG","null","","","","",""
"","html-keyboard-response","333","387973","0.0-8.0-1.28","FL","s48cjlol2y","1440","900","de","er04rt18","null","","","","learningBlock2","","","","That was a wug.","null","","","","",""
"","html-keyboard-response","334","388977","0.0-8.0-2.28","FL","s48cjlol2y","1440","900","de","er04rt18","null","","","","learningBlock2","","","","<div style=""font-size:60px;""> </div>","null","FL","learning/Slide109.JPG","That was a wug.","",""
"","image-keyboard-response","335","389159","0.0-8.0-0.29","FL","s48cjlol2y","1440","900","de","er04rt18","null","","","","","","","","learning/Slide110.JPG","null","","","","",""
"","html-keyboard-response","336","390315","0.0-8.0-1.29","FL","s48cjlol2y","1440","900","de","er04rt18","null","","","","learningBlock2","","","","That was a bim.","null","","","","",""
"","html-keyboard-response","337","391319","0.0-8.0-2.29","FL","s48cjlol2y","1440","900","de","er04rt18","null","","","","learningBlock2","","","","<div style=""font-size:60px;""> </div>","null","FL","learning/Slide110.JPG","That was a bim.","",""
"","image-keyboard-response","338","391501","0.0-8.0-0.30","FL","s48cjlol2y","1440","900","de","er04rt18","null","","","","","","","","learning/Slide111.JPG","null","","","","",""
"","html-keyboard-response","339","392662","0.0-8.0-1.30","FL","s48cjlol2y","1440","900","de","er04rt18","null","","","","learningBlock2","","","","That was a tob.","null","","","","",""
"","html-keyboard-response","340","393667","0.0-8.0-2.30","FL","s48cjlol2y","1440","900","de","er04rt18","null","","","","learningBlock2","","","","<div style=""font-size:60px;""> </div>","null","FL","learning/Slide111.JPG","That was a tob.","",""
"","image-keyboard-response","341","393848","0.0-8.0-0.31","FL","s48cjlol2y","1440","900","de","er04rt18","null","","","","","","","","learning/Slide112.JPG","null","","","","",""
"","html-keyboard-response","342","395007","0.0-8.0-1.31","FL","s48cjlol2y","1440","900","de","er04rt18","null","","","","learningBlock2","","","","That was a wug.","null","","","","",""
"","html-keyboard-response","343","396011","0.0-8.0-2.31","FL","s48cjlol2y","1440","900","de","er04rt18","null","","","","learningBlock2","","","","<div style=""font-size:60px;""> </div>","null","FL","learning/Slide112.JPG","That was a wug.","",""
"","image-keyboard-response","344","396192","0.0-8.0-0.32","FL","s48cjlol2y","1440","900","de","er04rt18","null","","","","","","","","learning/Slide113.JPG","null","","","","",""
"","html-keyboard-response","345","397344","0.0-8.0-1.32","FL","s48cjlol2y","1440","900","de","er04rt18","null","","","","learningBlock2","","","","That was a tob.","null","","","","",""
"","html-keyboard-response","346","398348","0.0-8.0-2.32","FL","s48cjlol2y","1440","900","de","er04rt18","null","","","","learningBlock2","","","","<div style=""font-size:60px;""> </div>","null","FL","learning/Slide113.JPG","That was a tob.","",""
"","image-keyboard-response","347","398525","0.0-8.0-0.33","FL","s48cjlol2y","1440","900","de","er04rt18","null","","","","","","","","learning/Slide114.JPG","null","","","","",""
"","html-keyboard-response","348","399685","0.0-8.0-1.33","FL","s48cjlol2y","1440","900","de","er04rt18","null","","","","learningBlock2","","","","That was a wug.","null","","","","",""
"","html-keyboard-response","349","400689","0.0-8.0-2.33","FL","s48cjlol2y","1440","900","de","er04rt18","null","","","","learningBlock2","","","","<div style=""font-size:60px;""> </div>","null","FL","learning/Slide114.JPG","That was a wug.","",""
"","image-keyboard-response","350","400871","0.0-8.0-0.34","FL","s48cjlol2y","1440","900","de","er04rt18","null","","","","","","","","learning/Slide115.JPG","null","","","","",""
"","html-keyboard-response","351","402027","0.0-8.0-1.34","FL","s48cjlol2y","1440","900","de","er04rt18","null","","","","learningBlock2","","","","That was a bim.","null","","","","",""
"","html-keyboard-response","352","403030","0.0-8.0-2.34","FL","s48cjlol2y","1440","900","de","er04rt18","null","","","","learningBlock2","","","","<div style=""font-size:60px;""> </div>","null","FL","learning/Slide115.JPG","That was a bim.","",""
"","image-keyboard-response","353","403211","0.0-8.0-0.35","FL","s48cjlol2y","1440","900","de","er04rt18","null","","","","","","","","learning/Slide116.JPG","null","","","","",""
"","html-keyboard-response","354","404368","0.0-8.0-1.35","FL","s48cjlol2y","1440","900","de","er04rt18","null","","","","learningBlock2","","","","That was a dep.","null","","","","",""
"","html-keyboard-response","355","405372","0.0-8.0-2.35","FL","s48cjlol2y","1440","900","de","er04rt18","null","","","","learningBlock2","","","","<div style=""font-size:60px;""> </div>","null","FL","learning/Slide116.JPG","That was a dep.","",""
"","image-keyboard-response","356","405554","0.0-8.0-0.36","FL","s48cjlol2y","1440","900","de","er04rt18","null","","","","","","","","learning/Slide117.JPG","null","","","","",""
"","html-keyboard-response","357","406715","0.0-8.0-1.36","FL","s48cjlol2y","1440","900","de","er04rt18","null","","","","learningBlock2","","","","That was a tob.","null","","","","",""
"","html-keyboard-response","358","407719","0.0-8.0-2.36","FL","s48cjlol2y","1440","900","de","er04rt18","null","","","","learningBlock2","","","","<div style=""font-size:60px;""> </div>","null","FL","learning/Slide117.JPG","That was a tob.","",""
"","image-keyboard-response","359","407896","0.0-8.0-0.37","FL","s48cjlol2y","1440","900","de","er04rt18","null","","","","","","","","learning/Slide118.JPG","null","","","","",""
"","html-keyboard-response","360","409054","0.0-8.0-1.37","FL","s48cjlol2y","1440","900","de","er04rt18","null","","","","learningBlock2","","","","That was a dep.","null","","","","",""
"","html-keyboard-response","361","410058","0.0-8.0-2.37","FL","s48cjlol2y","1440","900","de","er04rt18","null","","","","learningBlock2","","","","<div style=""font-size:60px;""> </div>","null","FL","learning/Slide118.JPG","That was a dep.","",""
"","image-keyboard-response","362","410239","0.0-8.0-0.38","FL","s48cjlol2y","1440","900","de","er04rt18","null","","","","","","","","learning/Slide119.JPG","null","","","","",""
"","html-keyboard-response","363","411396","0.0-8.0-1.38","FL","s48cjlol2y","1440","900","de","er04rt18","null","","","","learningBlock2","","","","That was a wug.","null","","","","",""
"","html-keyboard-response","364","412400","0.0-8.0-2.38","FL","s48cjlol2y","1440","900","de","er04rt18","null","","","","learningBlock2","","","","<div style=""font-size:60px;""> </div>","null","FL","learning/Slide119.JPG","That was a wug.","",""
"","image-keyboard-response","365","412581","0.0-8.0-0.39","FL","s48cjlol2y","1440","900","de","er04rt18","null","","","","","","","","learning/Slide120.JPG","null","","","","",""
"","html-keyboard-response","366","413738","0.0-8.0-1.39","FL","s48cjlol2y","1440","900","de","er04rt18","null","","","","learningBlock2","","","","That was a dep.","null","","","","",""
"","html-keyboard-response","367","414742","0.0-8.0-2.39","FL","s48cjlol2y","1440","900","de","er04rt18","null","","","","learningBlock2","","","","<div style=""font-size:60px;""> </div>","null","FL","learning/Slide120.JPG","That was a dep.","",""
"","image-keyboard-response","368","414917","0.0-8.0-0.40","FL","s48cjlol2y","1440","900","de","er04rt18","null","","","","","","","","learning/Slide121.JPG","null","","","","",""
"","html-keyboard-response","369","416074","0.0-8.0-1.40","FL","s48cjlol2y","1440","900","de","er04rt18","null","","","","learningBlock2","","","","That was a bim.","null","","","","",""
"","html-keyboard-response","370","417078","0.0-8.0-2.40","FL","s48cjlol2y","1440","900","de","er04rt18","null","","","","learningBlock2","","","","<div style=""font-size:60px;""> </div>","null","FL","learning/Slide121.JPG","That was a bim.","",""
"","image-keyboard-response","371","417259","0.0-8.0-0.41","FL","s48cjlol2y","1440","900","de","er04rt18","null","","","","","","","","learning/Slide122.JPG","null","","","","",""
"","html-keyboard-response","372","418420","0.0-8.0-1.41","FL","s48cjlol2y","1440","900","de","er04rt18","null","","","","learningBlock2","","","","That was a wug.","null","","","","",""
"","html-keyboard-response","373","419425","0.0-8.0-2.41","FL","s48cjlol2y","1440","900","de","er04rt18","null","","","","learningBlock2","","","","<div style=""font-size:60px;""> </div>","null","FL","learning/Slide122.JPG","That was a wug.","",""
"","image-keyboard-response","374","419601","0.0-8.0-0.42","FL","s48cjlol2y","1440","900","de","er04rt18","null","","","","","","","","learning/Slide123.JPG","null","","","","",""
"","html-keyboard-response","375","420762","0.0-8.0-1.42","FL","s48cjlol2y","1440","900","de","er04rt18","null","","","","learningBlock2","","","","That was a bim.","null","","","","",""
"","html-keyboard-response","376","421767","0.0-8.0-2.42","FL","s48cjlol2y","1440","900","de","er04rt18","null","","","","learningBlock2","","","","<div style=""font-size:60px;""> </div>","null","FL","learning/Slide123.JPG","That was a bim.","",""
"","image-keyboard-response","377","421948","0.0-8.0-0.43","FL","s48cjlol2y","1440","900","de","er04rt18","null","","","","","","","","learning/Slide124.JPG","null","","","","",""
"","html-keyboard-response","378","423109","0.0-8.0-1.43","FL","s48cjlol2y","1440","900","de","er04rt18","null","","","","learningBlock2","","","","That was a tob.","null","","","","",""
"","html-keyboard-response","379","424113","0.0-8.0-2.43","FL","s48cjlol2y","1440","900","de","er04rt18","null","","","","learningBlock2","","","","<div style=""font-size:60px;""> </div>","null","FL","learning/Slide124.JPG","That was a tob.","",""
"","image-keyboard-response","380","424290","0.0-8.0-0.44","FL","s48cjlol2y","1440","900","de","er04rt18","null","","","","","","","","learning/Slide125.JPG","null","","","","",""
"","html-keyboard-response","381","425449","0.0-8.0-1.44","FL","s48cjlol2y","1440","900","de","er04rt18","null","","","","learningBlock2","","","","That was a bim.","null","","","","",""
"","html-keyboard-response","382","426453","0.0-8.0-2.44","FL","s48cjlol2y","1440","900","de","er04rt18","null","","","","learningBlock2","","","","<div style=""font-size:60px;""> </div>","null","FL","learning/Slide125.JPG","That was a bim.","",""
"","image-keyboard-response","383","426632","0.0-8.0-0.45","FL","s48cjlol2y","1440","900","de","er04rt18","null","","","","","","","","learning/Slide126.JPG","null","","","","",""
"","html-keyboard-response","384","427785","0.0-8.0-1.45","FL","s48cjlol2y","1440","900","de","er04rt18","null","","","","learningBlock2","","","","That was a tob.","null","","","","",""
"","html-keyboard-response","385","428789","0.0-8.0-2.45","FL","s48cjlol2y","1440","900","de","er04rt18","null","","","","learningBlock2","","","","<div style=""font-size:60px;""> </div>","null","FL","learning/Slide126.JPG","That was a tob.","",""
"","image-keyboard-response","386","428970","0.0-8.0-0.46","FL","s48cjlol2y","1440","900","de","er04rt18","null","","","","","","","","learning/Slide127.JPG","null","","","","",""
"","html-keyboard-response","387","430124","0.0-8.0-1.46","FL","s48cjlol2y","1440","900","de","er04rt18","null","","","","learningBlock2","","","","That was a dep.","null","","","","",""
"","html-keyboard-response","388","431129","0.0-8.0-2.46","FL","s48cjlol2y","1440","900","de","er04rt18","null","","","","learningBlock2","","","","<div style=""font-size:60px;""> </div>","null","FL","learning/Slide127.JPG","That was a dep.","",""
"","image-keyboard-response","389","431310","0.0-8.0-0.47","FL","s48cjlol2y","1440","900","de","er04rt18","null","","","","","","","","learning/Slide128.JPG","null","","","","",""
"","html-keyboard-response","390","432467","0.0-8.0-1.47","FL","s48cjlol2y","1440","900","de","er04rt18","null","","","","learningBlock2","","","","That was a wug.","null","","","","",""
"","html-keyboard-response","391","433471","0.0-8.0-2.47","FL","s48cjlol2y","1440","900","de","er04rt18","null","","","","learningBlock2","","","","<div style=""font-size:60px;""> </div>","null","FL","learning/Slide128.JPG","That was a wug.","",""
"","image-keyboard-response","392","433648","0.0-8.0-0.48","FL","s48cjlol2y","1440","900","de","er04rt18","null","","","","","","","","learning/Slide129.JPG","null","","","","",""
"","html-keyboard-response","393","434810","0.0-8.0-1.48","FL","s48cjlol2y","1440","900","de","er04rt18","null","","","","learningBlock2","","","","That was a tob.","null","","","","",""
"","html-keyboard-response","394","435814","0.0-8.0-2.48","FL","s48cjlol2y","1440","900","de","er04rt18","null","","","","learningBlock2","","","","<div style=""font-size:60px;""> </div>","null","FL","learning/Slide129.JPG","That was a tob.","",""
"","image-keyboard-response","395","435995","0.0-8.0-0.49","FL","s48cjlol2y","1440","900","de","er04rt18","null","","","","","","","","learning/Slide130.JPG","null","","","","",""
"","html-keyboard-response","396","437153","0.0-8.0-1.49","FL","s48cjlol2y","1440","900","de","er04rt18","null","","","","learningBlock2","","","","That was a wug.","null","","","","",""
"","html-keyboard-response","397","438157","0.0-8.0-2.49","FL","s48cjlol2y","1440","900","de","er04rt18","null","","","","learningBlock2","","","","<div style=""font-size:60px;""> </div>","null","FL","learning/Slide130.JPG","That was a wug.","",""
"","image-keyboard-response","398","438338","0.0-8.0-0.50","FL","s48cjlol2y","1440","900","de","er04rt18","null","","","","","","","","learning/Slide131.JPG","null","","","","",""
"","html-keyboard-response","399","439491","0.0-8.0-1.50","FL","s48cjlol2y","1440","900","de","er04rt18","null","","","","learningBlock2","","","","That was a bim.","null","","","","",""
"","html-keyboard-response","400","440496","0.0-8.0-2.50","FL","s48cjlol2y","1440","900","de","er04rt18","null","","","","learningBlock2","","","","<div style=""font-size:60px;""> </div>","null","FL","learning/Slide131.JPG","That was a bim.","",""
"","image-keyboard-response","401","440677","0.0-8.0-0.51","FL","s48cjlol2y","1440","900","de","er04rt18","null","","","","","","","","learning/Slide132.JPG","null","","","","",""
"","html-keyboard-response","402","441835","0.0-8.0-1.51","FL","s48cjlol2y","1440","900","de","er04rt18","null","","","","learningBlock2","","","","That was a dep.","null","","","","",""
"","html-keyboard-response","403","442839","0.0-8.0-2.51","FL","s48cjlol2y","1440","900","de","er04rt18","null","","","","learningBlock2","","","","<div style=""font-size:60px;""> </div>","null","FL","learning/Slide132.JPG","That was a dep.","",""
"","image-keyboard-response","404","443022","0.0-8.0-0.52","FL","s48cjlol2y","1440","900","de","er04rt18","null","","","","","","","","learning/Slide133.JPG","null","","","","",""
"","html-keyboard-response","405","444183","0.0-8.0-1.52","FL","s48cjlol2y","1440","900","de","er04rt18","null","","","","learningBlock2","","","","That was a tob.","null","","","","",""
"","html-keyboard-response","406","445185","0.0-8.0-2.52","FL","s48cjlol2y","1440","900","de","er04rt18","null","","","","learningBlock2","","","","<div style=""font-size:60px;""> </div>","null","FL","learning/Slide133.JPG","That was a tob.","",""
"","image-keyboard-response","407","445366","0.0-8.0-0.53","FL","s48cjlol2y","1440","900","de","er04rt18","null","","","","","","","","learning/Slide134.JPG","null","","","","",""
"","html-keyboard-response","408","446518","0.0-8.0-1.53","FL","s48cjlol2y","1440","900","de","er04rt18","null","","","","learningBlock2","","","","That was a dep.","null","","","","",""
"","html-keyboard-response","409","447519","0.0-8.0-2.53","FL","s48cjlol2y","1440","900","de","er04rt18","null","","","","learningBlock2","","","","<div style=""font-size:60px;""> </div>","null","FL","learning/Slide134.JPG","That was a dep.","",""
"","image-keyboard-response","410","447701","0.0-8.0-0.54","FL","s48cjlol2y","1440","900","de","er04rt18","null","","","","","","","","learning/Slide135.JPG","null","","","","",""
"","html-keyboard-response","411","448862","0.0-8.0-1.54","FL","s48cjlol2y","1440","900","de","er04rt18","null","","","","learningBlock2","","","","That was a tob.","null","","","","",""
"","html-keyboard-response","412","449866","0.0-8.0-2.54","FL","s48cjlol2y","1440","900","de","er04rt18","null","","","","learningBlock2","","","","<div style=""font-size:60px;""> </div>","null","FL","learning/Slide135.JPG","That was a tob.","",""
"","image-keyboard-response","413","450044","0.0-8.0-0.55","FL","s48cjlol2y","1440","900","de","er04rt18","null","","","","","","","","learning/Slide136.JPG","null","","","","",""
"","html-keyboard-response","414","451201","0.0-8.0-1.55","FL","s48cjlol2y","1440","900","de","er04rt18","null","","","","learningBlock2","","","","That was a wug.","null","","","","",""
"","html-keyboard-response","415","452205","0.0-8.0-2.55","FL","s48cjlol2y","1440","900","de","er04rt18","null","","","","learningBlock2","","","","<div style=""font-size:60px;""> </div>","null","FL","learning/Slide136.JPG","That was a wug.","",""
"","image-keyboard-response","416","452386","0.0-8.0-0.56","FL","s48cjlol2y","1440","900","de","er04rt18","null","","","","","","","","learning/Slide137.JPG","null","","","","",""
"","html-keyboard-response","417","453546","0.0-8.0-1.56","FL","s48cjlol2y","1440","900","de","er04rt18","null","","","","learningBlock2","","","","That was a tob.","null","","","","",""
"","html-keyboard-response","418","454552","0.0-8.0-2.56","FL","s48cjlol2y","1440","900","de","er04rt18","null","","","","learningBlock2","","","","<div style=""font-size:60px;""> </div>","null","FL","learning/Slide137.JPG","That was a tob.","",""
"","image-keyboard-response","419","454731","0.0-8.0-0.57","FL","s48cjlol2y","1440","900","de","er04rt18","null","","","","","","","","learning/Slide138.JPG","null","","","","",""
"","html-keyboard-response","420","455891","0.0-8.0-1.57","FL","s48cjlol2y","1440","900","de","er04rt18","null","","","","learningBlock2","","","","That was a bim.","null","","","","",""
"","html-keyboard-response","421","456895","0.0-8.0-2.57","FL","s48cjlol2y","1440","900","de","er04rt18","null","","","","learningBlock2","","","","<div style=""font-size:60px;""> </div>","null","FL","learning/Slide138.JPG","That was a bim.","",""
"","image-keyboard-response","422","457076","0.0-8.0-0.58","FL","s48cjlol2y","1440","900","de","er04rt18","null","","","","","","","","learning/Slide139.JPG","null","","","","",""
"","html-keyboard-response","423","458235","0.0-8.0-1.58","FL","s48cjlol2y","1440","900","de","er04rt18","null","","","","learningBlock2","","","","That was a wug.","null","","","","",""
"","html-keyboard-response","424","459238","0.0-8.0-2.58","FL","s48cjlol2y","1440","900","de","er04rt18","null","","","","learningBlock2","","","","<div style=""font-size:60px;""> </div>","null","FL","learning/Slide139.JPG","That was a wug.","",""
"","image-keyboard-response","425","459419","0.0-8.0-0.59","FL","s48cjlol2y","1440","900","de","er04rt18","null","","","","","","","","learning/Slide140.JPG","null","","","","",""
"","html-keyboard-response","426","460575","0.0-8.0-1.59","FL","s48cjlol2y","1440","900","de","er04rt18","null","","","","learningBlock2","","","","That was a dep.","null","","","","",""
"","html-keyboard-response","427","461579","0.0-8.0-2.59","FL","s48cjlol2y","1440","900","de","er04rt18","null","","","","learningBlock2","","","","<div style=""font-size:60px;""> </div>","null","FL","learning/Slide140.JPG","That was a dep.","",""
"","image-keyboard-response","428","461760","0.0-8.0-0.60","FL","s48cjlol2y","1440","900","de","er04rt18","null","","","","","","","","learning/Slide141.JPG","null","","","","",""
"","html-keyboard-response","429","462919","0.0-8.0-1.60","FL","s48cjlol2y","1440","900","de","er04rt18","null","","","","learningBlock2","","","","That was a tob.","null","","","","",""
"","html-keyboard-response","430","463923","0.0-8.0-2.60","FL","s48cjlol2y","1440","900","de","er04rt18","null","","","","learningBlock2","","","","<div style=""font-size:60px;""> </div>","null","FL","learning/Slide141.JPG","That was a tob.","",""
"","image-keyboard-response","431","464104","0.0-8.0-0.61","FL","s48cjlol2y","1440","900","de","er04rt18","null","","","","","","","","learning/Slide142.JPG","null","","","","",""
"","html-keyboard-response","432","465262","0.0-8.0-1.61","FL","s48cjlol2y","1440","900","de","er04rt18","null","","","","learningBlock2","","","","That was a wug.","null","","","","",""
"","html-keyboard-response","433","466267","0.0-8.0-2.61","FL","s48cjlol2y","1440","900","de","er04rt18","null","","","","learningBlock2","","","","<div style=""font-size:60px;""> </div>","null","FL","learning/Slide142.JPG","That was a wug.","",""
"","image-keyboard-response","434","466449","0.0-8.0-0.62","FL","s48cjlol2y","1440","900","de","er04rt18","null","","","","","","","","learning/Slide143.JPG","null","","","","",""
"","html-keyboard-response","435","467607","0.0-8.0-1.62","FL","s48cjlol2y","1440","900","de","er04rt18","null","","","","learningBlock2","","","","That was a bim.","null","","","","",""
"","html-keyboard-response","436","468612","0.0-8.0-2.62","FL","s48cjlol2y","1440","900","de","er04rt18","null","","","","learningBlock2","","","","<div style=""font-size:60px;""> </div>","null","FL","learning/Slide143.JPG","That was a bim.","",""
"","image-keyboard-response","437","468792","0.0-8.0-0.63","FL","s48cjlol2y","1440","900","de","er04rt18","null","","","","","","","","learning/Slide144.JPG","null","","","","",""
"","html-keyboard-response","438","469947","0.0-8.0-1.63","FL","s48cjlol2y","1440","900","de","er04rt18","null","","","","learningBlock2","","","","That was a dep.","null","","","","",""
"","html-keyboard-response","439","470951","0.0-8.0-2.63","FL","s48cjlol2y","1440","900","de","er04rt18","null","","","","learningBlock2","","","","<div style=""font-size:60px;""> </div>","null","FL","learning/Slide144.JPG","That was a dep.","",""
"","image-keyboard-response","440","471133","0.0-8.0-0.64","FL","s48cjlol2y","1440","900","de","er04rt18","null","","","","","","","","learning/Slide145.JPG","null","","","","",""
"","html-keyboard-response","441","472292","0.0-8.0-1.64","FL","s48cjlol2y","1440","900","de","er04rt18","null","","","","learningBlock2","","","","That was a bim.","null","","","","",""
"","html-keyboard-response","442","473296","0.0-8.0-2.64","FL","s48cjlol2y","1440","900","de","er04rt18","null","","","","learningBlock2","","","","<div style=""font-size:60px;""> </div>","null","FL","learning/Slide145.JPG","That was a bim.","",""
"","image-keyboard-response","443","473477","0.0-8.0-0.65","FL","s48cjlol2y","1440","900","de","er04rt18","null","","","","","","","","learning/Slide146.JPG","null","","","","",""
"","html-keyboard-response","444","474637","0.0-8.0-1.65","FL","s48cjlol2y","1440","900","de","er04rt18","null","","","","learningBlock2","","","","That was a tob.","null","","","","",""
"","html-keyboard-response","445","475642","0.0-8.0-2.65","FL","s48cjlol2y","1440","900","de","er04rt18","null","","","","learningBlock2","","","","<div style=""font-size:60px;""> </div>","null","FL","learning/Slide146.JPG","That was a tob.","",""
"","image-keyboard-response","446","475819","0.0-8.0-0.66","FL","s48cjlol2y","1440","900","de","er04rt18","null","","","","","","","","learning/Slide147.JPG","null","","","","",""
"","html-keyboard-response","447","476977","0.0-8.0-1.66","FL","s48cjlol2y","1440","900","de","er04rt18","null","","","","learningBlock2","","","","That was a wug.","null","","","","",""
"","html-keyboard-response","448","477982","0.0-8.0-2.66","FL","s48cjlol2y","1440","900","de","er04rt18","null","","","","learningBlock2","","","","<div style=""font-size:60px;""> </div>","null","FL","learning/Slide147.JPG","That was a wug.","",""
"","image-keyboard-response","449","478161","0.0-8.0-0.67","FL","s48cjlol2y","1440","900","de","er04rt18","null","","","","","","","","learning/Slide148.JPG","null","","","","",""
"","html-keyboard-response","450","479323","0.0-8.0-1.67","FL","s48cjlol2y","1440","900","de","er04rt18","null","","","","learningBlock2","","","","That was a bim.","null","","","","",""
"","html-keyboard-response","451","480327","0.0-8.0-2.67","FL","s48cjlol2y","1440","900","de","er04rt18","null","","","","learningBlock2","","","","<div style=""font-size:60px;""> </div>","null","FL","learning/Slide148.JPG","That was a bim.","",""
"","image-keyboard-response","452","480509","0.0-8.0-0.68","FL","s48cjlol2y","1440","900","de","er04rt18","null","","","","","","","","learning/Slide149.JPG","null","","","","",""
"","html-keyboard-response","453","481665","0.0-8.0-1.68","FL","s48cjlol2y","1440","900","de","er04rt18","null","","","","learningBlock2","","","","That was a dep.","null","","","","",""
"","html-keyboard-response","454","482669","0.0-8.0-2.68","FL","s48cjlol2y","1440","900","de","er04rt18","null","","","","learningBlock2","","","","<div style=""font-size:60px;""> </div>","null","FL","learning/Slide149.JPG","That was a dep.","",""
"","image-keyboard-response","455","482850","0.0-8.0-0.69","FL","s48cjlol2y","1440","900","de","er04rt18","null","","","","","","","","learning/Slide150.JPG","null","","","","",""
"","html-keyboard-response","456","484011","0.0-8.0-1.69","FL","s48cjlol2y","1440","900","de","er04rt18","null","","","","learningBlock2","","","","That was a wug.","null","","","","",""
"","html-keyboard-response","457","485015","0.0-8.0-2.69","FL","s48cjlol2y","1440","900","de","er04rt18","null","","","","learningBlock2","","","","<div style=""font-size:60px;""> </div>","null","FL","learning/Slide150.JPG","That was a wug.","",""
"","image-keyboard-response","458","485196","0.0-8.0-0.70","FL","s48cjlol2y","1440","900","de","er04rt18","null","","","","","","","","learning/Slide151.JPG","null","","","","",""
"","html-keyboard-response","459","486358","0.0-8.0-1.70","FL","s48cjlol2y","1440","900","de","er04rt18","null","","","","learningBlock2","","","","That was a dep.","null","","","","",""
"","html-keyboard-response","460","487362","0.0-8.0-2.70","FL","s48cjlol2y","1440","900","de","er04rt18","null","","","","learningBlock2","","","","<div style=""font-size:60px;""> </div>","null","FL","learning/Slide151.JPG","That was a dep.","",""
"","image-keyboard-response","461","487542","0.0-8.0-0.71","FL","s48cjlol2y","1440","900","de","er04rt18","null","","","","","","","","learning/Slide152.JPG","null","","","","",""
"","html-keyboard-response","462","488703","0.0-8.0-1.71","FL","s48cjlol2y","1440","900","de","er04rt18","null","","","","learningBlock2","","","","That was a wug.","null","","","","",""
"","html-keyboard-response","463","489707","0.0-8.0-2.71","FL","s48cjlol2y","1440","900","de","er04rt18","null","","","","learningBlock2","","","","<div style=""font-size:60px;""> </div>","null","FL","learning/Slide152.JPG","That was a wug.","",""
"","image-keyboard-response","464","489887","0.0-8.0-0.72","FL","s48cjlol2y","1440","900","de","er04rt18","null","","","","","","","","learning/Slide153.JPG","null","","","","",""
"","html-keyboard-response","465","491044","0.0-8.0-1.72","FL","s48cjlol2y","1440","900","de","er04rt18","null","","","","learningBlock2","","","","That was a bim.","null","","","","",""
"","html-keyboard-response","466","492045","0.0-8.0-2.72","FL","s48cjlol2y","1440","900","de","er04rt18","null","","","","learningBlock2","","","","<div style=""font-size:60px;""> </div>","null","FL","learning/Slide153.JPG","That was a bim.","",""
"","image-keyboard-response","467","492226","0.0-8.0-0.73","FL","s48cjlol2y","1440","900","de","er04rt18","null","","","","","","","","learning/Slide154.JPG","null","","","","",""
"","html-keyboard-response","468","493388","0.0-8.0-1.73","FL","s48cjlol2y","1440","900","de","er04rt18","null","","","","learningBlock2","","","","That was a tob.","null","","","","",""
"","html-keyboard-response","469","494392","0.0-8.0-2.73","FL","s48cjlol2y","1440","900","de","er04rt18","null","","","","learningBlock2","","","","<div style=""font-size:60px;""> </div>","null","FL","learning/Slide154.JPG","That was a tob.","",""
"","image-keyboard-response","470","494569","0.0-8.0-0.74","FL","s48cjlol2y","1440","900","de","er04rt18","null","","","","","","","","learning/Slide155.JPG","null","","","","",""
"","html-keyboard-response","471","495731","0.0-8.0-1.74","FL","s48cjlol2y","1440","900","de","er04rt18","null","","","","learningBlock2","","","","That was a dep.","null","","","","",""
"","html-keyboard-response","472","496735","0.0-8.0-2.74","FL","s48cjlol2y","1440","900","de","er04rt18","null","","","","learningBlock2","","","","<div style=""font-size:60px;""> </div>","null","FL","learning/Slide155.JPG","That was a dep.","",""
"","image-keyboard-response","473","496913","0.0-8.0-0.75","FL","s48cjlol2y","1440","900","de","er04rt18","null","","","","","","","","learning/Slide156.JPG","null","","","","",""
"","html-keyboard-response","474","498075","0.0-8.0-1.75","FL","s48cjlol2y","1440","900","de","er04rt18","null","","","","learningBlock2","","","","That was a bim.","null","","","","",""
"","html-keyboard-response","475","499081","0.0-8.0-2.75","FL","s48cjlol2y","1440","900","de","er04rt18","null","","","","learningBlock2","","","","<div style=""font-size:60px;""> </div>","null","FL","learning/Slide156.JPG","That was a bim.","",""
"","image-keyboard-response","476","499262","0.0-8.0-0.76","FL","s48cjlol2y","1440","900","de","er04rt18","null","","","","","","","","learning/Slide157.JPG","null","","","","",""
"","html-keyboard-response","477","500423","0.0-8.0-1.76","FL","s48cjlol2y","1440","900","de","er04rt18","null","","","","learningBlock2","","","","That was a dep.","null","","","","",""
"","html-keyboard-response","478","501427","0.0-8.0-2.76","FL","s48cjlol2y","1440","900","de","er04rt18","null","","","","learningBlock2","","","","<div style=""font-size:60px;""> </div>","null","FL","learning/Slide157.JPG","That was a dep.","",""
"","image-keyboard-response","479","501609","0.0-8.0-0.77","FL","s48cjlol2y","1440","900","de","er04rt18","null","","","","","","","","learning/Slide158.JPG","null","","","","",""
"","html-keyboard-response","480","502770","0.0-8.0-1.77","FL","s48cjlol2y","1440","900","de","er04rt18","null","","","","learningBlock2","","","","That was a tob.","null","","","","",""
"","html-keyboard-response","481","503774","0.0-8.0-2.77","FL","s48cjlol2y","1440","900","de","er04rt18","null","","","","learningBlock2","","","","<div style=""font-size:60px;""> </div>","null","FL","learning/Slide158.JPG","That was a tob.","",""
"","image-keyboard-response","482","503955","0.0-8.0-0.78","FL","s48cjlol2y","1440","900","de","er04rt18","null","","","","","","","","learning/Slide159.JPG","null","","","","",""
"","html-keyboard-response","483","505113","0.0-8.0-1.78","FL","s48cjlol2y","1440","900","de","er04rt18","null","","","","learningBlock2","","","","That was a dep.","null","","","","",""
"","html-keyboard-response","484","506117","0.0-8.0-2.78","FL","s48cjlol2y","1440","900","de","er04rt18","null","","","","learningBlock2","","","","<div style=""font-size:60px;""> </div>","null","FL","learning/Slide159.JPG","That was a dep.","",""
"","image-keyboard-response","485","506298","0.0-8.0-0.79","FL","s48cjlol2y","1440","900","de","er04rt18","null","","","","","","","","learning/Slide160.JPG","null","","","","",""
"","html-keyboard-response","486","507460","0.0-8.0-1.79","FL","s48cjlol2y","1440","900","de","er04rt18","null","","","","learningBlock2","","","","That was a wug.","null","","","","",""
"","html-keyboard-response","487","508465","0.0-8.0-2.79","FL","s48cjlol2y","1440","900","de","er04rt18","null","","","","learningBlock2","","","","<div style=""font-size:60px;""> </div>","null","FL","learning/Slide160.JPG","That was a wug.","",""
"","resize2","488","516327","0.0-9.0","FL","s48cjlol2y","1440","900","de","er04rt18","","","","","","","104","1.04","","","","","","",""
