"success","trial_type","trial_index","time_elapsed","internal_node_id","condition","subject","screen_width","screen_height","language","codeword","rt","responses","url","view_history","test_part","final_height_px","final_width_px","scale_factor","stimulus","key_press","learningType","presentedImage","presentedLabel","button_pressed","response"
"true","fullscreen","0","4151","0.0-0.0","FL","khlkyd4sl5","1280","800","en","en04az24","","","","","","","","","","","","","","",""
"","survey-html-form","1","9147","0.0-1.0","FL","khlkyd4sl5","1280","800","en","en04az24","4982.429999974556","{""language"":""en""}","","","","","","","","","","","","",""
"","external-html","2","51109","0.0-3.0-0.0","FL","khlkyd4sl5","1280","800","en","en04az24","41888.68000009097","","text/information_english.html","","","","","","","","","","","",""
"","external-html","3","68430","0.0-3.0-1.0","FL","khlkyd4sl5","1280","800","en","en04az24","17187.44999996852","","text/consent_english.html","","","","","","","","","","","",""
"","survey-html-form","4","149792","0.0-3.0-2.0","FL","khlkyd4sl5","1280","800","en","en04az24","81341.8899999233","{""codeword_enter"":""en04az24""}","","","","","","","","","","","","",""
"","instructions","5","171675","0.0-4.0","FL","khlkyd4sl5","1280","800","en","en04az24","NA","","","[{""page_index"":0,""viewing_time"":5774.7000000672415},{""page_index"":1,""viewing_time"":14586.81499992963}]","instructions","","","","","","","","","",""
"","resize","6","238960","0.0-5.0","FL","khlkyd4sl5","1280","800","en","en04az24","","","","","","","498","3.1619047619047618","","","","","","",""
"","image-keyboard-response","7","239159","0.0-6.0-0.0","FL","khlkyd4sl5","1280","800","en","en04az24","null","","","","","","","","learning/Slide1.JPG","null","","","","",""
"","html-keyboard-response","8","240335","0.0-6.0-1.0","FL","khlkyd4sl5","1280","800","en","en04az24","null","","","","learningBlock1","","","","That was a tob.","null","","","","",""
"","html-keyboard-response","9","241341","0.0-6.0-2.0","FL","khlkyd4sl5","1280","800","en","en04az24","null","","","","learningBlock1","","","","<div style=""font-size:60px;""> </div>","null","FL","learning/Slide1.JPG","That was a tob.","",""
"","image-keyboard-response","10","241526","0.0-6.0-0.1","FL","khlkyd4sl5","1280","800","en","en04az24","null","","","","","","","","learning/Slide2.JPG","null","","","","",""
"","html-keyboard-response","11","242691","0.0-6.0-1.1","FL","khlkyd4sl5","1280","800","en","en04az24","null","","","","learningBlock1","","","","That was a wug.","null","","","","",""
"","html-keyboard-response","12","243701","0.0-6.0-2.1","FL","khlkyd4sl5","1280","800","en","en04az24","null","","","","learningBlock1","","","","<div style=""font-size:60px;""> </div>","null","FL","learning/Slide2.JPG","That was a wug.","",""
"","image-keyboard-response","13","243885","0.0-6.0-0.2","FL","khlkyd4sl5","1280","800","en","en04az24","null","","","","","","","","learning/Slide3.JPG","null","","","","",""
"","html-keyboard-response","14","245047","0.0-6.0-1.2","FL","khlkyd4sl5","1280","800","en","en04az24","null","","","","learningBlock1","","","","That was a bim.","null","","","","",""
"","html-keyboard-response","15","246052","0.0-6.0-2.2","FL","khlkyd4sl5","1280","800","en","en04az24","null","","","","learningBlock1","","","","<div style=""font-size:60px;""> </div>","null","FL","learning/Slide3.JPG","That was a bim.","",""
"","image-keyboard-response","16","246244","0.0-6.0-0.3","FL","khlkyd4sl5","1280","800","en","en04az24","null","","","","","","","","learning/Slide4.JPG","null","","","","",""
"","html-keyboard-response","17","247407","0.0-6.0-1.3","FL","khlkyd4sl5","1280","800","en","en04az24","null","","","","learningBlock1","","","","That was a dep.","null","","","","",""
"","html-keyboard-response","18","248420","0.0-6.0-2.3","FL","khlkyd4sl5","1280","800","en","en04az24","null","","","","learningBlock1","","","","<div style=""font-size:60px;""> </div>","null","FL","learning/Slide4.JPG","That was a dep.","",""
"","image-keyboard-response","19","248611","0.0-6.0-0.4","FL","khlkyd4sl5","1280","800","en","en04az24","null","","","","","","","","learning/Slide5.JPG","null","","","","",""
"","html-keyboard-response","20","249782","0.0-6.0-1.4","FL","khlkyd4sl5","1280","800","en","en04az24","null","","","","learningBlock1","","","","That was a wug.","null","","","","",""
"","html-keyboard-response","21","250787","0.0-6.0-2.4","FL","khlkyd4sl5","1280","800","en","en04az24","null","","","","learningBlock1","","","","<div style=""font-size:60px;""> </div>","null","FL","learning/Slide5.JPG","That was a wug.","",""
"","image-keyboard-response","22","250975","0.0-6.0-0.5","FL","khlkyd4sl5","1280","800","en","en04az24","null","","","","","","","","learning/Slide6.JPG","null","","","","",""
"","html-keyboard-response","23","252136","0.0-6.0-1.5","FL","khlkyd4sl5","1280","800","en","en04az24","null","","","","learningBlock1","","","","That was a dep.","null","","","","",""
"","html-keyboard-response","24","253150","0.0-6.0-2.5","FL","khlkyd4sl5","1280","800","en","en04az24","null","","","","learningBlock1","","","","<div style=""font-size:60px;""> </div>","null","FL","learning/Slide6.JPG","That was a dep.","",""
"","image-keyboard-response","25","253336","0.0-6.0-0.6","FL","khlkyd4sl5","1280","800","en","en04az24","null","","","","","","","","learning/Slide7.JPG","null","","","","",""
"","html-keyboard-response","26","254497","0.0-6.0-1.6","FL","khlkyd4sl5","1280","800","en","en04az24","null","","","","learningBlock1","","","","That was a wug.","null","","","","",""
"","html-keyboard-response","27","255503","0.0-6.0-2.6","FL","khlkyd4sl5","1280","800","en","en04az24","null","","","","learningBlock1","","","","<div style=""font-size:60px;""> </div>","null","FL","learning/Slide7.JPG","That was a wug.","",""
"","image-keyboard-response","28","255688","0.0-6.0-0.7","FL","khlkyd4sl5","1280","800","en","en04az24","null","","","","","","","","learning/Slide8.JPG","null","","","","",""
"","html-keyboard-response","29","256850","0.0-6.0-1.7","FL","khlkyd4sl5","1280","800","en","en04az24","null","","","","learningBlock1","","","","That was a bim.","null","","","","",""
"","html-keyboard-response","30","257858","0.0-6.0-2.7","FL","khlkyd4sl5","1280","800","en","en04az24","null","","","","learningBlock1","","","","<div style=""font-size:60px;""> </div>","null","FL","learning/Slide8.JPG","That was a bim.","",""
"","image-keyboard-response","31","258046","0.0-6.0-0.8","FL","khlkyd4sl5","1280","800","en","en04az24","null","","","","","","","","learning/Slide9.JPG","null","","","","",""
"","html-keyboard-response","32","259213","0.0-6.0-1.8","FL","khlkyd4sl5","1280","800","en","en04az24","null","","","","learningBlock1","","","","That was a wug.","null","","","","",""
"","html-keyboard-response","33","260223","0.0-6.0-2.8","FL","khlkyd4sl5","1280","800","en","en04az24","null","","","","learningBlock1","","","","<div style=""font-size:60px;""> </div>","null","FL","learning/Slide9.JPG","That was a wug.","",""
"","image-keyboard-response","34","260417","0.0-6.0-0.9","FL","khlkyd4sl5","1280","800","en","en04az24","null","","","","","","","","learning/Slide10.JPG","null","","","","",""
"","html-keyboard-response","35","261586","0.0-6.0-1.9","FL","khlkyd4sl5","1280","800","en","en04az24","null","","","","learningBlock1","","","","That was a dep.","null","","","","",""
"","html-keyboard-response","36","262600","0.0-6.0-2.9","FL","khlkyd4sl5","1280","800","en","en04az24","null","","","","learningBlock1","","","","<div style=""font-size:60px;""> </div>","null","FL","learning/Slide10.JPG","That was a dep.","",""
"","image-keyboard-response","37","262782","0.0-6.0-0.10","FL","khlkyd4sl5","1280","800","en","en04az24","null","","","","","","","","learning/Slide11.JPG","null","","","","",""
"","html-keyboard-response","38","263945","0.0-6.0-1.10","FL","khlkyd4sl5","1280","800","en","en04az24","null","","","","learningBlock1","","","","That was a tob.","null","","","","",""
"","html-keyboard-response","39","264957","0.0-6.0-2.10","FL","khlkyd4sl5","1280","800","en","en04az24","null","","","","learningBlock1","","","","<div style=""font-size:60px;""> </div>","null","FL","learning/Slide11.JPG","That was a tob.","",""
"","image-keyboard-response","40","265142","0.0-6.0-0.11","FL","khlkyd4sl5","1280","800","en","en04az24","null","","","","","","","","learning/Slide12.JPG","null","","","","",""
"","html-keyboard-response","41","266318","0.0-6.0-1.11","FL","khlkyd4sl5","1280","800","en","en04az24","null","","","","learningBlock1","","","","That was a dep.","null","","","","",""
"","html-keyboard-response","42","267325","0.0-6.0-2.11","FL","khlkyd4sl5","1280","800","en","en04az24","null","","","","learningBlock1","","","","<div style=""font-size:60px;""> </div>","null","FL","learning/Slide12.JPG","That was a dep.","",""
"","image-keyboard-response","43","267513","0.0-6.0-0.12","FL","khlkyd4sl5","1280","800","en","en04az24","null","","","","","","","","learning/Slide13.JPG","null","","","","",""
"","html-keyboard-response","44","268671","0.0-6.0-1.12","FL","khlkyd4sl5","1280","800","en","en04az24","null","","","","learningBlock1","","","","That was a bim.","null","","","","",""
"","html-keyboard-response","45","269677","0.0-6.0-2.12","FL","khlkyd4sl5","1280","800","en","en04az24","null","","","","learningBlock1","","","","<div style=""font-size:60px;""> </div>","null","FL","learning/Slide13.JPG","That was a bim.","",""
"","image-keyboard-response","46","269861","0.0-6.0-0.13","FL","khlkyd4sl5","1280","800","en","en04az24","null","","","","","","","","learning/Slide14.JPG","null","","","","",""
"","html-keyboard-response","47","271022","0.0-6.0-1.13","FL","khlkyd4sl5","1280","800","en","en04az24","null","","","","learningBlock1","","","","That was a wug.","null","","","","",""
"","html-keyboard-response","48","272030","0.0-6.0-2.13","FL","khlkyd4sl5","1280","800","en","en04az24","null","","","","learningBlock1","","","","<div style=""font-size:60px;""> </div>","null","FL","learning/Slide14.JPG","That was a wug.","",""
"","image-keyboard-response","49","272212","0.0-6.0-0.14","FL","khlkyd4sl5","1280","800","en","en04az24","null","","","","","","","","learning/Slide15.JPG","null","","","","",""
"","html-keyboard-response","50","273370","0.0-6.0-1.14","FL","khlkyd4sl5","1280","800","en","en04az24","null","","","","learningBlock1","","","","That was a tob.","null","","","","",""
"","html-keyboard-response","51","274378","0.0-6.0-2.14","FL","khlkyd4sl5","1280","800","en","en04az24","null","","","","learningBlock1","","","","<div style=""font-size:60px;""> </div>","null","FL","learning/Slide15.JPG","That was a tob.","",""
"","image-keyboard-response","52","274565","0.0-6.0-0.15","FL","khlkyd4sl5","1280","800","en","en04az24","null","","","","","","","","learning/Slide16.JPG","null","","","","",""
"","html-keyboard-response","53","275729","0.0-6.0-1.15","FL","khlkyd4sl5","1280","800","en","en04az24","null","","","","learningBlock1","","","","That was a dep.","null","","","","",""
"","html-keyboard-response","54","276739","0.0-6.0-2.15","FL","khlkyd4sl5","1280","800","en","en04az24","null","","","","learningBlock1","","","","<div style=""font-size:60px;""> </div>","null","FL","learning/Slide16.JPG","That was a dep.","",""
"","image-keyboard-response","55","276926","0.0-6.0-0.16","FL","khlkyd4sl5","1280","800","en","en04az24","null","","","","","","","","learning/Slide17.JPG","null","","","","",""
"","html-keyboard-response","56","278100","0.0-6.0-1.16","FL","khlkyd4sl5","1280","800","en","en04az24","null","","","","learningBlock1","","","","That was a bim.","null","","","","",""
"","html-keyboard-response","57","279114","0.0-6.0-2.16","FL","khlkyd4sl5","1280","800","en","en04az24","null","","","","learningBlock1","","","","<div style=""font-size:60px;""> </div>","null","FL","learning/Slide17.JPG","That was a bim.","",""
"","image-keyboard-response","58","279296","0.0-6.0-0.17","FL","khlkyd4sl5","1280","800","en","en04az24","null","","","","","","","","learning/Slide18.JPG","null","","","","",""
"","html-keyboard-response","59","280467","0.0-6.0-1.17","FL","khlkyd4sl5","1280","800","en","en04az24","null","","","","learningBlock1","","","","That was a tob.","null","","","","",""
"","html-keyboard-response","60","281477","0.0-6.0-2.17","FL","khlkyd4sl5","1280","800","en","en04az24","null","","","","learningBlock1","","","","<div style=""font-size:60px;""> </div>","null","FL","learning/Slide18.JPG","That was a tob.","",""
"","image-keyboard-response","61","281659","0.0-6.0-0.18","FL","khlkyd4sl5","1280","800","en","en04az24","null","","","","","","","","learning/Slide19.JPG","null","","","","",""
"","html-keyboard-response","62","282836","0.0-6.0-1.18","FL","khlkyd4sl5","1280","800","en","en04az24","null","","","","learningBlock1","","","","That was a wug.","null","","","","",""
"","html-keyboard-response","63","283847","0.0-6.0-2.18","FL","khlkyd4sl5","1280","800","en","en04az24","null","","","","learningBlock1","","","","<div style=""font-size:60px;""> </div>","null","FL","learning/Slide19.JPG","That was a wug.","",""
"","image-keyboard-response","64","284030","0.0-6.0-0.19","FL","khlkyd4sl5","1280","800","en","en04az24","null","","","","","","","","learning/Slide20.JPG","null","","","","",""
"","html-keyboard-response","65","285195","0.0-6.0-1.19","FL","khlkyd4sl5","1280","800","en","en04az24","null","","","","learningBlock1","","","","That was a bim.","null","","","","",""
"","html-keyboard-response","66","286202","0.0-6.0-2.19","FL","khlkyd4sl5","1280","800","en","en04az24","null","","","","learningBlock1","","","","<div style=""font-size:60px;""> </div>","null","FL","learning/Slide20.JPG","That was a bim.","",""
"","image-keyboard-response","67","286390","0.0-6.0-0.20","FL","khlkyd4sl5","1280","800","en","en04az24","null","","","","","","","","learning/Slide21.JPG","null","","","","",""
"","html-keyboard-response","68","287551","0.0-6.0-1.20","FL","khlkyd4sl5","1280","800","en","en04az24","null","","","","learningBlock1","","","","That was a dep.","null","","","","",""
"","html-keyboard-response","69","288574","0.0-6.0-2.20","FL","khlkyd4sl5","1280","800","en","en04az24","null","","","","learningBlock1","","","","<div style=""font-size:60px;""> </div>","null","FL","learning/Slide21.JPG","That was a dep.","",""
"","image-keyboard-response","70","288761","0.0-6.0-0.21","FL","khlkyd4sl5","1280","800","en","en04az24","null","","","","","","","","learning/Slide22.JPG","null","","","","",""
"","html-keyboard-response","71","289931","0.0-6.0-1.21","FL","khlkyd4sl5","1280","800","en","en04az24","null","","","","learningBlock1","","","","That was a bim.","null","","","","",""
"","html-keyboard-response","72","290941","0.0-6.0-2.21","FL","khlkyd4sl5","1280","800","en","en04az24","null","","","","learningBlock1","","","","<div style=""font-size:60px;""> </div>","null","FL","learning/Slide22.JPG","That was a bim.","",""
"","image-keyboard-response","73","291125","0.0-6.0-0.22","FL","khlkyd4sl5","1280","800","en","en04az24","null","","","","","","","","learning/Slide23.JPG","null","","","","",""
"","html-keyboard-response","74","292295","0.0-6.0-1.22","FL","khlkyd4sl5","1280","800","en","en04az24","null","","","","learningBlock1","","","","That was a tob.","null","","","","",""
"","html-keyboard-response","75","293314","0.0-6.0-2.22","FL","khlkyd4sl5","1280","800","en","en04az24","null","","","","learningBlock1","","","","<div style=""font-size:60px;""> </div>","null","FL","learning/Slide23.JPG","That was a tob.","",""
"","image-keyboard-response","76","293499","0.0-6.0-0.23","FL","khlkyd4sl5","1280","800","en","en04az24","null","","","","","","","","learning/Slide24.JPG","null","","","","",""
"","html-keyboard-response","77","294666","0.0-6.0-1.23","FL","khlkyd4sl5","1280","800","en","en04az24","null","","","","learningBlock1","","","","That was a wug.","null","","","","",""
"","html-keyboard-response","78","295676","0.0-6.0-2.23","FL","khlkyd4sl5","1280","800","en","en04az24","null","","","","learningBlock1","","","","<div style=""font-size:60px;""> </div>","null","FL","learning/Slide24.JPG","That was a wug.","",""
"","image-keyboard-response","79","295858","0.0-6.0-0.24","FL","khlkyd4sl5","1280","800","en","en04az24","null","","","","","","","","learning/Slide25.JPG","null","","","","",""
"","html-keyboard-response","80","297023","0.0-6.0-1.24","FL","khlkyd4sl5","1280","800","en","en04az24","null","","","","learningBlock1","","","","That was a dep.","null","","","","",""
"","html-keyboard-response","81","298035","0.0-6.0-2.24","FL","khlkyd4sl5","1280","800","en","en04az24","null","","","","learningBlock1","","","","<div style=""font-size:60px;""> </div>","null","FL","learning/Slide25.JPG","That was a dep.","",""
"","image-keyboard-response","82","298219","0.0-6.0-0.25","FL","khlkyd4sl5","1280","800","en","en04az24","null","","","","","","","","learning/Slide26.JPG","null","","","","",""
"","html-keyboard-response","83","299383","0.0-6.0-1.25","FL","khlkyd4sl5","1280","800","en","en04az24","null","","","","learningBlock1","","","","That was a wug.","null","","","","",""
"","html-keyboard-response","84","300395","0.0-6.0-2.25","FL","khlkyd4sl5","1280","800","en","en04az24","null","","","","learningBlock1","","","","<div style=""font-size:60px;""> </div>","null","FL","learning/Slide26.JPG","That was a wug.","",""
"","image-keyboard-response","85","300582","0.0-6.0-0.26","FL","khlkyd4sl5","1280","800","en","en04az24","null","","","","","","","","learning/Slide27.JPG","null","","","","",""
"","html-keyboard-response","86","301741","0.0-6.0-1.26","FL","khlkyd4sl5","1280","800","en","en04az24","null","","","","learningBlock1","","","","That was a bim.","null","","","","",""
"","html-keyboard-response","87","302750","0.0-6.0-2.26","FL","khlkyd4sl5","1280","800","en","en04az24","null","","","","learningBlock1","","","","<div style=""font-size:60px;""> </div>","null","FL","learning/Slide27.JPG","That was a bim.","",""
"","image-keyboard-response","88","302936","0.0-6.0-0.27","FL","khlkyd4sl5","1280","800","en","en04az24","null","","","","","","","","learning/Slide28.JPG","null","","","","",""
"","html-keyboard-response","89","304110","0.0-6.0-1.27","FL","khlkyd4sl5","1280","800","en","en04az24","null","","","","learningBlock1","","","","That was a dep.","null","","","","",""
"","html-keyboard-response","90","305118","0.0-6.0-2.27","FL","khlkyd4sl5","1280","800","en","en04az24","null","","","","learningBlock1","","","","<div style=""font-size:60px;""> </div>","null","FL","learning/Slide28.JPG","That was a dep.","",""
"","image-keyboard-response","91","305303","0.0-6.0-0.28","FL","khlkyd4sl5","1280","800","en","en04az24","null","","","","","","","","learning/Slide29.JPG","null","","","","",""
"","html-keyboard-response","92","306478","0.0-6.0-1.28","FL","khlkyd4sl5","1280","800","en","en04az24","null","","","","learningBlock1","","","","That was a tob.","null","","","","",""
"","html-keyboard-response","93","307485","0.0-6.0-2.28","FL","khlkyd4sl5","1280","800","en","en04az24","null","","","","learningBlock1","","","","<div style=""font-size:60px;""> </div>","null","FL","learning/Slide29.JPG","That was a tob.","",""
"","image-keyboard-response","94","307676","0.0-6.0-0.29","FL","khlkyd4sl5","1280","800","en","en04az24","null","","","","","","","","learning/Slide30.JPG","null","","","","",""
"","html-keyboard-response","95","308840","0.0-6.0-1.29","FL","khlkyd4sl5","1280","800","en","en04az24","null","","","","learningBlock1","","","","That was a dep.","null","","","","",""
"","html-keyboard-response","96","309850","0.0-6.0-2.29","FL","khlkyd4sl5","1280","800","en","en04az24","null","","","","learningBlock1","","","","<div style=""font-size:60px;""> </div>","null","FL","learning/Slide30.JPG","That was a dep.","",""
"","image-keyboard-response","97","310031","0.0-6.0-0.30","FL","khlkyd4sl5","1280","800","en","en04az24","null","","","","","","","","learning/Slide31.JPG","null","","","","",""
"","html-keyboard-response","98","311197","0.0-6.0-1.30","FL","khlkyd4sl5","1280","800","en","en04az24","null","","","","learningBlock1","","","","That was a wug.","null","","","","",""
"","html-keyboard-response","99","312210","0.0-6.0-2.30","FL","khlkyd4sl5","1280","800","en","en04az24","null","","","","learningBlock1","","","","<div style=""font-size:60px;""> </div>","null","FL","learning/Slide31.JPG","That was a wug.","",""
"","image-keyboard-response","100","312394","0.0-6.0-0.31","FL","khlkyd4sl5","1280","800","en","en04az24","null","","","","","","","","learning/Slide32.JPG","null","","","","",""
"","html-keyboard-response","101","313562","0.0-6.0-1.31","FL","khlkyd4sl5","1280","800","en","en04az24","null","","","","learningBlock1","","","","That was a tob.","null","","","","",""
"","html-keyboard-response","102","314567","0.0-6.0-2.31","FL","khlkyd4sl5","1280","800","en","en04az24","null","","","","learningBlock1","","","","<div style=""font-size:60px;""> </div>","null","FL","learning/Slide32.JPG","That was a tob.","",""
"","image-keyboard-response","103","314749","0.0-6.0-0.32","FL","khlkyd4sl5","1280","800","en","en04az24","null","","","","","","","","learning/Slide33.JPG","null","","","","",""
"","html-keyboard-response","104","315918","0.0-6.0-1.32","FL","khlkyd4sl5","1280","800","en","en04az24","null","","","","learningBlock1","","","","That was a bim.","null","","","","",""
"","html-keyboard-response","105","316930","0.0-6.0-2.32","FL","khlkyd4sl5","1280","800","en","en04az24","null","","","","learningBlock1","","","","<div style=""font-size:60px;""> </div>","null","FL","learning/Slide33.JPG","That was a bim.","",""
"","image-keyboard-response","106","317116","0.0-6.0-0.33","FL","khlkyd4sl5","1280","800","en","en04az24","null","","","","","","","","learning/Slide34.JPG","null","","","","",""
"","html-keyboard-response","107","318289","0.0-6.0-1.33","FL","khlkyd4sl5","1280","800","en","en04az24","null","","","","learningBlock1","","","","That was a tob.","null","","","","",""
"","html-keyboard-response","108","319304","0.0-6.0-2.33","FL","khlkyd4sl5","1280","800","en","en04az24","null","","","","learningBlock1","","","","<div style=""font-size:60px;""> </div>","null","FL","learning/Slide34.JPG","That was a tob.","",""
"","image-keyboard-response","109","319497","0.0-6.0-0.34","FL","khlkyd4sl5","1280","800","en","en04az24","null","","","","","","","","learning/Slide35.JPG","null","","","","",""
"","html-keyboard-response","110","320659","0.0-6.0-1.34","FL","khlkyd4sl5","1280","800","en","en04az24","null","","","","learningBlock1","","","","That was a bim.","null","","","","",""
"","html-keyboard-response","111","321670","0.0-6.0-2.34","FL","khlkyd4sl5","1280","800","en","en04az24","null","","","","learningBlock1","","","","<div style=""font-size:60px;""> </div>","null","FL","learning/Slide35.JPG","That was a bim.","",""
"","image-keyboard-response","112","321852","0.0-6.0-0.35","FL","khlkyd4sl5","1280","800","en","en04az24","null","","","","","","","","learning/Slide36.JPG","null","","","","",""
"","html-keyboard-response","113","323012","0.0-6.0-1.35","FL","khlkyd4sl5","1280","800","en","en04az24","null","","","","learningBlock1","","","","That was a dep.","null","","","","",""
"","html-keyboard-response","114","324019","0.0-6.0-2.35","FL","khlkyd4sl5","1280","800","en","en04az24","null","","","","learningBlock1","","","","<div style=""font-size:60px;""> </div>","null","FL","learning/Slide36.JPG","That was a dep.","",""
"","image-keyboard-response","115","324200","0.0-6.0-0.36","FL","khlkyd4sl5","1280","800","en","en04az24","null","","","","","","","","learning/Slide37.JPG","null","","","","",""
"","html-keyboard-response","116","325366","0.0-6.0-1.36","FL","khlkyd4sl5","1280","800","en","en04az24","null","","","","learningBlock1","","","","That was a tob.","null","","","","",""
"","html-keyboard-response","117","326379","0.0-6.0-2.36","FL","khlkyd4sl5","1280","800","en","en04az24","null","","","","learningBlock1","","","","<div style=""font-size:60px;""> </div>","null","FL","learning/Slide37.JPG","That was a tob.","",""
"","image-keyboard-response","118","326566","0.0-6.0-0.37","FL","khlkyd4sl5","1280","800","en","en04az24","null","","","","","","","","learning/Slide38.JPG","null","","","","",""
"","html-keyboard-response","119","327734","0.0-6.0-1.37","FL","khlkyd4sl5","1280","800","en","en04az24","null","","","","learningBlock1","","","","That was a wug.","null","","","","",""
"","html-keyboard-response","120","328745","0.0-6.0-2.37","FL","khlkyd4sl5","1280","800","en","en04az24","null","","","","learningBlock1","","","","<div style=""font-size:60px;""> </div>","null","FL","learning/Slide38.JPG","That was a wug.","",""
"","image-keyboard-response","121","328931","0.0-6.0-0.38","FL","khlkyd4sl5","1280","800","en","en04az24","null","","","","","","","","learning/Slide39.JPG","null","","","","",""
"","html-keyboard-response","122","330100","0.0-6.0-1.38","FL","khlkyd4sl5","1280","800","en","en04az24","null","","","","learningBlock1","","","","That was a bim.","null","","","","",""
"","html-keyboard-response","123","331108","0.0-6.0-2.38","FL","khlkyd4sl5","1280","800","en","en04az24","null","","","","learningBlock1","","","","<div style=""font-size:60px;""> </div>","null","FL","learning/Slide39.JPG","That was a bim.","",""
"","image-keyboard-response","124","331297","0.0-6.0-0.39","FL","khlkyd4sl5","1280","800","en","en04az24","null","","","","","","","","learning/Slide40.JPG","null","","","","",""
"","html-keyboard-response","125","332466","0.0-6.0-1.39","FL","khlkyd4sl5","1280","800","en","en04az24","null","","","","learningBlock1","","","","That was a tob.","null","","","","",""
"","html-keyboard-response","126","333473","0.0-6.0-2.39","FL","khlkyd4sl5","1280","800","en","en04az24","null","","","","learningBlock1","","","","<div style=""font-size:60px;""> </div>","null","FL","learning/Slide40.JPG","That was a tob.","",""
"","image-keyboard-response","127","333661","0.0-6.0-0.40","FL","khlkyd4sl5","1280","800","en","en04az24","null","","","","","","","","learning/Slide41.JPG","null","","","","",""
"","html-keyboard-response","128","334833","0.0-6.0-1.40","FL","khlkyd4sl5","1280","800","en","en04az24","null","","","","learningBlock1","","","","That was a bim.","null","","","","",""
"","html-keyboard-response","129","335842","0.0-6.0-2.40","FL","khlkyd4sl5","1280","800","en","en04az24","null","","","","learningBlock1","","","","<div style=""font-size:60px;""> </div>","null","FL","learning/Slide41.JPG","That was a bim.","",""
"","image-keyboard-response","130","336025","0.0-6.0-0.41","FL","khlkyd4sl5","1280","800","en","en04az24","null","","","","","","","","learning/Slide42.JPG","null","","","","",""
"","html-keyboard-response","131","337193","0.0-6.0-1.41","FL","khlkyd4sl5","1280","800","en","en04az24","null","","","","learningBlock1","","","","That was a dep.","null","","","","",""
"","html-keyboard-response","132","338205","0.0-6.0-2.41","FL","khlkyd4sl5","1280","800","en","en04az24","null","","","","learningBlock1","","","","<div style=""font-size:60px;""> </div>","null","FL","learning/Slide42.JPG","That was a dep.","",""
"","image-keyboard-response","133","338388","0.0-6.0-0.42","FL","khlkyd4sl5","1280","800","en","en04az24","null","","","","","","","","learning/Slide43.JPG","null","","","","",""
"","html-keyboard-response","134","339553","0.0-6.0-1.42","FL","khlkyd4sl5","1280","800","en","en04az24","null","","","","learningBlock1","","","","That was a wug.","null","","","","",""
"","html-keyboard-response","135","340561","0.0-6.0-2.42","FL","khlkyd4sl5","1280","800","en","en04az24","null","","","","learningBlock1","","","","<div style=""font-size:60px;""> </div>","null","FL","learning/Slide43.JPG","That was a wug.","",""
"","image-keyboard-response","136","340744","0.0-6.0-0.43","FL","khlkyd4sl5","1280","800","en","en04az24","null","","","","","","","","learning/Slide44.JPG","null","","","","",""
"","html-keyboard-response","137","341915","0.0-6.0-1.43","FL","khlkyd4sl5","1280","800","en","en04az24","null","","","","learningBlock1","","","","That was a bim.","null","","","","",""
"","html-keyboard-response","138","342922","0.0-6.0-2.43","FL","khlkyd4sl5","1280","800","en","en04az24","null","","","","learningBlock1","","","","<div style=""font-size:60px;""> </div>","null","FL","learning/Slide44.JPG","That was a bim.","",""
"","image-keyboard-response","139","343116","0.0-6.0-0.44","FL","khlkyd4sl5","1280","800","en","en04az24","null","","","","","","","","learning/Slide45.JPG","null","","","","",""
"","html-keyboard-response","140","344283","0.0-6.0-1.44","FL","khlkyd4sl5","1280","800","en","en04az24","null","","","","learningBlock1","","","","That was a wug.","null","","","","",""
"","html-keyboard-response","141","345305","0.0-6.0-2.44","FL","khlkyd4sl5","1280","800","en","en04az24","null","","","","learningBlock1","","","","<div style=""font-size:60px;""> </div>","null","FL","learning/Slide45.JPG","That was a wug.","",""
"","image-keyboard-response","142","345487","0.0-6.0-0.45","FL","khlkyd4sl5","1280","800","en","en04az24","null","","","","","","","","learning/Slide46.JPG","null","","","","",""
"","html-keyboard-response","143","346653","0.0-6.0-1.45","FL","khlkyd4sl5","1280","800","en","en04az24","null","","","","learningBlock1","","","","That was a dep.","null","","","","",""
"","html-keyboard-response","144","347664","0.0-6.0-2.45","FL","khlkyd4sl5","1280","800","en","en04az24","null","","","","learningBlock1","","","","<div style=""font-size:60px;""> </div>","null","FL","learning/Slide46.JPG","That was a dep.","",""
"","image-keyboard-response","145","347846","0.0-6.0-0.46","FL","khlkyd4sl5","1280","800","en","en04az24","null","","","","","","","","learning/Slide47.JPG","null","","","","",""
"","html-keyboard-response","146","349017","0.0-6.0-1.46","FL","khlkyd4sl5","1280","800","en","en04az24","null","","","","learningBlock1","","","","That was a tob.","null","","","","",""
"","html-keyboard-response","147","350026","0.0-6.0-2.46","FL","khlkyd4sl5","1280","800","en","en04az24","null","","","","learningBlock1","","","","<div style=""font-size:60px;""> </div>","null","FL","learning/Slide47.JPG","That was a tob.","",""
"","image-keyboard-response","148","350209","0.0-6.0-0.47","FL","khlkyd4sl5","1280","800","en","en04az24","null","","","","","","","","learning/Slide48.JPG","null","","","","",""
"","html-keyboard-response","149","351370","0.0-6.0-1.47","FL","khlkyd4sl5","1280","800","en","en04az24","null","","","","learningBlock1","","","","That was a bim.","null","","","","",""
"","html-keyboard-response","150","352379","0.0-6.0-2.47","FL","khlkyd4sl5","1280","800","en","en04az24","null","","","","learningBlock1","","","","<div style=""font-size:60px;""> </div>","null","FL","learning/Slide48.JPG","That was a bim.","",""
"","image-keyboard-response","151","352564","0.0-6.0-0.48","FL","khlkyd4sl5","1280","800","en","en04az24","null","","","","","","","","learning/Slide49.JPG","null","","","","",""
"","html-keyboard-response","152","353743","0.0-6.0-1.48","FL","khlkyd4sl5","1280","800","en","en04az24","null","","","","learningBlock1","","","","That was a dep.","null","","","","",""
"","html-keyboard-response","153","354751","0.0-6.0-2.48","FL","khlkyd4sl5","1280","800","en","en04az24","null","","","","learningBlock1","","","","<div style=""font-size:60px;""> </div>","null","FL","learning/Slide49.JPG","That was a dep.","",""
"","image-keyboard-response","154","354935","0.0-6.0-0.49","FL","khlkyd4sl5","1280","800","en","en04az24","null","","","","","","","","learning/Slide50.JPG","null","","","","",""
"","html-keyboard-response","155","356107","0.0-6.0-1.49","FL","khlkyd4sl5","1280","800","en","en04az24","null","","","","learningBlock1","","","","That was a tob.","null","","","","",""
"","html-keyboard-response","156","357120","0.0-6.0-2.49","FL","khlkyd4sl5","1280","800","en","en04az24","null","","","","learningBlock1","","","","<div style=""font-size:60px;""> </div>","null","FL","learning/Slide50.JPG","That was a tob.","",""
"","image-keyboard-response","157","357309","0.0-6.0-0.50","FL","khlkyd4sl5","1280","800","en","en04az24","null","","","","","","","","learning/Slide51.JPG","null","","","","",""
"","html-keyboard-response","158","358479","0.0-6.0-1.50","FL","khlkyd4sl5","1280","800","en","en04az24","null","","","","learningBlock1","","","","That was a bim.","null","","","","",""
"","html-keyboard-response","159","359486","0.0-6.0-2.50","FL","khlkyd4sl5","1280","800","en","en04az24","null","","","","learningBlock1","","","","<div style=""font-size:60px;""> </div>","null","FL","learning/Slide51.JPG","That was a bim.","",""
"","image-keyboard-response","160","359676","0.0-6.0-0.51","FL","khlkyd4sl5","1280","800","en","en04az24","null","","","","","","","","learning/Slide52.JPG","null","","","","",""
"","html-keyboard-response","161","360833","0.0-6.0-1.51","FL","khlkyd4sl5","1280","800","en","en04az24","null","","","","learningBlock1","","","","That was a wug.","null","","","","",""
"","html-keyboard-response","162","361840","0.0-6.0-2.51","FL","khlkyd4sl5","1280","800","en","en04az24","null","","","","learningBlock1","","","","<div style=""font-size:60px;""> </div>","null","FL","learning/Slide52.JPG","That was a wug.","",""
"","image-keyboard-response","163","362022","0.0-6.0-0.52","FL","khlkyd4sl5","1280","800","en","en04az24","null","","","","","","","","learning/Slide53.JPG","null","","","","",""
"","html-keyboard-response","164","363194","0.0-6.0-1.52","FL","khlkyd4sl5","1280","800","en","en04az24","null","","","","learningBlock1","","","","That was a tob.","null","","","","",""
"","html-keyboard-response","165","364201","0.0-6.0-2.52","FL","khlkyd4sl5","1280","800","en","en04az24","null","","","","learningBlock1","","","","<div style=""font-size:60px;""> </div>","null","FL","learning/Slide53.JPG","That was a tob.","",""
"","image-keyboard-response","166","364397","0.0-6.0-0.53","FL","khlkyd4sl5","1280","800","en","en04az24","null","","","","","","","","learning/Slide54.JPG","null","","","","",""
"","html-keyboard-response","167","365563","0.0-6.0-1.53","FL","khlkyd4sl5","1280","800","en","en04az24","null","","","","learningBlock1","","","","That was a dep.","null","","","","",""
"","html-keyboard-response","168","366576","0.0-6.0-2.53","FL","khlkyd4sl5","1280","800","en","en04az24","null","","","","learningBlock1","","","","<div style=""font-size:60px;""> </div>","null","FL","learning/Slide54.JPG","That was a dep.","",""
"","image-keyboard-response","169","366759","0.0-6.0-0.54","FL","khlkyd4sl5","1280","800","en","en04az24","null","","","","","","","","learning/Slide55.JPG","null","","","","",""
"","html-keyboard-response","170","367914","0.0-6.0-1.54","FL","khlkyd4sl5","1280","800","en","en04az24","null","","","","learningBlock1","","","","That was a bim.","null","","","","",""
"","html-keyboard-response","171","368928","0.0-6.0-2.54","FL","khlkyd4sl5","1280","800","en","en04az24","null","","","","learningBlock1","","","","<div style=""font-size:60px;""> </div>","null","FL","learning/Slide55.JPG","That was a bim.","",""
"","image-keyboard-response","172","369111","0.0-6.0-0.55","FL","khlkyd4sl5","1280","800","en","en04az24","null","","","","","","","","learning/Slide56.JPG","null","","","","",""
"","html-keyboard-response","173","370278","0.0-6.0-1.55","FL","khlkyd4sl5","1280","800","en","en04az24","null","","","","learningBlock1","","","","That was a tob.","null","","","","",""
"","html-keyboard-response","174","371281","0.0-6.0-2.55","FL","khlkyd4sl5","1280","800","en","en04az24","null","","","","learningBlock1","","","","<div style=""font-size:60px;""> </div>","null","FL","learning/Slide56.JPG","That was a tob.","",""
"","image-keyboard-response","175","371460","0.0-6.0-0.56","FL","khlkyd4sl5","1280","800","en","en04az24","null","","","","","","","","learning/Slide57.JPG","null","","","","",""
"","html-keyboard-response","176","372625","0.0-6.0-1.56","FL","khlkyd4sl5","1280","800","en","en04az24","null","","","","learningBlock1","","","","That was a dep.","null","","","","",""
"","html-keyboard-response","177","373633","0.0-6.0-2.56","FL","khlkyd4sl5","1280","800","en","en04az24","null","","","","learningBlock1","","","","<div style=""font-size:60px;""> </div>","null","FL","learning/Slide57.JPG","That was a dep.","",""
"","image-keyboard-response","178","373818","0.0-6.0-0.57","FL","khlkyd4sl5","1280","800","en","en04az24","null","","","","","","","","learning/Slide58.JPG","null","","","","",""
"","html-keyboard-response","179","374989","0.0-6.0-1.57","FL","khlkyd4sl5","1280","800","en","en04az24","null","","","","learningBlock1","","","","That was a wug.","null","","","","",""
"","html-keyboard-response","180","375993","0.0-6.0-2.57","FL","khlkyd4sl5","1280","800","en","en04az24","null","","","","learningBlock1","","","","<div style=""font-size:60px;""> </div>","null","FL","learning/Slide58.JPG","That was a wug.","",""
"","image-keyboard-response","181","376180","0.0-6.0-0.58","FL","khlkyd4sl5","1280","800","en","en04az24","null","","","","","","","","learning/Slide59.JPG","null","","","","",""
"","html-keyboard-response","182","377348","0.0-6.0-1.58","FL","khlkyd4sl5","1280","800","en","en04az24","null","","","","learningBlock1","","","","That was a dep.","null","","","","",""
"","html-keyboard-response","183","378358","0.0-6.0-2.58","FL","khlkyd4sl5","1280","800","en","en04az24","null","","","","learningBlock1","","","","<div style=""font-size:60px;""> </div>","null","FL","learning/Slide59.JPG","That was a dep.","",""
"","image-keyboard-response","184","378545","0.0-6.0-0.59","FL","khlkyd4sl5","1280","800","en","en04az24","null","","","","","","","","learning/Slide60.JPG","null","","","","",""
"","html-keyboard-response","185","379716","0.0-6.0-1.59","FL","khlkyd4sl5","1280","800","en","en04az24","null","","","","learningBlock1","","","","That was a wug.","null","","","","",""
"","html-keyboard-response","186","380725","0.0-6.0-2.59","FL","khlkyd4sl5","1280","800","en","en04az24","null","","","","learningBlock1","","","","<div style=""font-size:60px;""> </div>","null","FL","learning/Slide60.JPG","That was a wug.","",""
"","image-keyboard-response","187","380908","0.0-6.0-0.60","FL","khlkyd4sl5","1280","800","en","en04az24","null","","","","","","","","learning/Slide61.JPG","null","","","","",""
"","html-keyboard-response","188","382070","0.0-6.0-1.60","FL","khlkyd4sl5","1280","800","en","en04az24","null","","","","learningBlock1","","","","That was a bim.","null","","","","",""
"","html-keyboard-response","189","383080","0.0-6.0-2.60","FL","khlkyd4sl5","1280","800","en","en04az24","null","","","","learningBlock1","","","","<div style=""font-size:60px;""> </div>","null","FL","learning/Slide61.JPG","That was a bim.","",""
"","image-keyboard-response","190","383263","0.0-6.0-0.61","FL","khlkyd4sl5","1280","800","en","en04az24","null","","","","","","","","learning/Slide62.JPG","null","","","","",""
"","html-keyboard-response","191","384438","0.0-6.0-1.61","FL","khlkyd4sl5","1280","800","en","en04az24","null","","","","learningBlock1","","","","That was a dep.","null","","","","",""
"","html-keyboard-response","192","385447","0.0-6.0-2.61","FL","khlkyd4sl5","1280","800","en","en04az24","null","","","","learningBlock1","","","","<div style=""font-size:60px;""> </div>","null","FL","learning/Slide62.JPG","That was a dep.","",""
"","image-keyboard-response","193","385633","0.0-6.0-0.62","FL","khlkyd4sl5","1280","800","en","en04az24","null","","","","","","","","learning/Slide63.JPG","null","","","","",""
"","html-keyboard-response","194","386815","0.0-6.0-1.62","FL","khlkyd4sl5","1280","800","en","en04az24","null","","","","learningBlock1","","","","That was a bim.","null","","","","",""
"","html-keyboard-response","195","387829","0.0-6.0-2.62","FL","khlkyd4sl5","1280","800","en","en04az24","null","","","","learningBlock1","","","","<div style=""font-size:60px;""> </div>","null","FL","learning/Slide63.JPG","That was a bim.","",""
"","image-keyboard-response","196","388017","0.0-6.0-0.63","FL","khlkyd4sl5","1280","800","en","en04az24","null","","","","","","","","learning/Slide64.JPG","null","","","","",""
"","html-keyboard-response","197","389184","0.0-6.0-1.63","FL","khlkyd4sl5","1280","800","en","en04az24","null","","","","learningBlock1","","","","That was a tob.","null","","","","",""
"","html-keyboard-response","198","390191","0.0-6.0-2.63","FL","khlkyd4sl5","1280","800","en","en04az24","null","","","","learningBlock1","","","","<div style=""font-size:60px;""> </div>","null","FL","learning/Slide64.JPG","That was a tob.","",""
"","image-keyboard-response","199","390378","0.0-6.0-0.64","FL","khlkyd4sl5","1280","800","en","en04az24","null","","","","","","","","learning/Slide65.JPG","null","","","","",""
"","html-keyboard-response","200","391539","0.0-6.0-1.64","FL","khlkyd4sl5","1280","800","en","en04az24","null","","","","learningBlock1","","","","That was a wug.","null","","","","",""
"","html-keyboard-response","201","392549","0.0-6.0-2.64","FL","khlkyd4sl5","1280","800","en","en04az24","null","","","","learningBlock1","","","","<div style=""font-size:60px;""> </div>","null","FL","learning/Slide65.JPG","That was a wug.","",""
"","image-keyboard-response","202","392737","0.0-6.0-0.65","FL","khlkyd4sl5","1280","800","en","en04az24","null","","","","","","","","learning/Slide66.JPG","null","","","","",""
"","html-keyboard-response","203","393901","0.0-6.0-1.65","FL","khlkyd4sl5","1280","800","en","en04az24","null","","","","learningBlock1","","","","That was a dep.","null","","","","",""
"","html-keyboard-response","204","394911","0.0-6.0-2.65","FL","khlkyd4sl5","1280","800","en","en04az24","null","","","","learningBlock1","","","","<div style=""font-size:60px;""> </div>","null","FL","learning/Slide66.JPG","That was a dep.","",""
"","image-keyboard-response","205","395100","0.0-6.0-0.66","FL","khlkyd4sl5","1280","800","en","en04az24","null","","","","","","","","learning/Slide67.JPG","null","","","","",""
"","html-keyboard-response","206","396276","0.0-6.0-1.66","FL","khlkyd4sl5","1280","800","en","en04az24","null","","","","learningBlock1","","","","That was a tob.","null","","","","",""
"","html-keyboard-response","207","397286","0.0-6.0-2.66","FL","khlkyd4sl5","1280","800","en","en04az24","null","","","","learningBlock1","","","","<div style=""font-size:60px;""> </div>","null","FL","learning/Slide67.JPG","That was a tob.","",""
"","image-keyboard-response","208","397469","0.0-6.0-0.67","FL","khlkyd4sl5","1280","800","en","en04az24","null","","","","","","","","learning/Slide68.JPG","null","","","","",""
"","html-keyboard-response","209","398646","0.0-6.0-1.67","FL","khlkyd4sl5","1280","800","en","en04az24","null","","","","learningBlock1","","","","That was a wug.","null","","","","",""
"","html-keyboard-response","210","399661","0.0-6.0-2.67","FL","khlkyd4sl5","1280","800","en","en04az24","null","","","","learningBlock1","","","","<div style=""font-size:60px;""> </div>","null","FL","learning/Slide68.JPG","That was a wug.","",""
"","image-keyboard-response","211","399843","0.0-6.0-0.68","FL","khlkyd4sl5","1280","800","en","en04az24","null","","","","","","","","learning/Slide69.JPG","null","","","","",""
"","html-keyboard-response","212","401009","0.0-6.0-1.68","FL","khlkyd4sl5","1280","800","en","en04az24","null","","","","learningBlock1","","","","That was a tob.","null","","","","",""
"","html-keyboard-response","213","402014","0.0-6.0-2.68","FL","khlkyd4sl5","1280","800","en","en04az24","null","","","","learningBlock1","","","","<div style=""font-size:60px;""> </div>","null","FL","learning/Slide69.JPG","That was a tob.","",""
"","image-keyboard-response","214","402198","0.0-6.0-0.69","FL","khlkyd4sl5","1280","800","en","en04az24","null","","","","","","","","learning/Slide70.JPG","null","","","","",""
"","html-keyboard-response","215","403355","0.0-6.0-1.69","FL","khlkyd4sl5","1280","800","en","en04az24","null","","","","learningBlock1","","","","That was a dep.","null","","","","",""
"","html-keyboard-response","216","404368","0.0-6.0-2.69","FL","khlkyd4sl5","1280","800","en","en04az24","null","","","","learningBlock1","","","","<div style=""font-size:60px;""> </div>","null","FL","learning/Slide70.JPG","That was a dep.","",""
"","image-keyboard-response","217","404566","0.0-6.0-0.70","FL","khlkyd4sl5","1280","800","en","en04az24","null","","","","","","","","learning/Slide71.JPG","null","","","","",""
"","html-keyboard-response","218","405740","0.0-6.0-1.70","FL","khlkyd4sl5","1280","800","en","en04az24","null","","","","learningBlock1","","","","That was a wug.","null","","","","",""
"","html-keyboard-response","219","406752","0.0-6.0-2.70","FL","khlkyd4sl5","1280","800","en","en04az24","null","","","","learningBlock1","","","","<div style=""font-size:60px;""> </div>","null","FL","learning/Slide71.JPG","That was a wug.","",""
"","image-keyboard-response","220","406938","0.0-6.0-0.71","FL","khlkyd4sl5","1280","800","en","en04az24","null","","","","","","","","learning/Slide72.JPG","null","","","","",""
"","html-keyboard-response","221","408101","0.0-6.0-1.71","FL","khlkyd4sl5","1280","800","en","en04az24","null","","","","learningBlock1","","","","That was a bim.","null","","","","",""
"","html-keyboard-response","222","409112","0.0-6.0-2.71","FL","khlkyd4sl5","1280","800","en","en04az24","null","","","","learningBlock1","","","","<div style=""font-size:60px;""> </div>","null","FL","learning/Slide72.JPG","That was a bim.","",""
"","image-keyboard-response","223","409295","0.0-6.0-0.72","FL","khlkyd4sl5","1280","800","en","en04az24","null","","","","","","","","learning/Slide73.JPG","null","","","","",""
"","html-keyboard-response","224","410455","0.0-6.0-1.72","FL","khlkyd4sl5","1280","800","en","en04az24","null","","","","learningBlock1","","","","That was a wug.","null","","","","",""
"","html-keyboard-response","225","411466","0.0-6.0-2.72","FL","khlkyd4sl5","1280","800","en","en04az24","null","","","","learningBlock1","","","","<div style=""font-size:60px;""> </div>","null","FL","learning/Slide73.JPG","That was a wug.","",""
"","image-keyboard-response","226","411653","0.0-6.0-0.73","FL","khlkyd4sl5","1280","800","en","en04az24","null","","","","","","","","learning/Slide74.JPG","null","","","","",""
"","html-keyboard-response","227","412812","0.0-6.0-1.73","FL","khlkyd4sl5","1280","800","en","en04az24","null","","","","learningBlock1","","","","That was a dep.","null","","","","",""
"","html-keyboard-response","228","413817","0.0-6.0-2.73","FL","khlkyd4sl5","1280","800","en","en04az24","null","","","","learningBlock1","","","","<div style=""font-size:60px;""> </div>","null","FL","learning/Slide74.JPG","That was a dep.","",""
"","image-keyboard-response","229","413999","0.0-6.0-0.74","FL","khlkyd4sl5","1280","800","en","en04az24","null","","","","","","","","learning/Slide75.JPG","null","","","","",""
"","html-keyboard-response","230","415166","0.0-6.0-1.74","FL","khlkyd4sl5","1280","800","en","en04az24","null","","","","learningBlock1","","","","That was a tob.","null","","","","",""
"","html-keyboard-response","231","416177","0.0-6.0-2.74","FL","khlkyd4sl5","1280","800","en","en04az24","null","","","","learningBlock1","","","","<div style=""font-size:60px;""> </div>","null","FL","learning/Slide75.JPG","That was a tob.","",""
"","image-keyboard-response","232","416364","0.0-6.0-0.75","FL","khlkyd4sl5","1280","800","en","en04az24","null","","","","","","","","learning/Slide76.JPG","null","","","","",""
"","html-keyboard-response","233","417529","0.0-6.0-1.75","FL","khlkyd4sl5","1280","800","en","en04az24","null","","","","learningBlock1","","","","That was a bim.","null","","","","",""
"","html-keyboard-response","234","418536","0.0-6.0-2.75","FL","khlkyd4sl5","1280","800","en","en04az24","null","","","","learningBlock1","","","","<div style=""font-size:60px;""> </div>","null","FL","learning/Slide76.JPG","That was a bim.","",""
"","image-keyboard-response","235","418720","0.0-6.0-0.76","FL","khlkyd4sl5","1280","800","en","en04az24","null","","","","","","","","learning/Slide77.JPG","null","","","","",""
"","html-keyboard-response","236","419889","0.0-6.0-1.76","FL","khlkyd4sl5","1280","800","en","en04az24","null","","","","learningBlock1","","","","That was a tob.","null","","","","",""
"","html-keyboard-response","237","420895","0.0-6.0-2.76","FL","khlkyd4sl5","1280","800","en","en04az24","null","","","","learningBlock1","","","","<div style=""font-size:60px;""> </div>","null","FL","learning/Slide77.JPG","That was a tob.","",""
"","image-keyboard-response","238","421079","0.0-6.0-0.77","FL","khlkyd4sl5","1280","800","en","en04az24","null","","","","","","","","learning/Slide78.JPG","null","","","","",""
"","html-keyboard-response","239","422249","0.0-6.0-1.77","FL","khlkyd4sl5","1280","800","en","en04az24","null","","","","learningBlock1","","","","That was a wug.","null","","","","",""
"","html-keyboard-response","240","423256","0.0-6.0-2.77","FL","khlkyd4sl5","1280","800","en","en04az24","null","","","","learningBlock1","","","","<div style=""font-size:60px;""> </div>","null","FL","learning/Slide78.JPG","That was a wug.","",""
"","image-keyboard-response","241","423437","0.0-6.0-0.78","FL","khlkyd4sl5","1280","800","en","en04az24","null","","","","","","","","learning/Slide79.JPG","null","","","","",""
"","html-keyboard-response","242","424604","0.0-6.0-1.78","FL","khlkyd4sl5","1280","800","en","en04az24","null","","","","learningBlock1","","","","That was a bim.","null","","","","",""
"","html-keyboard-response","243","425615","0.0-6.0-2.78","FL","khlkyd4sl5","1280","800","en","en04az24","null","","","","learningBlock1","","","","<div style=""font-size:60px;""> </div>","null","FL","learning/Slide79.JPG","That was a bim.","",""
"","image-keyboard-response","244","425801","0.0-6.0-0.79","FL","khlkyd4sl5","1280","800","en","en04az24","null","","","","","","","","learning/Slide80.JPG","null","","","","",""
"","html-keyboard-response","245","426969","0.0-6.0-1.79","FL","khlkyd4sl5","1280","800","en","en04az24","null","","","","learningBlock1","","","","That was a tob.","null","","","","",""
"","html-keyboard-response","246","427980","0.0-6.0-2.79","FL","khlkyd4sl5","1280","800","en","en04az24","null","","","","learningBlock1","","","","<div style=""font-size:60px;""> </div>","null","FL","learning/Slide80.JPG","That was a tob.","",""
"","instructions","247","431510","0.0-7.0","FL","khlkyd4sl5","1280","800","en","en04az24","NA","","","[{""page_index"":0,""viewing_time"":3523.3500000322238}]","instructions","","","","","","","","","",""
"","image-keyboard-response","248","431699","0.0-8.0-0.0","FL","khlkyd4sl5","1280","800","en","en04az24","null","","","","","","","","learning/Slide81.JPG","null","","","","",""
"","html-keyboard-response","249","432864","0.0-8.0-1.0","FL","khlkyd4sl5","1280","800","en","en04az24","null","","","","learningBlock2","","","","That was a wug.","null","","","","",""
"","html-keyboard-response","250","433876","0.0-8.0-2.0","FL","khlkyd4sl5","1280","800","en","en04az24","null","","","","learningBlock2","","","","<div style=""font-size:60px;""> </div>","null","FL","learning/Slide81.JPG","That was a wug.","",""
"","image-keyboard-response","251","434060","0.0-8.0-0.1","FL","khlkyd4sl5","1280","800","en","en04az24","null","","","","","","","","learning/Slide82.JPG","null","","","","",""
"","html-keyboard-response","252","435229","0.0-8.0-1.1","FL","khlkyd4sl5","1280","800","en","en04az24","null","","","","learningBlock2","","","","That was a bim.","null","","","","",""
"","html-keyboard-response","253","436237","0.0-8.0-2.1","FL","khlkyd4sl5","1280","800","en","en04az24","null","","","","learningBlock2","","","","<div style=""font-size:60px;""> </div>","null","FL","learning/Slide82.JPG","That was a bim.","",""
"","image-keyboard-response","254","436426","0.0-8.0-0.2","FL","khlkyd4sl5","1280","800","en","en04az24","null","","","","","","","","learning/Slide83.JPG","null","","","","",""
"","html-keyboard-response","255","437594","0.0-8.0-1.2","FL","khlkyd4sl5","1280","800","en","en04az24","null","","","","learningBlock2","","","","That was a wug.","null","","","","",""
"","html-keyboard-response","256","438609","0.0-8.0-2.2","FL","khlkyd4sl5","1280","800","en","en04az24","null","","","","learningBlock2","","","","<div style=""font-size:60px;""> </div>","null","FL","learning/Slide83.JPG","That was a wug.","",""
"","image-keyboard-response","257","438797","0.0-8.0-0.3","FL","khlkyd4sl5","1280","800","en","en04az24","null","","","","","","","","learning/Slide84.JPG","null","","","","",""
"","html-keyboard-response","258","439959","0.0-8.0-1.3","FL","khlkyd4sl5","1280","800","en","en04az24","null","","","","learningBlock2","","","","That was a dep.","null","","","","",""
"","html-keyboard-response","259","440971","0.0-8.0-2.3","FL","khlkyd4sl5","1280","800","en","en04az24","null","","","","learningBlock2","","","","<div style=""font-size:60px;""> </div>","null","FL","learning/Slide84.JPG","That was a dep.","",""
"","image-keyboard-response","260","441160","0.0-8.0-0.4","FL","khlkyd4sl5","1280","800","en","en04az24","null","","","","","","","","learning/Slide85.JPG","null","","","","",""
"","html-keyboard-response","261","442317","0.0-8.0-1.4","FL","khlkyd4sl5","1280","800","en","en04az24","null","","","","learningBlock2","","","","That was a bim.","null","","","","",""
"","html-keyboard-response","262","443323","0.0-8.0-2.4","FL","khlkyd4sl5","1280","800","en","en04az24","null","","","","learningBlock2","","","","<div style=""font-size:60px;""> </div>","null","FL","learning/Slide85.JPG","That was a bim.","",""
"","image-keyboard-response","263","443511","0.0-8.0-0.5","FL","khlkyd4sl5","1280","800","en","en04az24","null","","","","","","","","learning/Slide86.JPG","null","","","","",""
"","html-keyboard-response","264","444694","0.0-8.0-1.5","FL","khlkyd4sl5","1280","800","en","en04az24","null","","","","learningBlock2","","","","That was a tob.","null","","","","",""
"","html-keyboard-response","265","445714","0.0-8.0-2.5","FL","khlkyd4sl5","1280","800","en","en04az24","null","","","","learningBlock2","","","","<div style=""font-size:60px;""> </div>","null","FL","learning/Slide86.JPG","That was a tob.","",""
"","image-keyboard-response","266","445900","0.0-8.0-0.6","FL","khlkyd4sl5","1280","800","en","en04az24","null","","","","","","","","learning/Slide87.JPG","null","","","","",""
"","html-keyboard-response","267","447061","0.0-8.0-1.6","FL","khlkyd4sl5","1280","800","en","en04az24","null","","","","learningBlock2","","","","That was a wug.","null","","","","",""
"","html-keyboard-response","268","448068","0.0-8.0-2.6","FL","khlkyd4sl5","1280","800","en","en04az24","null","","","","learningBlock2","","","","<div style=""font-size:60px;""> </div>","null","FL","learning/Slide87.JPG","That was a wug.","",""
"","image-keyboard-response","269","448252","0.0-8.0-0.7","FL","khlkyd4sl5","1280","800","en","en04az24","null","","","","","","","","learning/Slide88.JPG","null","","","","",""
"","html-keyboard-response","270","449420","0.0-8.0-1.7","FL","khlkyd4sl5","1280","800","en","en04az24","null","","","","learningBlock2","","","","That was a tob.","null","","","","",""
"","html-keyboard-response","271","450426","0.0-8.0-2.7","FL","khlkyd4sl5","1280","800","en","en04az24","null","","","","learningBlock2","","","","<div style=""font-size:60px;""> </div>","null","FL","learning/Slide88.JPG","That was a tob.","",""
"","image-keyboard-response","272","450618","0.0-8.0-0.8","FL","khlkyd4sl5","1280","800","en","en04az24","null","","","","","","","","learning/Slide89.JPG","null","","","","",""
"","html-keyboard-response","273","451785","0.0-8.0-1.8","FL","khlkyd4sl5","1280","800","en","en04az24","null","","","","learningBlock2","","","","That was a bim.","null","","","","",""
"","html-keyboard-response","274","452797","0.0-8.0-2.8","FL","khlkyd4sl5","1280","800","en","en04az24","null","","","","learningBlock2","","","","<div style=""font-size:60px;""> </div>","null","FL","learning/Slide89.JPG","That was a bim.","",""
"","image-keyboard-response","275","452986","0.0-8.0-0.9","FL","khlkyd4sl5","1280","800","en","en04az24","null","","","","","","","","learning/Slide90.JPG","null","","","","",""
"","html-keyboard-response","276","454154","0.0-8.0-1.9","FL","khlkyd4sl5","1280","800","en","en04az24","null","","","","learningBlock2","","","","That was a dep.","null","","","","",""
"","html-keyboard-response","277","455165","0.0-8.0-2.9","FL","khlkyd4sl5","1280","800","en","en04az24","null","","","","learningBlock2","","","","<div style=""font-size:60px;""> </div>","null","FL","learning/Slide90.JPG","That was a dep.","",""
"","image-keyboard-response","278","455351","0.0-8.0-0.10","FL","khlkyd4sl5","1280","800","en","en04az24","null","","","","","","","","learning/Slide91.JPG","null","","","","",""
"","html-keyboard-response","279","456525","0.0-8.0-1.10","FL","khlkyd4sl5","1280","800","en","en04az24","null","","","","learningBlock2","","","","That was a wug.","null","","","","",""
"","html-keyboard-response","280","457532","0.0-8.0-2.10","FL","khlkyd4sl5","1280","800","en","en04az24","null","","","","learningBlock2","","","","<div style=""font-size:60px;""> </div>","null","FL","learning/Slide91.JPG","That was a wug.","",""
"","image-keyboard-response","281","457717","0.0-8.0-0.11","FL","khlkyd4sl5","1280","800","en","en04az24","null","","","","","","","","learning/Slide92.JPG","null","","","","",""
"","html-keyboard-response","282","458884","0.0-8.0-1.11","FL","khlkyd4sl5","1280","800","en","en04az24","null","","","","learningBlock2","","","","That was a tob.","null","","","","",""
"","html-keyboard-response","283","459897","0.0-8.0-2.11","FL","khlkyd4sl5","1280","800","en","en04az24","null","","","","learningBlock2","","","","<div style=""font-size:60px;""> </div>","null","FL","learning/Slide92.JPG","That was a tob.","",""
"","image-keyboard-response","284","460086","0.0-8.0-0.12","FL","khlkyd4sl5","1280","800","en","en04az24","null","","","","","","","","learning/Slide93.JPG","null","","","","",""
"","html-keyboard-response","285","461255","0.0-8.0-1.12","FL","khlkyd4sl5","1280","800","en","en04az24","null","","","","learningBlock2","","","","That was a bim.","null","","","","",""
"","html-keyboard-response","286","462262","0.0-8.0-2.12","FL","khlkyd4sl5","1280","800","en","en04az24","null","","","","learningBlock2","","","","<div style=""font-size:60px;""> </div>","null","FL","learning/Slide93.JPG","That was a bim.","",""
"","image-keyboard-response","287","462447","0.0-8.0-0.13","FL","khlkyd4sl5","1280","800","en","en04az24","null","","","","","","","","learning/Slide94.JPG","null","","","","",""
"","html-keyboard-response","288","463612","0.0-8.0-1.13","FL","khlkyd4sl5","1280","800","en","en04az24","null","","","","learningBlock2","","","","That was a tob.","null","","","","",""
"","html-keyboard-response","289","464623","0.0-8.0-2.13","FL","khlkyd4sl5","1280","800","en","en04az24","null","","","","learningBlock2","","","","<div style=""font-size:60px;""> </div>","null","FL","learning/Slide94.JPG","That was a tob.","",""
"","image-keyboard-response","290","464808","0.0-8.0-0.14","FL","khlkyd4sl5","1280","800","en","en04az24","null","","","","","","","","learning/Slide95.JPG","null","","","","",""
"","html-keyboard-response","291","465985","0.0-8.0-1.14","FL","khlkyd4sl5","1280","800","en","en04az24","null","","","","learningBlock2","","","","That was a wug.","null","","","","",""
"","html-keyboard-response","292","466992","0.0-8.0-2.14","FL","khlkyd4sl5","1280","800","en","en04az24","null","","","","learningBlock2","","","","<div style=""font-size:60px;""> </div>","null","FL","learning/Slide95.JPG","That was a wug.","",""
"","image-keyboard-response","293","467172","0.0-8.0-0.15","FL","khlkyd4sl5","1280","800","en","en04az24","null","","","","","","","","learning/Slide96.JPG","null","","","","",""
"","html-keyboard-response","294","468334","0.0-8.0-1.15","FL","khlkyd4sl5","1280","800","en","en04az24","null","","","","learningBlock2","","","","That was a tob.","null","","","","",""
"","html-keyboard-response","295","469340","0.0-8.0-2.15","FL","khlkyd4sl5","1280","800","en","en04az24","null","","","","learningBlock2","","","","<div style=""font-size:60px;""> </div>","null","FL","learning/Slide96.JPG","That was a tob.","",""
"","image-keyboard-response","296","469523","0.0-8.0-0.16","FL","khlkyd4sl5","1280","800","en","en04az24","null","","","","","","","","learning/Slide97.JPG","null","","","","",""
"","html-keyboard-response","297","470696","0.0-8.0-1.16","FL","khlkyd4sl5","1280","800","en","en04az24","null","","","","learningBlock2","","","","That was a dep.","null","","","","",""
"","html-keyboard-response","298","471709","0.0-8.0-2.16","FL","khlkyd4sl5","1280","800","en","en04az24","null","","","","learningBlock2","","","","<div style=""font-size:60px;""> </div>","null","FL","learning/Slide97.JPG","That was a dep.","",""
"","image-keyboard-response","299","471890","0.0-8.0-0.17","FL","khlkyd4sl5","1280","800","en","en04az24","null","","","","","","","","learning/Slide98.JPG","null","","","","",""
"","html-keyboard-response","300","473048","0.0-8.0-1.17","FL","khlkyd4sl5","1280","800","en","en04az24","null","","","","learningBlock2","","","","That was a bim.","null","","","","",""
"","html-keyboard-response","301","474057","0.0-8.0-2.17","FL","khlkyd4sl5","1280","800","en","en04az24","null","","","","learningBlock2","","","","<div style=""font-size:60px;""> </div>","null","FL","learning/Slide98.JPG","That was a bim.","",""
"","image-keyboard-response","302","474240","0.0-8.0-0.18","FL","khlkyd4sl5","1280","800","en","en04az24","null","","","","","","","","learning/Slide99.JPG","null","","","","",""
"","html-keyboard-response","303","475401","0.0-8.0-1.18","FL","khlkyd4sl5","1280","800","en","en04az24","null","","","","learningBlock2","","","","That was a dep.","null","","","","",""
"","html-keyboard-response","304","476409","0.0-8.0-2.18","FL","khlkyd4sl5","1280","800","en","en04az24","null","","","","learningBlock2","","","","<div style=""font-size:60px;""> </div>","null","FL","learning/Slide99.JPG","That was a dep.","",""
"","image-keyboard-response","305","476596","0.0-8.0-0.19","FL","khlkyd4sl5","1280","800","en","en04az24","null","","","","","","","","learning/Slide100.JPG","null","","","","",""
"","html-keyboard-response","306","477756","0.0-8.0-1.19","FL","khlkyd4sl5","1280","800","en","en04az24","null","","","","learningBlock2","","","","That was a bim.","null","","","","",""
"","html-keyboard-response","307","478764","0.0-8.0-2.19","FL","khlkyd4sl5","1280","800","en","en04az24","null","","","","learningBlock2","","","","<div style=""font-size:60px;""> </div>","null","FL","learning/Slide100.JPG","That was a bim.","",""
"","image-keyboard-response","308","478947","0.0-8.0-0.20","FL","khlkyd4sl5","1280","800","en","en04az24","null","","","","","","","","learning/Slide101.JPG","null","","","","",""
"","html-keyboard-response","309","480124","0.0-8.0-1.20","FL","khlkyd4sl5","1280","800","en","en04az24","null","","","","learningBlock2","","","","That was a tob.","null","","","","",""
"","html-keyboard-response","310","481133","0.0-8.0-2.20","FL","khlkyd4sl5","1280","800","en","en04az24","null","","","","learningBlock2","","","","<div style=""font-size:60px;""> </div>","null","FL","learning/Slide101.JPG","That was a tob.","",""
"","image-keyboard-response","311","481316","0.0-8.0-0.21","FL","khlkyd4sl5","1280","800","en","en04az24","null","","","","","","","","learning/Slide102.JPG","null","","","","",""
"","html-keyboard-response","312","482487","0.0-8.0-1.21","FL","khlkyd4sl5","1280","800","en","en04az24","null","","","","learningBlock2","","","","That was a bim.","null","","","","",""
"","html-keyboard-response","313","483494","0.0-8.0-2.21","FL","khlkyd4sl5","1280","800","en","en04az24","null","","","","learningBlock2","","","","<div style=""font-size:60px;""> </div>","null","FL","learning/Slide102.JPG","That was a bim.","",""
"","image-keyboard-response","314","483675","0.0-8.0-0.22","FL","khlkyd4sl5","1280","800","en","en04az24","null","","","","","","","","learning/Slide103.JPG","null","","","","",""
"","html-keyboard-response","315","484839","0.0-8.0-1.22","FL","khlkyd4sl5","1280","800","en","en04az24","null","","","","learningBlock2","","","","That was a dep.","null","","","","",""
"","html-keyboard-response","316","485847","0.0-8.0-2.22","FL","khlkyd4sl5","1280","800","en","en04az24","null","","","","learningBlock2","","","","<div style=""font-size:60px;""> </div>","null","FL","learning/Slide103.JPG","That was a dep.","",""
"","image-keyboard-response","317","486032","0.0-8.0-0.23","FL","khlkyd4sl5","1280","800","en","en04az24","null","","","","","","","","learning/Slide104.JPG","null","","","","",""
"","html-keyboard-response","318","487208","0.0-8.0-1.23","FL","khlkyd4sl5","1280","800","en","en04az24","null","","","","learningBlock2","","","","That was a tob.","null","","","","",""
"","html-keyboard-response","319","488221","0.0-8.0-2.23","FL","khlkyd4sl5","1280","800","en","en04az24","null","","","","learningBlock2","","","","<div style=""font-size:60px;""> </div>","null","FL","learning/Slide104.JPG","That was a tob.","",""
"","image-keyboard-response","320","488410","0.0-8.0-0.24","FL","khlkyd4sl5","1280","800","en","en04az24","null","","","","","","","","learning/Slide105.JPG","null","","","","",""
"","html-keyboard-response","321","489579","0.0-8.0-1.24","FL","khlkyd4sl5","1280","800","en","en04az24","null","","","","learningBlock2","","","","That was a dep.","null","","","","",""
"","html-keyboard-response","322","490585","0.0-8.0-2.24","FL","khlkyd4sl5","1280","800","en","en04az24","null","","","","learningBlock2","","","","<div style=""font-size:60px;""> </div>","null","FL","learning/Slide105.JPG","That was a dep.","",""
"","image-keyboard-response","323","490768","0.0-8.0-0.25","FL","khlkyd4sl5","1280","800","en","en04az24","null","","","","","","","","learning/Slide106.JPG","null","","","","",""
"","html-keyboard-response","324","491934","0.0-8.0-1.25","FL","khlkyd4sl5","1280","800","en","en04az24","null","","","","learningBlock2","","","","That was a wug.","null","","","","",""
"","html-keyboard-response","325","492948","0.0-8.0-2.25","FL","khlkyd4sl5","1280","800","en","en04az24","null","","","","learningBlock2","","","","<div style=""font-size:60px;""> </div>","null","FL","learning/Slide106.JPG","That was a wug.","",""
"","image-keyboard-response","326","493135","0.0-8.0-0.26","FL","khlkyd4sl5","1280","800","en","en04az24","null","","","","","","","","learning/Slide107.JPG","null","","","","",""
"","html-keyboard-response","327","494305","0.0-8.0-1.26","FL","khlkyd4sl5","1280","800","en","en04az24","null","","","","learningBlock2","","","","That was a bim.","null","","","","",""
"","html-keyboard-response","328","495315","0.0-8.0-2.26","FL","khlkyd4sl5","1280","800","en","en04az24","null","","","","learningBlock2","","","","<div style=""font-size:60px;""> </div>","null","FL","learning/Slide107.JPG","That was a bim.","",""
"","image-keyboard-response","329","495508","0.0-8.0-0.27","FL","khlkyd4sl5","1280","800","en","en04az24","null","","","","","","","","learning/Slide108.JPG","null","","","","",""
"","html-keyboard-response","330","496683","0.0-8.0-1.27","FL","khlkyd4sl5","1280","800","en","en04az24","null","","","","learningBlock2","","","","That was a dep.","null","","","","",""
"","html-keyboard-response","331","497691","0.0-8.0-2.27","FL","khlkyd4sl5","1280","800","en","en04az24","null","","","","learningBlock2","","","","<div style=""font-size:60px;""> </div>","null","FL","learning/Slide108.JPG","That was a dep.","",""
"","image-keyboard-response","332","497876","0.0-8.0-0.28","FL","khlkyd4sl5","1280","800","en","en04az24","null","","","","","","","","learning/Slide109.JPG","null","","","","",""
"","html-keyboard-response","333","499039","0.0-8.0-1.28","FL","khlkyd4sl5","1280","800","en","en04az24","null","","","","learningBlock2","","","","That was a wug.","null","","","","",""
"","html-keyboard-response","334","500050","0.0-8.0-2.28","FL","khlkyd4sl5","1280","800","en","en04az24","null","","","","learningBlock2","","","","<div style=""font-size:60px;""> </div>","null","FL","learning/Slide109.JPG","That was a wug.","",""
"","image-keyboard-response","335","500234","0.0-8.0-0.29","FL","khlkyd4sl5","1280","800","en","en04az24","null","","","","","","","","learning/Slide110.JPG","null","","","","",""
"","html-keyboard-response","336","501402","0.0-8.0-1.29","FL","khlkyd4sl5","1280","800","en","en04az24","null","","","","learningBlock2","","","","That was a bim.","null","","","","",""
"","html-keyboard-response","337","502410","0.0-8.0-2.29","FL","khlkyd4sl5","1280","800","en","en04az24","null","","","","learningBlock2","","","","<div style=""font-size:60px;""> </div>","null","FL","learning/Slide110.JPG","That was a bim.","",""
"","image-keyboard-response","338","502594","0.0-8.0-0.30","FL","khlkyd4sl5","1280","800","en","en04az24","null","","","","","","","","learning/Slide111.JPG","null","","","","",""
"","html-keyboard-response","339","503779","0.0-8.0-1.30","FL","khlkyd4sl5","1280","800","en","en04az24","null","","","","learningBlock2","","","","That was a tob.","null","","","","",""
"","html-keyboard-response","340","504788","0.0-8.0-2.30","FL","khlkyd4sl5","1280","800","en","en04az24","null","","","","learningBlock2","","","","<div style=""font-size:60px;""> </div>","null","FL","learning/Slide111.JPG","That was a tob.","",""
"","image-keyboard-response","341","504969","0.0-8.0-0.31","FL","khlkyd4sl5","1280","800","en","en04az24","null","","","","","","","","learning/Slide112.JPG","null","","","","",""
"","html-keyboard-response","342","506129","0.0-8.0-1.31","FL","khlkyd4sl5","1280","800","en","en04az24","null","","","","learningBlock2","","","","That was a wug.","null","","","","",""
"","html-keyboard-response","343","507141","0.0-8.0-2.31","FL","khlkyd4sl5","1280","800","en","en04az24","null","","","","learningBlock2","","","","<div style=""font-size:60px;""> </div>","null","FL","learning/Slide112.JPG","That was a wug.","",""
"","image-keyboard-response","344","507324","0.0-8.0-0.32","FL","khlkyd4sl5","1280","800","en","en04az24","null","","","","","","","","learning/Slide113.JPG","null","","","","",""
"","html-keyboard-response","345","508487","0.0-8.0-1.32","FL","khlkyd4sl5","1280","800","en","en04az24","null","","","","learningBlock2","","","","That was a tob.","null","","","","",""
"","html-keyboard-response","346","509501","0.0-8.0-2.32","FL","khlkyd4sl5","1280","800","en","en04az24","null","","","","learningBlock2","","","","<div style=""font-size:60px;""> </div>","null","FL","learning/Slide113.JPG","That was a tob.","",""
"","image-keyboard-response","347","509682","0.0-8.0-0.33","FL","khlkyd4sl5","1280","800","en","en04az24","null","","","","","","","","learning/Slide114.JPG","null","","","","",""
"","html-keyboard-response","348","510848","0.0-8.0-1.33","FL","khlkyd4sl5","1280","800","en","en04az24","null","","","","learningBlock2","","","","That was a wug.","null","","","","",""
"","html-keyboard-response","349","511859","0.0-8.0-2.33","FL","khlkyd4sl5","1280","800","en","en04az24","null","","","","learningBlock2","","","","<div style=""font-size:60px;""> </div>","null","FL","learning/Slide114.JPG","That was a wug.","",""
"","image-keyboard-response","350","512045","0.0-8.0-0.34","FL","khlkyd4sl5","1280","800","en","en04az24","null","","","","","","","","learning/Slide115.JPG","null","","","","",""
"","html-keyboard-response","351","513213","0.0-8.0-1.34","FL","khlkyd4sl5","1280","800","en","en04az24","null","","","","learningBlock2","","","","That was a bim.","null","","","","",""
"","html-keyboard-response","352","514224","0.0-8.0-2.34","FL","khlkyd4sl5","1280","800","en","en04az24","null","","","","learningBlock2","","","","<div style=""font-size:60px;""> </div>","null","FL","learning/Slide115.JPG","That was a bim.","",""
"","image-keyboard-response","353","514413","0.0-8.0-0.35","FL","khlkyd4sl5","1280","800","en","en04az24","null","","","","","","","","learning/Slide116.JPG","null","","","","",""
"","html-keyboard-response","354","515577","0.0-8.0-1.35","FL","khlkyd4sl5","1280","800","en","en04az24","null","","","","learningBlock2","","","","That was a dep.","null","","","","",""
"","html-keyboard-response","355","516588","0.0-8.0-2.35","FL","khlkyd4sl5","1280","800","en","en04az24","null","","","","learningBlock2","","","","<div style=""font-size:60px;""> </div>","null","FL","learning/Slide116.JPG","That was a dep.","",""
"","image-keyboard-response","356","516776","0.0-8.0-0.36","FL","khlkyd4sl5","1280","800","en","en04az24","null","","","","","","","","learning/Slide117.JPG","null","","","","",""
"","html-keyboard-response","357","517945","0.0-8.0-1.36","FL","khlkyd4sl5","1280","800","en","en04az24","null","","","","learningBlock2","","","","That was a tob.","null","","","","",""
"","html-keyboard-response","358","518953","0.0-8.0-2.36","FL","khlkyd4sl5","1280","800","en","en04az24","null","","","","learningBlock2","","","","<div style=""font-size:60px;""> </div>","null","FL","learning/Slide117.JPG","That was a tob.","",""
"","image-keyboard-response","359","519136","0.0-8.0-0.37","FL","khlkyd4sl5","1280","800","en","en04az24","null","","","","","","","","learning/Slide118.JPG","null","","","","",""
"","html-keyboard-response","360","520301","0.0-8.0-1.37","FL","khlkyd4sl5","1280","800","en","en04az24","null","","","","learningBlock2","","","","That was a dep.","null","","","","",""
"","html-keyboard-response","361","521308","0.0-8.0-2.37","FL","khlkyd4sl5","1280","800","en","en04az24","null","","","","learningBlock2","","","","<div style=""font-size:60px;""> </div>","null","FL","learning/Slide118.JPG","That was a dep.","",""
"","image-keyboard-response","362","521493","0.0-8.0-0.38","FL","khlkyd4sl5","1280","800","en","en04az24","null","","","","","","","","learning/Slide119.JPG","null","","","","",""
"","html-keyboard-response","363","522666","0.0-8.0-1.38","FL","khlkyd4sl5","1280","800","en","en04az24","null","","","","learningBlock2","","","","That was a wug.","null","","","","",""
"","html-keyboard-response","364","523673","0.0-8.0-2.38","FL","khlkyd4sl5","1280","800","en","en04az24","null","","","","learningBlock2","","","","<div style=""font-size:60px;""> </div>","null","FL","learning/Slide119.JPG","That was a wug.","",""
"","image-keyboard-response","365","523867","0.0-8.0-0.39","FL","khlkyd4sl5","1280","800","en","en04az24","null","","","","","","","","learning/Slide120.JPG","null","","","","",""
"","html-keyboard-response","366","525033","0.0-8.0-1.39","FL","khlkyd4sl5","1280","800","en","en04az24","null","","","","learningBlock2","","","","That was a dep.","null","","","","",""
"","html-keyboard-response","367","526042","0.0-8.0-2.39","FL","khlkyd4sl5","1280","800","en","en04az24","null","","","","learningBlock2","","","","<div style=""font-size:60px;""> </div>","null","FL","learning/Slide120.JPG","That was a dep.","",""
"","image-keyboard-response","368","526226","0.0-8.0-0.40","FL","khlkyd4sl5","1280","800","en","en04az24","null","","","","","","","","learning/Slide121.JPG","null","","","","",""
"","html-keyboard-response","369","527404","0.0-8.0-1.40","FL","khlkyd4sl5","1280","800","en","en04az24","null","","","","learningBlock2","","","","That was a bim.","null","","","","",""
"","html-keyboard-response","370","528414","0.0-8.0-2.40","FL","khlkyd4sl5","1280","800","en","en04az24","null","","","","learningBlock2","","","","<div style=""font-size:60px;""> </div>","null","FL","learning/Slide121.JPG","That was a bim.","",""
"","image-keyboard-response","371","528597","0.0-8.0-0.41","FL","khlkyd4sl5","1280","800","en","en04az24","null","","","","","","","","learning/Slide122.JPG","null","","","","",""
"","html-keyboard-response","372","529759","0.0-8.0-1.41","FL","khlkyd4sl5","1280","800","en","en04az24","null","","","","learningBlock2","","","","That was a wug.","null","","","","",""
"","html-keyboard-response","373","530767","0.0-8.0-2.41","FL","khlkyd4sl5","1280","800","en","en04az24","null","","","","learningBlock2","","","","<div style=""font-size:60px;""> </div>","null","FL","learning/Slide122.JPG","That was a wug.","",""
"","image-keyboard-response","374","530963","0.0-8.0-0.42","FL","khlkyd4sl5","1280","800","en","en04az24","null","","","","","","","","learning/Slide123.JPG","null","","","","",""
"","html-keyboard-response","375","532130","0.0-8.0-1.42","FL","khlkyd4sl5","1280","800","en","en04az24","null","","","","learningBlock2","","","","That was a bim.","null","","","","",""
"","html-keyboard-response","376","533136","0.0-8.0-2.42","FL","khlkyd4sl5","1280","800","en","en04az24","null","","","","learningBlock2","","","","<div style=""font-size:60px;""> </div>","null","FL","learning/Slide123.JPG","That was a bim.","",""
"","image-keyboard-response","377","533323","0.0-8.0-0.43","FL","khlkyd4sl5","1280","800","en","en04az24","null","","","","","","","","learning/Slide124.JPG","null","","","","",""
"","html-keyboard-response","378","534480","0.0-8.0-1.43","FL","khlkyd4sl5","1280","800","en","en04az24","null","","","","learningBlock2","","","","That was a tob.","null","","","","",""
"","html-keyboard-response","379","535486","0.0-8.0-2.43","FL","khlkyd4sl5","1280","800","en","en04az24","null","","","","learningBlock2","","","","<div style=""font-size:60px;""> </div>","null","FL","learning/Slide124.JPG","That was a tob.","",""
"","image-keyboard-response","380","535671","0.0-8.0-0.44","FL","khlkyd4sl5","1280","800","en","en04az24","null","","","","","","","","learning/Slide125.JPG","null","","","","",""
"","html-keyboard-response","381","536840","0.0-8.0-1.44","FL","khlkyd4sl5","1280","800","en","en04az24","null","","","","learningBlock2","","","","That was a bim.","null","","","","",""
"","html-keyboard-response","382","537859","0.0-8.0-2.44","FL","khlkyd4sl5","1280","800","en","en04az24","null","","","","learningBlock2","","","","<div style=""font-size:60px;""> </div>","null","FL","learning/Slide125.JPG","That was a bim.","",""
"","image-keyboard-response","383","538056","0.0-8.0-0.45","FL","khlkyd4sl5","1280","800","en","en04az24","null","","","","","","","","learning/Slide126.JPG","null","","","","",""
"","html-keyboard-response","384","539212","0.0-8.0-1.45","FL","khlkyd4sl5","1280","800","en","en04az24","null","","","","learningBlock2","","","","That was a tob.","null","","","","",""
"","html-keyboard-response","385","540224","0.0-8.0-2.45","FL","khlkyd4sl5","1280","800","en","en04az24","null","","","","learningBlock2","","","","<div style=""font-size:60px;""> </div>","null","FL","learning/Slide126.JPG","That was a tob.","",""
"","image-keyboard-response","386","540406","0.0-8.0-0.46","FL","khlkyd4sl5","1280","800","en","en04az24","null","","","","","","","","learning/Slide127.JPG","null","","","","",""
"","html-keyboard-response","387","541575","0.0-8.0-1.46","FL","khlkyd4sl5","1280","800","en","en04az24","null","","","","learningBlock2","","","","That was a dep.","null","","","","",""
"","html-keyboard-response","388","542584","0.0-8.0-2.46","FL","khlkyd4sl5","1280","800","en","en04az24","null","","","","learningBlock2","","","","<div style=""font-size:60px;""> </div>","null","FL","learning/Slide127.JPG","That was a dep.","",""
"","image-keyboard-response","389","542766","0.0-8.0-0.47","FL","khlkyd4sl5","1280","800","en","en04az24","null","","","","","","","","learning/Slide128.JPG","null","","","","",""
"","html-keyboard-response","390","543928","0.0-8.0-1.47","FL","khlkyd4sl5","1280","800","en","en04az24","null","","","","learningBlock2","","","","That was a wug.","null","","","","",""
"","html-keyboard-response","391","544937","0.0-8.0-2.47","FL","khlkyd4sl5","1280","800","en","en04az24","null","","","","learningBlock2","","","","<div style=""font-size:60px;""> </div>","null","FL","learning/Slide128.JPG","That was a wug.","",""
"","image-keyboard-response","392","545120","0.0-8.0-0.48","FL","khlkyd4sl5","1280","800","en","en04az24","null","","","","","","","","learning/Slide129.JPG","null","","","","",""
"","html-keyboard-response","393","546284","0.0-8.0-1.48","FL","khlkyd4sl5","1280","800","en","en04az24","null","","","","learningBlock2","","","","That was a tob.","null","","","","",""
"","html-keyboard-response","394","547295","0.0-8.0-2.48","FL","khlkyd4sl5","1280","800","en","en04az24","null","","","","learningBlock2","","","","<div style=""font-size:60px;""> </div>","null","FL","learning/Slide129.JPG","That was a tob.","",""
"","image-keyboard-response","395","547476","0.0-8.0-0.49","FL","khlkyd4sl5","1280","800","en","en04az24","null","","","","","","","","learning/Slide130.JPG","null","","","","",""
"","html-keyboard-response","396","548634","0.0-8.0-1.49","FL","khlkyd4sl5","1280","800","en","en04az24","null","","","","learningBlock2","","","","That was a wug.","null","","","","",""
"","html-keyboard-response","397","549648","0.0-8.0-2.49","FL","khlkyd4sl5","1280","800","en","en04az24","null","","","","learningBlock2","","","","<div style=""font-size:60px;""> </div>","null","FL","learning/Slide130.JPG","That was a wug.","",""
"","image-keyboard-response","398","549833","0.0-8.0-0.50","FL","khlkyd4sl5","1280","800","en","en04az24","null","","","","","","","","learning/Slide131.JPG","null","","","","",""
"","html-keyboard-response","399","551002","0.0-8.0-1.50","FL","khlkyd4sl5","1280","800","en","en04az24","null","","","","learningBlock2","","","","That was a bim.","null","","","","",""
"","html-keyboard-response","400","552009","0.0-8.0-2.50","FL","khlkyd4sl5","1280","800","en","en04az24","null","","","","learningBlock2","","","","<div style=""font-size:60px;""> </div>","null","FL","learning/Slide131.JPG","That was a bim.","",""
"","image-keyboard-response","401","552195","0.0-8.0-0.51","FL","khlkyd4sl5","1280","800","en","en04az24","null","","","","","","","","learning/Slide132.JPG","null","","","","",""
"","html-keyboard-response","402","553356","0.0-8.0-1.51","FL","khlkyd4sl5","1280","800","en","en04az24","null","","","","learningBlock2","","","","That was a dep.","null","","","","",""
"","html-keyboard-response","403","554365","0.0-8.0-2.51","FL","khlkyd4sl5","1280","800","en","en04az24","null","","","","learningBlock2","","","","<div style=""font-size:60px;""> </div>","null","FL","learning/Slide132.JPG","That was a dep.","",""
"","image-keyboard-response","404","554554","0.0-8.0-0.52","FL","khlkyd4sl5","1280","800","en","en04az24","null","","","","","","","","learning/Slide133.JPG","null","","","","",""
"","html-keyboard-response","405","555722","0.0-8.0-1.52","FL","khlkyd4sl5","1280","800","en","en04az24","null","","","","learningBlock2","","","","That was a tob.","null","","","","",""
"","html-keyboard-response","406","556741","0.0-8.0-2.52","FL","khlkyd4sl5","1280","800","en","en04az24","null","","","","learningBlock2","","","","<div style=""font-size:60px;""> </div>","null","FL","learning/Slide133.JPG","That was a tob.","",""
"","image-keyboard-response","407","556919","0.0-8.0-0.53","FL","khlkyd4sl5","1280","800","en","en04az24","null","","","","","","","","learning/Slide134.JPG","null","","","","",""
"","html-keyboard-response","408","558083","0.0-8.0-1.53","FL","khlkyd4sl5","1280","800","en","en04az24","null","","","","learningBlock2","","","","That was a dep.","null","","","","",""
"","html-keyboard-response","409","559090","0.0-8.0-2.53","FL","khlkyd4sl5","1280","800","en","en04az24","null","","","","learningBlock2","","","","<div style=""font-size:60px;""> </div>","null","FL","learning/Slide134.JPG","That was a dep.","",""
"","image-keyboard-response","410","559270","0.0-8.0-0.54","FL","khlkyd4sl5","1280","800","en","en04az24","null","","","","","","","","learning/Slide135.JPG","null","","","","",""
"","html-keyboard-response","411","560434","0.0-8.0-1.54","FL","khlkyd4sl5","1280","800","en","en04az24","null","","","","learningBlock2","","","","That was a tob.","null","","","","",""
"","html-keyboard-response","412","561442","0.0-8.0-2.54","FL","khlkyd4sl5","1280","800","en","en04az24","null","","","","learningBlock2","","","","<div style=""font-size:60px;""> </div>","null","FL","learning/Slide135.JPG","That was a tob.","",""
"","image-keyboard-response","413","561625","0.0-8.0-0.55","FL","khlkyd4sl5","1280","800","en","en04az24","null","","","","","","","","learning/Slide136.JPG","null","","","","",""
"","html-keyboard-response","414","562790","0.0-8.0-1.55","FL","khlkyd4sl5","1280","800","en","en04az24","null","","","","learningBlock2","","","","That was a wug.","null","","","","",""
"","html-keyboard-response","415","563796","0.0-8.0-2.55","FL","khlkyd4sl5","1280","800","en","en04az24","null","","","","learningBlock2","","","","<div style=""font-size:60px;""> </div>","null","FL","learning/Slide136.JPG","That was a wug.","",""
"","image-keyboard-response","416","563979","0.0-8.0-0.56","FL","khlkyd4sl5","1280","800","en","en04az24","null","","","","","","","","learning/Slide137.JPG","null","","","","",""
"","html-keyboard-response","417","565157","0.0-8.0-1.56","FL","khlkyd4sl5","1280","800","en","en04az24","null","","","","learningBlock2","","","","That was a tob.","null","","","","",""
"","html-keyboard-response","418","566166","0.0-8.0-2.56","FL","khlkyd4sl5","1280","800","en","en04az24","null","","","","learningBlock2","","","","<div style=""font-size:60px;""> </div>","null","FL","learning/Slide137.JPG","That was a tob.","",""
"","image-keyboard-response","419","566352","0.0-8.0-0.57","FL","khlkyd4sl5","1280","800","en","en04az24","null","","","","","","","","learning/Slide138.JPG","null","","","","",""
"","html-keyboard-response","420","567513","0.0-8.0-1.57","FL","khlkyd4sl5","1280","800","en","en04az24","null","","","","learningBlock2","","","","That was a bim.","null","","","","",""
"","html-keyboard-response","421","568526","0.0-8.0-2.57","FL","khlkyd4sl5","1280","800","en","en04az24","null","","","","learningBlock2","","","","<div style=""font-size:60px;""> </div>","null","FL","learning/Slide138.JPG","That was a bim.","",""
"","image-keyboard-response","422","568712","0.0-8.0-0.58","FL","khlkyd4sl5","1280","800","en","en04az24","null","","","","","","","","learning/Slide139.JPG","null","","","","",""
"","html-keyboard-response","423","569885","0.0-8.0-1.58","FL","khlkyd4sl5","1280","800","en","en04az24","null","","","","learningBlock2","","","","That was a wug.","null","","","","",""
"","html-keyboard-response","424","570892","0.0-8.0-2.58","FL","khlkyd4sl5","1280","800","en","en04az24","null","","","","learningBlock2","","","","<div style=""font-size:60px;""> </div>","null","FL","learning/Slide139.JPG","That was a wug.","",""
"","image-keyboard-response","425","571081","0.0-8.0-0.59","FL","khlkyd4sl5","1280","800","en","en04az24","null","","","","","","","","learning/Slide140.JPG","null","","","","",""
"","html-keyboard-response","426","572246","0.0-8.0-1.59","FL","khlkyd4sl5","1280","800","en","en04az24","null","","","","learningBlock2","","","","That was a dep.","null","","","","",""
"","html-keyboard-response","427","573258","0.0-8.0-2.59","FL","khlkyd4sl5","1280","800","en","en04az24","null","","","","learningBlock2","","","","<div style=""font-size:60px;""> </div>","null","FL","learning/Slide140.JPG","That was a dep.","",""
"","image-keyboard-response","428","573442","0.0-8.0-0.60","FL","khlkyd4sl5","1280","800","en","en04az24","null","","","","","","","","learning/Slide141.JPG","null","","","","",""
"","html-keyboard-response","429","574620","0.0-8.0-1.60","FL","khlkyd4sl5","1280","800","en","en04az24","null","","","","learningBlock2","","","","That was a tob.","null","","","","",""
"","html-keyboard-response","430","575632","0.0-8.0-2.60","FL","khlkyd4sl5","1280","800","en","en04az24","null","","","","learningBlock2","","","","<div style=""font-size:60px;""> </div>","null","FL","learning/Slide141.JPG","That was a tob.","",""
"","image-keyboard-response","431","575817","0.0-8.0-0.61","FL","khlkyd4sl5","1280","800","en","en04az24","null","","","","","","","","learning/Slide142.JPG","null","","","","",""
"","html-keyboard-response","432","576984","0.0-8.0-1.61","FL","khlkyd4sl5","1280","800","en","en04az24","null","","","","learningBlock2","","","","That was a wug.","null","","","","",""
"","html-keyboard-response","433","577996","0.0-8.0-2.61","FL","khlkyd4sl5","1280","800","en","en04az24","null","","","","learningBlock2","","","","<div style=""font-size:60px;""> </div>","null","FL","learning/Slide142.JPG","That was a wug.","",""
"","image-keyboard-response","434","578177","0.0-8.0-0.62","FL","khlkyd4sl5","1280","800","en","en04az24","null","","","","","","","","learning/Slide143.JPG","null","","","","",""
"","html-keyboard-response","435","579362","0.0-8.0-1.62","FL","khlkyd4sl5","1280","800","en","en04az24","null","","","","learningBlock2","","","","That was a bim.","null","","","","",""
"","html-keyboard-response","436","580370","0.0-8.0-2.62","FL","khlkyd4sl5","1280","800","en","en04az24","null","","","","learningBlock2","","","","<div style=""font-size:60px;""> </div>","null","FL","learning/Slide143.JPG","That was a bim.","",""
"","image-keyboard-response","437","580553","0.0-8.0-0.63","FL","khlkyd4sl5","1280","800","en","en04az24","null","","","","","","","","learning/Slide144.JPG","null","","","","",""
"","html-keyboard-response","438","581719","0.0-8.0-1.63","FL","khlkyd4sl5","1280","800","en","en04az24","null","","","","learningBlock2","","","","That was a dep.","null","","","","",""
"","html-keyboard-response","439","582731","0.0-8.0-2.63","FL","khlkyd4sl5","1280","800","en","en04az24","null","","","","learningBlock2","","","","<div style=""font-size:60px;""> </div>","null","FL","learning/Slide144.JPG","That was a dep.","",""
"","image-keyboard-response","440","582915","0.0-8.0-0.64","FL","khlkyd4sl5","1280","800","en","en04az24","null","","","","","","","","learning/Slide145.JPG","null","","","","",""
"","html-keyboard-response","441","584074","0.0-8.0-1.64","FL","khlkyd4sl5","1280","800","en","en04az24","null","","","","learningBlock2","","","","That was a bim.","null","","","","",""
"","html-keyboard-response","442","585088","0.0-8.0-2.64","FL","khlkyd4sl5","1280","800","en","en04az24","null","","","","learningBlock2","","","","<div style=""font-size:60px;""> </div>","null","FL","learning/Slide145.JPG","That was a bim.","",""
"","image-keyboard-response","443","585277","0.0-8.0-0.65","FL","khlkyd4sl5","1280","800","en","en04az24","null","","","","","","","","learning/Slide146.JPG","null","","","","",""
"","html-keyboard-response","444","586449","0.0-8.0-1.65","FL","khlkyd4sl5","1280","800","en","en04az24","null","","","","learningBlock2","","","","That was a tob.","null","","","","",""
"","html-keyboard-response","445","587457","0.0-8.0-2.65","FL","khlkyd4sl5","1280","800","en","en04az24","null","","","","learningBlock2","","","","<div style=""font-size:60px;""> </div>","null","FL","learning/Slide146.JPG","That was a tob.","",""
"","image-keyboard-response","446","587644","0.0-8.0-0.66","FL","khlkyd4sl5","1280","800","en","en04az24","null","","","","","","","","learning/Slide147.JPG","null","","","","",""
"","html-keyboard-response","447","588805","0.0-8.0-1.66","FL","khlkyd4sl5","1280","800","en","en04az24","null","","","","learningBlock2","","","","That was a wug.","null","","","","",""
"","html-keyboard-response","448","589818","0.0-8.0-2.66","FL","khlkyd4sl5","1280","800","en","en04az24","null","","","","learningBlock2","","","","<div style=""font-size:60px;""> </div>","null","FL","learning/Slide147.JPG","That was a wug.","",""
"","image-keyboard-response","449","590003","0.0-8.0-0.67","FL","khlkyd4sl5","1280","800","en","en04az24","null","","","","","","","","learning/Slide148.JPG","null","","","","",""
"","html-keyboard-response","450","591167","0.0-8.0-1.67","FL","khlkyd4sl5","1280","800","en","en04az24","null","","","","learningBlock2","","","","That was a bim.","null","","","","",""
"","html-keyboard-response","451","592180","0.0-8.0-2.67","FL","khlkyd4sl5","1280","800","en","en04az24","null","","","","learningBlock2","","","","<div style=""font-size:60px;""> </div>","null","FL","learning/Slide148.JPG","That was a bim.","",""
"","image-keyboard-response","452","592367","0.0-8.0-0.68","FL","khlkyd4sl5","1280","800","en","en04az24","null","","","","","","","","learning/Slide149.JPG","null","","","","",""
"","html-keyboard-response","453","593540","0.0-8.0-1.68","FL","khlkyd4sl5","1280","800","en","en04az24","null","","","","learningBlock2","","","","That was a dep.","null","","","","",""
"","html-keyboard-response","454","594548","0.0-8.0-2.68","FL","khlkyd4sl5","1280","800","en","en04az24","null","","","","learningBlock2","","","","<div style=""font-size:60px;""> </div>","null","FL","learning/Slide149.JPG","That was a dep.","",""
"","image-keyboard-response","455","594737","0.0-8.0-0.69","FL","khlkyd4sl5","1280","800","en","en04az24","null","","","","","","","","learning/Slide150.JPG","null","","","","",""
"","html-keyboard-response","456","595897","0.0-8.0-1.69","FL","khlkyd4sl5","1280","800","en","en04az24","null","","","","learningBlock2","","","","That was a wug.","null","","","","",""
"","html-keyboard-response","457","596904","0.0-8.0-2.69","FL","khlkyd4sl5","1280","800","en","en04az24","null","","","","learningBlock2","","","","<div style=""font-size:60px;""> </div>","null","FL","learning/Slide150.JPG","That was a wug.","",""
"","image-keyboard-response","458","597089","0.0-8.0-0.70","FL","khlkyd4sl5","1280","800","en","en04az24","null","","","","","","","","learning/Slide151.JPG","null","","","","",""
"","html-keyboard-response","459","598248","0.0-8.0-1.70","FL","khlkyd4sl5","1280","800","en","en04az24","null","","","","learningBlock2","","","","That was a dep.","null","","","","",""
"","html-keyboard-response","460","599259","0.0-8.0-2.70","FL","khlkyd4sl5","1280","800","en","en04az24","null","","","","learningBlock2","","","","<div style=""font-size:60px;""> </div>","null","FL","learning/Slide151.JPG","That was a dep.","",""
"","image-keyboard-response","461","599441","0.0-8.0-0.71","FL","khlkyd4sl5","1280","800","en","en04az24","null","","","","","","","","learning/Slide152.JPG","null","","","","",""
"","html-keyboard-response","462","600604","0.0-8.0-1.71","FL","khlkyd4sl5","1280","800","en","en04az24","null","","","","learningBlock2","","","","That was a wug.","null","","","","",""
"","html-keyboard-response","463","601609","0.0-8.0-2.71","FL","khlkyd4sl5","1280","800","en","en04az24","null","","","","learningBlock2","","","","<div style=""font-size:60px;""> </div>","null","FL","learning/Slide152.JPG","That was a wug.","",""
"","image-keyboard-response","464","601792","0.0-8.0-0.72","FL","khlkyd4sl5","1280","800","en","en04az24","null","","","","","","","","learning/Slide153.JPG","null","","","","",""
"","html-keyboard-response","465","602960","0.0-8.0-1.72","FL","khlkyd4sl5","1280","800","en","en04az24","null","","","","learningBlock2","","","","That was a bim.","null","","","","",""
"","html-keyboard-response","466","603971","0.0-8.0-2.72","FL","khlkyd4sl5","1280","800","en","en04az24","null","","","","learningBlock2","","","","<div style=""font-size:60px;""> </div>","null","FL","learning/Slide153.JPG","That was a bim.","",""
"","image-keyboard-response","467","604154","0.0-8.0-0.73","FL","khlkyd4sl5","1280","800","en","en04az24","null","","","","","","","","learning/Slide154.JPG","null","","","","",""
"","html-keyboard-response","468","605334","0.0-8.0-1.73","FL","khlkyd4sl5","1280","800","en","en04az24","null","","","","learningBlock2","","","","That was a tob.","null","","","","",""
"","html-keyboard-response","469","606348","0.0-8.0-2.73","FL","khlkyd4sl5","1280","800","en","en04az24","null","","","","learningBlock2","","","","<div style=""font-size:60px;""> </div>","null","FL","learning/Slide154.JPG","That was a tob.","",""
"","image-keyboard-response","470","606534","0.0-8.0-0.74","FL","khlkyd4sl5","1280","800","en","en04az24","null","","","","","","","","learning/Slide155.JPG","null","","","","",""
"","html-keyboard-response","471","607705","0.0-8.0-1.74","FL","khlkyd4sl5","1280","800","en","en04az24","null","","","","learningBlock2","","","","That was a dep.","null","","","","",""
"","html-keyboard-response","472","608712","0.0-8.0-2.74","FL","khlkyd4sl5","1280","800","en","en04az24","null","","","","learningBlock2","","","","<div style=""font-size:60px;""> </div>","null","FL","learning/Slide155.JPG","That was a dep.","",""
"","image-keyboard-response","473","608894","0.0-8.0-0.75","FL","khlkyd4sl5","1280","800","en","en04az24","null","","","","","","","","learning/Slide156.JPG","null","","","","",""
"","html-keyboard-response","474","610057","0.0-8.0-1.75","FL","khlkyd4sl5","1280","800","en","en04az24","null","","","","learningBlock2","","","","That was a bim.","null","","","","",""
"","html-keyboard-response","475","611065","0.0-8.0-2.75","FL","khlkyd4sl5","1280","800","en","en04az24","null","","","","learningBlock2","","","","<div style=""font-size:60px;""> </div>","null","FL","learning/Slide156.JPG","That was a bim.","",""
"","image-keyboard-response","476","611250","0.0-8.0-0.76","FL","khlkyd4sl5","1280","800","en","en04az24","null","","","","","","","","learning/Slide157.JPG","null","","","","",""
"","html-keyboard-response","477","612414","0.0-8.0-1.76","FL","khlkyd4sl5","1280","800","en","en04az24","null","","","","learningBlock2","","","","That was a dep.","null","","","","",""
"","html-keyboard-response","478","613421","0.0-8.0-2.76","FL","khlkyd4sl5","1280","800","en","en04az24","null","","","","learningBlock2","","","","<div style=""font-size:60px;""> </div>","null","FL","learning/Slide157.JPG","That was a dep.","",""
"","image-keyboard-response","479","613609","0.0-8.0-0.77","FL","khlkyd4sl5","1280","800","en","en04az24","null","","","","","","","","learning/Slide158.JPG","null","","","","",""
"","html-keyboard-response","480","614778","0.0-8.0-1.77","FL","khlkyd4sl5","1280","800","en","en04az24","null","","","","learningBlock2","","","","That was a tob.","null","","","","",""
"","html-keyboard-response","481","615786","0.0-8.0-2.77","FL","khlkyd4sl5","1280","800","en","en04az24","null","","","","learningBlock2","","","","<div style=""font-size:60px;""> </div>","null","FL","learning/Slide158.JPG","That was a tob.","",""
"","image-keyboard-response","482","615974","0.0-8.0-0.78","FL","khlkyd4sl5","1280","800","en","en04az24","null","","","","","","","","learning/Slide159.JPG","null","","","","",""
"","html-keyboard-response","483","617141","0.0-8.0-1.78","FL","khlkyd4sl5","1280","800","en","en04az24","null","","","","learningBlock2","","","","That was a dep.","null","","","","",""
"","html-keyboard-response","484","618150","0.0-8.0-2.78","FL","khlkyd4sl5","1280","800","en","en04az24","null","","","","learningBlock2","","","","<div style=""font-size:60px;""> </div>","null","FL","learning/Slide159.JPG","That was a dep.","",""
"","image-keyboard-response","485","618331","0.0-8.0-0.79","FL","khlkyd4sl5","1280","800","en","en04az24","null","","","","","","","","learning/Slide160.JPG","null","","","","",""
"","html-keyboard-response","486","619497","0.0-8.0-1.79","FL","khlkyd4sl5","1280","800","en","en04az24","null","","","","learningBlock2","","","","That was a wug.","null","","","","",""
"","html-keyboard-response","487","620511","0.0-8.0-2.79","FL","khlkyd4sl5","1280","800","en","en04az24","null","","","","learningBlock2","","","","<div style=""font-size:60px;""> </div>","null","FL","learning/Slide160.JPG","That was a wug.","",""
"","resize2","488","625510","0.0-9.0","FL","khlkyd4sl5","1280","800","en","en04az24","","","","","","","104","1.04","","","","","","",""
