"success","trial_type","trial_index","time_elapsed","internal_node_id","condition","subject","screen_width","screen_height","language","codeword","rt","responses","url","view_history","test_part","final_height_px","final_width_px","scale_factor","stimulus","key_press","learningType","presentedImage","presentedLabel","button_pressed","response"
"true","fullscreen","0","11830","0.0-0.0","FL","43qjs0ts63","1440","900","en","la07as21","","","","","","","","","","","","","","",""
"","survey-html-form","1","22417","0.0-1.0","FL","43qjs0ts63","1440","900","en","la07as21","10581.479999993462","{""language"":""en""}","","","","","","","","","","","","",""
"","external-html","2","122637","0.0-3.0-0.0","FL","43qjs0ts63","1440","900","en","la07as21","100136.49000000441","","text/information_english.html","","","","","","","","","","","",""
"","external-html","3","150778","0.0-3.0-1.0","FL","43qjs0ts63","1440","900","en","la07as21","28044.77500001667","","text/consent_english.html","","","","","","","","","","","",""
"","survey-html-form","4","289928","0.0-3.0-2.0","FL","43qjs0ts63","1440","900","en","la07as21","139153.3000000054","{""codeword_enter"":""la07as21""}","","","","","","","","","","","","",""
"","instructions","5","323125","0.0-4.0","FL","43qjs0ts63","1440","900","en","la07as21","NA","","","[{""page_index"":0,""viewing_time"":10331.845000007888},{""page_index"":1,""viewing_time"":21358.659999998054}]","instructions","","","","","","","","","",""
"","resize","6","416790","0.0-5.0","FL","43qjs0ts63","1440","900","en","la07as21","","","","","","","436","2.768253968253968","","","","","","",""
"","image-keyboard-response","7","416973","0.0-6.0-0.0","FL","43qjs0ts63","1440","900","en","la07as21","null","","","","","","","","learning/Slide1.JPG","null","","","","",""
"","html-keyboard-response","8","418131","0.0-6.0-1.0","FL","43qjs0ts63","1440","900","en","la07as21","null","","","","learningBlock1","","","","That was a tob.","null","","","","",""
"","html-keyboard-response","9","419137","0.0-6.0-2.0","FL","43qjs0ts63","1440","900","en","la07as21","null","","","","learningBlock1","","","","<div style=""font-size:60px;""> </div>","null","FL","learning/Slide1.JPG","That was a tob.","",""
"","image-keyboard-response","10","419319","0.0-6.0-0.1","FL","43qjs0ts63","1440","900","en","la07as21","null","","","","","","","","learning/Slide2.JPG","null","","","","",""
"","html-keyboard-response","11","420478","0.0-6.0-1.1","FL","43qjs0ts63","1440","900","en","la07as21","null","","","","learningBlock1","","","","That was a wug.","null","","","","",""
"","html-keyboard-response","12","421481","0.0-6.0-2.1","FL","43qjs0ts63","1440","900","en","la07as21","null","","","","learningBlock1","","","","<div style=""font-size:60px;""> </div>","null","FL","learning/Slide2.JPG","That was a wug.","",""
"","image-keyboard-response","13","421662","0.0-6.0-0.2","FL","43qjs0ts63","1440","900","en","la07as21","null","","","","","","","","learning/Slide3.JPG","null","","","","",""
"","html-keyboard-response","14","422822","0.0-6.0-1.2","FL","43qjs0ts63","1440","900","en","la07as21","null","","","","learningBlock1","","","","That was a bim.","null","","","","",""
"","html-keyboard-response","15","423828","0.0-6.0-2.2","FL","43qjs0ts63","1440","900","en","la07as21","null","","","","learningBlock1","","","","<div style=""font-size:60px;""> </div>","null","FL","learning/Slide3.JPG","That was a bim.","",""
"","image-keyboard-response","16","424009","0.0-6.0-0.3","FL","43qjs0ts63","1440","900","en","la07as21","null","","","","","","","","learning/Slide4.JPG","null","","","","",""
"","html-keyboard-response","17","425169","0.0-6.0-1.3","FL","43qjs0ts63","1440","900","en","la07as21","null","","","","learningBlock1","","","","That was a dep.","null","","","","",""
"","html-keyboard-response","18","426171","0.0-6.0-2.3","FL","43qjs0ts63","1440","900","en","la07as21","null","","","","learningBlock1","","","","<div style=""font-size:60px;""> </div>","null","FL","learning/Slide4.JPG","That was a dep.","",""
"","image-keyboard-response","19","426351","0.0-6.0-0.4","FL","43qjs0ts63","1440","900","en","la07as21","null","","","","","","","","learning/Slide5.JPG","null","","","","",""
"","html-keyboard-response","20","427509","0.0-6.0-1.4","FL","43qjs0ts63","1440","900","en","la07as21","null","","","","learningBlock1","","","","That was a wug.","null","","","","",""
"","html-keyboard-response","21","428515","0.0-6.0-2.4","FL","43qjs0ts63","1440","900","en","la07as21","null","","","","learningBlock1","","","","<div style=""font-size:60px;""> </div>","null","FL","learning/Slide5.JPG","That was a wug.","",""
"","image-keyboard-response","22","428696","0.0-6.0-0.5","FL","43qjs0ts63","1440","900","en","la07as21","null","","","","","","","","learning/Slide6.JPG","null","","","","",""
"","html-keyboard-response","23","429856","0.0-6.0-1.5","FL","43qjs0ts63","1440","900","en","la07as21","null","","","","learningBlock1","","","","That was a dep.","null","","","","",""
"","html-keyboard-response","24","430862","0.0-6.0-2.5","FL","43qjs0ts63","1440","900","en","la07as21","null","","","","learningBlock1","","","","<div style=""font-size:60px;""> </div>","null","FL","learning/Slide6.JPG","That was a dep.","",""
"","image-keyboard-response","25","431043","0.0-6.0-0.6","FL","43qjs0ts63","1440","900","en","la07as21","null","","","","","","","","learning/Slide7.JPG","null","","","","",""
"","html-keyboard-response","26","432205","0.0-6.0-1.6","FL","43qjs0ts63","1440","900","en","la07as21","null","","","","learningBlock1","","","","That was a wug.","null","","","","",""
"","html-keyboard-response","27","433208","0.0-6.0-2.6","FL","43qjs0ts63","1440","900","en","la07as21","null","","","","learningBlock1","","","","<div style=""font-size:60px;""> </div>","null","FL","learning/Slide7.JPG","That was a wug.","",""
"","image-keyboard-response","28","433390","0.0-6.0-0.7","FL","43qjs0ts63","1440","900","en","la07as21","null","","","","","","","","learning/Slide8.JPG","null","","","","",""
"","html-keyboard-response","29","434551","0.0-6.0-1.7","FL","43qjs0ts63","1440","900","en","la07as21","null","","","","learningBlock1","","","","That was a bim.","null","","","","",""
"","html-keyboard-response","30","435557","0.0-6.0-2.7","FL","43qjs0ts63","1440","900","en","la07as21","null","","","","learningBlock1","","","","<div style=""font-size:60px;""> </div>","null","FL","learning/Slide8.JPG","That was a bim.","",""
"","image-keyboard-response","31","435738","0.0-6.0-0.8","FL","43qjs0ts63","1440","900","en","la07as21","null","","","","","","","","learning/Slide9.JPG","null","","","","",""
"","html-keyboard-response","32","436898","0.0-6.0-1.8","FL","43qjs0ts63","1440","900","en","la07as21","null","","","","learningBlock1","","","","That was a wug.","null","","","","",""
"","html-keyboard-response","33","437899","0.0-6.0-2.8","FL","43qjs0ts63","1440","900","en","la07as21","null","","","","learningBlock1","","","","<div style=""font-size:60px;""> </div>","null","FL","learning/Slide9.JPG","That was a wug.","",""
"","image-keyboard-response","34","438094","0.0-6.0-0.9","FL","43qjs0ts63","1440","900","en","la07as21","null","","","","","","","","learning/Slide10.JPG","null","","","","",""
"","html-keyboard-response","35","439248","0.0-6.0-1.9","FL","43qjs0ts63","1440","900","en","la07as21","null","","","","learningBlock1","","","","That was a dep.","null","","","","",""
"","html-keyboard-response","36","440253","0.0-6.0-2.9","FL","43qjs0ts63","1440","900","en","la07as21","null","","","","learningBlock1","","","","<div style=""font-size:60px;""> </div>","null","FL","learning/Slide10.JPG","That was a dep.","",""
"","image-keyboard-response","37","440430","0.0-6.0-0.10","FL","43qjs0ts63","1440","900","en","la07as21","null","","","","","","","","learning/Slide11.JPG","null","","","","",""
"","html-keyboard-response","38","441589","0.0-6.0-1.10","FL","43qjs0ts63","1440","900","en","la07as21","null","","","","learningBlock1","","","","That was a tob.","null","","","","",""
"","html-keyboard-response","39","442590","0.0-6.0-2.10","FL","43qjs0ts63","1440","900","en","la07as21","null","","","","learningBlock1","","","","<div style=""font-size:60px;""> </div>","null","FL","learning/Slide11.JPG","That was a tob.","",""
"","image-keyboard-response","40","442768","0.0-6.0-0.11","FL","43qjs0ts63","1440","900","en","la07as21","null","","","","","","","","learning/Slide12.JPG","null","","","","",""
"","html-keyboard-response","41","443929","0.0-6.0-1.11","FL","43qjs0ts63","1440","900","en","la07as21","null","","","","learningBlock1","","","","That was a dep.","null","","","","",""
"","html-keyboard-response","42","444935","0.0-6.0-2.11","FL","43qjs0ts63","1440","900","en","la07as21","null","","","","learningBlock1","","","","<div style=""font-size:60px;""> </div>","null","FL","learning/Slide12.JPG","That was a dep.","",""
"","image-keyboard-response","43","445116","0.0-6.0-0.12","FL","43qjs0ts63","1440","900","en","la07as21","null","","","","","","","","learning/Slide13.JPG","null","","","","",""
"","html-keyboard-response","44","446277","0.0-6.0-1.12","FL","43qjs0ts63","1440","900","en","la07as21","null","","","","learningBlock1","","","","That was a bim.","null","","","","",""
"","html-keyboard-response","45","447280","0.0-6.0-2.12","FL","43qjs0ts63","1440","900","en","la07as21","null","","","","learningBlock1","","","","<div style=""font-size:60px;""> </div>","null","FL","learning/Slide13.JPG","That was a bim.","",""
"","image-keyboard-response","46","447461","0.0-6.0-0.13","FL","43qjs0ts63","1440","900","en","la07as21","null","","","","","","","","learning/Slide14.JPG","null","","","","",""
"","html-keyboard-response","47","448617","0.0-6.0-1.13","FL","43qjs0ts63","1440","900","en","la07as21","null","","","","learningBlock1","","","","That was a wug.","null","","","","",""
"","html-keyboard-response","48","449618","0.0-6.0-2.13","FL","43qjs0ts63","1440","900","en","la07as21","null","","","","learningBlock1","","","","<div style=""font-size:60px;""> </div>","null","FL","learning/Slide14.JPG","That was a wug.","",""
"","image-keyboard-response","49","449799","0.0-6.0-0.14","FL","43qjs0ts63","1440","900","en","la07as21","null","","","","","","","","learning/Slide15.JPG","null","","","","",""
"","html-keyboard-response","50","450960","0.0-6.0-1.14","FL","43qjs0ts63","1440","900","en","la07as21","null","","","","learningBlock1","","","","That was a tob.","null","","","","",""
"","html-keyboard-response","51","451964","0.0-6.0-2.14","FL","43qjs0ts63","1440","900","en","la07as21","null","","","","learningBlock1","","","","<div style=""font-size:60px;""> </div>","null","FL","learning/Slide15.JPG","That was a tob.","",""
"","image-keyboard-response","52","452144","0.0-6.0-0.15","FL","43qjs0ts63","1440","900","en","la07as21","null","","","","","","","","learning/Slide16.JPG","null","","","","",""
"","html-keyboard-response","53","453301","0.0-6.0-1.15","FL","43qjs0ts63","1440","900","en","la07as21","null","","","","learningBlock1","","","","That was a dep.","null","","","","",""
"","html-keyboard-response","54","454305","0.0-6.0-2.15","FL","43qjs0ts63","1440","900","en","la07as21","null","","","","learningBlock1","","","","<div style=""font-size:60px;""> </div>","null","FL","learning/Slide16.JPG","That was a dep.","",""
"","image-keyboard-response","55","454481","0.0-6.0-0.16","FL","43qjs0ts63","1440","900","en","la07as21","null","","","","","","","","learning/Slide17.JPG","null","","","","",""
"","html-keyboard-response","56","455642","0.0-6.0-1.16","FL","43qjs0ts63","1440","900","en","la07as21","null","","","","learningBlock1","","","","That was a bim.","null","","","","",""
"","html-keyboard-response","57","456644","0.0-6.0-2.16","FL","43qjs0ts63","1440","900","en","la07as21","null","","","","learningBlock1","","","","<div style=""font-size:60px;""> </div>","null","FL","learning/Slide17.JPG","That was a bim.","",""
"","image-keyboard-response","58","456826","0.0-6.0-0.17","FL","43qjs0ts63","1440","900","en","la07as21","null","","","","","","","","learning/Slide18.JPG","null","","","","",""
"","html-keyboard-response","59","457985","0.0-6.0-1.17","FL","43qjs0ts63","1440","900","en","la07as21","null","","","","learningBlock1","","","","That was a tob.","null","","","","",""
"","html-keyboard-response","60","458991","0.0-6.0-2.17","FL","43qjs0ts63","1440","900","en","la07as21","null","","","","learningBlock1","","","","<div style=""font-size:60px;""> </div>","null","FL","learning/Slide18.JPG","That was a tob.","",""
"","image-keyboard-response","61","459168","0.0-6.0-0.18","FL","43qjs0ts63","1440","900","en","la07as21","null","","","","","","","","learning/Slide19.JPG","null","","","","",""
"","html-keyboard-response","62","460322","0.0-6.0-1.18","FL","43qjs0ts63","1440","900","en","la07as21","null","","","","learningBlock1","","","","That was a wug.","null","","","","",""
"","html-keyboard-response","63","461328","0.0-6.0-2.18","FL","43qjs0ts63","1440","900","en","la07as21","null","","","","learningBlock1","","","","<div style=""font-size:60px;""> </div>","null","FL","learning/Slide19.JPG","That was a wug.","",""
"","image-keyboard-response","64","461507","0.0-6.0-0.19","FL","43qjs0ts63","1440","900","en","la07as21","null","","","","","","","","learning/Slide20.JPG","null","","","","",""
"","html-keyboard-response","65","462660","0.0-6.0-1.19","FL","43qjs0ts63","1440","900","en","la07as21","null","","","","learningBlock1","","","","That was a bim.","null","","","","",""
"","html-keyboard-response","66","463666","0.0-6.0-2.19","FL","43qjs0ts63","1440","900","en","la07as21","null","","","","learningBlock1","","","","<div style=""font-size:60px;""> </div>","null","FL","learning/Slide20.JPG","That was a bim.","",""
"","image-keyboard-response","67","463844","0.0-6.0-0.20","FL","43qjs0ts63","1440","900","en","la07as21","null","","","","","","","","learning/Slide21.JPG","null","","","","",""
"","html-keyboard-response","68","465006","0.0-6.0-1.20","FL","43qjs0ts63","1440","900","en","la07as21","null","","","","learningBlock1","","","","That was a dep.","null","","","","",""
"","html-keyboard-response","69","466015","0.0-6.0-2.20","FL","43qjs0ts63","1440","900","en","la07as21","null","","","","learningBlock1","","","","<div style=""font-size:60px;""> </div>","null","FL","learning/Slide21.JPG","That was a dep.","",""
"","image-keyboard-response","70","466196","0.0-6.0-0.21","FL","43qjs0ts63","1440","900","en","la07as21","null","","","","","","","","learning/Slide22.JPG","null","","","","",""
"","html-keyboard-response","71","467355","0.0-6.0-1.21","FL","43qjs0ts63","1440","900","en","la07as21","null","","","","learningBlock1","","","","That was a bim.","null","","","","",""
"","html-keyboard-response","72","468360","0.0-6.0-2.21","FL","43qjs0ts63","1440","900","en","la07as21","null","","","","learningBlock1","","","","<div style=""font-size:60px;""> </div>","null","FL","learning/Slide22.JPG","That was a bim.","",""
"","image-keyboard-response","73","468537","0.0-6.0-0.22","FL","43qjs0ts63","1440","900","en","la07as21","null","","","","","","","","learning/Slide23.JPG","null","","","","",""
"","html-keyboard-response","74","469698","0.0-6.0-1.22","FL","43qjs0ts63","1440","900","en","la07as21","null","","","","learningBlock1","","","","That was a tob.","null","","","","",""
"","html-keyboard-response","75","470704","0.0-6.0-2.22","FL","43qjs0ts63","1440","900","en","la07as21","null","","","","learningBlock1","","","","<div style=""font-size:60px;""> </div>","null","FL","learning/Slide23.JPG","That was a tob.","",""
"","image-keyboard-response","76","470886","0.0-6.0-0.23","FL","43qjs0ts63","1440","900","en","la07as21","null","","","","","","","","learning/Slide24.JPG","null","","","","",""
"","html-keyboard-response","77","472047","0.0-6.0-1.23","FL","43qjs0ts63","1440","900","en","la07as21","null","","","","learningBlock1","","","","That was a wug.","null","","","","",""
"","html-keyboard-response","78","473053","0.0-6.0-2.23","FL","43qjs0ts63","1440","900","en","la07as21","null","","","","learningBlock1","","","","<div style=""font-size:60px;""> </div>","null","FL","learning/Slide24.JPG","That was a wug.","",""
"","image-keyboard-response","79","473234","0.0-6.0-0.24","FL","43qjs0ts63","1440","900","en","la07as21","null","","","","","","","","learning/Slide25.JPG","null","","","","",""
"","html-keyboard-response","80","474392","0.0-6.0-1.24","FL","43qjs0ts63","1440","900","en","la07as21","null","","","","learningBlock1","","","","That was a dep.","null","","","","",""
"","html-keyboard-response","81","475397","0.0-6.0-2.24","FL","43qjs0ts63","1440","900","en","la07as21","null","","","","learningBlock1","","","","<div style=""font-size:60px;""> </div>","null","FL","learning/Slide25.JPG","That was a dep.","",""
"","image-keyboard-response","82","475579","0.0-6.0-0.25","FL","43qjs0ts63","1440","900","en","la07as21","null","","","","","","","","learning/Slide26.JPG","null","","","","",""
"","html-keyboard-response","83","476740","0.0-6.0-1.25","FL","43qjs0ts63","1440","900","en","la07as21","null","","","","learningBlock1","","","","That was a wug.","null","","","","",""
"","html-keyboard-response","84","477746","0.0-6.0-2.25","FL","43qjs0ts63","1440","900","en","la07as21","null","","","","learningBlock1","","","","<div style=""font-size:60px;""> </div>","null","FL","learning/Slide26.JPG","That was a wug.","",""
"","image-keyboard-response","85","477927","0.0-6.0-0.26","FL","43qjs0ts63","1440","900","en","la07as21","null","","","","","","","","learning/Slide27.JPG","null","","","","",""
"","html-keyboard-response","86","479083","0.0-6.0-1.26","FL","43qjs0ts63","1440","900","en","la07as21","null","","","","learningBlock1","","","","That was a bim.","null","","","","",""
"","html-keyboard-response","87","480088","0.0-6.0-2.26","FL","43qjs0ts63","1440","900","en","la07as21","null","","","","learningBlock1","","","","<div style=""font-size:60px;""> </div>","null","FL","learning/Slide27.JPG","That was a bim.","",""
"","image-keyboard-response","88","480269","0.0-6.0-0.27","FL","43qjs0ts63","1440","900","en","la07as21","null","","","","","","","","learning/Slide28.JPG","null","","","","",""
"","html-keyboard-response","89","481428","0.0-6.0-1.27","FL","43qjs0ts63","1440","900","en","la07as21","null","","","","learningBlock1","","","","That was a dep.","null","","","","",""
"","html-keyboard-response","90","482434","0.0-6.0-2.27","FL","43qjs0ts63","1440","900","en","la07as21","null","","","","learningBlock1","","","","<div style=""font-size:60px;""> </div>","null","FL","learning/Slide28.JPG","That was a dep.","",""
"","image-keyboard-response","91","482616","0.0-6.0-0.28","FL","43qjs0ts63","1440","900","en","la07as21","null","","","","","","","","learning/Slide29.JPG","null","","","","",""
"","html-keyboard-response","92","483775","0.0-6.0-1.28","FL","43qjs0ts63","1440","900","en","la07as21","null","","","","learningBlock1","","","","That was a tob.","null","","","","",""
"","html-keyboard-response","93","484778","0.0-6.0-2.28","FL","43qjs0ts63","1440","900","en","la07as21","null","","","","learningBlock1","","","","<div style=""font-size:60px;""> </div>","null","FL","learning/Slide29.JPG","That was a tob.","",""
"","image-keyboard-response","94","484959","0.0-6.0-0.29","FL","43qjs0ts63","1440","900","en","la07as21","null","","","","","","","","learning/Slide30.JPG","null","","","","",""
"","html-keyboard-response","95","486112","0.0-6.0-1.29","FL","43qjs0ts63","1440","900","en","la07as21","null","","","","learningBlock1","","","","That was a dep.","null","","","","",""
"","html-keyboard-response","96","487118","0.0-6.0-2.29","FL","43qjs0ts63","1440","900","en","la07as21","null","","","","learningBlock1","","","","<div style=""font-size:60px;""> </div>","null","FL","learning/Slide30.JPG","That was a dep.","",""
"","image-keyboard-response","97","487299","0.0-6.0-0.30","FL","43qjs0ts63","1440","900","en","la07as21","null","","","","","","","","learning/Slide31.JPG","null","","","","",""
"","html-keyboard-response","98","488459","0.0-6.0-1.30","FL","43qjs0ts63","1440","900","en","la07as21","null","","","","learningBlock1","","","","That was a wug.","null","","","","",""
"","html-keyboard-response","99","489465","0.0-6.0-2.30","FL","43qjs0ts63","1440","900","en","la07as21","null","","","","learningBlock1","","","","<div style=""font-size:60px;""> </div>","null","FL","learning/Slide31.JPG","That was a wug.","",""
"","image-keyboard-response","100","489646","0.0-6.0-0.31","FL","43qjs0ts63","1440","900","en","la07as21","null","","","","","","","","learning/Slide32.JPG","null","","","","",""
"","html-keyboard-response","101","490805","0.0-6.0-1.31","FL","43qjs0ts63","1440","900","en","la07as21","null","","","","learningBlock1","","","","That was a tob.","null","","","","",""
"","html-keyboard-response","102","491810","0.0-6.0-2.31","FL","43qjs0ts63","1440","900","en","la07as21","null","","","","learningBlock1","","","","<div style=""font-size:60px;""> </div>","null","FL","learning/Slide32.JPG","That was a tob.","",""
"","image-keyboard-response","103","491992","0.0-6.0-0.32","FL","43qjs0ts63","1440","900","en","la07as21","null","","","","","","","","learning/Slide33.JPG","null","","","","",""
"","html-keyboard-response","104","493153","0.0-6.0-1.32","FL","43qjs0ts63","1440","900","en","la07as21","null","","","","learningBlock1","","","","That was a bim.","null","","","","",""
"","html-keyboard-response","105","494159","0.0-6.0-2.32","FL","43qjs0ts63","1440","900","en","la07as21","null","","","","learningBlock1","","","","<div style=""font-size:60px;""> </div>","null","FL","learning/Slide33.JPG","That was a bim.","",""
"","image-keyboard-response","106","494336","0.0-6.0-0.33","FL","43qjs0ts63","1440","900","en","la07as21","null","","","","","","","","learning/Slide34.JPG","null","","","","",""
"","html-keyboard-response","107","495497","0.0-6.0-1.33","FL","43qjs0ts63","1440","900","en","la07as21","null","","","","learningBlock1","","","","That was a tob.","null","","","","",""
"","html-keyboard-response","108","496501","0.0-6.0-2.33","FL","43qjs0ts63","1440","900","en","la07as21","null","","","","learningBlock1","","","","<div style=""font-size:60px;""> </div>","null","FL","learning/Slide34.JPG","That was a tob.","",""
"","image-keyboard-response","109","496682","0.0-6.0-0.34","FL","43qjs0ts63","1440","900","en","la07as21","null","","","","","","","","learning/Slide35.JPG","null","","","","",""
"","html-keyboard-response","110","497842","0.0-6.0-1.34","FL","43qjs0ts63","1440","900","en","la07as21","null","","","","learningBlock1","","","","That was a bim.","null","","","","",""
"","html-keyboard-response","111","498846","0.0-6.0-2.34","FL","43qjs0ts63","1440","900","en","la07as21","null","","","","learningBlock1","","","","<div style=""font-size:60px;""> </div>","null","FL","learning/Slide35.JPG","That was a bim.","",""
"","image-keyboard-response","112","499027","0.0-6.0-0.35","FL","43qjs0ts63","1440","900","en","la07as21","null","","","","","","","","learning/Slide36.JPG","null","","","","",""
"","html-keyboard-response","113","500188","0.0-6.0-1.35","FL","43qjs0ts63","1440","900","en","la07as21","null","","","","learningBlock1","","","","That was a dep.","null","","","","",""
"","html-keyboard-response","114","501194","0.0-6.0-2.35","FL","43qjs0ts63","1440","900","en","la07as21","null","","","","learningBlock1","","","","<div style=""font-size:60px;""> </div>","null","FL","learning/Slide36.JPG","That was a dep.","",""
"","image-keyboard-response","115","501376","0.0-6.0-0.36","FL","43qjs0ts63","1440","900","en","la07as21","null","","","","","","","","learning/Slide37.JPG","null","","","","",""
"","html-keyboard-response","116","502537","0.0-6.0-1.36","FL","43qjs0ts63","1440","900","en","la07as21","null","","","","learningBlock1","","","","That was a tob.","null","","","","",""
"","html-keyboard-response","117","503543","0.0-6.0-2.36","FL","43qjs0ts63","1440","900","en","la07as21","null","","","","learningBlock1","","","","<div style=""font-size:60px;""> </div>","null","FL","learning/Slide37.JPG","That was a tob.","",""
"","image-keyboard-response","118","503724","0.0-6.0-0.37","FL","43qjs0ts63","1440","900","en","la07as21","null","","","","","","","","learning/Slide38.JPG","null","","","","",""
"","html-keyboard-response","119","504883","0.0-6.0-1.37","FL","43qjs0ts63","1440","900","en","la07as21","null","","","","learningBlock1","","","","That was a wug.","null","","","","",""
"","html-keyboard-response","120","505887","0.0-6.0-2.37","FL","43qjs0ts63","1440","900","en","la07as21","null","","","","learningBlock1","","","","<div style=""font-size:60px;""> </div>","null","FL","learning/Slide38.JPG","That was a wug.","",""
"","image-keyboard-response","121","506068","0.0-6.0-0.38","FL","43qjs0ts63","1440","900","en","la07as21","null","","","","","","","","learning/Slide39.JPG","null","","","","",""
"","html-keyboard-response","122","507227","0.0-6.0-1.38","FL","43qjs0ts63","1440","900","en","la07as21","null","","","","learningBlock1","","","","That was a bim.","null","","","","",""
"","html-keyboard-response","123","508233","0.0-6.0-2.38","FL","43qjs0ts63","1440","900","en","la07as21","null","","","","learningBlock1","","","","<div style=""font-size:60px;""> </div>","null","FL","learning/Slide39.JPG","That was a bim.","",""
"","image-keyboard-response","124","508414","0.0-6.0-0.39","FL","43qjs0ts63","1440","900","en","la07as21","null","","","","","","","","learning/Slide40.JPG","null","","","","",""
"","html-keyboard-response","125","509575","0.0-6.0-1.39","FL","43qjs0ts63","1440","900","en","la07as21","null","","","","learningBlock1","","","","That was a tob.","null","","","","",""
"","html-keyboard-response","126","510581","0.0-6.0-2.39","FL","43qjs0ts63","1440","900","en","la07as21","null","","","","learningBlock1","","","","<div style=""font-size:60px;""> </div>","null","FL","learning/Slide40.JPG","That was a tob.","",""
"","image-keyboard-response","127","510763","0.0-6.0-0.40","FL","43qjs0ts63","1440","900","en","la07as21","null","","","","","","","","learning/Slide41.JPG","null","","","","",""
"","html-keyboard-response","128","511924","0.0-6.0-1.40","FL","43qjs0ts63","1440","900","en","la07as21","null","","","","learningBlock1","","","","That was a bim.","null","","","","",""
"","html-keyboard-response","129","512930","0.0-6.0-2.40","FL","43qjs0ts63","1440","900","en","la07as21","null","","","","learningBlock1","","","","<div style=""font-size:60px;""> </div>","null","FL","learning/Slide41.JPG","That was a bim.","",""
"","image-keyboard-response","130","513110","0.0-6.0-0.41","FL","43qjs0ts63","1440","900","en","la07as21","null","","","","","","","","learning/Slide42.JPG","null","","","","",""
"","html-keyboard-response","131","514271","0.0-6.0-1.41","FL","43qjs0ts63","1440","900","en","la07as21","null","","","","learningBlock1","","","","That was a dep.","null","","","","",""
"","html-keyboard-response","132","515276","0.0-6.0-2.41","FL","43qjs0ts63","1440","900","en","la07as21","null","","","","learningBlock1","","","","<div style=""font-size:60px;""> </div>","null","FL","learning/Slide42.JPG","That was a dep.","",""
"","image-keyboard-response","133","515458","0.0-6.0-0.42","FL","43qjs0ts63","1440","900","en","la07as21","null","","","","","","","","learning/Slide43.JPG","null","","","","",""
"","html-keyboard-response","134","516614","0.0-6.0-1.42","FL","43qjs0ts63","1440","900","en","la07as21","null","","","","learningBlock1","","","","That was a wug.","null","","","","",""
"","html-keyboard-response","135","517615","0.0-6.0-2.42","FL","43qjs0ts63","1440","900","en","la07as21","null","","","","learningBlock1","","","","<div style=""font-size:60px;""> </div>","null","FL","learning/Slide43.JPG","That was a wug.","",""
"","image-keyboard-response","136","517795","0.0-6.0-0.43","FL","43qjs0ts63","1440","900","en","la07as21","null","","","","","","","","learning/Slide44.JPG","null","","","","",""
"","html-keyboard-response","137","518957","0.0-6.0-1.43","FL","43qjs0ts63","1440","900","en","la07as21","null","","","","learningBlock1","","","","That was a bim.","null","","","","",""
"","html-keyboard-response","138","519963","0.0-6.0-2.43","FL","43qjs0ts63","1440","900","en","la07as21","null","","","","learningBlock1","","","","<div style=""font-size:60px;""> </div>","null","FL","learning/Slide44.JPG","That was a bim.","",""
"","image-keyboard-response","139","520143","0.0-6.0-0.44","FL","43qjs0ts63","1440","900","en","la07as21","null","","","","","","","","learning/Slide45.JPG","null","","","","",""
"","html-keyboard-response","140","521301","0.0-6.0-1.44","FL","43qjs0ts63","1440","900","en","la07as21","null","","","","learningBlock1","","","","That was a wug.","null","","","","",""
"","html-keyboard-response","141","522304","0.0-6.0-2.44","FL","43qjs0ts63","1440","900","en","la07as21","null","","","","learningBlock1","","","","<div style=""font-size:60px;""> </div>","null","FL","learning/Slide45.JPG","That was a wug.","",""
"","image-keyboard-response","142","522485","0.0-6.0-0.45","FL","43qjs0ts63","1440","900","en","la07as21","null","","","","","","","","learning/Slide46.JPG","null","","","","",""
"","html-keyboard-response","143","523646","0.0-6.0-1.45","FL","43qjs0ts63","1440","900","en","la07as21","null","","","","learningBlock1","","","","That was a dep.","null","","","","",""
"","html-keyboard-response","144","524649","0.0-6.0-2.45","FL","43qjs0ts63","1440","900","en","la07as21","null","","","","learningBlock1","","","","<div style=""font-size:60px;""> </div>","null","FL","learning/Slide46.JPG","That was a dep.","",""
"","image-keyboard-response","145","524825","0.0-6.0-0.46","FL","43qjs0ts63","1440","900","en","la07as21","null","","","","","","","","learning/Slide47.JPG","null","","","","",""
"","html-keyboard-response","146","525980","0.0-6.0-1.46","FL","43qjs0ts63","1440","900","en","la07as21","null","","","","learningBlock1","","","","That was a tob.","null","","","","",""
"","html-keyboard-response","147","526984","0.0-6.0-2.46","FL","43qjs0ts63","1440","900","en","la07as21","null","","","","learningBlock1","","","","<div style=""font-size:60px;""> </div>","null","FL","learning/Slide47.JPG","That was a tob.","",""
"","image-keyboard-response","148","527166","0.0-6.0-0.47","FL","43qjs0ts63","1440","900","en","la07as21","null","","","","","","","","learning/Slide48.JPG","null","","","","",""
"","html-keyboard-response","149","528317","0.0-6.0-1.47","FL","43qjs0ts63","1440","900","en","la07as21","null","","","","learningBlock1","","","","That was a bim.","null","","","","",""
"","html-keyboard-response","150","529323","0.0-6.0-2.47","FL","43qjs0ts63","1440","900","en","la07as21","null","","","","learningBlock1","","","","<div style=""font-size:60px;""> </div>","null","FL","learning/Slide48.JPG","That was a bim.","",""
"","image-keyboard-response","151","529504","0.0-6.0-0.48","FL","43qjs0ts63","1440","900","en","la07as21","null","","","","","","","","learning/Slide49.JPG","null","","","","",""
"","html-keyboard-response","152","530662","0.0-6.0-1.48","FL","43qjs0ts63","1440","900","en","la07as21","null","","","","learningBlock1","","","","That was a dep.","null","","","","",""
"","html-keyboard-response","153","531667","0.0-6.0-2.48","FL","43qjs0ts63","1440","900","en","la07as21","null","","","","learningBlock1","","","","<div style=""font-size:60px;""> </div>","null","FL","learning/Slide49.JPG","That was a dep.","",""
"","image-keyboard-response","154","531847","0.0-6.0-0.49","FL","43qjs0ts63","1440","900","en","la07as21","null","","","","","","","","learning/Slide50.JPG","null","","","","",""
"","html-keyboard-response","155","533003","0.0-6.0-1.49","FL","43qjs0ts63","1440","900","en","la07as21","null","","","","learningBlock1","","","","That was a tob.","null","","","","",""
"","html-keyboard-response","156","534009","0.0-6.0-2.49","FL","43qjs0ts63","1440","900","en","la07as21","null","","","","learningBlock1","","","","<div style=""font-size:60px;""> </div>","null","FL","learning/Slide50.JPG","That was a tob.","",""
"","image-keyboard-response","157","534191","0.0-6.0-0.50","FL","43qjs0ts63","1440","900","en","la07as21","null","","","","","","","","learning/Slide51.JPG","null","","","","",""
"","html-keyboard-response","158","535350","0.0-6.0-1.50","FL","43qjs0ts63","1440","900","en","la07as21","null","","","","learningBlock1","","","","That was a bim.","null","","","","",""
"","html-keyboard-response","159","536351","0.0-6.0-2.50","FL","43qjs0ts63","1440","900","en","la07as21","null","","","","learningBlock1","","","","<div style=""font-size:60px;""> </div>","null","FL","learning/Slide51.JPG","That was a bim.","",""
"","image-keyboard-response","160","536531","0.0-6.0-0.51","FL","43qjs0ts63","1440","900","en","la07as21","null","","","","","","","","learning/Slide52.JPG","null","","","","",""
"","html-keyboard-response","161","537691","0.0-6.0-1.51","FL","43qjs0ts63","1440","900","en","la07as21","null","","","","learningBlock1","","","","That was a wug.","null","","","","",""
"","html-keyboard-response","162","538696","0.0-6.0-2.51","FL","43qjs0ts63","1440","900","en","la07as21","null","","","","learningBlock1","","","","<div style=""font-size:60px;""> </div>","null","FL","learning/Slide52.JPG","That was a wug.","",""
"","image-keyboard-response","163","538877","0.0-6.0-0.52","FL","43qjs0ts63","1440","900","en","la07as21","null","","","","","","","","learning/Slide53.JPG","null","","","","",""
"","html-keyboard-response","164","540038","0.0-6.0-1.52","FL","43qjs0ts63","1440","900","en","la07as21","null","","","","learningBlock1","","","","That was a tob.","null","","","","",""
"","html-keyboard-response","165","541044","0.0-6.0-2.52","FL","43qjs0ts63","1440","900","en","la07as21","null","","","","learningBlock1","","","","<div style=""font-size:60px;""> </div>","null","FL","learning/Slide53.JPG","That was a tob.","",""
"","image-keyboard-response","166","541225","0.0-6.0-0.53","FL","43qjs0ts63","1440","900","en","la07as21","null","","","","","","","","learning/Slide54.JPG","null","","","","",""
"","html-keyboard-response","167","542387","0.0-6.0-1.53","FL","43qjs0ts63","1440","900","en","la07as21","null","","","","learningBlock1","","","","That was a dep.","null","","","","",""
"","html-keyboard-response","168","543393","0.0-6.0-2.53","FL","43qjs0ts63","1440","900","en","la07as21","null","","","","learningBlock1","","","","<div style=""font-size:60px;""> </div>","null","FL","learning/Slide54.JPG","That was a dep.","",""
"","image-keyboard-response","169","543574","0.0-6.0-0.54","FL","43qjs0ts63","1440","900","en","la07as21","null","","","","","","","","learning/Slide55.JPG","null","","","","",""
"","html-keyboard-response","170","544732","0.0-6.0-1.54","FL","43qjs0ts63","1440","900","en","la07as21","null","","","","learningBlock1","","","","That was a bim.","null","","","","",""
"","html-keyboard-response","171","545738","0.0-6.0-2.54","FL","43qjs0ts63","1440","900","en","la07as21","null","","","","learningBlock1","","","","<div style=""font-size:60px;""> </div>","null","FL","learning/Slide55.JPG","That was a bim.","",""
"","image-keyboard-response","172","545920","0.0-6.0-0.55","FL","43qjs0ts63","1440","900","en","la07as21","null","","","","","","","","learning/Slide56.JPG","null","","","","",""
"","html-keyboard-response","173","547081","0.0-6.0-1.55","FL","43qjs0ts63","1440","900","en","la07as21","null","","","","learningBlock1","","","","That was a tob.","null","","","","",""
"","html-keyboard-response","174","548087","0.0-6.0-2.55","FL","43qjs0ts63","1440","900","en","la07as21","null","","","","learningBlock1","","","","<div style=""font-size:60px;""> </div>","null","FL","learning/Slide56.JPG","That was a tob.","",""
"","image-keyboard-response","175","548268","0.0-6.0-0.56","FL","43qjs0ts63","1440","900","en","la07as21","null","","","","","","","","learning/Slide57.JPG","null","","","","",""
"","html-keyboard-response","176","549422","0.0-6.0-1.56","FL","43qjs0ts63","1440","900","en","la07as21","null","","","","learningBlock1","","","","That was a dep.","null","","","","",""
"","html-keyboard-response","177","550425","0.0-6.0-2.56","FL","43qjs0ts63","1440","900","en","la07as21","null","","","","learningBlock1","","","","<div style=""font-size:60px;""> </div>","null","FL","learning/Slide57.JPG","That was a dep.","",""
"","image-keyboard-response","178","550602","0.0-6.0-0.57","FL","43qjs0ts63","1440","900","en","la07as21","null","","","","","","","","learning/Slide58.JPG","null","","","","",""
"","html-keyboard-response","179","551759","0.0-6.0-1.57","FL","43qjs0ts63","1440","900","en","la07as21","null","","","","learningBlock1","","","","That was a wug.","null","","","","",""
"","html-keyboard-response","180","552765","0.0-6.0-2.57","FL","43qjs0ts63","1440","900","en","la07as21","null","","","","learningBlock1","","","","<div style=""font-size:60px;""> </div>","null","FL","learning/Slide58.JPG","That was a wug.","",""
"","image-keyboard-response","181","552943","0.0-6.0-0.58","FL","43qjs0ts63","1440","900","en","la07as21","null","","","","","","","","learning/Slide59.JPG","null","","","","",""
"","html-keyboard-response","182","554099","0.0-6.0-1.58","FL","43qjs0ts63","1440","900","en","la07as21","null","","","","learningBlock1","","","","That was a dep.","null","","","","",""
"","html-keyboard-response","183","555105","0.0-6.0-2.58","FL","43qjs0ts63","1440","900","en","la07as21","null","","","","learningBlock1","","","","<div style=""font-size:60px;""> </div>","null","FL","learning/Slide59.JPG","That was a dep.","",""
"","image-keyboard-response","184","555283","0.0-6.0-0.59","FL","43qjs0ts63","1440","900","en","la07as21","null","","","","","","","","learning/Slide60.JPG","null","","","","",""
"","html-keyboard-response","185","556444","0.0-6.0-1.59","FL","43qjs0ts63","1440","900","en","la07as21","null","","","","learningBlock1","","","","That was a wug.","null","","","","",""
"","html-keyboard-response","186","557448","0.0-6.0-2.59","FL","43qjs0ts63","1440","900","en","la07as21","null","","","","learningBlock1","","","","<div style=""font-size:60px;""> </div>","null","FL","learning/Slide60.JPG","That was a wug.","",""
"","image-keyboard-response","187","557628","0.0-6.0-0.60","FL","43qjs0ts63","1440","900","en","la07as21","null","","","","","","","","learning/Slide61.JPG","null","","","","",""
"","html-keyboard-response","188","558788","0.0-6.0-1.60","FL","43qjs0ts63","1440","900","en","la07as21","null","","","","learningBlock1","","","","That was a bim.","null","","","","",""
"","html-keyboard-response","189","559794","0.0-6.0-2.60","FL","43qjs0ts63","1440","900","en","la07as21","null","","","","learningBlock1","","","","<div style=""font-size:60px;""> </div>","null","FL","learning/Slide61.JPG","That was a bim.","",""
"","image-keyboard-response","190","559974","0.0-6.0-0.61","FL","43qjs0ts63","1440","900","en","la07as21","null","","","","","","","","learning/Slide62.JPG","null","","","","",""
"","html-keyboard-response","191","561134","0.0-6.0-1.61","FL","43qjs0ts63","1440","900","en","la07as21","null","","","","learningBlock1","","","","That was a dep.","null","","","","",""
"","html-keyboard-response","192","562140","0.0-6.0-2.61","FL","43qjs0ts63","1440","900","en","la07as21","null","","","","learningBlock1","","","","<div style=""font-size:60px;""> </div>","null","FL","learning/Slide62.JPG","That was a dep.","",""
"","image-keyboard-response","193","562320","0.0-6.0-0.62","FL","43qjs0ts63","1440","900","en","la07as21","null","","","","","","","","learning/Slide63.JPG","null","","","","",""
"","html-keyboard-response","194","563474","0.0-6.0-1.62","FL","43qjs0ts63","1440","900","en","la07as21","null","","","","learningBlock1","","","","That was a bim.","null","","","","",""
"","html-keyboard-response","195","564479","0.0-6.0-2.62","FL","43qjs0ts63","1440","900","en","la07as21","null","","","","learningBlock1","","","","<div style=""font-size:60px;""> </div>","null","FL","learning/Slide63.JPG","That was a bim.","",""
"","image-keyboard-response","196","564661","0.0-6.0-0.63","FL","43qjs0ts63","1440","900","en","la07as21","null","","","","","","","","learning/Slide64.JPG","null","","","","",""
"","html-keyboard-response","197","565818","0.0-6.0-1.63","FL","43qjs0ts63","1440","900","en","la07as21","null","","","","learningBlock1","","","","That was a tob.","null","","","","",""
"","html-keyboard-response","198","566824","0.0-6.0-2.63","FL","43qjs0ts63","1440","900","en","la07as21","null","","","","learningBlock1","","","","<div style=""font-size:60px;""> </div>","null","FL","learning/Slide64.JPG","That was a tob.","",""
"","image-keyboard-response","199","567002","0.0-6.0-0.64","FL","43qjs0ts63","1440","900","en","la07as21","null","","","","","","","","learning/Slide65.JPG","null","","","","",""
"","html-keyboard-response","200","568163","0.0-6.0-1.64","FL","43qjs0ts63","1440","900","en","la07as21","null","","","","learningBlock1","","","","That was a wug.","null","","","","",""
"","html-keyboard-response","201","569165","0.0-6.0-2.64","FL","43qjs0ts63","1440","900","en","la07as21","null","","","","learningBlock1","","","","<div style=""font-size:60px;""> </div>","null","FL","learning/Slide65.JPG","That was a wug.","",""
"","image-keyboard-response","202","569346","0.0-6.0-0.65","FL","43qjs0ts63","1440","900","en","la07as21","null","","","","","","","","learning/Slide66.JPG","null","","","","",""
"","html-keyboard-response","203","570508","0.0-6.0-1.65","FL","43qjs0ts63","1440","900","en","la07as21","null","","","","learningBlock1","","","","That was a dep.","null","","","","",""
"","html-keyboard-response","204","571514","0.0-6.0-2.65","FL","43qjs0ts63","1440","900","en","la07as21","null","","","","learningBlock1","","","","<div style=""font-size:60px;""> </div>","null","FL","learning/Slide66.JPG","That was a dep.","",""
"","image-keyboard-response","205","571695","0.0-6.0-0.66","FL","43qjs0ts63","1440","900","en","la07as21","null","","","","","","","","learning/Slide67.JPG","null","","","","",""
"","html-keyboard-response","206","572856","0.0-6.0-1.66","FL","43qjs0ts63","1440","900","en","la07as21","null","","","","learningBlock1","","","","That was a tob.","null","","","","",""
"","html-keyboard-response","207","573862","0.0-6.0-2.66","FL","43qjs0ts63","1440","900","en","la07as21","null","","","","learningBlock1","","","","<div style=""font-size:60px;""> </div>","null","FL","learning/Slide67.JPG","That was a tob.","",""
"","image-keyboard-response","208","574043","0.0-6.0-0.67","FL","43qjs0ts63","1440","900","en","la07as21","null","","","","","","","","learning/Slide68.JPG","null","","","","",""
"","html-keyboard-response","209","575196","0.0-6.0-1.67","FL","43qjs0ts63","1440","900","en","la07as21","null","","","","learningBlock1","","","","That was a wug.","null","","","","",""
"","html-keyboard-response","210","576201","0.0-6.0-2.67","FL","43qjs0ts63","1440","900","en","la07as21","null","","","","learningBlock1","","","","<div style=""font-size:60px;""> </div>","null","FL","learning/Slide68.JPG","That was a wug.","",""
"","image-keyboard-response","211","576382","0.0-6.0-0.68","FL","43qjs0ts63","1440","900","en","la07as21","null","","","","","","","","learning/Slide69.JPG","null","","","","",""
"","html-keyboard-response","212","577542","0.0-6.0-1.68","FL","43qjs0ts63","1440","900","en","la07as21","null","","","","learningBlock1","","","","That was a tob.","null","","","","",""
"","html-keyboard-response","213","578548","0.0-6.0-2.68","FL","43qjs0ts63","1440","900","en","la07as21","null","","","","learningBlock1","","","","<div style=""font-size:60px;""> </div>","null","FL","learning/Slide69.JPG","That was a tob.","",""
"","image-keyboard-response","214","578729","0.0-6.0-0.69","FL","43qjs0ts63","1440","900","en","la07as21","null","","","","","","","","learning/Slide70.JPG","null","","","","",""
"","html-keyboard-response","215","579890","0.0-6.0-1.69","FL","43qjs0ts63","1440","900","en","la07as21","null","","","","learningBlock1","","","","That was a dep.","null","","","","",""
"","html-keyboard-response","216","580896","0.0-6.0-2.69","FL","43qjs0ts63","1440","900","en","la07as21","null","","","","learningBlock1","","","","<div style=""font-size:60px;""> </div>","null","FL","learning/Slide70.JPG","That was a dep.","",""
"","image-keyboard-response","217","581073","0.0-6.0-0.70","FL","43qjs0ts63","1440","900","en","la07as21","null","","","","","","","","learning/Slide71.JPG","null","","","","",""
"","html-keyboard-response","218","582235","0.0-6.0-1.70","FL","43qjs0ts63","1440","900","en","la07as21","null","","","","learningBlock1","","","","That was a wug.","null","","","","",""
"","html-keyboard-response","219","583240","0.0-6.0-2.70","FL","43qjs0ts63","1440","900","en","la07as21","null","","","","learningBlock1","","","","<div style=""font-size:60px;""> </div>","null","FL","learning/Slide71.JPG","That was a wug.","",""
"","image-keyboard-response","220","583418","0.0-6.0-0.71","FL","43qjs0ts63","1440","900","en","la07as21","null","","","","","","","","learning/Slide72.JPG","null","","","","",""
"","html-keyboard-response","221","584578","0.0-6.0-1.71","FL","43qjs0ts63","1440","900","en","la07as21","null","","","","learningBlock1","","","","That was a bim.","null","","","","",""
"","html-keyboard-response","222","585584","0.0-6.0-2.71","FL","43qjs0ts63","1440","900","en","la07as21","null","","","","learningBlock1","","","","<div style=""font-size:60px;""> </div>","null","FL","learning/Slide72.JPG","That was a bim.","",""
"","image-keyboard-response","223","585761","0.0-6.0-0.72","FL","43qjs0ts63","1440","900","en","la07as21","null","","","","","","","","learning/Slide73.JPG","null","","","","",""
"","html-keyboard-response","224","586920","0.0-6.0-1.72","FL","43qjs0ts63","1440","900","en","la07as21","null","","","","learningBlock1","","","","That was a wug.","null","","","","",""
"","html-keyboard-response","225","587921","0.0-6.0-2.72","FL","43qjs0ts63","1440","900","en","la07as21","null","","","","learningBlock1","","","","<div style=""font-size:60px;""> </div>","null","FL","learning/Slide73.JPG","That was a wug.","",""
"","image-keyboard-response","226","588101","0.0-6.0-0.73","FL","43qjs0ts63","1440","900","en","la07as21","null","","","","","","","","learning/Slide74.JPG","null","","","","",""
"","html-keyboard-response","227","589259","0.0-6.0-1.73","FL","43qjs0ts63","1440","900","en","la07as21","null","","","","learningBlock1","","","","That was a dep.","null","","","","",""
"","html-keyboard-response","228","590265","0.0-6.0-2.73","FL","43qjs0ts63","1440","900","en","la07as21","null","","","","learningBlock1","","","","<div style=""font-size:60px;""> </div>","null","FL","learning/Slide74.JPG","That was a dep.","",""
"","image-keyboard-response","229","590446","0.0-6.0-0.74","FL","43qjs0ts63","1440","900","en","la07as21","null","","","","","","","","learning/Slide75.JPG","null","","","","",""
"","html-keyboard-response","230","591606","0.0-6.0-1.74","FL","43qjs0ts63","1440","900","en","la07as21","null","","","","learningBlock1","","","","That was a tob.","null","","","","",""
"","html-keyboard-response","231","592610","0.0-6.0-2.74","FL","43qjs0ts63","1440","900","en","la07as21","null","","","","learningBlock1","","","","<div style=""font-size:60px;""> </div>","null","FL","learning/Slide75.JPG","That was a tob.","",""
"","image-keyboard-response","232","592787","0.0-6.0-0.75","FL","43qjs0ts63","1440","900","en","la07as21","null","","","","","","","","learning/Slide76.JPG","null","","","","",""
"","html-keyboard-response","233","593944","0.0-6.0-1.75","FL","43qjs0ts63","1440","900","en","la07as21","null","","","","learningBlock1","","","","That was a bim.","null","","","","",""
"","html-keyboard-response","234","594949","0.0-6.0-2.75","FL","43qjs0ts63","1440","900","en","la07as21","null","","","","learningBlock1","","","","<div style=""font-size:60px;""> </div>","null","FL","learning/Slide76.JPG","That was a bim.","",""
"","image-keyboard-response","235","595127","0.0-6.0-0.76","FL","43qjs0ts63","1440","900","en","la07as21","null","","","","","","","","learning/Slide77.JPG","null","","","","",""
"","html-keyboard-response","236","596282","0.0-6.0-1.76","FL","43qjs0ts63","1440","900","en","la07as21","null","","","","learningBlock1","","","","That was a tob.","null","","","","",""
"","html-keyboard-response","237","597288","0.0-6.0-2.76","FL","43qjs0ts63","1440","900","en","la07as21","null","","","","learningBlock1","","","","<div style=""font-size:60px;""> </div>","null","FL","learning/Slide77.JPG","That was a tob.","",""
"","image-keyboard-response","238","597465","0.0-6.0-0.77","FL","43qjs0ts63","1440","900","en","la07as21","null","","","","","","","","learning/Slide78.JPG","null","","","","",""
"","html-keyboard-response","239","598618","0.0-6.0-1.77","FL","43qjs0ts63","1440","900","en","la07as21","null","","","","learningBlock1","","","","That was a wug.","null","","","","",""
"","html-keyboard-response","240","599622","0.0-6.0-2.77","FL","43qjs0ts63","1440","900","en","la07as21","null","","","","learningBlock1","","","","<div style=""font-size:60px;""> </div>","null","FL","learning/Slide78.JPG","That was a wug.","",""
"","image-keyboard-response","241","599800","0.0-6.0-0.78","FL","43qjs0ts63","1440","900","en","la07as21","null","","","","","","","","learning/Slide79.JPG","null","","","","",""
"","html-keyboard-response","242","600961","0.0-6.0-1.78","FL","43qjs0ts63","1440","900","en","la07as21","null","","","","learningBlock1","","","","That was a bim.","null","","","","",""
"","html-keyboard-response","243","601962","0.0-6.0-2.78","FL","43qjs0ts63","1440","900","en","la07as21","null","","","","learningBlock1","","","","<div style=""font-size:60px;""> </div>","null","FL","learning/Slide79.JPG","That was a bim.","",""
"","image-keyboard-response","244","602139","0.0-6.0-0.79","FL","43qjs0ts63","1440","900","en","la07as21","null","","","","","","","","learning/Slide80.JPG","null","","","","",""
"","html-keyboard-response","245","603291","0.0-6.0-1.79","FL","43qjs0ts63","1440","900","en","la07as21","null","","","","learningBlock1","","","","That was a tob.","null","","","","",""
"","html-keyboard-response","246","604295","0.0-6.0-2.79","FL","43qjs0ts63","1440","900","en","la07as21","null","","","","learningBlock1","","","","<div style=""font-size:60px;""> </div>","null","FL","learning/Slide80.JPG","That was a tob.","",""
"","instructions","247","609057","0.0-7.0","FL","43qjs0ts63","1440","900","en","la07as21","NA","","","[{""page_index"":0,""viewing_time"":4760.795000009239}]","instructions","","","","","","","","","",""
"","image-keyboard-response","248","609239","0.0-8.0-0.0","FL","43qjs0ts63","1440","900","en","la07as21","null","","","","","","","","learning/Slide81.JPG","null","","","","",""
"","html-keyboard-response","249","610400","0.0-8.0-1.0","FL","43qjs0ts63","1440","900","en","la07as21","null","","","","learningBlock2","","","","That was a wug.","null","","","","",""
"","html-keyboard-response","250","611406","0.0-8.0-2.0","FL","43qjs0ts63","1440","900","en","la07as21","null","","","","learningBlock2","","","","<div style=""font-size:60px;""> </div>","null","FL","learning/Slide81.JPG","That was a wug.","",""
"","image-keyboard-response","251","611586","0.0-8.0-0.1","FL","43qjs0ts63","1440","900","en","la07as21","null","","","","","","","","learning/Slide82.JPG","null","","","","",""
"","html-keyboard-response","252","612744","0.0-8.0-1.1","FL","43qjs0ts63","1440","900","en","la07as21","null","","","","learningBlock2","","","","That was a bim.","null","","","","",""
"","html-keyboard-response","253","613745","0.0-8.0-2.1","FL","43qjs0ts63","1440","900","en","la07as21","null","","","","learningBlock2","","","","<div style=""font-size:60px;""> </div>","null","FL","learning/Slide82.JPG","That was a bim.","",""
"","image-keyboard-response","254","613927","0.0-8.0-0.2","FL","43qjs0ts63","1440","900","en","la07as21","null","","","","","","","","learning/Slide83.JPG","null","","","","",""
"","html-keyboard-response","255","615088","0.0-8.0-1.2","FL","43qjs0ts63","1440","900","en","la07as21","null","","","","learningBlock2","","","","That was a wug.","null","","","","",""
"","html-keyboard-response","256","616094","0.0-8.0-2.2","FL","43qjs0ts63","1440","900","en","la07as21","null","","","","learningBlock2","","","","<div style=""font-size:60px;""> </div>","null","FL","learning/Slide83.JPG","That was a wug.","",""
"","image-keyboard-response","257","616273","0.0-8.0-0.3","FL","43qjs0ts63","1440","900","en","la07as21","null","","","","","","","","learning/Slide84.JPG","null","","","","",""
"","html-keyboard-response","258","617436","0.0-8.0-1.3","FL","43qjs0ts63","1440","900","en","la07as21","null","","","","learningBlock2","","","","That was a dep.","null","","","","",""
"","html-keyboard-response","259","618440","0.0-8.0-2.3","FL","43qjs0ts63","1440","900","en","la07as21","null","","","","learningBlock2","","","","<div style=""font-size:60px;""> </div>","null","FL","learning/Slide84.JPG","That was a dep.","",""
"","image-keyboard-response","260","618619","0.0-8.0-0.4","FL","43qjs0ts63","1440","900","en","la07as21","null","","","","","","","","learning/Slide85.JPG","null","","","","",""
"","html-keyboard-response","261","619772","0.0-8.0-1.4","FL","43qjs0ts63","1440","900","en","la07as21","null","","","","learningBlock2","","","","That was a bim.","null","","","","",""
"","html-keyboard-response","262","620777","0.0-8.0-2.4","FL","43qjs0ts63","1440","900","en","la07as21","null","","","","learningBlock2","","","","<div style=""font-size:60px;""> </div>","null","FL","learning/Slide85.JPG","That was a bim.","",""
"","image-keyboard-response","263","620959","0.0-8.0-0.5","FL","43qjs0ts63","1440","900","en","la07as21","null","","","","","","","","learning/Slide86.JPG","null","","","","",""
"","html-keyboard-response","264","622120","0.0-8.0-1.5","FL","43qjs0ts63","1440","900","en","la07as21","null","","","","learningBlock2","","","","That was a tob.","null","","","","",""
"","html-keyboard-response","265","623121","0.0-8.0-2.5","FL","43qjs0ts63","1440","900","en","la07as21","null","","","","learningBlock2","","","","<div style=""font-size:60px;""> </div>","null","FL","learning/Slide86.JPG","That was a tob.","",""
"","image-keyboard-response","266","623299","0.0-8.0-0.6","FL","43qjs0ts63","1440","900","en","la07as21","null","","","","","","","","learning/Slide87.JPG","null","","","","",""
"","html-keyboard-response","267","624458","0.0-8.0-1.6","FL","43qjs0ts63","1440","900","en","la07as21","null","","","","learningBlock2","","","","That was a wug.","null","","","","",""
"","html-keyboard-response","268","625464","0.0-8.0-2.6","FL","43qjs0ts63","1440","900","en","la07as21","null","","","","learningBlock2","","","","<div style=""font-size:60px;""> </div>","null","FL","learning/Slide87.JPG","That was a wug.","",""
"","image-keyboard-response","269","625645","0.0-8.0-0.7","FL","43qjs0ts63","1440","900","en","la07as21","null","","","","","","","","learning/Slide88.JPG","null","","","","",""
"","html-keyboard-response","270","626805","0.0-8.0-1.7","FL","43qjs0ts63","1440","900","en","la07as21","null","","","","learningBlock2","","","","That was a tob.","null","","","","",""
"","html-keyboard-response","271","627808","0.0-8.0-2.7","FL","43qjs0ts63","1440","900","en","la07as21","null","","","","learningBlock2","","","","<div style=""font-size:60px;""> </div>","null","FL","learning/Slide88.JPG","That was a tob.","",""
"","image-keyboard-response","272","627989","0.0-8.0-0.8","FL","43qjs0ts63","1440","900","en","la07as21","null","","","","","","","","learning/Slide89.JPG","null","","","","",""
"","html-keyboard-response","273","629151","0.0-8.0-1.8","FL","43qjs0ts63","1440","900","en","la07as21","null","","","","learningBlock2","","","","That was a bim.","null","","","","",""
"","html-keyboard-response","274","630152","0.0-8.0-2.8","FL","43qjs0ts63","1440","900","en","la07as21","null","","","","learningBlock2","","","","<div style=""font-size:60px;""> </div>","null","FL","learning/Slide89.JPG","That was a bim.","",""
"","image-keyboard-response","275","630331","0.0-8.0-0.9","FL","43qjs0ts63","1440","900","en","la07as21","null","","","","","","","","learning/Slide90.JPG","null","","","","",""
"","html-keyboard-response","276","631492","0.0-8.0-1.9","FL","43qjs0ts63","1440","900","en","la07as21","null","","","","learningBlock2","","","","That was a dep.","null","","","","",""
"","html-keyboard-response","277","632498","0.0-8.0-2.9","FL","43qjs0ts63","1440","900","en","la07as21","null","","","","learningBlock2","","","","<div style=""font-size:60px;""> </div>","null","FL","learning/Slide90.JPG","That was a dep.","",""
"","image-keyboard-response","278","632680","0.0-8.0-0.10","FL","43qjs0ts63","1440","900","en","la07as21","null","","","","","","","","learning/Slide91.JPG","null","","","","",""
"","html-keyboard-response","279","633838","0.0-8.0-1.10","FL","43qjs0ts63","1440","900","en","la07as21","null","","","","learningBlock2","","","","That was a wug.","null","","","","",""
"","html-keyboard-response","280","634844","0.0-8.0-2.10","FL","43qjs0ts63","1440","900","en","la07as21","null","","","","learningBlock2","","","","<div style=""font-size:60px;""> </div>","null","FL","learning/Slide91.JPG","That was a wug.","",""
"","image-keyboard-response","281","635026","0.0-8.0-0.11","FL","43qjs0ts63","1440","900","en","la07as21","null","","","","","","","","learning/Slide92.JPG","null","","","","",""
"","html-keyboard-response","282","636182","0.0-8.0-1.11","FL","43qjs0ts63","1440","900","en","la07as21","null","","","","learningBlock2","","","","That was a tob.","null","","","","",""
"","html-keyboard-response","283","637188","0.0-8.0-2.11","FL","43qjs0ts63","1440","900","en","la07as21","null","","","","learningBlock2","","","","<div style=""font-size:60px;""> </div>","null","FL","learning/Slide92.JPG","That was a tob.","",""
"","image-keyboard-response","284","637369","0.0-8.0-0.12","FL","43qjs0ts63","1440","900","en","la07as21","null","","","","","","","","learning/Slide93.JPG","null","","","","",""
"","html-keyboard-response","285","638520","0.0-8.0-1.12","FL","43qjs0ts63","1440","900","en","la07as21","null","","","","learningBlock2","","","","That was a bim.","null","","","","",""
"","html-keyboard-response","286","639527","0.0-8.0-2.12","FL","43qjs0ts63","1440","900","en","la07as21","null","","","","learningBlock2","","","","<div style=""font-size:60px;""> </div>","null","FL","learning/Slide93.JPG","That was a bim.","",""
"","image-keyboard-response","287","639708","0.0-8.0-0.13","FL","43qjs0ts63","1440","900","en","la07as21","null","","","","","","","","learning/Slide94.JPG","null","","","","",""
"","html-keyboard-response","288","640865","0.0-8.0-1.13","FL","43qjs0ts63","1440","900","en","la07as21","null","","","","learningBlock2","","","","That was a tob.","null","","","","",""
"","html-keyboard-response","289","641867","0.0-8.0-2.13","FL","43qjs0ts63","1440","900","en","la07as21","null","","","","learningBlock2","","","","<div style=""font-size:60px;""> </div>","null","FL","learning/Slide94.JPG","That was a tob.","",""
"","image-keyboard-response","290","642049","0.0-8.0-0.14","FL","43qjs0ts63","1440","900","en","la07as21","null","","","","","","","","learning/Slide95.JPG","null","","","","",""
"","html-keyboard-response","291","643205","0.0-8.0-1.14","FL","43qjs0ts63","1440","900","en","la07as21","null","","","","learningBlock2","","","","That was a wug.","null","","","","",""
"","html-keyboard-response","292","644211","0.0-8.0-2.14","FL","43qjs0ts63","1440","900","en","la07as21","null","","","","learningBlock2","","","","<div style=""font-size:60px;""> </div>","null","FL","learning/Slide95.JPG","That was a wug.","",""
"","image-keyboard-response","293","644393","0.0-8.0-0.15","FL","43qjs0ts63","1440","900","en","la07as21","null","","","","","","","","learning/Slide96.JPG","null","","","","",""
"","html-keyboard-response","294","645554","0.0-8.0-1.15","FL","43qjs0ts63","1440","900","en","la07as21","null","","","","learningBlock2","","","","That was a tob.","null","","","","",""
"","html-keyboard-response","295","646557","0.0-8.0-2.15","FL","43qjs0ts63","1440","900","en","la07as21","null","","","","learningBlock2","","","","<div style=""font-size:60px;""> </div>","null","FL","learning/Slide96.JPG","That was a tob.","",""
"","image-keyboard-response","296","646738","0.0-8.0-0.16","FL","43qjs0ts63","1440","900","en","la07as21","null","","","","","","","","learning/Slide97.JPG","null","","","","",""
"","html-keyboard-response","297","647894","0.0-8.0-1.16","FL","43qjs0ts63","1440","900","en","la07as21","null","","","","learningBlock2","","","","That was a dep.","null","","","","",""
"","html-keyboard-response","298","648898","0.0-8.0-2.16","FL","43qjs0ts63","1440","900","en","la07as21","null","","","","learningBlock2","","","","<div style=""font-size:60px;""> </div>","null","FL","learning/Slide97.JPG","That was a dep.","",""
"","image-keyboard-response","299","649079","0.0-8.0-0.17","FL","43qjs0ts63","1440","900","en","la07as21","null","","","","","","","","learning/Slide98.JPG","null","","","","",""
"","html-keyboard-response","300","650239","0.0-8.0-1.17","FL","43qjs0ts63","1440","900","en","la07as21","null","","","","learningBlock2","","","","That was a bim.","null","","","","",""
"","html-keyboard-response","301","651245","0.0-8.0-2.17","FL","43qjs0ts63","1440","900","en","la07as21","null","","","","learningBlock2","","","","<div style=""font-size:60px;""> </div>","null","FL","learning/Slide98.JPG","That was a bim.","",""
"","image-keyboard-response","302","651424","0.0-8.0-0.18","FL","43qjs0ts63","1440","900","en","la07as21","null","","","","","","","","learning/Slide99.JPG","null","","","","",""
"","html-keyboard-response","303","652584","0.0-8.0-1.18","FL","43qjs0ts63","1440","900","en","la07as21","null","","","","learningBlock2","","","","That was a dep.","null","","","","",""
"","html-keyboard-response","304","653590","0.0-8.0-2.18","FL","43qjs0ts63","1440","900","en","la07as21","null","","","","learningBlock2","","","","<div style=""font-size:60px;""> </div>","null","FL","learning/Slide99.JPG","That was a dep.","",""
"","image-keyboard-response","305","653766","0.0-8.0-0.19","FL","43qjs0ts63","1440","900","en","la07as21","null","","","","","","","","learning/Slide100.JPG","null","","","","",""
"","html-keyboard-response","306","654925","0.0-8.0-1.19","FL","43qjs0ts63","1440","900","en","la07as21","null","","","","learningBlock2","","","","That was a bim.","null","","","","",""
"","html-keyboard-response","307","655930","0.0-8.0-2.19","FL","43qjs0ts63","1440","900","en","la07as21","null","","","","learningBlock2","","","","<div style=""font-size:60px;""> </div>","null","FL","learning/Slide100.JPG","That was a bim.","",""
"","image-keyboard-response","308","656111","0.0-8.0-0.20","FL","43qjs0ts63","1440","900","en","la07as21","null","","","","","","","","learning/Slide101.JPG","null","","","","",""
"","html-keyboard-response","309","657269","0.0-8.0-1.20","FL","43qjs0ts63","1440","900","en","la07as21","null","","","","learningBlock2","","","","That was a tob.","null","","","","",""
"","html-keyboard-response","310","658271","0.0-8.0-2.20","FL","43qjs0ts63","1440","900","en","la07as21","null","","","","learningBlock2","","","","<div style=""font-size:60px;""> </div>","null","FL","learning/Slide101.JPG","That was a tob.","",""
"","image-keyboard-response","311","658451","0.0-8.0-0.21","FL","43qjs0ts63","1440","900","en","la07as21","null","","","","","","","","learning/Slide102.JPG","null","","","","",""
"","html-keyboard-response","312","659603","0.0-8.0-1.21","FL","43qjs0ts63","1440","900","en","la07as21","null","","","","learningBlock2","","","","That was a bim.","null","","","","",""
"","html-keyboard-response","313","660604","0.0-8.0-2.21","FL","43qjs0ts63","1440","900","en","la07as21","null","","","","learningBlock2","","","","<div style=""font-size:60px;""> </div>","null","FL","learning/Slide102.JPG","That was a bim.","",""
"","image-keyboard-response","314","660786","0.0-8.0-0.22","FL","43qjs0ts63","1440","900","en","la07as21","null","","","","","","","","learning/Slide103.JPG","null","","","","",""
"","html-keyboard-response","315","661947","0.0-8.0-1.22","FL","43qjs0ts63","1440","900","en","la07as21","null","","","","learningBlock2","","","","That was a dep.","null","","","","",""
"","html-keyboard-response","316","662953","0.0-8.0-2.22","FL","43qjs0ts63","1440","900","en","la07as21","null","","","","learningBlock2","","","","<div style=""font-size:60px;""> </div>","null","FL","learning/Slide103.JPG","That was a dep.","",""
"","image-keyboard-response","317","663135","0.0-8.0-0.23","FL","43qjs0ts63","1440","900","en","la07as21","null","","","","","","","","learning/Slide104.JPG","null","","","","",""
"","html-keyboard-response","318","664294","0.0-8.0-1.23","FL","43qjs0ts63","1440","900","en","la07as21","null","","","","learningBlock2","","","","That was a tob.","null","","","","",""
"","html-keyboard-response","319","665297","0.0-8.0-2.23","FL","43qjs0ts63","1440","900","en","la07as21","null","","","","learningBlock2","","","","<div style=""font-size:60px;""> </div>","null","FL","learning/Slide104.JPG","That was a tob.","",""
"","image-keyboard-response","320","665479","0.0-8.0-0.24","FL","43qjs0ts63","1440","900","en","la07as21","null","","","","","","","","learning/Slide105.JPG","null","","","","",""
"","html-keyboard-response","321","666638","0.0-8.0-1.24","FL","43qjs0ts63","1440","900","en","la07as21","null","","","","learningBlock2","","","","That was a dep.","null","","","","",""
"","html-keyboard-response","322","667642","0.0-8.0-2.24","FL","43qjs0ts63","1440","900","en","la07as21","null","","","","learningBlock2","","","","<div style=""font-size:60px;""> </div>","null","FL","learning/Slide105.JPG","That was a dep.","",""
"","image-keyboard-response","323","667818","0.0-8.0-0.25","FL","43qjs0ts63","1440","900","en","la07as21","null","","","","","","","","learning/Slide106.JPG","null","","","","",""
"","html-keyboard-response","324","668973","0.0-8.0-1.25","FL","43qjs0ts63","1440","900","en","la07as21","null","","","","learningBlock2","","","","That was a wug.","null","","","","",""
"","html-keyboard-response","325","669979","0.0-8.0-2.25","FL","43qjs0ts63","1440","900","en","la07as21","null","","","","learningBlock2","","","","<div style=""font-size:60px;""> </div>","null","FL","learning/Slide106.JPG","That was a wug.","",""
"","image-keyboard-response","326","670160","0.0-8.0-0.26","FL","43qjs0ts63","1440","900","en","la07as21","null","","","","","","","","learning/Slide107.JPG","null","","","","",""
"","html-keyboard-response","327","671317","0.0-8.0-1.26","FL","43qjs0ts63","1440","900","en","la07as21","null","","","","learningBlock2","","","","That was a bim.","null","","","","",""
"","html-keyboard-response","328","672318","0.0-8.0-2.26","FL","43qjs0ts63","1440","900","en","la07as21","null","","","","learningBlock2","","","","<div style=""font-size:60px;""> </div>","null","FL","learning/Slide107.JPG","That was a bim.","",""
"","image-keyboard-response","329","672497","0.0-8.0-0.27","FL","43qjs0ts63","1440","900","en","la07as21","null","","","","","","","","learning/Slide108.JPG","null","","","","",""
"","html-keyboard-response","330","673654","0.0-8.0-1.27","FL","43qjs0ts63","1440","900","en","la07as21","null","","","","learningBlock2","","","","That was a dep.","null","","","","",""
"","html-keyboard-response","331","674660","0.0-8.0-2.27","FL","43qjs0ts63","1440","900","en","la07as21","null","","","","learningBlock2","","","","<div style=""font-size:60px;""> </div>","null","FL","learning/Slide108.JPG","That was a dep.","",""
"","image-keyboard-response","332","674841","0.0-8.0-0.28","FL","43qjs0ts63","1440","900","en","la07as21","null","","","","","","","","learning/Slide109.JPG","null","","","","",""
"","html-keyboard-response","333","676000","0.0-8.0-1.28","FL","43qjs0ts63","1440","900","en","la07as21","null","","","","learningBlock2","","","","That was a wug.","null","","","","",""
"","html-keyboard-response","334","677006","0.0-8.0-2.28","FL","43qjs0ts63","1440","900","en","la07as21","null","","","","learningBlock2","","","","<div style=""font-size:60px;""> </div>","null","FL","learning/Slide109.JPG","That was a wug.","",""
"","image-keyboard-response","335","677184","0.0-8.0-0.29","FL","43qjs0ts63","1440","900","en","la07as21","null","","","","","","","","learning/Slide110.JPG","null","","","","",""
"","html-keyboard-response","336","678341","0.0-8.0-1.29","FL","43qjs0ts63","1440","900","en","la07as21","null","","","","learningBlock2","","","","That was a bim.","null","","","","",""
"","html-keyboard-response","337","679346","0.0-8.0-2.29","FL","43qjs0ts63","1440","900","en","la07as21","null","","","","learningBlock2","","","","<div style=""font-size:60px;""> </div>","null","FL","learning/Slide110.JPG","That was a bim.","",""
"","image-keyboard-response","338","679528","0.0-8.0-0.30","FL","43qjs0ts63","1440","900","en","la07as21","null","","","","","","","","learning/Slide111.JPG","null","","","","",""
"","html-keyboard-response","339","680689","0.0-8.0-1.30","FL","43qjs0ts63","1440","900","en","la07as21","null","","","","learningBlock2","","","","That was a tob.","null","","","","",""
"","html-keyboard-response","340","681695","0.0-8.0-2.30","FL","43qjs0ts63","1440","900","en","la07as21","null","","","","learningBlock2","","","","<div style=""font-size:60px;""> </div>","null","FL","learning/Slide111.JPG","That was a tob.","",""
"","image-keyboard-response","341","681877","0.0-8.0-0.31","FL","43qjs0ts63","1440","900","en","la07as21","null","","","","","","","","learning/Slide112.JPG","null","","","","",""
"","html-keyboard-response","342","683034","0.0-8.0-1.31","FL","43qjs0ts63","1440","900","en","la07as21","null","","","","learningBlock2","","","","That was a wug.","null","","","","",""
"","html-keyboard-response","343","684040","0.0-8.0-2.31","FL","43qjs0ts63","1440","900","en","la07as21","null","","","","learningBlock2","","","","<div style=""font-size:60px;""> </div>","null","FL","learning/Slide112.JPG","That was a wug.","",""
"","image-keyboard-response","344","684218","0.0-8.0-0.32","FL","43qjs0ts63","1440","900","en","la07as21","null","","","","","","","","learning/Slide113.JPG","null","","","","",""
"","html-keyboard-response","345","685379","0.0-8.0-1.32","FL","43qjs0ts63","1440","900","en","la07as21","null","","","","learningBlock2","","","","That was a tob.","null","","","","",""
"","html-keyboard-response","346","686385","0.0-8.0-2.32","FL","43qjs0ts63","1440","900","en","la07as21","null","","","","learningBlock2","","","","<div style=""font-size:60px;""> </div>","null","FL","learning/Slide113.JPG","That was a tob.","",""
"","image-keyboard-response","347","686566","0.0-8.0-0.33","FL","43qjs0ts63","1440","900","en","la07as21","null","","","","","","","","learning/Slide114.JPG","null","","","","",""
"","html-keyboard-response","348","687723","0.0-8.0-1.33","FL","43qjs0ts63","1440","900","en","la07as21","null","","","","learningBlock2","","","","That was a wug.","null","","","","",""
"","html-keyboard-response","349","688725","0.0-8.0-2.33","FL","43qjs0ts63","1440","900","en","la07as21","null","","","","learningBlock2","","","","<div style=""font-size:60px;""> </div>","null","FL","learning/Slide114.JPG","That was a wug.","",""
"","image-keyboard-response","350","688903","0.0-8.0-0.34","FL","43qjs0ts63","1440","900","en","la07as21","null","","","","","","","","learning/Slide115.JPG","null","","","","",""
"","html-keyboard-response","351","690064","0.0-8.0-1.34","FL","43qjs0ts63","1440","900","en","la07as21","null","","","","learningBlock2","","","","That was a bim.","null","","","","",""
"","html-keyboard-response","352","691067","0.0-8.0-2.34","FL","43qjs0ts63","1440","900","en","la07as21","null","","","","learningBlock2","","","","<div style=""font-size:60px;""> </div>","null","FL","learning/Slide115.JPG","That was a bim.","",""
"","image-keyboard-response","353","691246","0.0-8.0-0.35","FL","43qjs0ts63","1440","900","en","la07as21","null","","","","","","","","learning/Slide116.JPG","null","","","","",""
"","html-keyboard-response","354","692406","0.0-8.0-1.35","FL","43qjs0ts63","1440","900","en","la07as21","null","","","","learningBlock2","","","","That was a dep.","null","","","","",""
"","html-keyboard-response","355","693412","0.0-8.0-2.35","FL","43qjs0ts63","1440","900","en","la07as21","null","","","","learningBlock2","","","","<div style=""font-size:60px;""> </div>","null","FL","learning/Slide116.JPG","That was a dep.","",""
"","image-keyboard-response","356","693593","0.0-8.0-0.36","FL","43qjs0ts63","1440","900","en","la07as21","null","","","","","","","","learning/Slide117.JPG","null","","","","",""
"","html-keyboard-response","357","694755","0.0-8.0-1.36","FL","43qjs0ts63","1440","900","en","la07as21","null","","","","learningBlock2","","","","That was a tob.","null","","","","",""
"","html-keyboard-response","358","695761","0.0-8.0-2.36","FL","43qjs0ts63","1440","900","en","la07as21","null","","","","learningBlock2","","","","<div style=""font-size:60px;""> </div>","null","FL","learning/Slide117.JPG","That was a tob.","",""
"","image-keyboard-response","359","695942","0.0-8.0-0.37","FL","43qjs0ts63","1440","900","en","la07as21","null","","","","","","","","learning/Slide118.JPG","null","","","","",""
"","html-keyboard-response","360","697096","0.0-8.0-1.37","FL","43qjs0ts63","1440","900","en","la07as21","null","","","","learningBlock2","","","","That was a dep.","null","","","","",""
"","html-keyboard-response","361","698102","0.0-8.0-2.37","FL","43qjs0ts63","1440","900","en","la07as21","null","","","","learningBlock2","","","","<div style=""font-size:60px;""> </div>","null","FL","learning/Slide118.JPG","That was a dep.","",""
"","image-keyboard-response","362","698283","0.0-8.0-0.38","FL","43qjs0ts63","1440","900","en","la07as21","null","","","","","","","","learning/Slide119.JPG","null","","","","",""
"","html-keyboard-response","363","699444","0.0-8.0-1.38","FL","43qjs0ts63","1440","900","en","la07as21","null","","","","learningBlock2","","","","That was a wug.","null","","","","",""
"","html-keyboard-response","364","700449","0.0-8.0-2.38","FL","43qjs0ts63","1440","900","en","la07as21","null","","","","learningBlock2","","","","<div style=""font-size:60px;""> </div>","null","FL","learning/Slide119.JPG","That was a wug.","",""
"","image-keyboard-response","365","700630","0.0-8.0-0.39","FL","43qjs0ts63","1440","900","en","la07as21","null","","","","","","","","learning/Slide120.JPG","null","","","","",""
"","html-keyboard-response","366","701787","0.0-8.0-1.39","FL","43qjs0ts63","1440","900","en","la07as21","null","","","","learningBlock2","","","","That was a dep.","null","","","","",""
"","html-keyboard-response","367","702793","0.0-8.0-2.39","FL","43qjs0ts63","1440","900","en","la07as21","null","","","","learningBlock2","","","","<div style=""font-size:60px;""> </div>","null","FL","learning/Slide120.JPG","That was a dep.","",""
"","image-keyboard-response","368","702975","0.0-8.0-0.40","FL","43qjs0ts63","1440","900","en","la07as21","null","","","","","","","","learning/Slide121.JPG","null","","","","",""
"","html-keyboard-response","369","704134","0.0-8.0-1.40","FL","43qjs0ts63","1440","900","en","la07as21","null","","","","learningBlock2","","","","That was a bim.","null","","","","",""
"","html-keyboard-response","370","705136","0.0-8.0-2.40","FL","43qjs0ts63","1440","900","en","la07as21","null","","","","learningBlock2","","","","<div style=""font-size:60px;""> </div>","null","FL","learning/Slide121.JPG","That was a bim.","",""
"","image-keyboard-response","371","705314","0.0-8.0-0.41","FL","43qjs0ts63","1440","900","en","la07as21","null","","","","","","","","learning/Slide122.JPG","null","","","","",""
"","html-keyboard-response","372","706472","0.0-8.0-1.41","FL","43qjs0ts63","1440","900","en","la07as21","null","","","","learningBlock2","","","","That was a wug.","null","","","","",""
"","html-keyboard-response","373","707478","0.0-8.0-2.41","FL","43qjs0ts63","1440","900","en","la07as21","null","","","","learningBlock2","","","","<div style=""font-size:60px;""> </div>","null","FL","learning/Slide122.JPG","That was a wug.","",""
"","image-keyboard-response","374","707660","0.0-8.0-0.42","FL","43qjs0ts63","1440","900","en","la07as21","null","","","","","","","","learning/Slide123.JPG","null","","","","",""
"","html-keyboard-response","375","708819","0.0-8.0-1.42","FL","43qjs0ts63","1440","900","en","la07as21","null","","","","learningBlock2","","","","That was a bim.","null","","","","",""
"","html-keyboard-response","376","709825","0.0-8.0-2.42","FL","43qjs0ts63","1440","900","en","la07as21","null","","","","learningBlock2","","","","<div style=""font-size:60px;""> </div>","null","FL","learning/Slide123.JPG","That was a bim.","",""
"","image-keyboard-response","377","710007","0.0-8.0-0.43","FL","43qjs0ts63","1440","900","en","la07as21","null","","","","","","","","learning/Slide124.JPG","null","","","","",""
"","html-keyboard-response","378","711164","0.0-8.0-1.43","FL","43qjs0ts63","1440","900","en","la07as21","null","","","","learningBlock2","","","","That was a tob.","null","","","","",""
"","html-keyboard-response","379","712165","0.0-8.0-2.43","FL","43qjs0ts63","1440","900","en","la07as21","null","","","","learningBlock2","","","","<div style=""font-size:60px;""> </div>","null","FL","learning/Slide124.JPG","That was a tob.","",""
"","image-keyboard-response","380","712346","0.0-8.0-0.44","FL","43qjs0ts63","1440","900","en","la07as21","null","","","","","","","","learning/Slide125.JPG","null","","","","",""
"","html-keyboard-response","381","713506","0.0-8.0-1.44","FL","43qjs0ts63","1440","900","en","la07as21","null","","","","learningBlock2","","","","That was a bim.","null","","","","",""
"","html-keyboard-response","382","714512","0.0-8.0-2.44","FL","43qjs0ts63","1440","900","en","la07as21","null","","","","learningBlock2","","","","<div style=""font-size:60px;""> </div>","null","FL","learning/Slide125.JPG","That was a bim.","",""
"","image-keyboard-response","383","714690","0.0-8.0-0.45","FL","43qjs0ts63","1440","900","en","la07as21","null","","","","","","","","learning/Slide126.JPG","null","","","","",""
"","html-keyboard-response","384","715851","0.0-8.0-1.45","FL","43qjs0ts63","1440","900","en","la07as21","null","","","","learningBlock2","","","","That was a tob.","null","","","","",""
"","html-keyboard-response","385","716855","0.0-8.0-2.45","FL","43qjs0ts63","1440","900","en","la07as21","null","","","","learningBlock2","","","","<div style=""font-size:60px;""> </div>","null","FL","learning/Slide126.JPG","That was a tob.","",""
"","image-keyboard-response","386","717036","0.0-8.0-0.46","FL","43qjs0ts63","1440","900","en","la07as21","null","","","","","","","","learning/Slide127.JPG","null","","","","",""
"","html-keyboard-response","387","718195","0.0-8.0-1.46","FL","43qjs0ts63","1440","900","en","la07as21","null","","","","learningBlock2","","","","That was a dep.","null","","","","",""
"","html-keyboard-response","388","719201","0.0-8.0-2.46","FL","43qjs0ts63","1440","900","en","la07as21","null","","","","learningBlock2","","","","<div style=""font-size:60px;""> </div>","null","FL","learning/Slide127.JPG","That was a dep.","",""
"","image-keyboard-response","389","719382","0.0-8.0-0.47","FL","43qjs0ts63","1440","900","en","la07as21","null","","","","","","","","learning/Slide128.JPG","null","","","","",""
"","html-keyboard-response","390","720543","0.0-8.0-1.47","FL","43qjs0ts63","1440","900","en","la07as21","null","","","","learningBlock2","","","","That was a wug.","null","","","","",""
"","html-keyboard-response","391","721550","0.0-8.0-2.47","FL","43qjs0ts63","1440","900","en","la07as21","null","","","","learningBlock2","","","","<div style=""font-size:60px;""> </div>","null","FL","learning/Slide128.JPG","That was a wug.","",""
"","image-keyboard-response","392","721730","0.0-8.0-0.48","FL","43qjs0ts63","1440","900","en","la07as21","null","","","","","","","","learning/Slide129.JPG","null","","","","",""
"","html-keyboard-response","393","722886","0.0-8.0-1.48","FL","43qjs0ts63","1440","900","en","la07as21","null","","","","learningBlock2","","","","That was a tob.","null","","","","",""
"","html-keyboard-response","394","723890","0.0-8.0-2.48","FL","43qjs0ts63","1440","900","en","la07as21","null","","","","learningBlock2","","","","<div style=""font-size:60px;""> </div>","null","FL","learning/Slide129.JPG","That was a tob.","",""
"","image-keyboard-response","395","724072","0.0-8.0-0.49","FL","43qjs0ts63","1440","900","en","la07as21","null","","","","","","","","learning/Slide130.JPG","null","","","","",""
"","html-keyboard-response","396","725233","0.0-8.0-1.49","FL","43qjs0ts63","1440","900","en","la07as21","null","","","","learningBlock2","","","","That was a wug.","null","","","","",""
"","html-keyboard-response","397","726239","0.0-8.0-2.49","FL","43qjs0ts63","1440","900","en","la07as21","null","","","","learningBlock2","","","","<div style=""font-size:60px;""> </div>","null","FL","learning/Slide130.JPG","That was a wug.","",""
"","image-keyboard-response","398","726416","0.0-8.0-0.50","FL","43qjs0ts63","1440","900","en","la07as21","null","","","","","","","","learning/Slide131.JPG","null","","","","",""
"","html-keyboard-response","399","727573","0.0-8.0-1.50","FL","43qjs0ts63","1440","900","en","la07as21","null","","","","learningBlock2","","","","That was a bim.","null","","","","",""
"","html-keyboard-response","400","728576","0.0-8.0-2.50","FL","43qjs0ts63","1440","900","en","la07as21","null","","","","learningBlock2","","","","<div style=""font-size:60px;""> </div>","null","FL","learning/Slide131.JPG","That was a bim.","",""
"","image-keyboard-response","401","728756","0.0-8.0-0.51","FL","43qjs0ts63","1440","900","en","la07as21","null","","","","","","","","learning/Slide132.JPG","null","","","","",""
"","html-keyboard-response","402","729908","0.0-8.0-1.51","FL","43qjs0ts63","1440","900","en","la07as21","null","","","","learningBlock2","","","","That was a dep.","null","","","","",""
"","html-keyboard-response","403","730909","0.0-8.0-2.51","FL","43qjs0ts63","1440","900","en","la07as21","null","","","","learningBlock2","","","","<div style=""font-size:60px;""> </div>","null","FL","learning/Slide132.JPG","That was a dep.","",""
"","image-keyboard-response","404","731094","0.0-8.0-0.52","FL","43qjs0ts63","1440","900","en","la07as21","null","","","","","","","","learning/Slide133.JPG","null","","","","",""
"","html-keyboard-response","405","732251","0.0-8.0-1.52","FL","43qjs0ts63","1440","900","en","la07as21","null","","","","learningBlock2","","","","That was a tob.","null","","","","",""
"","html-keyboard-response","406","733257","0.0-8.0-2.52","FL","43qjs0ts63","1440","900","en","la07as21","null","","","","learningBlock2","","","","<div style=""font-size:60px;""> </div>","null","FL","learning/Slide133.JPG","That was a tob.","",""
"","image-keyboard-response","407","733438","0.0-8.0-0.53","FL","43qjs0ts63","1440","900","en","la07as21","null","","","","","","","","learning/Slide134.JPG","null","","","","",""
"","html-keyboard-response","408","734594","0.0-8.0-1.53","FL","43qjs0ts63","1440","900","en","la07as21","null","","","","learningBlock2","","","","That was a dep.","null","","","","",""
"","html-keyboard-response","409","735600","0.0-8.0-2.53","FL","43qjs0ts63","1440","900","en","la07as21","null","","","","learningBlock2","","","","<div style=""font-size:60px;""> </div>","null","FL","learning/Slide134.JPG","That was a dep.","",""
"","image-keyboard-response","410","735781","0.0-8.0-0.54","FL","43qjs0ts63","1440","900","en","la07as21","null","","","","","","","","learning/Slide135.JPG","null","","","","",""
"","html-keyboard-response","411","736937","0.0-8.0-1.54","FL","43qjs0ts63","1440","900","en","la07as21","null","","","","learningBlock2","","","","That was a tob.","null","","","","",""
"","html-keyboard-response","412","737943","0.0-8.0-2.54","FL","43qjs0ts63","1440","900","en","la07as21","null","","","","learningBlock2","","","","<div style=""font-size:60px;""> </div>","null","FL","learning/Slide135.JPG","That was a tob.","",""
"","image-keyboard-response","413","738123","0.0-8.0-0.55","FL","43qjs0ts63","1440","900","en","la07as21","null","","","","","","","","learning/Slide136.JPG","null","","","","",""
"","html-keyboard-response","414","739284","0.0-8.0-1.55","FL","43qjs0ts63","1440","900","en","la07as21","null","","","","learningBlock2","","","","That was a wug.","null","","","","",""
"","html-keyboard-response","415","740286","0.0-8.0-2.55","FL","43qjs0ts63","1440","900","en","la07as21","null","","","","learningBlock2","","","","<div style=""font-size:60px;""> </div>","null","FL","learning/Slide136.JPG","That was a wug.","",""
"","image-keyboard-response","416","740464","0.0-8.0-0.56","FL","43qjs0ts63","1440","900","en","la07as21","null","","","","","","","","learning/Slide137.JPG","null","","","","",""
"","html-keyboard-response","417","741619","0.0-8.0-1.56","FL","43qjs0ts63","1440","900","en","la07as21","null","","","","learningBlock2","","","","That was a tob.","null","","","","",""
"","html-keyboard-response","418","742621","0.0-8.0-2.56","FL","43qjs0ts63","1440","900","en","la07as21","null","","","","learningBlock2","","","","<div style=""font-size:60px;""> </div>","null","FL","learning/Slide137.JPG","That was a tob.","",""
"","image-keyboard-response","419","742802","0.0-8.0-0.57","FL","43qjs0ts63","1440","900","en","la07as21","null","","","","","","","","learning/Slide138.JPG","null","","","","",""
"","html-keyboard-response","420","743963","0.0-8.0-1.57","FL","43qjs0ts63","1440","900","en","la07as21","null","","","","learningBlock2","","","","That was a bim.","null","","","","",""
"","html-keyboard-response","421","744968","0.0-8.0-2.57","FL","43qjs0ts63","1440","900","en","la07as21","null","","","","learningBlock2","","","","<div style=""font-size:60px;""> </div>","null","FL","learning/Slide138.JPG","That was a bim.","",""
"","image-keyboard-response","422","745149","0.0-8.0-0.58","FL","43qjs0ts63","1440","900","en","la07as21","null","","","","","","","","learning/Slide139.JPG","null","","","","",""
"","html-keyboard-response","423","746310","0.0-8.0-1.58","FL","43qjs0ts63","1440","900","en","la07as21","null","","","","learningBlock2","","","","That was a wug.","null","","","","",""
"","html-keyboard-response","424","747315","0.0-8.0-2.58","FL","43qjs0ts63","1440","900","en","la07as21","null","","","","learningBlock2","","","","<div style=""font-size:60px;""> </div>","null","FL","learning/Slide139.JPG","That was a wug.","",""
"","image-keyboard-response","425","747496","0.0-8.0-0.59","FL","43qjs0ts63","1440","900","en","la07as21","null","","","","","","","","learning/Slide140.JPG","null","","","","",""
"","html-keyboard-response","426","748653","0.0-8.0-1.59","FL","43qjs0ts63","1440","900","en","la07as21","null","","","","learningBlock2","","","","That was a dep.","null","","","","",""
"","html-keyboard-response","427","749657","0.0-8.0-2.59","FL","43qjs0ts63","1440","900","en","la07as21","null","","","","learningBlock2","","","","<div style=""font-size:60px;""> </div>","null","FL","learning/Slide140.JPG","That was a dep.","",""
"","image-keyboard-response","428","749838","0.0-8.0-0.60","FL","43qjs0ts63","1440","900","en","la07as21","null","","","","","","","","learning/Slide141.JPG","null","","","","",""
"","html-keyboard-response","429","750999","0.0-8.0-1.60","FL","43qjs0ts63","1440","900","en","la07as21","null","","","","learningBlock2","","","","That was a tob.","null","","","","",""
"","html-keyboard-response","430","752004","0.0-8.0-2.60","FL","43qjs0ts63","1440","900","en","la07as21","null","","","","learningBlock2","","","","<div style=""font-size:60px;""> </div>","null","FL","learning/Slide141.JPG","That was a tob.","",""
"","image-keyboard-response","431","752184","0.0-8.0-0.61","FL","43qjs0ts63","1440","900","en","la07as21","null","","","","","","","","learning/Slide142.JPG","null","","","","",""
"","html-keyboard-response","432","753341","0.0-8.0-1.61","FL","43qjs0ts63","1440","900","en","la07as21","null","","","","learningBlock2","","","","That was a wug.","null","","","","",""
"","html-keyboard-response","433","754346","0.0-8.0-2.61","FL","43qjs0ts63","1440","900","en","la07as21","null","","","","learningBlock2","","","","<div style=""font-size:60px;""> </div>","null","FL","learning/Slide142.JPG","That was a wug.","",""
"","image-keyboard-response","434","754524","0.0-8.0-0.62","FL","43qjs0ts63","1440","900","en","la07as21","null","","","","","","","","learning/Slide143.JPG","null","","","","",""
"","html-keyboard-response","435","755684","0.0-8.0-1.62","FL","43qjs0ts63","1440","900","en","la07as21","null","","","","learningBlock2","","","","That was a bim.","null","","","","",""
"","html-keyboard-response","436","756687","0.0-8.0-2.62","FL","43qjs0ts63","1440","900","en","la07as21","null","","","","learningBlock2","","","","<div style=""font-size:60px;""> </div>","null","FL","learning/Slide143.JPG","That was a bim.","",""
"","image-keyboard-response","437","756864","0.0-8.0-0.63","FL","43qjs0ts63","1440","900","en","la07as21","null","","","","","","","","learning/Slide144.JPG","null","","","","",""
"","html-keyboard-response","438","758021","0.0-8.0-1.63","FL","43qjs0ts63","1440","900","en","la07as21","null","","","","learningBlock2","","","","That was a dep.","null","","","","",""
"","html-keyboard-response","439","759023","0.0-8.0-2.63","FL","43qjs0ts63","1440","900","en","la07as21","null","","","","learningBlock2","","","","<div style=""font-size:60px;""> </div>","null","FL","learning/Slide144.JPG","That was a dep.","",""
"","image-keyboard-response","440","759204","0.0-8.0-0.64","FL","43qjs0ts63","1440","900","en","la07as21","null","","","","","","","","learning/Slide145.JPG","null","","","","",""
"","html-keyboard-response","441","760366","0.0-8.0-1.64","FL","43qjs0ts63","1440","900","en","la07as21","null","","","","learningBlock2","","","","That was a bim.","null","","","","",""
"","html-keyboard-response","442","761372","0.0-8.0-2.64","FL","43qjs0ts63","1440","900","en","la07as21","null","","","","learningBlock2","","","","<div style=""font-size:60px;""> </div>","null","FL","learning/Slide145.JPG","That was a bim.","",""
"","image-keyboard-response","443","761548","0.0-8.0-0.65","FL","43qjs0ts63","1440","900","en","la07as21","null","","","","","","","","learning/Slide146.JPG","null","","","","",""
"","html-keyboard-response","444","762710","0.0-8.0-1.65","FL","43qjs0ts63","1440","900","en","la07as21","null","","","","learningBlock2","","","","That was a tob.","null","","","","",""
"","html-keyboard-response","445","763714","0.0-8.0-2.65","FL","43qjs0ts63","1440","900","en","la07as21","null","","","","learningBlock2","","","","<div style=""font-size:60px;""> </div>","null","FL","learning/Slide146.JPG","That was a tob.","",""
"","image-keyboard-response","446","763896","0.0-8.0-0.66","FL","43qjs0ts63","1440","900","en","la07as21","null","","","","","","","","learning/Slide147.JPG","null","","","","",""
"","html-keyboard-response","447","765057","0.0-8.0-1.66","FL","43qjs0ts63","1440","900","en","la07as21","null","","","","learningBlock2","","","","That was a wug.","null","","","","",""
"","html-keyboard-response","448","766063","0.0-8.0-2.66","FL","43qjs0ts63","1440","900","en","la07as21","null","","","","learningBlock2","","","","<div style=""font-size:60px;""> </div>","null","FL","learning/Slide147.JPG","That was a wug.","",""
"","image-keyboard-response","449","766244","0.0-8.0-0.67","FL","43qjs0ts63","1440","900","en","la07as21","null","","","","","","","","learning/Slide148.JPG","null","","","","",""
"","html-keyboard-response","450","767403","0.0-8.0-1.67","FL","43qjs0ts63","1440","900","en","la07as21","null","","","","learningBlock2","","","","That was a bim.","null","","","","",""
"","html-keyboard-response","451","768404","0.0-8.0-2.67","FL","43qjs0ts63","1440","900","en","la07as21","null","","","","learningBlock2","","","","<div style=""font-size:60px;""> </div>","null","FL","learning/Slide148.JPG","That was a bim.","",""
"","image-keyboard-response","452","768585","0.0-8.0-0.68","FL","43qjs0ts63","1440","900","en","la07as21","null","","","","","","","","learning/Slide149.JPG","null","","","","",""
"","html-keyboard-response","453","769746","0.0-8.0-1.68","FL","43qjs0ts63","1440","900","en","la07as21","null","","","","learningBlock2","","","","That was a dep.","null","","","","",""
"","html-keyboard-response","454","770749","0.0-8.0-2.68","FL","43qjs0ts63","1440","900","en","la07as21","null","","","","learningBlock2","","","","<div style=""font-size:60px;""> </div>","null","FL","learning/Slide149.JPG","That was a dep.","",""
"","image-keyboard-response","455","770931","0.0-8.0-0.69","FL","43qjs0ts63","1440","900","en","la07as21","null","","","","","","","","learning/Slide150.JPG","null","","","","",""
"","html-keyboard-response","456","772090","0.0-8.0-1.69","FL","43qjs0ts63","1440","900","en","la07as21","null","","","","learningBlock2","","","","That was a wug.","null","","","","",""
"","html-keyboard-response","457","773092","0.0-8.0-2.69","FL","43qjs0ts63","1440","900","en","la07as21","null","","","","learningBlock2","","","","<div style=""font-size:60px;""> </div>","null","FL","learning/Slide150.JPG","That was a wug.","",""
"","image-keyboard-response","458","773273","0.0-8.0-0.70","FL","43qjs0ts63","1440","900","en","la07as21","null","","","","","","","","learning/Slide151.JPG","null","","","","",""
"","html-keyboard-response","459","774435","0.0-8.0-1.70","FL","43qjs0ts63","1440","900","en","la07as21","null","","","","learningBlock2","","","","That was a dep.","null","","","","",""
"","html-keyboard-response","460","775440","0.0-8.0-2.70","FL","43qjs0ts63","1440","900","en","la07as21","null","","","","learningBlock2","","","","<div style=""font-size:60px;""> </div>","null","FL","learning/Slide151.JPG","That was a dep.","",""
"","image-keyboard-response","461","775620","0.0-8.0-0.71","FL","43qjs0ts63","1440","900","en","la07as21","null","","","","","","","","learning/Slide152.JPG","null","","","","",""
"","html-keyboard-response","462","776781","0.0-8.0-1.71","FL","43qjs0ts63","1440","900","en","la07as21","null","","","","learningBlock2","","","","That was a wug.","null","","","","",""
"","html-keyboard-response","463","777787","0.0-8.0-2.71","FL","43qjs0ts63","1440","900","en","la07as21","null","","","","learningBlock2","","","","<div style=""font-size:60px;""> </div>","null","FL","learning/Slide152.JPG","That was a wug.","",""
"","image-keyboard-response","464","777963","0.0-8.0-0.72","FL","43qjs0ts63","1440","900","en","la07as21","null","","","","","","","","learning/Slide153.JPG","null","","","","",""
"","html-keyboard-response","465","779124","0.0-8.0-1.72","FL","43qjs0ts63","1440","900","en","la07as21","null","","","","learningBlock2","","","","That was a bim.","null","","","","",""
"","html-keyboard-response","466","780130","0.0-8.0-2.72","FL","43qjs0ts63","1440","900","en","la07as21","null","","","","learningBlock2","","","","<div style=""font-size:60px;""> </div>","null","FL","learning/Slide153.JPG","That was a bim.","",""
"","image-keyboard-response","467","780311","0.0-8.0-0.73","FL","43qjs0ts63","1440","900","en","la07as21","null","","","","","","","","learning/Slide154.JPG","null","","","","",""
"","html-keyboard-response","468","781469","0.0-8.0-1.73","FL","43qjs0ts63","1440","900","en","la07as21","null","","","","learningBlock2","","","","That was a tob.","null","","","","",""
"","html-keyboard-response","469","782474","0.0-8.0-2.73","FL","43qjs0ts63","1440","900","en","la07as21","null","","","","learningBlock2","","","","<div style=""font-size:60px;""> </div>","null","FL","learning/Slide154.JPG","That was a tob.","",""
"","image-keyboard-response","470","782652","0.0-8.0-0.74","FL","43qjs0ts63","1440","900","en","la07as21","null","","","","","","","","learning/Slide155.JPG","null","","","","",""
"","html-keyboard-response","471","783811","0.0-8.0-1.74","FL","43qjs0ts63","1440","900","en","la07as21","null","","","","learningBlock2","","","","That was a dep.","null","","","","",""
"","html-keyboard-response","472","784813","0.0-8.0-2.74","FL","43qjs0ts63","1440","900","en","la07as21","null","","","","learningBlock2","","","","<div style=""font-size:60px;""> </div>","null","FL","learning/Slide155.JPG","That was a dep.","",""
"","image-keyboard-response","473","784991","0.0-8.0-0.75","FL","43qjs0ts63","1440","900","en","la07as21","null","","","","","","","","learning/Slide156.JPG","null","","","","",""
"","html-keyboard-response","474","786152","0.0-8.0-1.75","FL","43qjs0ts63","1440","900","en","la07as21","null","","","","learningBlock2","","","","That was a bim.","null","","","","",""
"","html-keyboard-response","475","787158","0.0-8.0-2.75","FL","43qjs0ts63","1440","900","en","la07as21","null","","","","learningBlock2","","","","<div style=""font-size:60px;""> </div>","null","FL","learning/Slide156.JPG","That was a bim.","",""
"","image-keyboard-response","476","787338","0.0-8.0-0.76","FL","43qjs0ts63","1440","900","en","la07as21","null","","","","","","","","learning/Slide157.JPG","null","","","","",""
"","html-keyboard-response","477","788497","0.0-8.0-1.76","FL","43qjs0ts63","1440","900","en","la07as21","null","","","","learningBlock2","","","","That was a dep.","null","","","","",""
"","html-keyboard-response","478","789501","0.0-8.0-2.76","FL","43qjs0ts63","1440","900","en","la07as21","null","","","","learningBlock2","","","","<div style=""font-size:60px;""> </div>","null","FL","learning/Slide157.JPG","That was a dep.","",""
"","image-keyboard-response","479","789681","0.0-8.0-0.77","FL","43qjs0ts63","1440","900","en","la07as21","null","","","","","","","","learning/Slide158.JPG","null","","","","",""
"","html-keyboard-response","480","790842","0.0-8.0-1.77","FL","43qjs0ts63","1440","900","en","la07as21","null","","","","learningBlock2","","","","That was a tob.","null","","","","",""
"","html-keyboard-response","481","791844","0.0-8.0-2.77","FL","43qjs0ts63","1440","900","en","la07as21","null","","","","learningBlock2","","","","<div style=""font-size:60px;""> </div>","null","FL","learning/Slide158.JPG","That was a tob.","",""
"","image-keyboard-response","482","792026","0.0-8.0-0.78","FL","43qjs0ts63","1440","900","en","la07as21","null","","","","","","","","learning/Slide159.JPG","null","","","","",""
"","html-keyboard-response","483","793184","0.0-8.0-1.78","FL","43qjs0ts63","1440","900","en","la07as21","null","","","","learningBlock2","","","","That was a dep.","null","","","","",""
"","html-keyboard-response","484","794190","0.0-8.0-2.78","FL","43qjs0ts63","1440","900","en","la07as21","null","","","","learningBlock2","","","","<div style=""font-size:60px;""> </div>","null","FL","learning/Slide159.JPG","That was a dep.","",""
"","image-keyboard-response","485","794372","0.0-8.0-0.79","FL","43qjs0ts63","1440","900","en","la07as21","null","","","","","","","","learning/Slide160.JPG","null","","","","",""
"","html-keyboard-response","486","795530","0.0-8.0-1.79","FL","43qjs0ts63","1440","900","en","la07as21","null","","","","learningBlock2","","","","That was a wug.","null","","","","",""
"","html-keyboard-response","487","796536","0.0-8.0-2.79","FL","43qjs0ts63","1440","900","en","la07as21","null","","","","learningBlock2","","","","<div style=""font-size:60px;""> </div>","null","FL","learning/Slide160.JPG","That was a wug.","",""
"","resize2","488","803600","0.0-9.0","FL","43qjs0ts63","1440","900","en","la07as21","","","","","","","104","1.04","","","","","","",""
