"success","trial_type","trial_index","time_elapsed","internal_node_id","condition","subject","screen_width","screen_height","language","codeword","rt","responses","url","view_history","test_part","final_height_px","final_width_px","scale_factor","stimulus","key_press","learningType","presentedImage","presentedLabel","button_pressed","response"
"true","fullscreen","0","4184","0.0-0.0","FL","9kjfelsstb","1440","960","en","er09ch20","","","","","","","","","","","","","","",""
"","survey-html-form","1","16403","0.0-1.0","FL","9kjfelsstb","1440","960","en","er09ch20","12210","{""language"":""en""}","","","","","","","","","","","","",""
"","external-html","2","49962","0.0-3.0-0.0","FL","9kjfelsstb","1440","960","en","er09ch20","33530","","text/information_english.html","","","","","","","","","","","",""
"","external-html","3","64149","0.0-3.0-1.0","FL","9kjfelsstb","1440","960","en","er09ch20","14152","","text/consent_english.html","","","","","","","","","","","",""
"","survey-html-form","4","139444","0.0-3.0-2.0","FL","9kjfelsstb","1440","960","en","er09ch20","75292","{""codeword_enter"":""er09ch20""}","","","","","","","","","","","","",""
"","instructions","5","156097","0.0-4.0","FL","9kjfelsstb","1440","960","en","er09ch20","NA","","","[{""page_index"":0,""viewing_time"":2914},{""page_index"":1,""viewing_time"":12231}]","instructions","","","","","","","","","",""
"","resize","6","205874","0.0-5.0","FL","9kjfelsstb","1440","960","en","er09ch20","","","","","","","477","3.0285714285714285","","","","","","",""
"","image-keyboard-response","7","206060","0.0-6.0-0.0","FL","9kjfelsstb","1440","960","en","er09ch20","null","","","","","","","","learning/Slide1.JPG","null","","","","",""
"","html-keyboard-response","8","207239","0.0-6.0-1.0","FL","9kjfelsstb","1440","960","en","er09ch20","null","","","","learningBlock1","","","","That was a tob.","null","","","","",""
"","html-keyboard-response","9","208241","0.0-6.0-2.0","FL","9kjfelsstb","1440","960","en","er09ch20","null","","","","learningBlock1","","","","<div style=""font-size:60px;""> </div>","null","FL","learning/Slide1.JPG","That was a tob.","",""
"","image-keyboard-response","10","208430","0.0-6.0-0.1","FL","9kjfelsstb","1440","960","en","er09ch20","null","","","","","","","","learning/Slide2.JPG","null","","","","",""
"","html-keyboard-response","11","209620","0.0-6.0-1.1","FL","9kjfelsstb","1440","960","en","er09ch20","null","","","","learningBlock1","","","","That was a wug.","null","","","","",""
"","html-keyboard-response","12","210639","0.0-6.0-2.1","FL","9kjfelsstb","1440","960","en","er09ch20","null","","","","learningBlock1","","","","<div style=""font-size:60px;""> </div>","null","FL","learning/Slide2.JPG","That was a wug.","",""
"","image-keyboard-response","13","210820","0.0-6.0-0.2","FL","9kjfelsstb","1440","960","en","er09ch20","null","","","","","","","","learning/Slide3.JPG","null","","","","",""
"","html-keyboard-response","14","211990","0.0-6.0-1.2","FL","9kjfelsstb","1440","960","en","er09ch20","null","","","","learningBlock1","","","","That was a bim.","null","","","","",""
"","html-keyboard-response","15","213009","0.0-6.0-2.2","FL","9kjfelsstb","1440","960","en","er09ch20","null","","","","learningBlock1","","","","<div style=""font-size:60px;""> </div>","null","FL","learning/Slide3.JPG","That was a bim.","",""
"","image-keyboard-response","16","213189","0.0-6.0-0.3","FL","9kjfelsstb","1440","960","en","er09ch20","null","","","","","","","","learning/Slide4.JPG","null","","","","",""
"","html-keyboard-response","17","214368","0.0-6.0-1.3","FL","9kjfelsstb","1440","960","en","er09ch20","null","","","","learningBlock1","","","","That was a dep.","null","","","","",""
"","html-keyboard-response","18","215379","0.0-6.0-2.3","FL","9kjfelsstb","1440","960","en","er09ch20","null","","","","learningBlock1","","","","<div style=""font-size:60px;""> </div>","null","FL","learning/Slide4.JPG","That was a dep.","",""
"","image-keyboard-response","19","215558","0.0-6.0-0.4","FL","9kjfelsstb","1440","960","en","er09ch20","null","","","","","","","","learning/Slide5.JPG","null","","","","",""
"","html-keyboard-response","20","216739","0.0-6.0-1.4","FL","9kjfelsstb","1440","960","en","er09ch20","null","","","","learningBlock1","","","","That was a wug.","null","","","","",""
"","html-keyboard-response","21","217759","0.0-6.0-2.4","FL","9kjfelsstb","1440","960","en","er09ch20","null","","","","learningBlock1","","","","<div style=""font-size:60px;""> </div>","null","FL","learning/Slide5.JPG","That was a wug.","",""
"","image-keyboard-response","22","217940","0.0-6.0-0.5","FL","9kjfelsstb","1440","960","en","er09ch20","null","","","","","","","","learning/Slide6.JPG","null","","","","",""
"","html-keyboard-response","23","219100","0.0-6.0-1.5","FL","9kjfelsstb","1440","960","en","er09ch20","null","","","","learningBlock1","","","","That was a dep.","null","","","","",""
"","html-keyboard-response","24","220119","0.0-6.0-2.5","FL","9kjfelsstb","1440","960","en","er09ch20","null","","","","learningBlock1","","","","<div style=""font-size:60px;""> </div>","null","FL","learning/Slide6.JPG","That was a dep.","",""
"","image-keyboard-response","25","220299","0.0-6.0-0.6","FL","9kjfelsstb","1440","960","en","er09ch20","null","","","","","","","","learning/Slide7.JPG","null","","","","",""
"","html-keyboard-response","26","221478","0.0-6.0-1.6","FL","9kjfelsstb","1440","960","en","er09ch20","null","","","","learningBlock1","","","","That was a wug.","null","","","","",""
"","html-keyboard-response","27","222498","0.0-6.0-2.6","FL","9kjfelsstb","1440","960","en","er09ch20","null","","","","learningBlock1","","","","<div style=""font-size:60px;""> </div>","null","FL","learning/Slide7.JPG","That was a wug.","",""
"","image-keyboard-response","28","222679","0.0-6.0-0.7","FL","9kjfelsstb","1440","960","en","er09ch20","null","","","","","","","","learning/Slide8.JPG","null","","","","",""
"","html-keyboard-response","29","223859","0.0-6.0-1.7","FL","9kjfelsstb","1440","960","en","er09ch20","null","","","","learningBlock1","","","","That was a bim.","null","","","","",""
"","html-keyboard-response","30","224879","0.0-6.0-2.7","FL","9kjfelsstb","1440","960","en","er09ch20","null","","","","learningBlock1","","","","<div style=""font-size:60px;""> </div>","null","FL","learning/Slide8.JPG","That was a bim.","",""
"","image-keyboard-response","31","225060","0.0-6.0-0.8","FL","9kjfelsstb","1440","960","en","er09ch20","null","","","","","","","","learning/Slide9.JPG","null","","","","",""
"","html-keyboard-response","32","226240","0.0-6.0-1.8","FL","9kjfelsstb","1440","960","en","er09ch20","null","","","","learningBlock1","","","","That was a wug.","null","","","","",""
"","html-keyboard-response","33","227259","0.0-6.0-2.8","FL","9kjfelsstb","1440","960","en","er09ch20","null","","","","learningBlock1","","","","<div style=""font-size:60px;""> </div>","null","FL","learning/Slide9.JPG","That was a wug.","",""
"","image-keyboard-response","34","227439","0.0-6.0-0.9","FL","9kjfelsstb","1440","960","en","er09ch20","null","","","","","","","","learning/Slide10.JPG","null","","","","",""
"","html-keyboard-response","35","228619","0.0-6.0-1.9","FL","9kjfelsstb","1440","960","en","er09ch20","null","","","","learningBlock1","","","","That was a dep.","null","","","","",""
"","html-keyboard-response","36","229630","0.0-6.0-2.9","FL","9kjfelsstb","1440","960","en","er09ch20","null","","","","learningBlock1","","","","<div style=""font-size:60px;""> </div>","null","FL","learning/Slide10.JPG","That was a dep.","",""
"","image-keyboard-response","37","229809","0.0-6.0-0.10","FL","9kjfelsstb","1440","960","en","er09ch20","null","","","","","","","","learning/Slide11.JPG","null","","","","",""
"","html-keyboard-response","38","230990","0.0-6.0-1.10","FL","9kjfelsstb","1440","960","en","er09ch20","null","","","","learningBlock1","","","","That was a tob.","null","","","","",""
"","html-keyboard-response","39","232010","0.0-6.0-2.10","FL","9kjfelsstb","1440","960","en","er09ch20","null","","","","learningBlock1","","","","<div style=""font-size:60px;""> </div>","null","FL","learning/Slide11.JPG","That was a tob.","",""
"","image-keyboard-response","40","232189","0.0-6.0-0.11","FL","9kjfelsstb","1440","960","en","er09ch20","null","","","","","","","","learning/Slide12.JPG","null","","","","",""
"","html-keyboard-response","41","233368","0.0-6.0-1.11","FL","9kjfelsstb","1440","960","en","er09ch20","null","","","","learningBlock1","","","","That was a dep.","null","","","","",""
"","html-keyboard-response","42","234389","0.0-6.0-2.11","FL","9kjfelsstb","1440","960","en","er09ch20","null","","","","learningBlock1","","","","<div style=""font-size:60px;""> </div>","null","FL","learning/Slide12.JPG","That was a dep.","",""
"","image-keyboard-response","43","234569","0.0-6.0-0.12","FL","9kjfelsstb","1440","960","en","er09ch20","null","","","","","","","","learning/Slide13.JPG","null","","","","",""
"","html-keyboard-response","44","235738","0.0-6.0-1.12","FL","9kjfelsstb","1440","960","en","er09ch20","null","","","","learningBlock1","","","","That was a bim.","null","","","","",""
"","html-keyboard-response","45","236751","0.0-6.0-2.12","FL","9kjfelsstb","1440","960","en","er09ch20","null","","","","learningBlock1","","","","<div style=""font-size:60px;""> </div>","null","FL","learning/Slide13.JPG","That was a bim.","",""
"","image-keyboard-response","46","236928","0.0-6.0-0.13","FL","9kjfelsstb","1440","960","en","er09ch20","null","","","","","","","","learning/Slide14.JPG","null","","","","",""
"","html-keyboard-response","47","238110","0.0-6.0-1.13","FL","9kjfelsstb","1440","960","en","er09ch20","null","","","","learningBlock1","","","","That was a wug.","null","","","","",""
"","html-keyboard-response","48","239128","0.0-6.0-2.13","FL","9kjfelsstb","1440","960","en","er09ch20","null","","","","learningBlock1","","","","<div style=""font-size:60px;""> </div>","null","FL","learning/Slide14.JPG","That was a wug.","",""
"","image-keyboard-response","49","239309","0.0-6.0-0.14","FL","9kjfelsstb","1440","960","en","er09ch20","null","","","","","","","","learning/Slide15.JPG","null","","","","",""
"","html-keyboard-response","50","240479","0.0-6.0-1.14","FL","9kjfelsstb","1440","960","en","er09ch20","null","","","","learningBlock1","","","","That was a tob.","null","","","","",""
"","html-keyboard-response","51","241489","0.0-6.0-2.14","FL","9kjfelsstb","1440","960","en","er09ch20","null","","","","learningBlock1","","","","<div style=""font-size:60px;""> </div>","null","FL","learning/Slide15.JPG","That was a tob.","",""
"","image-keyboard-response","52","241678","0.0-6.0-0.15","FL","9kjfelsstb","1440","960","en","er09ch20","null","","","","","","","","learning/Slide16.JPG","null","","","","",""
"","html-keyboard-response","53","242860","0.0-6.0-1.15","FL","9kjfelsstb","1440","960","en","er09ch20","null","","","","learningBlock1","","","","That was a dep.","null","","","","",""
"","html-keyboard-response","54","243868","0.0-6.0-2.15","FL","9kjfelsstb","1440","960","en","er09ch20","null","","","","learningBlock1","","","","<div style=""font-size:60px;""> </div>","null","FL","learning/Slide16.JPG","That was a dep.","",""
"","image-keyboard-response","55","244049","0.0-6.0-0.16","FL","9kjfelsstb","1440","960","en","er09ch20","null","","","","","","","","learning/Slide17.JPG","null","","","","",""
"","html-keyboard-response","56","245229","0.0-6.0-1.16","FL","9kjfelsstb","1440","960","en","er09ch20","null","","","","learningBlock1","","","","That was a bim.","null","","","","",""
"","html-keyboard-response","57","246239","0.0-6.0-2.16","FL","9kjfelsstb","1440","960","en","er09ch20","null","","","","learningBlock1","","","","<div style=""font-size:60px;""> </div>","null","FL","learning/Slide17.JPG","That was a bim.","",""
"","image-keyboard-response","58","246419","0.0-6.0-0.17","FL","9kjfelsstb","1440","960","en","er09ch20","null","","","","","","","","learning/Slide18.JPG","null","","","","",""
"","html-keyboard-response","59","247599","0.0-6.0-1.17","FL","9kjfelsstb","1440","960","en","er09ch20","null","","","","learningBlock1","","","","That was a tob.","null","","","","",""
"","html-keyboard-response","60","248620","0.0-6.0-2.17","FL","9kjfelsstb","1440","960","en","er09ch20","null","","","","learningBlock1","","","","<div style=""font-size:60px;""> </div>","null","FL","learning/Slide18.JPG","That was a tob.","",""
"","image-keyboard-response","61","248799","0.0-6.0-0.18","FL","9kjfelsstb","1440","960","en","er09ch20","null","","","","","","","","learning/Slide19.JPG","null","","","","",""
"","html-keyboard-response","62","249979","0.0-6.0-1.18","FL","9kjfelsstb","1440","960","en","er09ch20","null","","","","learningBlock1","","","","That was a wug.","null","","","","",""
"","html-keyboard-response","63","250999","0.0-6.0-2.18","FL","9kjfelsstb","1440","960","en","er09ch20","null","","","","learningBlock1","","","","<div style=""font-size:60px;""> </div>","null","FL","learning/Slide19.JPG","That was a wug.","",""
"","image-keyboard-response","64","251178","0.0-6.0-0.19","FL","9kjfelsstb","1440","960","en","er09ch20","null","","","","","","","","learning/Slide20.JPG","null","","","","",""
"","html-keyboard-response","65","252359","0.0-6.0-1.19","FL","9kjfelsstb","1440","960","en","er09ch20","null","","","","learningBlock1","","","","That was a bim.","null","","","","",""
"","html-keyboard-response","66","253378","0.0-6.0-2.19","FL","9kjfelsstb","1440","960","en","er09ch20","null","","","","learningBlock1","","","","<div style=""font-size:60px;""> </div>","null","FL","learning/Slide20.JPG","That was a bim.","",""
"","image-keyboard-response","67","253559","0.0-6.0-0.20","FL","9kjfelsstb","1440","960","en","er09ch20","null","","","","","","","","learning/Slide21.JPG","null","","","","",""
"","html-keyboard-response","68","254740","0.0-6.0-1.20","FL","9kjfelsstb","1440","960","en","er09ch20","null","","","","learningBlock1","","","","That was a dep.","null","","","","",""
"","html-keyboard-response","69","255759","0.0-6.0-2.20","FL","9kjfelsstb","1440","960","en","er09ch20","null","","","","learningBlock1","","","","<div style=""font-size:60px;""> </div>","null","FL","learning/Slide21.JPG","That was a dep.","",""
"","image-keyboard-response","70","255940","0.0-6.0-0.21","FL","9kjfelsstb","1440","960","en","er09ch20","null","","","","","","","","learning/Slide22.JPG","null","","","","",""
"","html-keyboard-response","71","257109","0.0-6.0-1.21","FL","9kjfelsstb","1440","960","en","er09ch20","null","","","","learningBlock1","","","","That was a bim.","null","","","","",""
"","html-keyboard-response","72","258129","0.0-6.0-2.21","FL","9kjfelsstb","1440","960","en","er09ch20","null","","","","learningBlock1","","","","<div style=""font-size:60px;""> </div>","null","FL","learning/Slide22.JPG","That was a bim.","",""
"","image-keyboard-response","73","258308","0.0-6.0-0.22","FL","9kjfelsstb","1440","960","en","er09ch20","null","","","","","","","","learning/Slide23.JPG","null","","","","",""
"","html-keyboard-response","74","259489","0.0-6.0-1.22","FL","9kjfelsstb","1440","960","en","er09ch20","null","","","","learningBlock1","","","","That was a tob.","null","","","","",""
"","html-keyboard-response","75","260509","0.0-6.0-2.22","FL","9kjfelsstb","1440","960","en","er09ch20","null","","","","learningBlock1","","","","<div style=""font-size:60px;""> </div>","null","FL","learning/Slide23.JPG","That was a tob.","",""
"","image-keyboard-response","76","260689","0.0-6.0-0.23","FL","9kjfelsstb","1440","960","en","er09ch20","null","","","","","","","","learning/Slide24.JPG","null","","","","",""
"","html-keyboard-response","77","261879","0.0-6.0-1.23","FL","9kjfelsstb","1440","960","en","er09ch20","null","","","","learningBlock1","","","","That was a wug.","null","","","","",""
"","html-keyboard-response","78","262899","0.0-6.0-2.23","FL","9kjfelsstb","1440","960","en","er09ch20","null","","","","learningBlock1","","","","<div style=""font-size:60px;""> </div>","null","FL","learning/Slide24.JPG","That was a wug.","",""
"","image-keyboard-response","79","263080","0.0-6.0-0.24","FL","9kjfelsstb","1440","960","en","er09ch20","null","","","","","","","","learning/Slide25.JPG","null","","","","",""
"","html-keyboard-response","80","264259","0.0-6.0-1.24","FL","9kjfelsstb","1440","960","en","er09ch20","null","","","","learningBlock1","","","","That was a dep.","null","","","","",""
"","html-keyboard-response","81","265279","0.0-6.0-2.24","FL","9kjfelsstb","1440","960","en","er09ch20","null","","","","learningBlock1","","","","<div style=""font-size:60px;""> </div>","null","FL","learning/Slide25.JPG","That was a dep.","",""
"","image-keyboard-response","82","265458","0.0-6.0-0.25","FL","9kjfelsstb","1440","960","en","er09ch20","null","","","","","","","","learning/Slide26.JPG","null","","","","",""
"","html-keyboard-response","83","266629","0.0-6.0-1.25","FL","9kjfelsstb","1440","960","en","er09ch20","null","","","","learningBlock1","","","","That was a wug.","null","","","","",""
"","html-keyboard-response","84","267649","0.0-6.0-2.25","FL","9kjfelsstb","1440","960","en","er09ch20","null","","","","learningBlock1","","","","<div style=""font-size:60px;""> </div>","null","FL","learning/Slide26.JPG","That was a wug.","",""
"","image-keyboard-response","85","267830","0.0-6.0-0.26","FL","9kjfelsstb","1440","960","en","er09ch20","null","","","","","","","","learning/Slide27.JPG","null","","","","",""
"","html-keyboard-response","86","268989","0.0-6.0-1.26","FL","9kjfelsstb","1440","960","en","er09ch20","null","","","","learningBlock1","","","","That was a bim.","null","","","","",""
"","html-keyboard-response","87","270009","0.0-6.0-2.26","FL","9kjfelsstb","1440","960","en","er09ch20","null","","","","learningBlock1","","","","<div style=""font-size:60px;""> </div>","null","FL","learning/Slide27.JPG","That was a bim.","",""
"","image-keyboard-response","88","270188","0.0-6.0-0.27","FL","9kjfelsstb","1440","960","en","er09ch20","null","","","","","","","","learning/Slide28.JPG","null","","","","",""
"","html-keyboard-response","89","271350","0.0-6.0-1.27","FL","9kjfelsstb","1440","960","en","er09ch20","null","","","","learningBlock1","","","","That was a dep.","null","","","","",""
"","html-keyboard-response","90","272368","0.0-6.0-2.27","FL","9kjfelsstb","1440","960","en","er09ch20","null","","","","learningBlock1","","","","<div style=""font-size:60px;""> </div>","null","FL","learning/Slide28.JPG","That was a dep.","",""
"","image-keyboard-response","91","272549","0.0-6.0-0.28","FL","9kjfelsstb","1440","960","en","er09ch20","null","","","","","","","","learning/Slide29.JPG","null","","","","",""
"","html-keyboard-response","92","273729","0.0-6.0-1.28","FL","9kjfelsstb","1440","960","en","er09ch20","null","","","","learningBlock1","","","","That was a tob.","null","","","","",""
"","html-keyboard-response","93","274748","0.0-6.0-2.28","FL","9kjfelsstb","1440","960","en","er09ch20","null","","","","learningBlock1","","","","<div style=""font-size:60px;""> </div>","null","FL","learning/Slide29.JPG","That was a tob.","",""
"","image-keyboard-response","94","274928","0.0-6.0-0.29","FL","9kjfelsstb","1440","960","en","er09ch20","null","","","","","","","","learning/Slide30.JPG","null","","","","",""
"","html-keyboard-response","95","276105","0.0-6.0-1.29","FL","9kjfelsstb","1440","960","en","er09ch20","null","","","","learningBlock1","","","","That was a dep.","null","","","","",""
"","html-keyboard-response","96","277119","0.0-6.0-2.29","FL","9kjfelsstb","1440","960","en","er09ch20","null","","","","learningBlock1","","","","<div style=""font-size:60px;""> </div>","null","FL","learning/Slide30.JPG","That was a dep.","",""
"","image-keyboard-response","97","277308","0.0-6.0-0.30","FL","9kjfelsstb","1440","960","en","er09ch20","null","","","","","","","","learning/Slide31.JPG","null","","","","",""
"","html-keyboard-response","98","278489","0.0-6.0-1.30","FL","9kjfelsstb","1440","960","en","er09ch20","null","","","","learningBlock1","","","","That was a wug.","null","","","","",""
"","html-keyboard-response","99","279509","0.0-6.0-2.30","FL","9kjfelsstb","1440","960","en","er09ch20","null","","","","learningBlock1","","","","<div style=""font-size:60px;""> </div>","null","FL","learning/Slide31.JPG","That was a wug.","",""
"","image-keyboard-response","100","279689","0.0-6.0-0.31","FL","9kjfelsstb","1440","960","en","er09ch20","null","","","","","","","","learning/Slide32.JPG","null","","","","",""
"","html-keyboard-response","101","280878","0.0-6.0-1.31","FL","9kjfelsstb","1440","960","en","er09ch20","null","","","","learningBlock1","","","","That was a tob.","null","","","","",""
"","html-keyboard-response","102","281899","0.0-6.0-2.31","FL","9kjfelsstb","1440","960","en","er09ch20","null","","","","learningBlock1","","","","<div style=""font-size:60px;""> </div>","null","FL","learning/Slide32.JPG","That was a tob.","",""
"","image-keyboard-response","103","282080","0.0-6.0-0.32","FL","9kjfelsstb","1440","960","en","er09ch20","null","","","","","","","","learning/Slide33.JPG","null","","","","",""
"","html-keyboard-response","104","283249","0.0-6.0-1.32","FL","9kjfelsstb","1440","960","en","er09ch20","null","","","","learningBlock1","","","","That was a bim.","null","","","","",""
"","html-keyboard-response","105","284269","0.0-6.0-2.32","FL","9kjfelsstb","1440","960","en","er09ch20","null","","","","learningBlock1","","","","<div style=""font-size:60px;""> </div>","null","FL","learning/Slide33.JPG","That was a bim.","",""
"","image-keyboard-response","106","284450","0.0-6.0-0.33","FL","9kjfelsstb","1440","960","en","er09ch20","null","","","","","","","","learning/Slide34.JPG","null","","","","",""
"","html-keyboard-response","107","285618","0.0-6.0-1.33","FL","9kjfelsstb","1440","960","en","er09ch20","null","","","","learningBlock1","","","","That was a tob.","null","","","","",""
"","html-keyboard-response","108","286638","0.0-6.0-2.33","FL","9kjfelsstb","1440","960","en","er09ch20","null","","","","learningBlock1","","","","<div style=""font-size:60px;""> </div>","null","FL","learning/Slide34.JPG","That was a tob.","",""
"","image-keyboard-response","109","286819","0.0-6.0-0.34","FL","9kjfelsstb","1440","960","en","er09ch20","null","","","","","","","","learning/Slide35.JPG","null","","","","",""
"","html-keyboard-response","110","287999","0.0-6.0-1.34","FL","9kjfelsstb","1440","960","en","er09ch20","null","","","","learningBlock1","","","","That was a bim.","null","","","","",""
"","html-keyboard-response","111","289019","0.0-6.0-2.34","FL","9kjfelsstb","1440","960","en","er09ch20","null","","","","learningBlock1","","","","<div style=""font-size:60px;""> </div>","null","FL","learning/Slide35.JPG","That was a bim.","",""
"","image-keyboard-response","112","289199","0.0-6.0-0.35","FL","9kjfelsstb","1440","960","en","er09ch20","null","","","","","","","","learning/Slide36.JPG","null","","","","",""
"","html-keyboard-response","113","290370","0.0-6.0-1.35","FL","9kjfelsstb","1440","960","en","er09ch20","null","","","","learningBlock1","","","","That was a dep.","null","","","","",""
"","html-keyboard-response","114","291388","0.0-6.0-2.35","FL","9kjfelsstb","1440","960","en","er09ch20","null","","","","learningBlock1","","","","<div style=""font-size:60px;""> </div>","null","FL","learning/Slide36.JPG","That was a dep.","",""
"","image-keyboard-response","115","291569","0.0-6.0-0.36","FL","9kjfelsstb","1440","960","en","er09ch20","null","","","","","","","","learning/Slide37.JPG","null","","","","",""
"","html-keyboard-response","116","292749","0.0-6.0-1.36","FL","9kjfelsstb","1440","960","en","er09ch20","null","","","","learningBlock1","","","","That was a tob.","null","","","","",""
"","html-keyboard-response","117","293768","0.0-6.0-2.36","FL","9kjfelsstb","1440","960","en","er09ch20","null","","","","learningBlock1","","","","<div style=""font-size:60px;""> </div>","null","FL","learning/Slide37.JPG","That was a tob.","",""
"","image-keyboard-response","118","293960","0.0-6.0-0.37","FL","9kjfelsstb","1440","960","en","er09ch20","null","","","","","","","","learning/Slide38.JPG","null","","","","",""
"","html-keyboard-response","119","295139","0.0-6.0-1.37","FL","9kjfelsstb","1440","960","en","er09ch20","null","","","","learningBlock1","","","","That was a wug.","null","","","","",""
"","html-keyboard-response","120","296148","0.0-6.0-2.37","FL","9kjfelsstb","1440","960","en","er09ch20","null","","","","learningBlock1","","","","<div style=""font-size:60px;""> </div>","null","FL","learning/Slide38.JPG","That was a wug.","",""
"","image-keyboard-response","121","296328","0.0-6.0-0.38","FL","9kjfelsstb","1440","960","en","er09ch20","null","","","","","","","","learning/Slide39.JPG","null","","","","",""
"","html-keyboard-response","122","297509","0.0-6.0-1.38","FL","9kjfelsstb","1440","960","en","er09ch20","null","","","","learningBlock1","","","","That was a bim.","null","","","","",""
"","html-keyboard-response","123","298518","0.0-6.0-2.38","FL","9kjfelsstb","1440","960","en","er09ch20","null","","","","learningBlock1","","","","<div style=""font-size:60px;""> </div>","null","FL","learning/Slide39.JPG","That was a bim.","",""
"","image-keyboard-response","124","298699","0.0-6.0-0.39","FL","9kjfelsstb","1440","960","en","er09ch20","null","","","","","","","","learning/Slide40.JPG","null","","","","",""
"","html-keyboard-response","125","299862","0.0-6.0-1.39","FL","9kjfelsstb","1440","960","en","er09ch20","null","","","","learningBlock1","","","","That was a tob.","null","","","","",""
"","html-keyboard-response","126","300879","0.0-6.0-2.39","FL","9kjfelsstb","1440","960","en","er09ch20","null","","","","learningBlock1","","","","<div style=""font-size:60px;""> </div>","null","FL","learning/Slide40.JPG","That was a tob.","",""
"","image-keyboard-response","127","301059","0.0-6.0-0.40","FL","9kjfelsstb","1440","960","en","er09ch20","null","","","","","","","","learning/Slide41.JPG","null","","","","",""
"","html-keyboard-response","128","302239","0.0-6.0-1.40","FL","9kjfelsstb","1440","960","en","er09ch20","null","","","","learningBlock1","","","","That was a bim.","null","","","","",""
"","html-keyboard-response","129","303258","0.0-6.0-2.40","FL","9kjfelsstb","1440","960","en","er09ch20","null","","","","learningBlock1","","","","<div style=""font-size:60px;""> </div>","null","FL","learning/Slide41.JPG","That was a bim.","",""
"","image-keyboard-response","130","303438","0.0-6.0-0.41","FL","9kjfelsstb","1440","960","en","er09ch20","null","","","","","","","","learning/Slide42.JPG","null","","","","",""
"","html-keyboard-response","131","304618","0.0-6.0-1.41","FL","9kjfelsstb","1440","960","en","er09ch20","null","","","","learningBlock1","","","","That was a dep.","null","","","","",""
"","html-keyboard-response","132","305638","0.0-6.0-2.41","FL","9kjfelsstb","1440","960","en","er09ch20","null","","","","learningBlock1","","","","<div style=""font-size:60px;""> </div>","null","FL","learning/Slide42.JPG","That was a dep.","",""
"","image-keyboard-response","133","305819","0.0-6.0-0.42","FL","9kjfelsstb","1440","960","en","er09ch20","null","","","","","","","","learning/Slide43.JPG","null","","","","",""
"","html-keyboard-response","134","306979","0.0-6.0-1.42","FL","9kjfelsstb","1440","960","en","er09ch20","null","","","","learningBlock1","","","","That was a wug.","null","","","","",""
"","html-keyboard-response","135","307998","0.0-6.0-2.42","FL","9kjfelsstb","1440","960","en","er09ch20","null","","","","learningBlock1","","","","<div style=""font-size:60px;""> </div>","null","FL","learning/Slide43.JPG","That was a wug.","",""
"","image-keyboard-response","136","308178","0.0-6.0-0.43","FL","9kjfelsstb","1440","960","en","er09ch20","null","","","","","","","","learning/Slide44.JPG","null","","","","",""
"","html-keyboard-response","137","309359","0.0-6.0-1.43","FL","9kjfelsstb","1440","960","en","er09ch20","null","","","","learningBlock1","","","","That was a bim.","null","","","","",""
"","html-keyboard-response","138","310380","0.0-6.0-2.43","FL","9kjfelsstb","1440","960","en","er09ch20","null","","","","learningBlock1","","","","<div style=""font-size:60px;""> </div>","null","FL","learning/Slide44.JPG","That was a bim.","",""
"","image-keyboard-response","139","310559","0.0-6.0-0.44","FL","9kjfelsstb","1440","960","en","er09ch20","null","","","","","","","","learning/Slide45.JPG","null","","","","",""
"","html-keyboard-response","140","311738","0.0-6.0-1.44","FL","9kjfelsstb","1440","960","en","er09ch20","null","","","","learningBlock1","","","","That was a wug.","null","","","","",""
"","html-keyboard-response","141","312758","0.0-6.0-2.44","FL","9kjfelsstb","1440","960","en","er09ch20","null","","","","learningBlock1","","","","<div style=""font-size:60px;""> </div>","null","FL","learning/Slide45.JPG","That was a wug.","",""
"","image-keyboard-response","142","312939","0.0-6.0-0.45","FL","9kjfelsstb","1440","960","en","er09ch20","null","","","","","","","","learning/Slide46.JPG","null","","","","",""
"","html-keyboard-response","143","314119","0.0-6.0-1.45","FL","9kjfelsstb","1440","960","en","er09ch20","null","","","","learningBlock1","","","","That was a dep.","null","","","","",""
"","html-keyboard-response","144","315139","0.0-6.0-2.45","FL","9kjfelsstb","1440","960","en","er09ch20","null","","","","learningBlock1","","","","<div style=""font-size:60px;""> </div>","null","FL","learning/Slide46.JPG","That was a dep.","",""
"","image-keyboard-response","145","315319","0.0-6.0-0.46","FL","9kjfelsstb","1440","960","en","er09ch20","null","","","","","","","","learning/Slide47.JPG","null","","","","",""
"","html-keyboard-response","146","316499","0.0-6.0-1.46","FL","9kjfelsstb","1440","960","en","er09ch20","null","","","","learningBlock1","","","","That was a tob.","null","","","","",""
"","html-keyboard-response","147","317509","0.0-6.0-2.46","FL","9kjfelsstb","1440","960","en","er09ch20","null","","","","learningBlock1","","","","<div style=""font-size:60px;""> </div>","null","FL","learning/Slide47.JPG","That was a tob.","",""
"","image-keyboard-response","148","317691","0.0-6.0-0.47","FL","9kjfelsstb","1440","960","en","er09ch20","null","","","","","","","","learning/Slide48.JPG","null","","","","",""
"","html-keyboard-response","149","318869","0.0-6.0-1.47","FL","9kjfelsstb","1440","960","en","er09ch20","null","","","","learningBlock1","","","","That was a bim.","null","","","","",""
"","html-keyboard-response","150","319890","0.0-6.0-2.47","FL","9kjfelsstb","1440","960","en","er09ch20","null","","","","learningBlock1","","","","<div style=""font-size:60px;""> </div>","null","FL","learning/Slide48.JPG","That was a bim.","",""
"","image-keyboard-response","151","320069","0.0-6.0-0.48","FL","9kjfelsstb","1440","960","en","er09ch20","null","","","","","","","","learning/Slide49.JPG","null","","","","",""
"","html-keyboard-response","152","321249","0.0-6.0-1.48","FL","9kjfelsstb","1440","960","en","er09ch20","null","","","","learningBlock1","","","","That was a dep.","null","","","","",""
"","html-keyboard-response","153","322269","0.0-6.0-2.48","FL","9kjfelsstb","1440","960","en","er09ch20","null","","","","learningBlock1","","","","<div style=""font-size:60px;""> </div>","null","FL","learning/Slide49.JPG","That was a dep.","",""
"","image-keyboard-response","154","322449","0.0-6.0-0.49","FL","9kjfelsstb","1440","960","en","er09ch20","null","","","","","","","","learning/Slide50.JPG","null","","","","",""
"","html-keyboard-response","155","323628","0.0-6.0-1.49","FL","9kjfelsstb","1440","960","en","er09ch20","null","","","","learningBlock1","","","","That was a tob.","null","","","","",""
"","html-keyboard-response","156","324649","0.0-6.0-2.49","FL","9kjfelsstb","1440","960","en","er09ch20","null","","","","learningBlock1","","","","<div style=""font-size:60px;""> </div>","null","FL","learning/Slide50.JPG","That was a tob.","",""
"","image-keyboard-response","157","324829","0.0-6.0-0.50","FL","9kjfelsstb","1440","960","en","er09ch20","null","","","","","","","","learning/Slide51.JPG","null","","","","",""
"","html-keyboard-response","158","325999","0.0-6.0-1.50","FL","9kjfelsstb","1440","960","en","er09ch20","null","","","","learningBlock1","","","","That was a bim.","null","","","","",""
"","html-keyboard-response","159","327019","0.0-6.0-2.50","FL","9kjfelsstb","1440","960","en","er09ch20","null","","","","learningBlock1","","","","<div style=""font-size:60px;""> </div>","null","FL","learning/Slide51.JPG","That was a bim.","",""
"","image-keyboard-response","160","327199","0.0-6.0-0.51","FL","9kjfelsstb","1440","960","en","er09ch20","null","","","","","","","","learning/Slide52.JPG","null","","","","",""
"","html-keyboard-response","161","328379","0.0-6.0-1.51","FL","9kjfelsstb","1440","960","en","er09ch20","null","","","","learningBlock1","","","","That was a wug.","null","","","","",""
"","html-keyboard-response","162","329399","0.0-6.0-2.51","FL","9kjfelsstb","1440","960","en","er09ch20","null","","","","learningBlock1","","","","<div style=""font-size:60px;""> </div>","null","FL","learning/Slide52.JPG","That was a wug.","",""
"","image-keyboard-response","163","329579","0.0-6.0-0.52","FL","9kjfelsstb","1440","960","en","er09ch20","null","","","","","","","","learning/Slide53.JPG","null","","","","",""
"","html-keyboard-response","164","330749","0.0-6.0-1.52","FL","9kjfelsstb","1440","960","en","er09ch20","null","","","","learningBlock1","","","","That was a tob.","null","","","","",""
"","html-keyboard-response","165","331768","0.0-6.0-2.52","FL","9kjfelsstb","1440","960","en","er09ch20","null","","","","learningBlock1","","","","<div style=""font-size:60px;""> </div>","null","FL","learning/Slide53.JPG","That was a tob.","",""
"","image-keyboard-response","166","331949","0.0-6.0-0.53","FL","9kjfelsstb","1440","960","en","er09ch20","null","","","","","","","","learning/Slide54.JPG","null","","","","",""
"","html-keyboard-response","167","333129","0.0-6.0-1.53","FL","9kjfelsstb","1440","960","en","er09ch20","null","","","","learningBlock1","","","","That was a dep.","null","","","","",""
"","html-keyboard-response","168","334145","0.0-6.0-2.53","FL","9kjfelsstb","1440","960","en","er09ch20","null","","","","learningBlock1","","","","<div style=""font-size:60px;""> </div>","null","FL","learning/Slide54.JPG","That was a dep.","",""
"","image-keyboard-response","169","334329","0.0-6.0-0.54","FL","9kjfelsstb","1440","960","en","er09ch20","null","","","","","","","","learning/Slide55.JPG","null","","","","",""
"","html-keyboard-response","170","335499","0.0-6.0-1.54","FL","9kjfelsstb","1440","960","en","er09ch20","null","","","","learningBlock1","","","","That was a bim.","null","","","","",""
"","html-keyboard-response","171","336518","0.0-6.0-2.54","FL","9kjfelsstb","1440","960","en","er09ch20","null","","","","learningBlock1","","","","<div style=""font-size:60px;""> </div>","null","FL","learning/Slide55.JPG","That was a bim.","",""
"","image-keyboard-response","172","336699","0.0-6.0-0.55","FL","9kjfelsstb","1440","960","en","er09ch20","null","","","","","","","","learning/Slide56.JPG","null","","","","",""
"","html-keyboard-response","173","337868","0.0-6.0-1.55","FL","9kjfelsstb","1440","960","en","er09ch20","null","","","","learningBlock1","","","","That was a tob.","null","","","","",""
"","html-keyboard-response","174","338889","0.0-6.0-2.55","FL","9kjfelsstb","1440","960","en","er09ch20","null","","","","learningBlock1","","","","<div style=""font-size:60px;""> </div>","null","FL","learning/Slide56.JPG","That was a tob.","",""
"","image-keyboard-response","175","339079","0.0-6.0-0.56","FL","9kjfelsstb","1440","960","en","er09ch20","null","","","","","","","","learning/Slide57.JPG","null","","","","",""
"","html-keyboard-response","176","340259","0.0-6.0-1.56","FL","9kjfelsstb","1440","960","en","er09ch20","null","","","","learningBlock1","","","","That was a dep.","null","","","","",""
"","html-keyboard-response","177","341279","0.0-6.0-2.56","FL","9kjfelsstb","1440","960","en","er09ch20","null","","","","learningBlock1","","","","<div style=""font-size:60px;""> </div>","null","FL","learning/Slide57.JPG","That was a dep.","",""
"","image-keyboard-response","178","341469","0.0-6.0-0.57","FL","9kjfelsstb","1440","960","en","er09ch20","null","","","","","","","","learning/Slide58.JPG","null","","","","",""
"","html-keyboard-response","179","342659","0.0-6.0-1.57","FL","9kjfelsstb","1440","960","en","er09ch20","null","","","","learningBlock1","","","","That was a wug.","null","","","","",""
"","html-keyboard-response","180","343680","0.0-6.0-2.57","FL","9kjfelsstb","1440","960","en","er09ch20","null","","","","learningBlock1","","","","<div style=""font-size:60px;""> </div>","null","FL","learning/Slide58.JPG","That was a wug.","",""
"","image-keyboard-response","181","343859","0.0-6.0-0.58","FL","9kjfelsstb","1440","960","en","er09ch20","null","","","","","","","","learning/Slide59.JPG","null","","","","",""
"","html-keyboard-response","182","345029","0.0-6.0-1.58","FL","9kjfelsstb","1440","960","en","er09ch20","null","","","","learningBlock1","","","","That was a dep.","null","","","","",""
"","html-keyboard-response","183","346048","0.0-6.0-2.58","FL","9kjfelsstb","1440","960","en","er09ch20","null","","","","learningBlock1","","","","<div style=""font-size:60px;""> </div>","null","FL","learning/Slide59.JPG","That was a dep.","",""
"","image-keyboard-response","184","346228","0.0-6.0-0.59","FL","9kjfelsstb","1440","960","en","er09ch20","null","","","","","","","","learning/Slide60.JPG","null","","","","",""
"","html-keyboard-response","185","347408","0.0-6.0-1.59","FL","9kjfelsstb","1440","960","en","er09ch20","null","","","","learningBlock1","","","","That was a wug.","null","","","","",""
"","html-keyboard-response","186","348429","0.0-6.0-2.59","FL","9kjfelsstb","1440","960","en","er09ch20","null","","","","learningBlock1","","","","<div style=""font-size:60px;""> </div>","null","FL","learning/Slide60.JPG","That was a wug.","",""
"","image-keyboard-response","187","348609","0.0-6.0-0.60","FL","9kjfelsstb","1440","960","en","er09ch20","null","","","","","","","","learning/Slide61.JPG","null","","","","",""
"","html-keyboard-response","188","349788","0.0-6.0-1.60","FL","9kjfelsstb","1440","960","en","er09ch20","null","","","","learningBlock1","","","","That was a bim.","null","","","","",""
"","html-keyboard-response","189","350798","0.0-6.0-2.60","FL","9kjfelsstb","1440","960","en","er09ch20","null","","","","learningBlock1","","","","<div style=""font-size:60px;""> </div>","null","FL","learning/Slide61.JPG","That was a bim.","",""
"","image-keyboard-response","190","350979","0.0-6.0-0.61","FL","9kjfelsstb","1440","960","en","er09ch20","null","","","","","","","","learning/Slide62.JPG","null","","","","",""
"","html-keyboard-response","191","352160","0.0-6.0-1.61","FL","9kjfelsstb","1440","960","en","er09ch20","null","","","","learningBlock1","","","","That was a dep.","null","","","","",""
"","html-keyboard-response","192","353179","0.0-6.0-2.61","FL","9kjfelsstb","1440","960","en","er09ch20","null","","","","learningBlock1","","","","<div style=""font-size:60px;""> </div>","null","FL","learning/Slide62.JPG","That was a dep.","",""
"","image-keyboard-response","193","353358","0.0-6.0-0.62","FL","9kjfelsstb","1440","960","en","er09ch20","null","","","","","","","","learning/Slide63.JPG","null","","","","",""
"","html-keyboard-response","194","354538","0.0-6.0-1.62","FL","9kjfelsstb","1440","960","en","er09ch20","null","","","","learningBlock1","","","","That was a bim.","null","","","","",""
"","html-keyboard-response","195","355558","0.0-6.0-2.62","FL","9kjfelsstb","1440","960","en","er09ch20","null","","","","learningBlock1","","","","<div style=""font-size:60px;""> </div>","null","FL","learning/Slide63.JPG","That was a bim.","",""
"","image-keyboard-response","196","355740","0.0-6.0-0.63","FL","9kjfelsstb","1440","960","en","er09ch20","null","","","","","","","","learning/Slide64.JPG","null","","","","",""
"","html-keyboard-response","197","356908","0.0-6.0-1.63","FL","9kjfelsstb","1440","960","en","er09ch20","null","","","","learningBlock1","","","","That was a tob.","null","","","","",""
"","html-keyboard-response","198","357929","0.0-6.0-2.63","FL","9kjfelsstb","1440","960","en","er09ch20","null","","","","learningBlock1","","","","<div style=""font-size:60px;""> </div>","null","FL","learning/Slide64.JPG","That was a tob.","",""
"","image-keyboard-response","199","358110","0.0-6.0-0.64","FL","9kjfelsstb","1440","960","en","er09ch20","null","","","","","","","","learning/Slide65.JPG","null","","","","",""
"","html-keyboard-response","200","359289","0.0-6.0-1.64","FL","9kjfelsstb","1440","960","en","er09ch20","null","","","","learningBlock1","","","","That was a wug.","null","","","","",""
"","html-keyboard-response","201","360308","0.0-6.0-2.64","FL","9kjfelsstb","1440","960","en","er09ch20","null","","","","learningBlock1","","","","<div style=""font-size:60px;""> </div>","null","FL","learning/Slide65.JPG","That was a wug.","",""
"","image-keyboard-response","202","360489","0.0-6.0-0.65","FL","9kjfelsstb","1440","960","en","er09ch20","null","","","","","","","","learning/Slide66.JPG","null","","","","",""
"","html-keyboard-response","203","361669","0.0-6.0-1.65","FL","9kjfelsstb","1440","960","en","er09ch20","null","","","","learningBlock1","","","","That was a dep.","null","","","","",""
"","html-keyboard-response","204","362689","0.0-6.0-2.65","FL","9kjfelsstb","1440","960","en","er09ch20","null","","","","learningBlock1","","","","<div style=""font-size:60px;""> </div>","null","FL","learning/Slide66.JPG","That was a dep.","",""
"","image-keyboard-response","205","362869","0.0-6.0-0.66","FL","9kjfelsstb","1440","960","en","er09ch20","null","","","","","","","","learning/Slide67.JPG","null","","","","",""
"","html-keyboard-response","206","364048","0.0-6.0-1.66","FL","9kjfelsstb","1440","960","en","er09ch20","null","","","","learningBlock1","","","","That was a tob.","null","","","","",""
"","html-keyboard-response","207","365070","0.0-6.0-2.66","FL","9kjfelsstb","1440","960","en","er09ch20","null","","","","learningBlock1","","","","<div style=""font-size:60px;""> </div>","null","FL","learning/Slide67.JPG","That was a tob.","",""
"","image-keyboard-response","208","365249","0.0-6.0-0.67","FL","9kjfelsstb","1440","960","en","er09ch20","null","","","","","","","","learning/Slide68.JPG","null","","","","",""
"","html-keyboard-response","209","366418","0.0-6.0-1.67","FL","9kjfelsstb","1440","960","en","er09ch20","null","","","","learningBlock1","","","","That was a wug.","null","","","","",""
"","html-keyboard-response","210","367429","0.0-6.0-2.67","FL","9kjfelsstb","1440","960","en","er09ch20","null","","","","learningBlock1","","","","<div style=""font-size:60px;""> </div>","null","FL","learning/Slide68.JPG","That was a wug.","",""
"","image-keyboard-response","211","367609","0.0-6.0-0.68","FL","9kjfelsstb","1440","960","en","er09ch20","null","","","","","","","","learning/Slide69.JPG","null","","","","",""
"","html-keyboard-response","212","368789","0.0-6.0-1.68","FL","9kjfelsstb","1440","960","en","er09ch20","null","","","","learningBlock1","","","","That was a tob.","null","","","","",""
"","html-keyboard-response","213","369809","0.0-6.0-2.68","FL","9kjfelsstb","1440","960","en","er09ch20","null","","","","learningBlock1","","","","<div style=""font-size:60px;""> </div>","null","FL","learning/Slide69.JPG","That was a tob.","",""
"","image-keyboard-response","214","369989","0.0-6.0-0.69","FL","9kjfelsstb","1440","960","en","er09ch20","null","","","","","","","","learning/Slide70.JPG","null","","","","",""
"","html-keyboard-response","215","371159","0.0-6.0-1.69","FL","9kjfelsstb","1440","960","en","er09ch20","null","","","","learningBlock1","","","","That was a dep.","null","","","","",""
"","html-keyboard-response","216","372179","0.0-6.0-2.69","FL","9kjfelsstb","1440","960","en","er09ch20","null","","","","learningBlock1","","","","<div style=""font-size:60px;""> </div>","null","FL","learning/Slide70.JPG","That was a dep.","",""
"","image-keyboard-response","217","372359","0.0-6.0-0.70","FL","9kjfelsstb","1440","960","en","er09ch20","null","","","","","","","","learning/Slide71.JPG","null","","","","",""
"","html-keyboard-response","218","373538","0.0-6.0-1.70","FL","9kjfelsstb","1440","960","en","er09ch20","null","","","","learningBlock1","","","","That was a wug.","null","","","","",""
"","html-keyboard-response","219","374558","0.0-6.0-2.70","FL","9kjfelsstb","1440","960","en","er09ch20","null","","","","learningBlock1","","","","<div style=""font-size:60px;""> </div>","null","FL","learning/Slide71.JPG","That was a wug.","",""
"","image-keyboard-response","220","374739","0.0-6.0-0.71","FL","9kjfelsstb","1440","960","en","er09ch20","null","","","","","","","","learning/Slide72.JPG","null","","","","",""
"","html-keyboard-response","221","375919","0.0-6.0-1.71","FL","9kjfelsstb","1440","960","en","er09ch20","null","","","","learningBlock1","","","","That was a bim.","null","","","","",""
"","html-keyboard-response","222","376939","0.0-6.0-2.71","FL","9kjfelsstb","1440","960","en","er09ch20","null","","","","learningBlock1","","","","<div style=""font-size:60px;""> </div>","null","FL","learning/Slide72.JPG","That was a bim.","",""
"","image-keyboard-response","223","377119","0.0-6.0-0.72","FL","9kjfelsstb","1440","960","en","er09ch20","null","","","","","","","","learning/Slide73.JPG","null","","","","",""
"","html-keyboard-response","224","378279","0.0-6.0-1.72","FL","9kjfelsstb","1440","960","en","er09ch20","null","","","","learningBlock1","","","","That was a wug.","null","","","","",""
"","html-keyboard-response","225","379299","0.0-6.0-2.72","FL","9kjfelsstb","1440","960","en","er09ch20","null","","","","learningBlock1","","","","<div style=""font-size:60px;""> </div>","null","FL","learning/Slide73.JPG","That was a wug.","",""
"","image-keyboard-response","226","379479","0.0-6.0-0.73","FL","9kjfelsstb","1440","960","en","er09ch20","null","","","","","","","","learning/Slide74.JPG","null","","","","",""
"","html-keyboard-response","227","380659","0.0-6.0-1.73","FL","9kjfelsstb","1440","960","en","er09ch20","null","","","","learningBlock1","","","","That was a dep.","null","","","","",""
"","html-keyboard-response","228","381678","0.0-6.0-2.73","FL","9kjfelsstb","1440","960","en","er09ch20","null","","","","learningBlock1","","","","<div style=""font-size:60px;""> </div>","null","FL","learning/Slide74.JPG","That was a dep.","",""
"","image-keyboard-response","229","381879","0.0-6.0-0.74","FL","9kjfelsstb","1440","960","en","er09ch20","null","","","","","","","","learning/Slide75.JPG","null","","","","",""
"","html-keyboard-response","230","383050","0.0-6.0-1.74","FL","9kjfelsstb","1440","960","en","er09ch20","null","","","","learningBlock1","","","","That was a tob.","null","","","","",""
"","html-keyboard-response","231","384069","0.0-6.0-2.74","FL","9kjfelsstb","1440","960","en","er09ch20","null","","","","learningBlock1","","","","<div style=""font-size:60px;""> </div>","null","FL","learning/Slide75.JPG","That was a tob.","",""
"","image-keyboard-response","232","384248","0.0-6.0-0.75","FL","9kjfelsstb","1440","960","en","er09ch20","null","","","","","","","","learning/Slide76.JPG","null","","","","",""
"","html-keyboard-response","233","385439","0.0-6.0-1.75","FL","9kjfelsstb","1440","960","en","er09ch20","null","","","","learningBlock1","","","","That was a bim.","null","","","","",""
"","html-keyboard-response","234","386460","0.0-6.0-2.75","FL","9kjfelsstb","1440","960","en","er09ch20","null","","","","learningBlock1","","","","<div style=""font-size:60px;""> </div>","null","FL","learning/Slide76.JPG","That was a bim.","",""
"","image-keyboard-response","235","386641","0.0-6.0-0.76","FL","9kjfelsstb","1440","960","en","er09ch20","null","","","","","","","","learning/Slide77.JPG","null","","","","",""
"","html-keyboard-response","236","387819","0.0-6.0-1.76","FL","9kjfelsstb","1440","960","en","er09ch20","null","","","","learningBlock1","","","","That was a tob.","null","","","","",""
"","html-keyboard-response","237","388839","0.0-6.0-2.76","FL","9kjfelsstb","1440","960","en","er09ch20","null","","","","learningBlock1","","","","<div style=""font-size:60px;""> </div>","null","FL","learning/Slide77.JPG","That was a tob.","",""
"","image-keyboard-response","238","389039","0.0-6.0-0.77","FL","9kjfelsstb","1440","960","en","er09ch20","null","","","","","","","","learning/Slide78.JPG","null","","","","",""
"","html-keyboard-response","239","390219","0.0-6.0-1.77","FL","9kjfelsstb","1440","960","en","er09ch20","null","","","","learningBlock1","","","","That was a wug.","null","","","","",""
"","html-keyboard-response","240","391229","0.0-6.0-2.77","FL","9kjfelsstb","1440","960","en","er09ch20","null","","","","learningBlock1","","","","<div style=""font-size:60px;""> </div>","null","FL","learning/Slide78.JPG","That was a wug.","",""
"","image-keyboard-response","241","391408","0.0-6.0-0.78","FL","9kjfelsstb","1440","960","en","er09ch20","null","","","","","","","","learning/Slide79.JPG","null","","","","",""
"","html-keyboard-response","242","392588","0.0-6.0-1.78","FL","9kjfelsstb","1440","960","en","er09ch20","null","","","","learningBlock1","","","","That was a bim.","null","","","","",""
"","html-keyboard-response","243","393608","0.0-6.0-2.78","FL","9kjfelsstb","1440","960","en","er09ch20","null","","","","learningBlock1","","","","<div style=""font-size:60px;""> </div>","null","FL","learning/Slide79.JPG","That was a bim.","",""
"","image-keyboard-response","244","393789","0.0-6.0-0.79","FL","9kjfelsstb","1440","960","en","er09ch20","null","","","","","","","","learning/Slide80.JPG","null","","","","",""
"","html-keyboard-response","245","394969","0.0-6.0-1.79","FL","9kjfelsstb","1440","960","en","er09ch20","null","","","","learningBlock1","","","","That was a tob.","null","","","","",""
"","html-keyboard-response","246","395989","0.0-6.0-2.79","FL","9kjfelsstb","1440","960","en","er09ch20","null","","","","learningBlock1","","","","<div style=""font-size:60px;""> </div>","null","FL","learning/Slide80.JPG","That was a tob.","",""
"","instructions","247","421424","0.0-7.0","FL","9kjfelsstb","1440","960","en","er09ch20","NA","","","[{""page_index"":0,""viewing_time"":25434}]","instructions","","","","","","","","","",""
"","image-keyboard-response","248","421608","0.0-8.0-0.0","FL","9kjfelsstb","1440","960","en","er09ch20","null","","","","","","","","learning/Slide81.JPG","null","","","","",""
"","html-keyboard-response","249","422778","0.0-8.0-1.0","FL","9kjfelsstb","1440","960","en","er09ch20","null","","","","learningBlock2","","","","That was a wug.","null","","","","",""
"","html-keyboard-response","250","423799","0.0-8.0-2.0","FL","9kjfelsstb","1440","960","en","er09ch20","null","","","","learningBlock2","","","","<div style=""font-size:60px;""> </div>","null","FL","learning/Slide81.JPG","That was a wug.","",""
"","image-keyboard-response","251","423979","0.0-8.0-0.1","FL","9kjfelsstb","1440","960","en","er09ch20","null","","","","","","","","learning/Slide82.JPG","null","","","","",""
"","html-keyboard-response","252","425159","0.0-8.0-1.1","FL","9kjfelsstb","1440","960","en","er09ch20","null","","","","learningBlock2","","","","That was a bim.","null","","","","",""
"","html-keyboard-response","253","426179","0.0-8.0-2.1","FL","9kjfelsstb","1440","960","en","er09ch20","null","","","","learningBlock2","","","","<div style=""font-size:60px;""> </div>","null","FL","learning/Slide82.JPG","That was a bim.","",""
"","image-keyboard-response","254","426359","0.0-8.0-0.2","FL","9kjfelsstb","1440","960","en","er09ch20","null","","","","","","","","learning/Slide83.JPG","null","","","","",""
"","html-keyboard-response","255","427529","0.0-8.0-1.2","FL","9kjfelsstb","1440","960","en","er09ch20","null","","","","learningBlock2","","","","That was a wug.","null","","","","",""
"","html-keyboard-response","256","428548","0.0-8.0-2.2","FL","9kjfelsstb","1440","960","en","er09ch20","null","","","","learningBlock2","","","","<div style=""font-size:60px;""> </div>","null","FL","learning/Slide83.JPG","That was a wug.","",""
"","image-keyboard-response","257","428729","0.0-8.0-0.3","FL","9kjfelsstb","1440","960","en","er09ch20","null","","","","","","","","learning/Slide84.JPG","null","","","","",""
"","html-keyboard-response","258","429908","0.0-8.0-1.3","FL","9kjfelsstb","1440","960","en","er09ch20","null","","","","learningBlock2","","","","That was a dep.","null","","","","",""
"","html-keyboard-response","259","430929","0.0-8.0-2.3","FL","9kjfelsstb","1440","960","en","er09ch20","null","","","","learningBlock2","","","","<div style=""font-size:60px;""> </div>","null","FL","learning/Slide84.JPG","That was a dep.","",""
"","image-keyboard-response","260","431120","0.0-8.0-0.4","FL","9kjfelsstb","1440","960","en","er09ch20","null","","","","","","","","learning/Slide85.JPG","null","","","","",""
"","html-keyboard-response","261","432299","0.0-8.0-1.4","FL","9kjfelsstb","1440","960","en","er09ch20","null","","","","learningBlock2","","","","That was a bim.","null","","","","",""
"","html-keyboard-response","262","433309","0.0-8.0-2.4","FL","9kjfelsstb","1440","960","en","er09ch20","null","","","","learningBlock2","","","","<div style=""font-size:60px;""> </div>","null","FL","learning/Slide85.JPG","That was a bim.","",""
"","image-keyboard-response","263","433488","0.0-8.0-0.5","FL","9kjfelsstb","1440","960","en","er09ch20","null","","","","","","","","learning/Slide86.JPG","null","","","","",""
"","html-keyboard-response","264","434670","0.0-8.0-1.5","FL","9kjfelsstb","1440","960","en","er09ch20","null","","","","learningBlock2","","","","That was a tob.","null","","","","",""
"","html-keyboard-response","265","435689","0.0-8.0-2.5","FL","9kjfelsstb","1440","960","en","er09ch20","null","","","","learningBlock2","","","","<div style=""font-size:60px;""> </div>","null","FL","learning/Slide86.JPG","That was a tob.","",""
"","image-keyboard-response","266","435869","0.0-8.0-0.6","FL","9kjfelsstb","1440","960","en","er09ch20","null","","","","","","","","learning/Slide87.JPG","null","","","","",""
"","html-keyboard-response","267","437039","0.0-8.0-1.6","FL","9kjfelsstb","1440","960","en","er09ch20","null","","","","learningBlock2","","","","That was a wug.","null","","","","",""
"","html-keyboard-response","268","438059","0.0-8.0-2.6","FL","9kjfelsstb","1440","960","en","er09ch20","null","","","","learningBlock2","","","","<div style=""font-size:60px;""> </div>","null","FL","learning/Slide87.JPG","That was a wug.","",""
"","image-keyboard-response","269","438238","0.0-8.0-0.7","FL","9kjfelsstb","1440","960","en","er09ch20","null","","","","","","","","learning/Slide88.JPG","null","","","","",""
"","html-keyboard-response","270","439418","0.0-8.0-1.7","FL","9kjfelsstb","1440","960","en","er09ch20","null","","","","learningBlock2","","","","That was a tob.","null","","","","",""
"","html-keyboard-response","271","440428","0.0-8.0-2.7","FL","9kjfelsstb","1440","960","en","er09ch20","null","","","","learningBlock2","","","","<div style=""font-size:60px;""> </div>","null","FL","learning/Slide88.JPG","That was a tob.","",""
"","image-keyboard-response","272","440608","0.0-8.0-0.8","FL","9kjfelsstb","1440","960","en","er09ch20","null","","","","","","","","learning/Slide89.JPG","null","","","","",""
"","html-keyboard-response","273","441789","0.0-8.0-1.8","FL","9kjfelsstb","1440","960","en","er09ch20","null","","","","learningBlock2","","","","That was a bim.","null","","","","",""
"","html-keyboard-response","274","442809","0.0-8.0-2.8","FL","9kjfelsstb","1440","960","en","er09ch20","null","","","","learningBlock2","","","","<div style=""font-size:60px;""> </div>","null","FL","learning/Slide89.JPG","That was a bim.","",""
"","image-keyboard-response","275","442989","0.0-8.0-0.9","FL","9kjfelsstb","1440","960","en","er09ch20","null","","","","","","","","learning/Slide90.JPG","null","","","","",""
"","html-keyboard-response","276","444169","0.0-8.0-1.9","FL","9kjfelsstb","1440","960","en","er09ch20","null","","","","learningBlock2","","","","That was a dep.","null","","","","",""
"","html-keyboard-response","277","445189","0.0-8.0-2.9","FL","9kjfelsstb","1440","960","en","er09ch20","null","","","","learningBlock2","","","","<div style=""font-size:60px;""> </div>","null","FL","learning/Slide90.JPG","That was a dep.","",""
"","image-keyboard-response","278","445369","0.0-8.0-0.10","FL","9kjfelsstb","1440","960","en","er09ch20","null","","","","","","","","learning/Slide91.JPG","null","","","","",""
"","html-keyboard-response","279","446548","0.0-8.0-1.10","FL","9kjfelsstb","1440","960","en","er09ch20","null","","","","learningBlock2","","","","That was a wug.","null","","","","",""
"","html-keyboard-response","280","447568","0.0-8.0-2.10","FL","9kjfelsstb","1440","960","en","er09ch20","null","","","","learningBlock2","","","","<div style=""font-size:60px;""> </div>","null","FL","learning/Slide91.JPG","That was a wug.","",""
"","image-keyboard-response","281","447747","0.0-8.0-0.11","FL","9kjfelsstb","1440","960","en","er09ch20","null","","","","","","","","learning/Slide92.JPG","null","","","","",""
"","html-keyboard-response","282","448928","0.0-8.0-1.11","FL","9kjfelsstb","1440","960","en","er09ch20","null","","","","learningBlock2","","","","That was a tob.","null","","","","",""
"","html-keyboard-response","283","449939","0.0-8.0-2.11","FL","9kjfelsstb","1440","960","en","er09ch20","null","","","","learningBlock2","","","","<div style=""font-size:60px;""> </div>","null","FL","learning/Slide92.JPG","That was a tob.","",""
"","image-keyboard-response","284","450119","0.0-8.0-0.12","FL","9kjfelsstb","1440","960","en","er09ch20","null","","","","","","","","learning/Slide93.JPG","null","","","","",""
"","html-keyboard-response","285","451300","0.0-8.0-1.12","FL","9kjfelsstb","1440","960","en","er09ch20","null","","","","learningBlock2","","","","That was a bim.","null","","","","",""
"","html-keyboard-response","286","452320","0.0-8.0-2.12","FL","9kjfelsstb","1440","960","en","er09ch20","null","","","","learningBlock2","","","","<div style=""font-size:60px;""> </div>","null","FL","learning/Slide93.JPG","That was a bim.","",""
"","image-keyboard-response","287","452499","0.0-8.0-0.13","FL","9kjfelsstb","1440","960","en","er09ch20","null","","","","","","","","learning/Slide94.JPG","null","","","","",""
"","html-keyboard-response","288","453679","0.0-8.0-1.13","FL","9kjfelsstb","1440","960","en","er09ch20","null","","","","learningBlock2","","","","That was a tob.","null","","","","",""
"","html-keyboard-response","289","454699","0.0-8.0-2.13","FL","9kjfelsstb","1440","960","en","er09ch20","null","","","","learningBlock2","","","","<div style=""font-size:60px;""> </div>","null","FL","learning/Slide94.JPG","That was a tob.","",""
"","image-keyboard-response","290","454878","0.0-8.0-0.14","FL","9kjfelsstb","1440","960","en","er09ch20","null","","","","","","","","learning/Slide95.JPG","null","","","","",""
"","html-keyboard-response","291","456058","0.0-8.0-1.14","FL","9kjfelsstb","1440","960","en","er09ch20","null","","","","learningBlock2","","","","That was a wug.","null","","","","",""
"","html-keyboard-response","292","457079","0.0-8.0-2.14","FL","9kjfelsstb","1440","960","en","er09ch20","null","","","","learningBlock2","","","","<div style=""font-size:60px;""> </div>","null","FL","learning/Slide95.JPG","That was a wug.","",""
"","image-keyboard-response","293","457259","0.0-8.0-0.15","FL","9kjfelsstb","1440","960","en","er09ch20","null","","","","","","","","learning/Slide96.JPG","null","","","","",""
"","html-keyboard-response","294","458438","0.0-8.0-1.15","FL","9kjfelsstb","1440","960","en","er09ch20","null","","","","learningBlock2","","","","That was a tob.","null","","","","",""
"","html-keyboard-response","295","459458","0.0-8.0-2.15","FL","9kjfelsstb","1440","960","en","er09ch20","null","","","","learningBlock2","","","","<div style=""font-size:60px;""> </div>","null","FL","learning/Slide96.JPG","That was a tob.","",""
"","image-keyboard-response","296","459639","0.0-8.0-0.16","FL","9kjfelsstb","1440","960","en","er09ch20","null","","","","","","","","learning/Slide97.JPG","null","","","","",""
"","html-keyboard-response","297","460819","0.0-8.0-1.16","FL","9kjfelsstb","1440","960","en","er09ch20","null","","","","learningBlock2","","","","That was a dep.","null","","","","",""
"","html-keyboard-response","298","461829","0.0-8.0-2.16","FL","9kjfelsstb","1440","960","en","er09ch20","null","","","","learningBlock2","","","","<div style=""font-size:60px;""> </div>","null","FL","learning/Slide97.JPG","That was a dep.","",""
"","image-keyboard-response","299","462008","0.0-8.0-0.17","FL","9kjfelsstb","1440","960","en","er09ch20","null","","","","","","","","learning/Slide98.JPG","null","","","","",""
"","html-keyboard-response","300","463179","0.0-8.0-1.17","FL","9kjfelsstb","1440","960","en","er09ch20","null","","","","learningBlock2","","","","That was a bim.","null","","","","",""
"","html-keyboard-response","301","464189","0.0-8.0-2.17","FL","9kjfelsstb","1440","960","en","er09ch20","null","","","","learningBlock2","","","","<div style=""font-size:60px;""> </div>","null","FL","learning/Slide98.JPG","That was a bim.","",""
"","image-keyboard-response","302","464369","0.0-8.0-0.18","FL","9kjfelsstb","1440","960","en","er09ch20","null","","","","","","","","learning/Slide99.JPG","null","","","","",""
"","html-keyboard-response","303","465540","0.0-8.0-1.18","FL","9kjfelsstb","1440","960","en","er09ch20","null","","","","learningBlock2","","","","That was a dep.","null","","","","",""
"","html-keyboard-response","304","466558","0.0-8.0-2.18","FL","9kjfelsstb","1440","960","en","er09ch20","null","","","","learningBlock2","","","","<div style=""font-size:60px;""> </div>","null","FL","learning/Slide99.JPG","That was a dep.","",""
"","image-keyboard-response","305","466738","0.0-8.0-0.19","FL","9kjfelsstb","1440","960","en","er09ch20","null","","","","","","","","learning/Slide100.JPG","null","","","","",""
"","html-keyboard-response","306","467899","0.0-8.0-1.19","FL","9kjfelsstb","1440","960","en","er09ch20","null","","","","learningBlock2","","","","That was a bim.","null","","","","",""
"","html-keyboard-response","307","468919","0.0-8.0-2.19","FL","9kjfelsstb","1440","960","en","er09ch20","null","","","","learningBlock2","","","","<div style=""font-size:60px;""> </div>","null","FL","learning/Slide100.JPG","That was a bim.","",""
"","image-keyboard-response","308","469100","0.0-8.0-0.20","FL","9kjfelsstb","1440","960","en","er09ch20","null","","","","","","","","learning/Slide101.JPG","null","","","","",""
"","html-keyboard-response","309","470268","0.0-8.0-1.20","FL","9kjfelsstb","1440","960","en","er09ch20","null","","","","learningBlock2","","","","That was a tob.","null","","","","",""
"","html-keyboard-response","310","471288","0.0-8.0-2.20","FL","9kjfelsstb","1440","960","en","er09ch20","null","","","","learningBlock2","","","","<div style=""font-size:60px;""> </div>","null","FL","learning/Slide101.JPG","That was a tob.","",""
"","image-keyboard-response","311","471470","0.0-8.0-0.21","FL","9kjfelsstb","1440","960","en","er09ch20","null","","","","","","","","learning/Slide102.JPG","null","","","","",""
"","html-keyboard-response","312","472639","0.0-8.0-1.21","FL","9kjfelsstb","1440","960","en","er09ch20","null","","","","learningBlock2","","","","That was a bim.","null","","","","",""
"","html-keyboard-response","313","473648","0.0-8.0-2.21","FL","9kjfelsstb","1440","960","en","er09ch20","null","","","","learningBlock2","","","","<div style=""font-size:60px;""> </div>","null","FL","learning/Slide102.JPG","That was a bim.","",""
"","image-keyboard-response","314","473830","0.0-8.0-0.22","FL","9kjfelsstb","1440","960","en","er09ch20","null","","","","","","","","learning/Slide103.JPG","null","","","","",""
"","html-keyboard-response","315","475008","0.0-8.0-1.22","FL","9kjfelsstb","1440","960","en","er09ch20","null","","","","learningBlock2","","","","That was a dep.","null","","","","",""
"","html-keyboard-response","316","476029","0.0-8.0-2.22","FL","9kjfelsstb","1440","960","en","er09ch20","null","","","","learningBlock2","","","","<div style=""font-size:60px;""> </div>","null","FL","learning/Slide103.JPG","That was a dep.","",""
"","image-keyboard-response","317","476209","0.0-8.0-0.23","FL","9kjfelsstb","1440","960","en","er09ch20","null","","","","","","","","learning/Slide104.JPG","null","","","","",""
"","html-keyboard-response","318","477388","0.0-8.0-1.23","FL","9kjfelsstb","1440","960","en","er09ch20","null","","","","learningBlock2","","","","That was a tob.","null","","","","",""
"","html-keyboard-response","319","478409","0.0-8.0-2.23","FL","9kjfelsstb","1440","960","en","er09ch20","null","","","","learningBlock2","","","","<div style=""font-size:60px;""> </div>","null","FL","learning/Slide104.JPG","That was a tob.","",""
"","image-keyboard-response","320","478588","0.0-8.0-0.24","FL","9kjfelsstb","1440","960","en","er09ch20","null","","","","","","","","learning/Slide105.JPG","null","","","","",""
"","html-keyboard-response","321","479768","0.0-8.0-1.24","FL","9kjfelsstb","1440","960","en","er09ch20","null","","","","learningBlock2","","","","That was a dep.","null","","","","",""
"","html-keyboard-response","322","480788","0.0-8.0-2.24","FL","9kjfelsstb","1440","960","en","er09ch20","null","","","","learningBlock2","","","","<div style=""font-size:60px;""> </div>","null","FL","learning/Slide105.JPG","That was a dep.","",""
"","image-keyboard-response","323","480969","0.0-8.0-0.25","FL","9kjfelsstb","1440","960","en","er09ch20","null","","","","","","","","learning/Slide106.JPG","null","","","","",""
"","html-keyboard-response","324","482148","0.0-8.0-1.25","FL","9kjfelsstb","1440","960","en","er09ch20","null","","","","learningBlock2","","","","That was a wug.","null","","","","",""
"","html-keyboard-response","325","483169","0.0-8.0-2.25","FL","9kjfelsstb","1440","960","en","er09ch20","null","","","","learningBlock2","","","","<div style=""font-size:60px;""> </div>","null","FL","learning/Slide106.JPG","That was a wug.","",""
"","image-keyboard-response","326","483349","0.0-8.0-0.26","FL","9kjfelsstb","1440","960","en","er09ch20","null","","","","","","","","learning/Slide107.JPG","null","","","","",""
"","html-keyboard-response","327","484516","0.0-8.0-1.26","FL","9kjfelsstb","1440","960","en","er09ch20","null","","","","learningBlock2","","","","That was a bim.","null","","","","",""
"","html-keyboard-response","328","485518","0.0-8.0-2.26","FL","9kjfelsstb","1440","960","en","er09ch20","null","","","","learningBlock2","","","","<div style=""font-size:60px;""> </div>","null","FL","learning/Slide107.JPG","That was a bim.","",""
"","image-keyboard-response","329","485698","0.0-8.0-0.27","FL","9kjfelsstb","1440","960","en","er09ch20","null","","","","","","","","learning/Slide108.JPG","null","","","","",""
"","html-keyboard-response","330","486869","0.0-8.0-1.27","FL","9kjfelsstb","1440","960","en","er09ch20","null","","","","learningBlock2","","","","That was a dep.","null","","","","",""
"","html-keyboard-response","331","487889","0.0-8.0-2.27","FL","9kjfelsstb","1440","960","en","er09ch20","null","","","","learningBlock2","","","","<div style=""font-size:60px;""> </div>","null","FL","learning/Slide108.JPG","That was a dep.","",""
"","image-keyboard-response","332","488069","0.0-8.0-0.28","FL","9kjfelsstb","1440","960","en","er09ch20","null","","","","","","","","learning/Slide109.JPG","null","","","","",""
"","html-keyboard-response","333","489240","0.0-8.0-1.28","FL","9kjfelsstb","1440","960","en","er09ch20","null","","","","learningBlock2","","","","That was a wug.","null","","","","",""
"","html-keyboard-response","334","490258","0.0-8.0-2.28","FL","9kjfelsstb","1440","960","en","er09ch20","null","","","","learningBlock2","","","","<div style=""font-size:60px;""> </div>","null","FL","learning/Slide109.JPG","That was a wug.","",""
"","image-keyboard-response","335","490439","0.0-8.0-0.29","FL","9kjfelsstb","1440","960","en","er09ch20","null","","","","","","","","learning/Slide110.JPG","null","","","","",""
"","html-keyboard-response","336","491618","0.0-8.0-1.29","FL","9kjfelsstb","1440","960","en","er09ch20","null","","","","learningBlock2","","","","That was a bim.","null","","","","",""
"","html-keyboard-response","337","492638","0.0-8.0-2.29","FL","9kjfelsstb","1440","960","en","er09ch20","null","","","","learningBlock2","","","","<div style=""font-size:60px;""> </div>","null","FL","learning/Slide110.JPG","That was a bim.","",""
"","image-keyboard-response","338","492819","0.0-8.0-0.30","FL","9kjfelsstb","1440","960","en","er09ch20","null","","","","","","","","learning/Slide111.JPG","null","","","","",""
"","html-keyboard-response","339","493998","0.0-8.0-1.30","FL","9kjfelsstb","1440","960","en","er09ch20","null","","","","learningBlock2","","","","That was a tob.","null","","","","",""
"","html-keyboard-response","340","495008","0.0-8.0-2.30","FL","9kjfelsstb","1440","960","en","er09ch20","null","","","","learningBlock2","","","","<div style=""font-size:60px;""> </div>","null","FL","learning/Slide111.JPG","That was a tob.","",""
"","image-keyboard-response","341","495189","0.0-8.0-0.31","FL","9kjfelsstb","1440","960","en","er09ch20","null","","","","","","","","learning/Slide112.JPG","null","","","","",""
"","html-keyboard-response","342","496369","0.0-8.0-1.31","FL","9kjfelsstb","1440","960","en","er09ch20","null","","","","learningBlock2","","","","That was a wug.","null","","","","",""
"","html-keyboard-response","343","497388","0.0-8.0-2.31","FL","9kjfelsstb","1440","960","en","er09ch20","null","","","","learningBlock2","","","","<div style=""font-size:60px;""> </div>","null","FL","learning/Slide112.JPG","That was a wug.","",""
"","image-keyboard-response","344","497569","0.0-8.0-0.32","FL","9kjfelsstb","1440","960","en","er09ch20","null","","","","","","","","learning/Slide113.JPG","null","","","","",""
"","html-keyboard-response","345","498749","0.0-8.0-1.32","FL","9kjfelsstb","1440","960","en","er09ch20","null","","","","learningBlock2","","","","That was a tob.","null","","","","",""
"","html-keyboard-response","346","499758","0.0-8.0-2.32","FL","9kjfelsstb","1440","960","en","er09ch20","null","","","","learningBlock2","","","","<div style=""font-size:60px;""> </div>","null","FL","learning/Slide113.JPG","That was a tob.","",""
"","image-keyboard-response","347","499939","0.0-8.0-0.33","FL","9kjfelsstb","1440","960","en","er09ch20","null","","","","","","","","learning/Slide114.JPG","null","","","","",""
"","html-keyboard-response","348","501119","0.0-8.0-1.33","FL","9kjfelsstb","1440","960","en","er09ch20","null","","","","learningBlock2","","","","That was a wug.","null","","","","",""
"","html-keyboard-response","349","502128","0.0-8.0-2.33","FL","9kjfelsstb","1440","960","en","er09ch20","null","","","","learningBlock2","","","","<div style=""font-size:60px;""> </div>","null","FL","learning/Slide114.JPG","That was a wug.","",""
"","image-keyboard-response","350","502308","0.0-8.0-0.34","FL","9kjfelsstb","1440","960","en","er09ch20","null","","","","","","","","learning/Slide115.JPG","null","","","","",""
"","html-keyboard-response","351","503479","0.0-8.0-1.34","FL","9kjfelsstb","1440","960","en","er09ch20","null","","","","learningBlock2","","","","That was a bim.","null","","","","",""
"","html-keyboard-response","352","504489","0.0-8.0-2.34","FL","9kjfelsstb","1440","960","en","er09ch20","null","","","","learningBlock2","","","","<div style=""font-size:60px;""> </div>","null","FL","learning/Slide115.JPG","That was a bim.","",""
"","image-keyboard-response","353","504669","0.0-8.0-0.35","FL","9kjfelsstb","1440","960","en","er09ch20","null","","","","","","","","learning/Slide116.JPG","null","","","","",""
"","html-keyboard-response","354","505849","0.0-8.0-1.35","FL","9kjfelsstb","1440","960","en","er09ch20","null","","","","learningBlock2","","","","That was a dep.","null","","","","",""
"","html-keyboard-response","355","506869","0.0-8.0-2.35","FL","9kjfelsstb","1440","960","en","er09ch20","null","","","","learningBlock2","","","","<div style=""font-size:60px;""> </div>","null","FL","learning/Slide116.JPG","That was a dep.","",""
"","image-keyboard-response","356","507049","0.0-8.0-0.36","FL","9kjfelsstb","1440","960","en","er09ch20","null","","","","","","","","learning/Slide117.JPG","null","","","","",""
"","html-keyboard-response","357","508218","0.0-8.0-1.36","FL","9kjfelsstb","1440","960","en","er09ch20","null","","","","learningBlock2","","","","That was a tob.","null","","","","",""
"","html-keyboard-response","358","509239","0.0-8.0-2.36","FL","9kjfelsstb","1440","960","en","er09ch20","null","","","","learningBlock2","","","","<div style=""font-size:60px;""> </div>","null","FL","learning/Slide117.JPG","That was a tob.","",""
"","image-keyboard-response","359","509419","0.0-8.0-0.37","FL","9kjfelsstb","1440","960","en","er09ch20","null","","","","","","","","learning/Slide118.JPG","null","","","","",""
"","html-keyboard-response","360","510598","0.0-8.0-1.37","FL","9kjfelsstb","1440","960","en","er09ch20","null","","","","learningBlock2","","","","That was a dep.","null","","","","",""
"","html-keyboard-response","361","511619","0.0-8.0-2.37","FL","9kjfelsstb","1440","960","en","er09ch20","null","","","","learningBlock2","","","","<div style=""font-size:60px;""> </div>","null","FL","learning/Slide118.JPG","That was a dep.","",""
"","image-keyboard-response","362","511799","0.0-8.0-0.38","FL","9kjfelsstb","1440","960","en","er09ch20","null","","","","","","","","learning/Slide119.JPG","null","","","","",""
"","html-keyboard-response","363","512969","0.0-8.0-1.38","FL","9kjfelsstb","1440","960","en","er09ch20","null","","","","learningBlock2","","","","That was a wug.","null","","","","",""
"","html-keyboard-response","364","513989","0.0-8.0-2.38","FL","9kjfelsstb","1440","960","en","er09ch20","null","","","","learningBlock2","","","","<div style=""font-size:60px;""> </div>","null","FL","learning/Slide119.JPG","That was a wug.","",""
"","image-keyboard-response","365","514169","0.0-8.0-0.39","FL","9kjfelsstb","1440","960","en","er09ch20","null","","","","","","","","learning/Slide120.JPG","null","","","","",""
"","html-keyboard-response","366","515348","0.0-8.0-1.39","FL","9kjfelsstb","1440","960","en","er09ch20","null","","","","learningBlock2","","","","That was a dep.","null","","","","",""
"","html-keyboard-response","367","516359","0.0-8.0-2.39","FL","9kjfelsstb","1440","960","en","er09ch20","null","","","","learningBlock2","","","","<div style=""font-size:60px;""> </div>","null","FL","learning/Slide120.JPG","That was a dep.","",""
"","image-keyboard-response","368","516539","0.0-8.0-0.40","FL","9kjfelsstb","1440","960","en","er09ch20","null","","","","","","","","learning/Slide121.JPG","null","","","","",""
"","html-keyboard-response","369","517709","0.0-8.0-1.40","FL","9kjfelsstb","1440","960","en","er09ch20","null","","","","learningBlock2","","","","That was a bim.","null","","","","",""
"","html-keyboard-response","370","518729","0.0-8.0-2.40","FL","9kjfelsstb","1440","960","en","er09ch20","null","","","","learningBlock2","","","","<div style=""font-size:60px;""> </div>","null","FL","learning/Slide121.JPG","That was a bim.","",""
"","image-keyboard-response","371","518907","0.0-8.0-0.41","FL","9kjfelsstb","1440","960","en","er09ch20","null","","","","","","","","learning/Slide122.JPG","null","","","","",""
"","html-keyboard-response","372","520089","0.0-8.0-1.41","FL","9kjfelsstb","1440","960","en","er09ch20","null","","","","learningBlock2","","","","That was a wug.","null","","","","",""
"","html-keyboard-response","373","521109","0.0-8.0-2.41","FL","9kjfelsstb","1440","960","en","er09ch20","null","","","","learningBlock2","","","","<div style=""font-size:60px;""> </div>","null","FL","learning/Slide122.JPG","That was a wug.","",""
"","image-keyboard-response","374","521289","0.0-8.0-0.42","FL","9kjfelsstb","1440","960","en","er09ch20","null","","","","","","","","learning/Slide123.JPG","null","","","","",""
"","html-keyboard-response","375","522450","0.0-8.0-1.42","FL","9kjfelsstb","1440","960","en","er09ch20","null","","","","learningBlock2","","","","That was a bim.","null","","","","",""
"","html-keyboard-response","376","523469","0.0-8.0-2.42","FL","9kjfelsstb","1440","960","en","er09ch20","null","","","","learningBlock2","","","","<div style=""font-size:60px;""> </div>","null","FL","learning/Slide123.JPG","That was a bim.","",""
"","image-keyboard-response","377","523648","0.0-8.0-0.43","FL","9kjfelsstb","1440","960","en","er09ch20","null","","","","","","","","learning/Slide124.JPG","null","","","","",""
"","html-keyboard-response","378","524818","0.0-8.0-1.43","FL","9kjfelsstb","1440","960","en","er09ch20","null","","","","learningBlock2","","","","That was a tob.","null","","","","",""
"","html-keyboard-response","379","525830","0.0-8.0-2.43","FL","9kjfelsstb","1440","960","en","er09ch20","null","","","","learningBlock2","","","","<div style=""font-size:60px;""> </div>","null","FL","learning/Slide124.JPG","That was a tob.","",""
"","image-keyboard-response","380","526008","0.0-8.0-0.44","FL","9kjfelsstb","1440","960","en","er09ch20","null","","","","","","","","learning/Slide125.JPG","null","","","","",""
"","html-keyboard-response","381","527168","0.0-8.0-1.44","FL","9kjfelsstb","1440","960","en","er09ch20","null","","","","learningBlock2","","","","That was a bim.","null","","","","",""
"","html-keyboard-response","382","528190","0.0-8.0-2.44","FL","9kjfelsstb","1440","960","en","er09ch20","null","","","","learningBlock2","","","","<div style=""font-size:60px;""> </div>","null","FL","learning/Slide125.JPG","That was a bim.","",""
"","image-keyboard-response","383","528368","0.0-8.0-0.45","FL","9kjfelsstb","1440","960","en","er09ch20","null","","","","","","","","learning/Slide126.JPG","null","","","","",""
"","html-keyboard-response","384","529548","0.0-8.0-1.45","FL","9kjfelsstb","1440","960","en","er09ch20","null","","","","learningBlock2","","","","That was a tob.","null","","","","",""
"","html-keyboard-response","385","530559","0.0-8.0-2.45","FL","9kjfelsstb","1440","960","en","er09ch20","null","","","","learningBlock2","","","","<div style=""font-size:60px;""> </div>","null","FL","learning/Slide126.JPG","That was a tob.","",""
"","image-keyboard-response","386","530738","0.0-8.0-0.46","FL","9kjfelsstb","1440","960","en","er09ch20","null","","","","","","","","learning/Slide127.JPG","null","","","","",""
"","html-keyboard-response","387","531919","0.0-8.0-1.46","FL","9kjfelsstb","1440","960","en","er09ch20","null","","","","learningBlock2","","","","That was a dep.","null","","","","",""
"","html-keyboard-response","388","532939","0.0-8.0-2.46","FL","9kjfelsstb","1440","960","en","er09ch20","null","","","","learningBlock2","","","","<div style=""font-size:60px;""> </div>","null","FL","learning/Slide127.JPG","That was a dep.","",""
"","image-keyboard-response","389","533120","0.0-8.0-0.47","FL","9kjfelsstb","1440","960","en","er09ch20","null","","","","","","","","learning/Slide128.JPG","null","","","","",""
"","html-keyboard-response","390","534298","0.0-8.0-1.47","FL","9kjfelsstb","1440","960","en","er09ch20","null","","","","learningBlock2","","","","That was a wug.","null","","","","",""
"","html-keyboard-response","391","535320","0.0-8.0-2.47","FL","9kjfelsstb","1440","960","en","er09ch20","null","","","","learningBlock2","","","","<div style=""font-size:60px;""> </div>","null","FL","learning/Slide128.JPG","That was a wug.","",""
"","image-keyboard-response","392","535499","0.0-8.0-0.48","FL","9kjfelsstb","1440","960","en","er09ch20","null","","","","","","","","learning/Slide129.JPG","null","","","","",""
"","html-keyboard-response","393","536679","0.0-8.0-1.48","FL","9kjfelsstb","1440","960","en","er09ch20","null","","","","learningBlock2","","","","That was a tob.","null","","","","",""
"","html-keyboard-response","394","537699","0.0-8.0-2.48","FL","9kjfelsstb","1440","960","en","er09ch20","null","","","","learningBlock2","","","","<div style=""font-size:60px;""> </div>","null","FL","learning/Slide129.JPG","That was a tob.","",""
"","image-keyboard-response","395","537878","0.0-8.0-0.49","FL","9kjfelsstb","1440","960","en","er09ch20","null","","","","","","","","learning/Slide130.JPG","null","","","","",""
"","html-keyboard-response","396","539058","0.0-8.0-1.49","FL","9kjfelsstb","1440","960","en","er09ch20","null","","","","learningBlock2","","","","That was a wug.","null","","","","",""
"","html-keyboard-response","397","540078","0.0-8.0-2.49","FL","9kjfelsstb","1440","960","en","er09ch20","null","","","","learningBlock2","","","","<div style=""font-size:60px;""> </div>","null","FL","learning/Slide130.JPG","That was a wug.","",""
"","image-keyboard-response","398","540258","0.0-8.0-0.50","FL","9kjfelsstb","1440","960","en","er09ch20","null","","","","","","","","learning/Slide131.JPG","null","","","","",""
"","html-keyboard-response","399","541439","0.0-8.0-1.50","FL","9kjfelsstb","1440","960","en","er09ch20","null","","","","learningBlock2","","","","That was a bim.","null","","","","",""
"","html-keyboard-response","400","542448","0.0-8.0-2.50","FL","9kjfelsstb","1440","960","en","er09ch20","null","","","","learningBlock2","","","","<div style=""font-size:60px;""> </div>","null","FL","learning/Slide131.JPG","That was a bim.","",""
"","image-keyboard-response","401","542629","0.0-8.0-0.51","FL","9kjfelsstb","1440","960","en","er09ch20","null","","","","","","","","learning/Slide132.JPG","null","","","","",""
"","html-keyboard-response","402","543789","0.0-8.0-1.51","FL","9kjfelsstb","1440","960","en","er09ch20","null","","","","learningBlock2","","","","That was a dep.","null","","","","",""
"","html-keyboard-response","403","544809","0.0-8.0-2.51","FL","9kjfelsstb","1440","960","en","er09ch20","null","","","","learningBlock2","","","","<div style=""font-size:60px;""> </div>","null","FL","learning/Slide132.JPG","That was a dep.","",""
"","image-keyboard-response","404","544989","0.0-8.0-0.52","FL","9kjfelsstb","1440","960","en","er09ch20","null","","","","","","","","learning/Slide133.JPG","null","","","","",""
"","html-keyboard-response","405","546169","0.0-8.0-1.52","FL","9kjfelsstb","1440","960","en","er09ch20","null","","","","learningBlock2","","","","That was a tob.","null","","","","",""
"","html-keyboard-response","406","547189","0.0-8.0-2.52","FL","9kjfelsstb","1440","960","en","er09ch20","null","","","","learningBlock2","","","","<div style=""font-size:60px;""> </div>","null","FL","learning/Slide133.JPG","That was a tob.","",""
"","image-keyboard-response","407","547371","0.0-8.0-0.53","FL","9kjfelsstb","1440","960","en","er09ch20","null","","","","","","","","learning/Slide134.JPG","null","","","","",""
"","html-keyboard-response","408","548538","0.0-8.0-1.53","FL","9kjfelsstb","1440","960","en","er09ch20","null","","","","learningBlock2","","","","That was a dep.","null","","","","",""
"","html-keyboard-response","409","549559","0.0-8.0-2.53","FL","9kjfelsstb","1440","960","en","er09ch20","null","","","","learningBlock2","","","","<div style=""font-size:60px;""> </div>","null","FL","learning/Slide134.JPG","That was a dep.","",""
"","image-keyboard-response","410","549739","0.0-8.0-0.54","FL","9kjfelsstb","1440","960","en","er09ch20","null","","","","","","","","learning/Slide135.JPG","null","","","","",""
"","html-keyboard-response","411","550918","0.0-8.0-1.54","FL","9kjfelsstb","1440","960","en","er09ch20","null","","","","learningBlock2","","","","That was a tob.","null","","","","",""
"","html-keyboard-response","412","551938","0.0-8.0-2.54","FL","9kjfelsstb","1440","960","en","er09ch20","null","","","","learningBlock2","","","","<div style=""font-size:60px;""> </div>","null","FL","learning/Slide135.JPG","That was a tob.","",""
"","image-keyboard-response","413","552119","0.0-8.0-0.55","FL","9kjfelsstb","1440","960","en","er09ch20","null","","","","","","","","learning/Slide136.JPG","null","","","","",""
"","html-keyboard-response","414","553309","0.0-8.0-1.55","FL","9kjfelsstb","1440","960","en","er09ch20","null","","","","learningBlock2","","","","That was a wug.","null","","","","",""
"","html-keyboard-response","415","554330","0.0-8.0-2.55","FL","9kjfelsstb","1440","960","en","er09ch20","null","","","","learningBlock2","","","","<div style=""font-size:60px;""> </div>","null","FL","learning/Slide136.JPG","That was a wug.","",""
"","image-keyboard-response","416","554509","0.0-8.0-0.56","FL","9kjfelsstb","1440","960","en","er09ch20","null","","","","","","","","learning/Slide137.JPG","null","","","","",""
"","html-keyboard-response","417","555675","0.0-8.0-1.56","FL","9kjfelsstb","1440","960","en","er09ch20","null","","","","learningBlock2","","","","That was a tob.","null","","","","",""
"","html-keyboard-response","418","556679","0.0-8.0-2.56","FL","9kjfelsstb","1440","960","en","er09ch20","null","","","","learningBlock2","","","","<div style=""font-size:60px;""> </div>","null","FL","learning/Slide137.JPG","That was a tob.","",""
"","image-keyboard-response","419","556859","0.0-8.0-0.57","FL","9kjfelsstb","1440","960","en","er09ch20","null","","","","","","","","learning/Slide138.JPG","null","","","","",""
"","html-keyboard-response","420","558039","0.0-8.0-1.57","FL","9kjfelsstb","1440","960","en","er09ch20","null","","","","learningBlock2","","","","That was a bim.","null","","","","",""
"","html-keyboard-response","421","559058","0.0-8.0-2.57","FL","9kjfelsstb","1440","960","en","er09ch20","null","","","","learningBlock2","","","","<div style=""font-size:60px;""> </div>","null","FL","learning/Slide138.JPG","That was a bim.","",""
"","image-keyboard-response","422","559239","0.0-8.0-0.58","FL","9kjfelsstb","1440","960","en","er09ch20","null","","","","","","","","learning/Slide139.JPG","null","","","","",""
"","html-keyboard-response","423","560418","0.0-8.0-1.58","FL","9kjfelsstb","1440","960","en","er09ch20","null","","","","learningBlock2","","","","That was a wug.","null","","","","",""
"","html-keyboard-response","424","561438","0.0-8.0-2.58","FL","9kjfelsstb","1440","960","en","er09ch20","null","","","","learningBlock2","","","","<div style=""font-size:60px;""> </div>","null","FL","learning/Slide139.JPG","That was a wug.","",""
"","image-keyboard-response","425","561619","0.0-8.0-0.59","FL","9kjfelsstb","1440","960","en","er09ch20","null","","","","","","","","learning/Slide140.JPG","null","","","","",""
"","html-keyboard-response","426","562789","0.0-8.0-1.59","FL","9kjfelsstb","1440","960","en","er09ch20","null","","","","learningBlock2","","","","That was a dep.","null","","","","",""
"","html-keyboard-response","427","563798","0.0-8.0-2.59","FL","9kjfelsstb","1440","960","en","er09ch20","null","","","","learningBlock2","","","","<div style=""font-size:60px;""> </div>","null","FL","learning/Slide140.JPG","That was a dep.","",""
"","image-keyboard-response","428","563979","0.0-8.0-0.60","FL","9kjfelsstb","1440","960","en","er09ch20","null","","","","","","","","learning/Slide141.JPG","null","","","","",""
"","html-keyboard-response","429","565159","0.0-8.0-1.60","FL","9kjfelsstb","1440","960","en","er09ch20","null","","","","learningBlock2","","","","That was a tob.","null","","","","",""
"","html-keyboard-response","430","566169","0.0-8.0-2.60","FL","9kjfelsstb","1440","960","en","er09ch20","null","","","","learningBlock2","","","","<div style=""font-size:60px;""> </div>","null","FL","learning/Slide141.JPG","That was a tob.","",""
"","image-keyboard-response","431","566359","0.0-8.0-0.61","FL","9kjfelsstb","1440","960","en","er09ch20","null","","","","","","","","learning/Slide142.JPG","null","","","","",""
"","html-keyboard-response","432","567538","0.0-8.0-1.61","FL","9kjfelsstb","1440","960","en","er09ch20","null","","","","learningBlock2","","","","That was a wug.","null","","","","",""
"","html-keyboard-response","433","568559","0.0-8.0-2.61","FL","9kjfelsstb","1440","960","en","er09ch20","null","","","","learningBlock2","","","","<div style=""font-size:60px;""> </div>","null","FL","learning/Slide142.JPG","That was a wug.","",""
"","image-keyboard-response","434","568739","0.0-8.0-0.62","FL","9kjfelsstb","1440","960","en","er09ch20","null","","","","","","","","learning/Slide143.JPG","null","","","","",""
"","html-keyboard-response","435","569919","0.0-8.0-1.62","FL","9kjfelsstb","1440","960","en","er09ch20","null","","","","learningBlock2","","","","That was a bim.","null","","","","",""
"","html-keyboard-response","436","570940","0.0-8.0-2.62","FL","9kjfelsstb","1440","960","en","er09ch20","null","","","","learningBlock2","","","","<div style=""font-size:60px;""> </div>","null","FL","learning/Slide143.JPG","That was a bim.","",""
"","image-keyboard-response","437","571118","0.0-8.0-0.63","FL","9kjfelsstb","1440","960","en","er09ch20","null","","","","","","","","learning/Slide144.JPG","null","","","","",""
"","html-keyboard-response","438","572299","0.0-8.0-1.63","FL","9kjfelsstb","1440","960","en","er09ch20","null","","","","learningBlock2","","","","That was a dep.","null","","","","",""
"","html-keyboard-response","439","573319","0.0-8.0-2.63","FL","9kjfelsstb","1440","960","en","er09ch20","null","","","","learningBlock2","","","","<div style=""font-size:60px;""> </div>","null","FL","learning/Slide144.JPG","That was a dep.","",""
"","image-keyboard-response","440","573500","0.0-8.0-0.64","FL","9kjfelsstb","1440","960","en","er09ch20","null","","","","","","","","learning/Slide145.JPG","null","","","","",""
"","html-keyboard-response","441","574678","0.0-8.0-1.64","FL","9kjfelsstb","1440","960","en","er09ch20","null","","","","learningBlock2","","","","That was a bim.","null","","","","",""
"","html-keyboard-response","442","575699","0.0-8.0-2.64","FL","9kjfelsstb","1440","960","en","er09ch20","null","","","","learningBlock2","","","","<div style=""font-size:60px;""> </div>","null","FL","learning/Slide145.JPG","That was a bim.","",""
"","image-keyboard-response","443","575879","0.0-8.0-0.65","FL","9kjfelsstb","1440","960","en","er09ch20","null","","","","","","","","learning/Slide146.JPG","null","","","","",""
"","html-keyboard-response","444","577058","0.0-8.0-1.65","FL","9kjfelsstb","1440","960","en","er09ch20","null","","","","learningBlock2","","","","That was a tob.","null","","","","",""
"","html-keyboard-response","445","578078","0.0-8.0-2.65","FL","9kjfelsstb","1440","960","en","er09ch20","null","","","","learningBlock2","","","","<div style=""font-size:60px;""> </div>","null","FL","learning/Slide146.JPG","That was a tob.","",""
"","image-keyboard-response","446","578258","0.0-8.0-0.66","FL","9kjfelsstb","1440","960","en","er09ch20","null","","","","","","","","learning/Slide147.JPG","null","","","","",""
"","html-keyboard-response","447","579438","0.0-8.0-1.66","FL","9kjfelsstb","1440","960","en","er09ch20","null","","","","learningBlock2","","","","That was a wug.","null","","","","",""
"","html-keyboard-response","448","580460","0.0-8.0-2.66","FL","9kjfelsstb","1440","960","en","er09ch20","null","","","","learningBlock2","","","","<div style=""font-size:60px;""> </div>","null","FL","learning/Slide147.JPG","That was a wug.","",""
"","image-keyboard-response","449","580638","0.0-8.0-0.67","FL","9kjfelsstb","1440","960","en","er09ch20","null","","","","","","","","learning/Slide148.JPG","null","","","","",""
"","html-keyboard-response","450","581819","0.0-8.0-1.67","FL","9kjfelsstb","1440","960","en","er09ch20","null","","","","learningBlock2","","","","That was a bim.","null","","","","",""
"","html-keyboard-response","451","582829","0.0-8.0-2.67","FL","9kjfelsstb","1440","960","en","er09ch20","null","","","","learningBlock2","","","","<div style=""font-size:60px;""> </div>","null","FL","learning/Slide148.JPG","That was a bim.","",""
"","image-keyboard-response","452","583008","0.0-8.0-0.68","FL","9kjfelsstb","1440","960","en","er09ch20","null","","","","","","","","learning/Slide149.JPG","null","","","","",""
"","html-keyboard-response","453","584188","0.0-8.0-1.68","FL","9kjfelsstb","1440","960","en","er09ch20","null","","","","learningBlock2","","","","That was a dep.","null","","","","",""
"","html-keyboard-response","454","585208","0.0-8.0-2.68","FL","9kjfelsstb","1440","960","en","er09ch20","null","","","","learningBlock2","","","","<div style=""font-size:60px;""> </div>","null","FL","learning/Slide149.JPG","That was a dep.","",""
"","image-keyboard-response","455","585388","0.0-8.0-0.69","FL","9kjfelsstb","1440","960","en","er09ch20","null","","","","","","","","learning/Slide150.JPG","null","","","","",""
"","html-keyboard-response","456","586568","0.0-8.0-1.69","FL","9kjfelsstb","1440","960","en","er09ch20","null","","","","learningBlock2","","","","That was a wug.","null","","","","",""
"","html-keyboard-response","457","587589","0.0-8.0-2.69","FL","9kjfelsstb","1440","960","en","er09ch20","null","","","","learningBlock2","","","","<div style=""font-size:60px;""> </div>","null","FL","learning/Slide150.JPG","That was a wug.","",""
"","image-keyboard-response","458","587768","0.0-8.0-0.70","FL","9kjfelsstb","1440","960","en","er09ch20","null","","","","","","","","learning/Slide151.JPG","null","","","","",""
"","html-keyboard-response","459","588949","0.0-8.0-1.70","FL","9kjfelsstb","1440","960","en","er09ch20","null","","","","learningBlock2","","","","That was a dep.","null","","","","",""
"","html-keyboard-response","460","589958","0.0-8.0-2.70","FL","9kjfelsstb","1440","960","en","er09ch20","null","","","","learningBlock2","","","","<div style=""font-size:60px;""> </div>","null","FL","learning/Slide151.JPG","That was a dep.","",""
"","image-keyboard-response","461","590138","0.0-8.0-0.71","FL","9kjfelsstb","1440","960","en","er09ch20","null","","","","","","","","learning/Slide152.JPG","null","","","","",""
"","html-keyboard-response","462","591318","0.0-8.0-1.71","FL","9kjfelsstb","1440","960","en","er09ch20","null","","","","learningBlock2","","","","That was a wug.","null","","","","",""
"","html-keyboard-response","463","592339","0.0-8.0-2.71","FL","9kjfelsstb","1440","960","en","er09ch20","null","","","","learningBlock2","","","","<div style=""font-size:60px;""> </div>","null","FL","learning/Slide152.JPG","That was a wug.","",""
"","image-keyboard-response","464","592519","0.0-8.0-0.72","FL","9kjfelsstb","1440","960","en","er09ch20","null","","","","","","","","learning/Slide153.JPG","null","","","","",""
"","html-keyboard-response","465","593698","0.0-8.0-1.72","FL","9kjfelsstb","1440","960","en","er09ch20","null","","","","learningBlock2","","","","That was a bim.","null","","","","",""
"","html-keyboard-response","466","594708","0.0-8.0-2.72","FL","9kjfelsstb","1440","960","en","er09ch20","null","","","","learningBlock2","","","","<div style=""font-size:60px;""> </div>","null","FL","learning/Slide153.JPG","That was a bim.","",""
"","image-keyboard-response","467","594889","0.0-8.0-0.73","FL","9kjfelsstb","1440","960","en","er09ch20","null","","","","","","","","learning/Slide154.JPG","null","","","","",""
"","html-keyboard-response","468","596068","0.0-8.0-1.73","FL","9kjfelsstb","1440","960","en","er09ch20","null","","","","learningBlock2","","","","That was a tob.","null","","","","",""
"","html-keyboard-response","469","597089","0.0-8.0-2.73","FL","9kjfelsstb","1440","960","en","er09ch20","null","","","","learningBlock2","","","","<div style=""font-size:60px;""> </div>","null","FL","learning/Slide154.JPG","That was a tob.","",""
"","image-keyboard-response","470","597268","0.0-8.0-0.74","FL","9kjfelsstb","1440","960","en","er09ch20","null","","","","","","","","learning/Slide155.JPG","null","","","","",""
"","html-keyboard-response","471","598454","0.0-8.0-1.74","FL","9kjfelsstb","1440","960","en","er09ch20","null","","","","learningBlock2","","","","That was a dep.","null","","","","",""
"","html-keyboard-response","472","599468","0.0-8.0-2.74","FL","9kjfelsstb","1440","960","en","er09ch20","null","","","","learningBlock2","","","","<div style=""font-size:60px;""> </div>","null","FL","learning/Slide155.JPG","That was a dep.","",""
"","image-keyboard-response","473","599649","0.0-8.0-0.75","FL","9kjfelsstb","1440","960","en","er09ch20","null","","","","","","","","learning/Slide156.JPG","null","","","","",""
"","html-keyboard-response","474","600828","0.0-8.0-1.75","FL","9kjfelsstb","1440","960","en","er09ch20","null","","","","learningBlock2","","","","That was a bim.","null","","","","",""
"","html-keyboard-response","475","601849","0.0-8.0-2.75","FL","9kjfelsstb","1440","960","en","er09ch20","null","","","","learningBlock2","","","","<div style=""font-size:60px;""> </div>","null","FL","learning/Slide156.JPG","That was a bim.","",""
"","image-keyboard-response","476","602029","0.0-8.0-0.76","FL","9kjfelsstb","1440","960","en","er09ch20","null","","","","","","","","learning/Slide157.JPG","null","","","","",""
"","html-keyboard-response","477","603209","0.0-8.0-1.76","FL","9kjfelsstb","1440","960","en","er09ch20","null","","","","learningBlock2","","","","That was a dep.","null","","","","",""
"","html-keyboard-response","478","604229","0.0-8.0-2.76","FL","9kjfelsstb","1440","960","en","er09ch20","null","","","","learningBlock2","","","","<div style=""font-size:60px;""> </div>","null","FL","learning/Slide157.JPG","That was a dep.","",""
"","image-keyboard-response","479","604410","0.0-8.0-0.77","FL","9kjfelsstb","1440","960","en","er09ch20","null","","","","","","","","learning/Slide158.JPG","null","","","","",""
"","html-keyboard-response","480","605588","0.0-8.0-1.77","FL","9kjfelsstb","1440","960","en","er09ch20","null","","","","learningBlock2","","","","That was a tob.","null","","","","",""
"","html-keyboard-response","481","606599","0.0-8.0-2.77","FL","9kjfelsstb","1440","960","en","er09ch20","null","","","","learningBlock2","","","","<div style=""font-size:60px;""> </div>","null","FL","learning/Slide158.JPG","That was a tob.","",""
"","image-keyboard-response","482","606779","0.0-8.0-0.78","FL","9kjfelsstb","1440","960","en","er09ch20","null","","","","","","","","learning/Slide159.JPG","null","","","","",""
"","html-keyboard-response","483","607959","0.0-8.0-1.78","FL","9kjfelsstb","1440","960","en","er09ch20","null","","","","learningBlock2","","","","That was a dep.","null","","","","",""
"","html-keyboard-response","484","608978","0.0-8.0-2.78","FL","9kjfelsstb","1440","960","en","er09ch20","null","","","","learningBlock2","","","","<div style=""font-size:60px;""> </div>","null","FL","learning/Slide159.JPG","That was a dep.","",""
"","image-keyboard-response","485","609158","0.0-8.0-0.79","FL","9kjfelsstb","1440","960","en","er09ch20","null","","","","","","","","learning/Slide160.JPG","null","","","","",""
"","html-keyboard-response","486","610339","0.0-8.0-1.79","FL","9kjfelsstb","1440","960","en","er09ch20","null","","","","learningBlock2","","","","That was a wug.","null","","","","",""
"","html-keyboard-response","487","611360","0.0-8.0-2.79","FL","9kjfelsstb","1440","960","en","er09ch20","null","","","","learningBlock2","","","","<div style=""font-size:60px;""> </div>","null","FL","learning/Slide160.JPG","That was a wug.","",""
"","resize2","488","614430","0.0-9.0","FL","9kjfelsstb","1440","960","en","er09ch20","","","","","","","104","1.04","","","","","","",""
