"success","trial_type","trial_index","time_elapsed","internal_node_id","condition","subject","screen_width","screen_height","language","codeword","rt","responses","url","view_history","test_part","final_height_px","final_width_px","scale_factor","stimulus","key_press","learningType","presentedImage","presentedLabel","button_pressed","response"
"true","fullscreen","0","14489","0.0-0.0","LF","asumwjv4nj","1440","900","en","ne06je04","","","","","","","","","","","","","","",""
"","survey-html-form","1","20285","0.0-1.0","LF","asumwjv4nj","1440","900","en","ne06je04","5792.319999978645","{""language"":""en""}","","","","","","","","","","","","",""
"","external-html","2","125196","0.0-3.0-0.0","LF","asumwjv4nj","1440","900","en","ne06je04","104590.41500001331","","text/information_english.html","","","","","","","","","","","",""
"","external-html","3","144752","0.0-3.0-1.0","LF","asumwjv4nj","1440","900","en","ne06je04","19254.990000015823","","text/consent_english.html","","","","","","","","","","","",""
"","survey-html-form","4","193941","0.0-3.0-2.0","LF","asumwjv4nj","1440","900","en","ne06je04","49183.95499998587","{""codeword_enter"":""ne06je04""}","","","","","","","","","","","","",""
"","instructions","5","204156","0.0-4.0","LF","asumwjv4nj","1440","900","en","ne06je04","NA","","","[{""page_index"":0,""viewing_time"":1575.6249999976717},{""page_index"":1,""viewing_time"":7133.12000001315}]","instructions","","","","","","","","","",""
"","resize","6","237620","0.0-5.0","LF","asumwjv4nj","1440","900","en","ne06je04","","","","","","","377","2.3936507936507936","","","","","","",""
"","html-keyboard-response","7","238625","0.0-6.0-0.0","LF","asumwjv4nj","1440","900","en","ne06je04","null","","","","learningBlock1","","","","This is a tob:","null","","","","",""
"","image-keyboard-response","8","238953","0.0-6.0-1.0","LF","asumwjv4nj","1440","900","en","ne06je04","null","","","","","","","","learning/Slide1.JPG","null","","","","",""
"","html-keyboard-response","9","239954","0.0-6.0-2.0","LF","asumwjv4nj","1440","900","en","ne06je04","null","","","","learningBlock1","","","","<div style=""font-size:60px;""> </div>","null","LF","learning/Slide1.JPG","This is a tob:","",""
"","html-keyboard-response","10","240957","0.0-6.0-0.1","LF","asumwjv4nj","1440","900","en","ne06je04","null","","","","learningBlock1","","","","This is a wug:","null","","","","",""
"","image-keyboard-response","11","241291","0.0-6.0-1.1","LF","asumwjv4nj","1440","900","en","ne06je04","null","","","","","","","","learning/Slide2.JPG","null","","","","",""
"","html-keyboard-response","12","242295","0.0-6.0-2.1","LF","asumwjv4nj","1440","900","en","ne06je04","null","","","","learningBlock1","","","","<div style=""font-size:60px;""> </div>","null","LF","learning/Slide2.JPG","This is a wug:","",""
"","html-keyboard-response","13","243300","0.0-6.0-0.2","LF","asumwjv4nj","1440","900","en","ne06je04","null","","","","learningBlock1","","","","This is a bim:","null","","","","",""
"","image-keyboard-response","14","243631","0.0-6.0-1.2","LF","asumwjv4nj","1440","900","en","ne06je04","null","","","","","","","","learning/Slide3.JPG","null","","","","",""
"","html-keyboard-response","15","244634","0.0-6.0-2.2","LF","asumwjv4nj","1440","900","en","ne06je04","null","","","","learningBlock1","","","","<div style=""font-size:60px;""> </div>","null","LF","learning/Slide3.JPG","This is a bim:","",""
"","html-keyboard-response","16","245636","0.0-6.0-0.3","LF","asumwjv4nj","1440","900","en","ne06je04","null","","","","learningBlock1","","","","This is a dep:","null","","","","",""
"","image-keyboard-response","17","245965","0.0-6.0-1.3","LF","asumwjv4nj","1440","900","en","ne06je04","null","","","","","","","","learning/Slide4.JPG","null","","","","",""
"","html-keyboard-response","18","246969","0.0-6.0-2.3","LF","asumwjv4nj","1440","900","en","ne06je04","null","","","","learningBlock1","","","","<div style=""font-size:60px;""> </div>","null","LF","learning/Slide4.JPG","This is a dep:","",""
"","html-keyboard-response","19","247974","0.0-6.0-0.4","LF","asumwjv4nj","1440","900","en","ne06je04","null","","","","learningBlock1","","","","This is a wug:","null","","","","",""
"","image-keyboard-response","20","248304","0.0-6.0-1.4","LF","asumwjv4nj","1440","900","en","ne06je04","null","","","","","","","","learning/Slide5.JPG","null","","","","",""
"","html-keyboard-response","21","249310","0.0-6.0-2.4","LF","asumwjv4nj","1440","900","en","ne06je04","null","","","","learningBlock1","","","","<div style=""font-size:60px;""> </div>","null","LF","learning/Slide5.JPG","This is a wug:","",""
"","html-keyboard-response","22","250315","0.0-6.0-0.5","LF","asumwjv4nj","1440","900","en","ne06je04","null","","","","learningBlock1","","","","This is a dep:","null","","","","",""
"","image-keyboard-response","23","250645","0.0-6.0-1.5","LF","asumwjv4nj","1440","900","en","ne06je04","null","","","","","","","","learning/Slide6.JPG","null","","","","",""
"","html-keyboard-response","24","251647","0.0-6.0-2.5","LF","asumwjv4nj","1440","900","en","ne06je04","null","","","","learningBlock1","","","","<div style=""font-size:60px;""> </div>","null","LF","learning/Slide6.JPG","This is a dep:","",""
"","html-keyboard-response","25","252653","0.0-6.0-0.6","LF","asumwjv4nj","1440","900","en","ne06je04","null","","","","learningBlock1","","","","This is a wug:","null","","","","",""
"","image-keyboard-response","26","252984","0.0-6.0-1.6","LF","asumwjv4nj","1440","900","en","ne06je04","null","","","","","","","","learning/Slide7.JPG","null","","","","",""
"","html-keyboard-response","27","253988","0.0-6.0-2.6","LF","asumwjv4nj","1440","900","en","ne06je04","null","","","","learningBlock1","","","","<div style=""font-size:60px;""> </div>","null","LF","learning/Slide7.JPG","This is a wug:","",""
"","html-keyboard-response","28","254993","0.0-6.0-0.7","LF","asumwjv4nj","1440","900","en","ne06je04","null","","","","learningBlock1","","","","This is a bim:","null","","","","",""
"","image-keyboard-response","29","255327","0.0-6.0-1.7","LF","asumwjv4nj","1440","900","en","ne06je04","null","","","","","","","","learning/Slide8.JPG","null","","","","",""
"","html-keyboard-response","30","256333","0.0-6.0-2.7","LF","asumwjv4nj","1440","900","en","ne06je04","null","","","","learningBlock1","","","","<div style=""font-size:60px;""> </div>","null","LF","learning/Slide8.JPG","This is a bim:","",""
"","html-keyboard-response","31","257335","0.0-6.0-0.8","LF","asumwjv4nj","1440","900","en","ne06je04","null","","","","learningBlock1","","","","This is a wug:","null","","","","",""
"","image-keyboard-response","32","257664","0.0-6.0-1.8","LF","asumwjv4nj","1440","900","en","ne06je04","null","","","","","","","","learning/Slide9.JPG","null","","","","",""
"","html-keyboard-response","33","258670","0.0-6.0-2.8","LF","asumwjv4nj","1440","900","en","ne06je04","null","","","","learningBlock1","","","","<div style=""font-size:60px;""> </div>","null","LF","learning/Slide9.JPG","This is a wug:","",""
"","html-keyboard-response","34","259675","0.0-6.0-0.9","LF","asumwjv4nj","1440","900","en","ne06je04","null","","","","learningBlock1","","","","This is a dep:","null","","","","",""
"","image-keyboard-response","35","260004","0.0-6.0-1.9","LF","asumwjv4nj","1440","900","en","ne06je04","null","","","","","","","","learning/Slide10.JPG","null","","","","",""
"","html-keyboard-response","36","261008","0.0-6.0-2.9","LF","asumwjv4nj","1440","900","en","ne06je04","null","","","","learningBlock1","","","","<div style=""font-size:60px;""> </div>","null","LF","learning/Slide10.JPG","This is a dep:","",""
"","html-keyboard-response","37","262011","0.0-6.0-0.10","LF","asumwjv4nj","1440","900","en","ne06je04","null","","","","learningBlock1","","","","This is a tob:","null","","","","",""
"","image-keyboard-response","38","262344","0.0-6.0-1.10","LF","asumwjv4nj","1440","900","en","ne06je04","null","","","","","","","","learning/Slide11.JPG","null","","","","",""
"","html-keyboard-response","39","263351","0.0-6.0-2.10","LF","asumwjv4nj","1440","900","en","ne06je04","null","","","","learningBlock1","","","","<div style=""font-size:60px;""> </div>","null","LF","learning/Slide11.JPG","This is a tob:","",""
"","html-keyboard-response","40","264354","0.0-6.0-0.11","LF","asumwjv4nj","1440","900","en","ne06je04","null","","","","learningBlock1","","","","This is a dep:","null","","","","",""
"","image-keyboard-response","41","264684","0.0-6.0-1.11","LF","asumwjv4nj","1440","900","en","ne06je04","null","","","","","","","","learning/Slide12.JPG","null","","","","",""
"","html-keyboard-response","42","265685","0.0-6.0-2.11","LF","asumwjv4nj","1440","900","en","ne06je04","null","","","","learningBlock1","","","","<div style=""font-size:60px;""> </div>","null","LF","learning/Slide12.JPG","This is a dep:","",""
"","html-keyboard-response","43","266690","0.0-6.0-0.12","LF","asumwjv4nj","1440","900","en","ne06je04","null","","","","learningBlock1","","","","This is a bim:","null","","","","",""
"","image-keyboard-response","44","267024","0.0-6.0-1.12","LF","asumwjv4nj","1440","900","en","ne06je04","null","","","","","","","","learning/Slide13.JPG","null","","","","",""
"","html-keyboard-response","45","268025","0.0-6.0-2.12","LF","asumwjv4nj","1440","900","en","ne06je04","null","","","","learningBlock1","","","","<div style=""font-size:60px;""> </div>","null","LF","learning/Slide13.JPG","This is a bim:","",""
"","html-keyboard-response","46","269030","0.0-6.0-0.13","LF","asumwjv4nj","1440","900","en","ne06je04","null","","","","learningBlock1","","","","This is a wug:","null","","","","",""
"","image-keyboard-response","47","269364","0.0-6.0-1.13","LF","asumwjv4nj","1440","900","en","ne06je04","null","","","","","","","","learning/Slide14.JPG","null","","","","",""
"","html-keyboard-response","48","270365","0.0-6.0-2.13","LF","asumwjv4nj","1440","900","en","ne06je04","null","","","","learningBlock1","","","","<div style=""font-size:60px;""> </div>","null","LF","learning/Slide14.JPG","This is a wug:","",""
"","html-keyboard-response","49","271368","0.0-6.0-0.14","LF","asumwjv4nj","1440","900","en","ne06je04","null","","","","learningBlock1","","","","This is a tob:","null","","","","",""
"","image-keyboard-response","50","271704","0.0-6.0-1.14","LF","asumwjv4nj","1440","900","en","ne06je04","null","","","","","","","","learning/Slide15.JPG","null","","","","",""
"","html-keyboard-response","51","272710","0.0-6.0-2.14","LF","asumwjv4nj","1440","900","en","ne06je04","null","","","","learningBlock1","","","","<div style=""font-size:60px;""> </div>","null","LF","learning/Slide15.JPG","This is a tob:","",""
"","html-keyboard-response","52","273714","0.0-6.0-0.15","LF","asumwjv4nj","1440","900","en","ne06je04","null","","","","learningBlock1","","","","This is a dep:","null","","","","",""
"","image-keyboard-response","53","274044","0.0-6.0-1.15","LF","asumwjv4nj","1440","900","en","ne06je04","null","","","","","","","","learning/Slide16.JPG","null","","","","",""
"","html-keyboard-response","54","275050","0.0-6.0-2.15","LF","asumwjv4nj","1440","900","en","ne06je04","null","","","","learningBlock1","","","","<div style=""font-size:60px;""> </div>","null","LF","learning/Slide16.JPG","This is a dep:","",""
"","html-keyboard-response","55","276054","0.0-6.0-0.16","LF","asumwjv4nj","1440","900","en","ne06je04","null","","","","learningBlock1","","","","This is a bim:","null","","","","",""
"","image-keyboard-response","56","276384","0.0-6.0-1.16","LF","asumwjv4nj","1440","900","en","ne06je04","null","","","","","","","","learning/Slide17.JPG","null","","","","",""
"","html-keyboard-response","57","277390","0.0-6.0-2.16","LF","asumwjv4nj","1440","900","en","ne06je04","null","","","","learningBlock1","","","","<div style=""font-size:60px;""> </div>","null","LF","learning/Slide17.JPG","This is a bim:","",""
"","html-keyboard-response","58","278394","0.0-6.0-0.17","LF","asumwjv4nj","1440","900","en","ne06je04","null","","","","learningBlock1","","","","This is a tob:","null","","","","",""
"","image-keyboard-response","59","278728","0.0-6.0-1.17","LF","asumwjv4nj","1440","900","en","ne06je04","null","","","","","","","","learning/Slide18.JPG","null","","","","",""
"","html-keyboard-response","60","279734","0.0-6.0-2.17","LF","asumwjv4nj","1440","900","en","ne06je04","null","","","","learningBlock1","","","","<div style=""font-size:60px;""> </div>","null","LF","learning/Slide18.JPG","This is a tob:","",""
"","html-keyboard-response","61","280739","0.0-6.0-0.18","LF","asumwjv4nj","1440","900","en","ne06je04","null","","","","learningBlock1","","","","This is a wug:","null","","","","",""
"","image-keyboard-response","62","281074","0.0-6.0-1.18","LF","asumwjv4nj","1440","900","en","ne06je04","null","","","","","","","","learning/Slide19.JPG","null","","","","",""
"","html-keyboard-response","63","282076","0.0-6.0-2.18","LF","asumwjv4nj","1440","900","en","ne06je04","null","","","","learningBlock1","","","","<div style=""font-size:60px;""> </div>","null","LF","learning/Slide19.JPG","This is a wug:","",""
"","html-keyboard-response","64","283079","0.0-6.0-0.19","LF","asumwjv4nj","1440","900","en","ne06je04","null","","","","learningBlock1","","","","This is a bim:","null","","","","",""
"","image-keyboard-response","65","283414","0.0-6.0-1.19","LF","asumwjv4nj","1440","900","en","ne06je04","null","","","","","","","","learning/Slide20.JPG","null","","","","",""
"","html-keyboard-response","66","284420","0.0-6.0-2.19","LF","asumwjv4nj","1440","900","en","ne06je04","null","","","","learningBlock1","","","","<div style=""font-size:60px;""> </div>","null","LF","learning/Slide20.JPG","This is a bim:","",""
"","html-keyboard-response","67","285425","0.0-6.0-0.20","LF","asumwjv4nj","1440","900","en","ne06je04","null","","","","learningBlock1","","","","This is a dep:","null","","","","",""
"","image-keyboard-response","68","285759","0.0-6.0-1.20","LF","asumwjv4nj","1440","900","en","ne06je04","null","","","","","","","","learning/Slide21.JPG","null","","","","",""
"","html-keyboard-response","69","286764","0.0-6.0-2.20","LF","asumwjv4nj","1440","900","en","ne06je04","null","","","","learningBlock1","","","","<div style=""font-size:60px;""> </div>","null","LF","learning/Slide21.JPG","This is a dep:","",""
"","html-keyboard-response","70","287770","0.0-6.0-0.21","LF","asumwjv4nj","1440","900","en","ne06je04","null","","","","learningBlock1","","","","This is a bim:","null","","","","",""
"","image-keyboard-response","71","288104","0.0-6.0-1.21","LF","asumwjv4nj","1440","900","en","ne06je04","null","","","","","","","","learning/Slide22.JPG","null","","","","",""
"","html-keyboard-response","72","289105","0.0-6.0-2.21","LF","asumwjv4nj","1440","900","en","ne06je04","null","","","","learningBlock1","","","","<div style=""font-size:60px;""> </div>","null","LF","learning/Slide22.JPG","This is a bim:","",""
"","html-keyboard-response","73","290108","0.0-6.0-0.22","LF","asumwjv4nj","1440","900","en","ne06je04","null","","","","learningBlock1","","","","This is a tob:","null","","","","",""
"","image-keyboard-response","74","290436","0.0-6.0-1.22","LF","asumwjv4nj","1440","900","en","ne06je04","null","","","","","","","","learning/Slide23.JPG","null","","","","",""
"","html-keyboard-response","75","291440","0.0-6.0-2.22","LF","asumwjv4nj","1440","900","en","ne06je04","null","","","","learningBlock1","","","","<div style=""font-size:60px;""> </div>","null","LF","learning/Slide23.JPG","This is a tob:","",""
"","html-keyboard-response","76","292444","0.0-6.0-0.23","LF","asumwjv4nj","1440","900","en","ne06je04","null","","","","learningBlock1","","","","This is a wug:","null","","","","",""
"","image-keyboard-response","77","292780","0.0-6.0-1.23","LF","asumwjv4nj","1440","900","en","ne06je04","null","","","","","","","","learning/Slide24.JPG","null","","","","",""
"","html-keyboard-response","78","293784","0.0-6.0-2.23","LF","asumwjv4nj","1440","900","en","ne06je04","null","","","","learningBlock1","","","","<div style=""font-size:60px;""> </div>","null","LF","learning/Slide24.JPG","This is a wug:","",""
"","html-keyboard-response","79","294785","0.0-6.0-0.24","LF","asumwjv4nj","1440","900","en","ne06je04","null","","","","learningBlock1","","","","This is a dep:","null","","","","",""
"","image-keyboard-response","80","295119","0.0-6.0-1.24","LF","asumwjv4nj","1440","900","en","ne06je04","null","","","","","","","","learning/Slide25.JPG","null","","","","",""
"","html-keyboard-response","81","296124","0.0-6.0-2.24","LF","asumwjv4nj","1440","900","en","ne06je04","null","","","","learningBlock1","","","","<div style=""font-size:60px;""> </div>","null","LF","learning/Slide25.JPG","This is a dep:","",""
"","html-keyboard-response","82","297126","0.0-6.0-0.25","LF","asumwjv4nj","1440","900","en","ne06je04","null","","","","learningBlock1","","","","This is a wug:","null","","","","",""
"","image-keyboard-response","83","297459","0.0-6.0-1.25","LF","asumwjv4nj","1440","900","en","ne06je04","null","","","","","","","","learning/Slide26.JPG","null","","","","",""
"","html-keyboard-response","84","298464","0.0-6.0-2.25","LF","asumwjv4nj","1440","900","en","ne06je04","null","","","","learningBlock1","","","","<div style=""font-size:60px;""> </div>","null","LF","learning/Slide26.JPG","This is a wug:","",""
"","html-keyboard-response","85","299466","0.0-6.0-0.26","LF","asumwjv4nj","1440","900","en","ne06je04","null","","","","learningBlock1","","","","This is a bim:","null","","","","",""
"","image-keyboard-response","86","299794","0.0-6.0-1.26","LF","asumwjv4nj","1440","900","en","ne06je04","null","","","","","","","","learning/Slide27.JPG","null","","","","",""
"","html-keyboard-response","87","300797","0.0-6.0-2.26","LF","asumwjv4nj","1440","900","en","ne06je04","null","","","","learningBlock1","","","","<div style=""font-size:60px;""> </div>","null","LF","learning/Slide27.JPG","This is a bim:","",""
"","html-keyboard-response","88","301801","0.0-6.0-0.27","LF","asumwjv4nj","1440","900","en","ne06je04","null","","","","learningBlock1","","","","This is a dep:","null","","","","",""
"","image-keyboard-response","89","302134","0.0-6.0-1.27","LF","asumwjv4nj","1440","900","en","ne06je04","null","","","","","","","","learning/Slide28.JPG","null","","","","",""
"","html-keyboard-response","90","303139","0.0-6.0-2.27","LF","asumwjv4nj","1440","900","en","ne06je04","null","","","","learningBlock1","","","","<div style=""font-size:60px;""> </div>","null","LF","learning/Slide28.JPG","This is a dep:","",""
"","html-keyboard-response","91","304144","0.0-6.0-0.28","LF","asumwjv4nj","1440","900","en","ne06je04","null","","","","learningBlock1","","","","This is a tob:","null","","","","",""
"","image-keyboard-response","92","304480","0.0-6.0-1.28","LF","asumwjv4nj","1440","900","en","ne06je04","null","","","","","","","","learning/Slide29.JPG","null","","","","",""
"","html-keyboard-response","93","305484","0.0-6.0-2.28","LF","asumwjv4nj","1440","900","en","ne06je04","null","","","","learningBlock1","","","","<div style=""font-size:60px;""> </div>","null","LF","learning/Slide29.JPG","This is a tob:","",""
"","html-keyboard-response","94","306490","0.0-6.0-0.29","LF","asumwjv4nj","1440","900","en","ne06je04","null","","","","learningBlock1","","","","This is a dep:","null","","","","",""
"","image-keyboard-response","95","306824","0.0-6.0-1.29","LF","asumwjv4nj","1440","900","en","ne06je04","null","","","","","","","","learning/Slide30.JPG","null","","","","",""
"","html-keyboard-response","96","307830","0.0-6.0-2.29","LF","asumwjv4nj","1440","900","en","ne06je04","null","","","","learningBlock1","","","","<div style=""font-size:60px;""> </div>","null","LF","learning/Slide30.JPG","This is a dep:","",""
"","html-keyboard-response","97","308834","0.0-6.0-0.30","LF","asumwjv4nj","1440","900","en","ne06je04","null","","","","learningBlock1","","","","This is a wug:","null","","","","",""
"","image-keyboard-response","98","309170","0.0-6.0-1.30","LF","asumwjv4nj","1440","900","en","ne06je04","null","","","","","","","","learning/Slide31.JPG","null","","","","",""
"","html-keyboard-response","99","310174","0.0-6.0-2.30","LF","asumwjv4nj","1440","900","en","ne06je04","null","","","","learningBlock1","","","","<div style=""font-size:60px;""> </div>","null","LF","learning/Slide31.JPG","This is a wug:","",""
"","html-keyboard-response","100","311179","0.0-6.0-0.31","LF","asumwjv4nj","1440","900","en","ne06je04","null","","","","learningBlock1","","","","This is a tob:","null","","","","",""
"","image-keyboard-response","101","311510","0.0-6.0-1.31","LF","asumwjv4nj","1440","900","en","ne06je04","null","","","","","","","","learning/Slide32.JPG","null","","","","",""
"","html-keyboard-response","102","312514","0.0-6.0-2.31","LF","asumwjv4nj","1440","900","en","ne06je04","null","","","","learningBlock1","","","","<div style=""font-size:60px;""> </div>","null","LF","learning/Slide32.JPG","This is a tob:","",""
"","html-keyboard-response","103","313520","0.0-6.0-0.32","LF","asumwjv4nj","1440","900","en","ne06je04","null","","","","learningBlock1","","","","This is a bim:","null","","","","",""
"","image-keyboard-response","104","313853","0.0-6.0-1.32","LF","asumwjv4nj","1440","900","en","ne06je04","null","","","","","","","","learning/Slide33.JPG","null","","","","",""
"","html-keyboard-response","105","314860","0.0-6.0-2.32","LF","asumwjv4nj","1440","900","en","ne06je04","null","","","","learningBlock1","","","","<div style=""font-size:60px;""> </div>","null","LF","learning/Slide33.JPG","This is a bim:","",""
"","html-keyboard-response","106","315864","0.0-6.0-0.33","LF","asumwjv4nj","1440","900","en","ne06je04","null","","","","learningBlock1","","","","This is a tob:","null","","","","",""
"","image-keyboard-response","107","316200","0.0-6.0-1.33","LF","asumwjv4nj","1440","900","en","ne06je04","null","","","","","","","","learning/Slide34.JPG","null","","","","",""
"","html-keyboard-response","108","317204","0.0-6.0-2.33","LF","asumwjv4nj","1440","900","en","ne06je04","null","","","","learningBlock1","","","","<div style=""font-size:60px;""> </div>","null","LF","learning/Slide34.JPG","This is a tob:","",""
"","html-keyboard-response","109","318209","0.0-6.0-0.34","LF","asumwjv4nj","1440","900","en","ne06je04","null","","","","learningBlock1","","","","This is a bim:","null","","","","",""
"","image-keyboard-response","110","318544","0.0-6.0-1.34","LF","asumwjv4nj","1440","900","en","ne06je04","null","","","","","","","","learning/Slide35.JPG","null","","","","",""
"","html-keyboard-response","111","319550","0.0-6.0-2.34","LF","asumwjv4nj","1440","900","en","ne06je04","null","","","","learningBlock1","","","","<div style=""font-size:60px;""> </div>","null","LF","learning/Slide35.JPG","This is a bim:","",""
"","html-keyboard-response","112","320553","0.0-6.0-0.35","LF","asumwjv4nj","1440","900","en","ne06je04","null","","","","learningBlock1","","","","This is a dep:","null","","","","",""
"","image-keyboard-response","113","320884","0.0-6.0-1.35","LF","asumwjv4nj","1440","900","en","ne06je04","null","","","","","","","","learning/Slide36.JPG","null","","","","",""
"","html-keyboard-response","114","321890","0.0-6.0-2.35","LF","asumwjv4nj","1440","900","en","ne06je04","null","","","","learningBlock1","","","","<div style=""font-size:60px;""> </div>","null","LF","learning/Slide36.JPG","This is a dep:","",""
"","html-keyboard-response","115","322894","0.0-6.0-0.36","LF","asumwjv4nj","1440","900","en","ne06je04","null","","","","learningBlock1","","","","This is a tob:","null","","","","",""
"","image-keyboard-response","116","323224","0.0-6.0-1.36","LF","asumwjv4nj","1440","900","en","ne06je04","null","","","","","","","","learning/Slide37.JPG","null","","","","",""
"","html-keyboard-response","117","324230","0.0-6.0-2.36","LF","asumwjv4nj","1440","900","en","ne06je04","null","","","","learningBlock1","","","","<div style=""font-size:60px;""> </div>","null","LF","learning/Slide37.JPG","This is a tob:","",""
"","html-keyboard-response","118","325234","0.0-6.0-0.37","LF","asumwjv4nj","1440","900","en","ne06je04","null","","","","learningBlock1","","","","This is a wug:","null","","","","",""
"","image-keyboard-response","119","325564","0.0-6.0-1.37","LF","asumwjv4nj","1440","900","en","ne06je04","null","","","","","","","","learning/Slide38.JPG","null","","","","",""
"","html-keyboard-response","120","326570","0.0-6.0-2.37","LF","asumwjv4nj","1440","900","en","ne06je04","null","","","","learningBlock1","","","","<div style=""font-size:60px;""> </div>","null","LF","learning/Slide38.JPG","This is a wug:","",""
"","html-keyboard-response","121","327574","0.0-6.0-0.38","LF","asumwjv4nj","1440","900","en","ne06je04","null","","","","learningBlock1","","","","This is a bim:","null","","","","",""
"","image-keyboard-response","122","327909","0.0-6.0-1.38","LF","asumwjv4nj","1440","900","en","ne06je04","null","","","","","","","","learning/Slide39.JPG","null","","","","",""
"","html-keyboard-response","123","328914","0.0-6.0-2.38","LF","asumwjv4nj","1440","900","en","ne06je04","null","","","","learningBlock1","","","","<div style=""font-size:60px;""> </div>","null","LF","learning/Slide39.JPG","This is a bim:","",""
"","html-keyboard-response","124","329920","0.0-6.0-0.39","LF","asumwjv4nj","1440","900","en","ne06je04","null","","","","learningBlock1","","","","This is a tob:","null","","","","",""
"","image-keyboard-response","125","330253","0.0-6.0-1.39","LF","asumwjv4nj","1440","900","en","ne06je04","null","","","","","","","","learning/Slide40.JPG","null","","","","",""
"","html-keyboard-response","126","331260","0.0-6.0-2.39","LF","asumwjv4nj","1440","900","en","ne06je04","null","","","","learningBlock1","","","","<div style=""font-size:60px;""> </div>","null","LF","learning/Slide40.JPG","This is a tob:","",""
"","html-keyboard-response","127","332264","0.0-6.0-0.40","LF","asumwjv4nj","1440","900","en","ne06je04","null","","","","learningBlock1","","","","This is a bim:","null","","","","",""
"","image-keyboard-response","128","332600","0.0-6.0-1.40","LF","asumwjv4nj","1440","900","en","ne06je04","null","","","","","","","","learning/Slide41.JPG","null","","","","",""
"","html-keyboard-response","129","333603","0.0-6.0-2.40","LF","asumwjv4nj","1440","900","en","ne06je04","null","","","","learningBlock1","","","","<div style=""font-size:60px;""> </div>","null","LF","learning/Slide41.JPG","This is a bim:","",""
"","html-keyboard-response","130","334609","0.0-6.0-0.41","LF","asumwjv4nj","1440","900","en","ne06je04","null","","","","learningBlock1","","","","This is a dep:","null","","","","",""
"","image-keyboard-response","131","334942","0.0-6.0-1.41","LF","asumwjv4nj","1440","900","en","ne06je04","null","","","","","","","","learning/Slide42.JPG","null","","","","",""
"","html-keyboard-response","132","335944","0.0-6.0-2.41","LF","asumwjv4nj","1440","900","en","ne06je04","null","","","","learningBlock1","","","","<div style=""font-size:60px;""> </div>","null","LF","learning/Slide42.JPG","This is a dep:","",""
"","html-keyboard-response","133","336950","0.0-6.0-0.42","LF","asumwjv4nj","1440","900","en","ne06je04","null","","","","learningBlock1","","","","This is a wug:","null","","","","",""
"","image-keyboard-response","134","337284","0.0-6.0-1.42","LF","asumwjv4nj","1440","900","en","ne06je04","null","","","","","","","","learning/Slide43.JPG","null","","","","",""
"","html-keyboard-response","135","338290","0.0-6.0-2.42","LF","asumwjv4nj","1440","900","en","ne06je04","null","","","","learningBlock1","","","","<div style=""font-size:60px;""> </div>","null","LF","learning/Slide43.JPG","This is a wug:","",""
"","html-keyboard-response","136","339294","0.0-6.0-0.43","LF","asumwjv4nj","1440","900","en","ne06je04","null","","","","learningBlock1","","","","This is a bim:","null","","","","",""
"","image-keyboard-response","137","339624","0.0-6.0-1.43","LF","asumwjv4nj","1440","900","en","ne06je04","null","","","","","","","","learning/Slide44.JPG","null","","","","",""
"","html-keyboard-response","138","340628","0.0-6.0-2.43","LF","asumwjv4nj","1440","900","en","ne06je04","null","","","","learningBlock1","","","","<div style=""font-size:60px;""> </div>","null","LF","learning/Slide44.JPG","This is a bim:","",""
"","html-keyboard-response","139","341633","0.0-6.0-0.44","LF","asumwjv4nj","1440","900","en","ne06je04","null","","","","learningBlock1","","","","This is a wug:","null","","","","",""
"","image-keyboard-response","140","341963","0.0-6.0-1.44","LF","asumwjv4nj","1440","900","en","ne06je04","null","","","","","","","","learning/Slide45.JPG","null","","","","",""
"","html-keyboard-response","141","342969","0.0-6.0-2.44","LF","asumwjv4nj","1440","900","en","ne06je04","null","","","","learningBlock1","","","","<div style=""font-size:60px;""> </div>","null","LF","learning/Slide45.JPG","This is a wug:","",""
"","html-keyboard-response","142","343973","0.0-6.0-0.45","LF","asumwjv4nj","1440","900","en","ne06je04","null","","","","learningBlock1","","","","This is a dep:","null","","","","",""
"","image-keyboard-response","143","344303","0.0-6.0-1.45","LF","asumwjv4nj","1440","900","en","ne06je04","null","","","","","","","","learning/Slide46.JPG","null","","","","",""
"","html-keyboard-response","144","345309","0.0-6.0-2.45","LF","asumwjv4nj","1440","900","en","ne06je04","null","","","","learningBlock1","","","","<div style=""font-size:60px;""> </div>","null","LF","learning/Slide46.JPG","This is a dep:","",""
"","html-keyboard-response","145","346312","0.0-6.0-0.46","LF","asumwjv4nj","1440","900","en","ne06je04","null","","","","learningBlock1","","","","This is a tob:","null","","","","",""
"","image-keyboard-response","146","346644","0.0-6.0-1.46","LF","asumwjv4nj","1440","900","en","ne06je04","null","","","","","","","","learning/Slide47.JPG","null","","","","",""
"","html-keyboard-response","147","347649","0.0-6.0-2.46","LF","asumwjv4nj","1440","900","en","ne06je04","null","","","","learningBlock1","","","","<div style=""font-size:60px;""> </div>","null","LF","learning/Slide47.JPG","This is a tob:","",""
"","html-keyboard-response","148","348653","0.0-6.0-0.47","LF","asumwjv4nj","1440","900","en","ne06je04","null","","","","learningBlock1","","","","This is a bim:","null","","","","",""
"","image-keyboard-response","149","348983","0.0-6.0-1.47","LF","asumwjv4nj","1440","900","en","ne06je04","null","","","","","","","","learning/Slide48.JPG","null","","","","",""
"","html-keyboard-response","150","349987","0.0-6.0-2.47","LF","asumwjv4nj","1440","900","en","ne06je04","null","","","","learningBlock1","","","","<div style=""font-size:60px;""> </div>","null","LF","learning/Slide48.JPG","This is a bim:","",""
"","html-keyboard-response","151","350993","0.0-6.0-0.48","LF","asumwjv4nj","1440","900","en","ne06je04","null","","","","learningBlock1","","","","This is a dep:","null","","","","",""
"","image-keyboard-response","152","351323","0.0-6.0-1.48","LF","asumwjv4nj","1440","900","en","ne06je04","null","","","","","","","","learning/Slide49.JPG","null","","","","",""
"","html-keyboard-response","153","352324","0.0-6.0-2.48","LF","asumwjv4nj","1440","900","en","ne06je04","null","","","","learningBlock1","","","","<div style=""font-size:60px;""> </div>","null","LF","learning/Slide49.JPG","This is a dep:","",""
"","html-keyboard-response","154","353330","0.0-6.0-0.49","LF","asumwjv4nj","1440","900","en","ne06je04","null","","","","learningBlock1","","","","This is a tob:","null","","","","",""
"","image-keyboard-response","155","353663","0.0-6.0-1.49","LF","asumwjv4nj","1440","900","en","ne06je04","null","","","","","","","","learning/Slide50.JPG","null","","","","",""
"","html-keyboard-response","156","354666","0.0-6.0-2.49","LF","asumwjv4nj","1440","900","en","ne06je04","null","","","","learningBlock1","","","","<div style=""font-size:60px;""> </div>","null","LF","learning/Slide50.JPG","This is a tob:","",""
"","html-keyboard-response","157","355669","0.0-6.0-0.50","LF","asumwjv4nj","1440","900","en","ne06je04","null","","","","learningBlock1","","","","This is a bim:","null","","","","",""
"","image-keyboard-response","158","356003","0.0-6.0-1.50","LF","asumwjv4nj","1440","900","en","ne06je04","null","","","","","","","","learning/Slide51.JPG","null","","","","",""
"","html-keyboard-response","159","357009","0.0-6.0-2.50","LF","asumwjv4nj","1440","900","en","ne06je04","null","","","","learningBlock1","","","","<div style=""font-size:60px;""> </div>","null","LF","learning/Slide51.JPG","This is a bim:","",""
"","html-keyboard-response","160","358013","0.0-6.0-0.51","LF","asumwjv4nj","1440","900","en","ne06je04","null","","","","learningBlock1","","","","This is a wug:","null","","","","",""
"","image-keyboard-response","161","358350","0.0-6.0-1.51","LF","asumwjv4nj","1440","900","en","ne06je04","null","","","","","","","","learning/Slide52.JPG","null","","","","",""
"","html-keyboard-response","162","359353","0.0-6.0-2.51","LF","asumwjv4nj","1440","900","en","ne06je04","null","","","","learningBlock1","","","","<div style=""font-size:60px;""> </div>","null","LF","learning/Slide52.JPG","This is a wug:","",""
"","html-keyboard-response","163","360354","0.0-6.0-0.52","LF","asumwjv4nj","1440","900","en","ne06je04","null","","","","learningBlock1","","","","This is a tob:","null","","","","",""
"","image-keyboard-response","164","360687","0.0-6.0-1.52","LF","asumwjv4nj","1440","900","en","ne06je04","null","","","","","","","","learning/Slide53.JPG","null","","","","",""
"","html-keyboard-response","165","361693","0.0-6.0-2.52","LF","asumwjv4nj","1440","900","en","ne06je04","null","","","","learningBlock1","","","","<div style=""font-size:60px;""> </div>","null","LF","learning/Slide53.JPG","This is a tob:","",""
"","html-keyboard-response","166","362694","0.0-6.0-0.53","LF","asumwjv4nj","1440","900","en","ne06je04","null","","","","learningBlock1","","","","This is a dep:","null","","","","",""
"","image-keyboard-response","167","363030","0.0-6.0-1.53","LF","asumwjv4nj","1440","900","en","ne06je04","null","","","","","","","","learning/Slide54.JPG","null","","","","",""
"","html-keyboard-response","168","364033","0.0-6.0-2.53","LF","asumwjv4nj","1440","900","en","ne06je04","null","","","","learningBlock1","","","","<div style=""font-size:60px;""> </div>","null","LF","learning/Slide54.JPG","This is a dep:","",""
"","html-keyboard-response","169","365036","0.0-6.0-0.54","LF","asumwjv4nj","1440","900","en","ne06je04","null","","","","learningBlock1","","","","This is a bim:","null","","","","",""
"","image-keyboard-response","170","365366","0.0-6.0-1.54","LF","asumwjv4nj","1440","900","en","ne06je04","null","","","","","","","","learning/Slide55.JPG","null","","","","",""
"","html-keyboard-response","171","366370","0.0-6.0-2.54","LF","asumwjv4nj","1440","900","en","ne06je04","null","","","","learningBlock1","","","","<div style=""font-size:60px;""> </div>","null","LF","learning/Slide55.JPG","This is a bim:","",""
"","html-keyboard-response","172","367373","0.0-6.0-0.55","LF","asumwjv4nj","1440","900","en","ne06je04","null","","","","learningBlock1","","","","This is a tob:","null","","","","",""
"","image-keyboard-response","173","367702","0.0-6.0-1.55","LF","asumwjv4nj","1440","900","en","ne06je04","null","","","","","","","","learning/Slide56.JPG","null","","","","",""
"","html-keyboard-response","174","368708","0.0-6.0-2.55","LF","asumwjv4nj","1440","900","en","ne06je04","null","","","","learningBlock1","","","","<div style=""font-size:60px;""> </div>","null","LF","learning/Slide56.JPG","This is a tob:","",""
"","html-keyboard-response","175","369713","0.0-6.0-0.56","LF","asumwjv4nj","1440","900","en","ne06je04","null","","","","learningBlock1","","","","This is a dep:","null","","","","",""
"","image-keyboard-response","176","370043","0.0-6.0-1.56","LF","asumwjv4nj","1440","900","en","ne06je04","null","","","","","","","","learning/Slide57.JPG","null","","","","",""
"","html-keyboard-response","177","371049","0.0-6.0-2.56","LF","asumwjv4nj","1440","900","en","ne06je04","null","","","","learningBlock1","","","","<div style=""font-size:60px;""> </div>","null","LF","learning/Slide57.JPG","This is a dep:","",""
"","html-keyboard-response","178","372053","0.0-6.0-0.57","LF","asumwjv4nj","1440","900","en","ne06je04","null","","","","learningBlock1","","","","This is a wug:","null","","","","",""
"","image-keyboard-response","179","372389","0.0-6.0-1.57","LF","asumwjv4nj","1440","900","en","ne06je04","null","","","","","","","","learning/Slide58.JPG","null","","","","",""
"","html-keyboard-response","180","373393","0.0-6.0-2.57","LF","asumwjv4nj","1440","900","en","ne06je04","null","","","","learningBlock1","","","","<div style=""font-size:60px;""> </div>","null","LF","learning/Slide58.JPG","This is a wug:","",""
"","html-keyboard-response","181","374399","0.0-6.0-0.58","LF","asumwjv4nj","1440","900","en","ne06je04","null","","","","learningBlock1","","","","This is a dep:","null","","","","",""
"","image-keyboard-response","182","374733","0.0-6.0-1.58","LF","asumwjv4nj","1440","900","en","ne06je04","null","","","","","","","","learning/Slide59.JPG","null","","","","",""
"","html-keyboard-response","183","375739","0.0-6.0-2.58","LF","asumwjv4nj","1440","900","en","ne06je04","null","","","","learningBlock1","","","","<div style=""font-size:60px;""> </div>","null","LF","learning/Slide59.JPG","This is a dep:","",""
"","html-keyboard-response","184","376743","0.0-6.0-0.59","LF","asumwjv4nj","1440","900","en","ne06je04","null","","","","learningBlock1","","","","This is a wug:","null","","","","",""
"","image-keyboard-response","185","377079","0.0-6.0-1.59","LF","asumwjv4nj","1440","900","en","ne06je04","null","","","","","","","","learning/Slide60.JPG","null","","","","",""
"","html-keyboard-response","186","378083","0.0-6.0-2.59","LF","asumwjv4nj","1440","900","en","ne06je04","null","","","","learningBlock1","","","","<div style=""font-size:60px;""> </div>","null","LF","learning/Slide60.JPG","This is a wug:","",""
"","html-keyboard-response","187","379085","0.0-6.0-0.60","LF","asumwjv4nj","1440","900","en","ne06je04","null","","","","learningBlock1","","","","This is a bim:","null","","","","",""
"","image-keyboard-response","188","379418","0.0-6.0-1.60","LF","asumwjv4nj","1440","900","en","ne06je04","null","","","","","","","","learning/Slide61.JPG","null","","","","",""
"","html-keyboard-response","189","380423","0.0-6.0-2.60","LF","asumwjv4nj","1440","900","en","ne06je04","null","","","","learningBlock1","","","","<div style=""font-size:60px;""> </div>","null","LF","learning/Slide61.JPG","This is a bim:","",""
"","html-keyboard-response","190","381429","0.0-6.0-0.61","LF","asumwjv4nj","1440","900","en","ne06je04","null","","","","learningBlock1","","","","This is a dep:","null","","","","",""
"","image-keyboard-response","191","381763","0.0-6.0-1.61","LF","asumwjv4nj","1440","900","en","ne06je04","null","","","","","","","","learning/Slide62.JPG","null","","","","",""
"","html-keyboard-response","192","382765","0.0-6.0-2.61","LF","asumwjv4nj","1440","900","en","ne06je04","null","","","","learningBlock1","","","","<div style=""font-size:60px;""> </div>","null","LF","learning/Slide62.JPG","This is a dep:","",""
"","html-keyboard-response","193","383771","0.0-6.0-0.62","LF","asumwjv4nj","1440","900","en","ne06je04","null","","","","learningBlock1","","","","This is a bim:","null","","","","",""
"","image-keyboard-response","194","384102","0.0-6.0-1.62","LF","asumwjv4nj","1440","900","en","ne06je04","null","","","","","","","","learning/Slide63.JPG","null","","","","",""
"","html-keyboard-response","195","385107","0.0-6.0-2.62","LF","asumwjv4nj","1440","900","en","ne06je04","null","","","","learningBlock1","","","","<div style=""font-size:60px;""> </div>","null","LF","learning/Slide63.JPG","This is a bim:","",""
"","html-keyboard-response","196","386113","0.0-6.0-0.63","LF","asumwjv4nj","1440","900","en","ne06je04","null","","","","learningBlock1","","","","This is a tob:","null","","","","",""
"","image-keyboard-response","197","386449","0.0-6.0-1.63","LF","asumwjv4nj","1440","900","en","ne06je04","null","","","","","","","","learning/Slide64.JPG","null","","","","",""
"","html-keyboard-response","198","387453","0.0-6.0-2.63","LF","asumwjv4nj","1440","900","en","ne06je04","null","","","","learningBlock1","","","","<div style=""font-size:60px;""> </div>","null","LF","learning/Slide64.JPG","This is a tob:","",""
"","html-keyboard-response","199","388459","0.0-6.0-0.64","LF","asumwjv4nj","1440","900","en","ne06je04","null","","","","learningBlock1","","","","This is a wug:","null","","","","",""
"","image-keyboard-response","200","388793","0.0-6.0-1.64","LF","asumwjv4nj","1440","900","en","ne06je04","null","","","","","","","","learning/Slide65.JPG","null","","","","",""
"","html-keyboard-response","201","389799","0.0-6.0-2.64","LF","asumwjv4nj","1440","900","en","ne06je04","null","","","","learningBlock1","","","","<div style=""font-size:60px;""> </div>","null","LF","learning/Slide65.JPG","This is a wug:","",""
"","html-keyboard-response","202","390803","0.0-6.0-0.65","LF","asumwjv4nj","1440","900","en","ne06je04","null","","","","learningBlock1","","","","This is a dep:","null","","","","",""
"","image-keyboard-response","203","391133","0.0-6.0-1.65","LF","asumwjv4nj","1440","900","en","ne06je04","null","","","","","","","","learning/Slide66.JPG","null","","","","",""
"","html-keyboard-response","204","392139","0.0-6.0-2.65","LF","asumwjv4nj","1440","900","en","ne06je04","null","","","","learningBlock1","","","","<div style=""font-size:60px;""> </div>","null","LF","learning/Slide66.JPG","This is a dep:","",""
"","html-keyboard-response","205","393143","0.0-6.0-0.66","LF","asumwjv4nj","1440","900","en","ne06je04","null","","","","learningBlock1","","","","This is a tob:","null","","","","",""
"","image-keyboard-response","206","393478","0.0-6.0-1.66","LF","asumwjv4nj","1440","900","en","ne06je04","null","","","","","","","","learning/Slide67.JPG","null","","","","",""
"","html-keyboard-response","207","394483","0.0-6.0-2.66","LF","asumwjv4nj","1440","900","en","ne06je04","null","","","","learningBlock1","","","","<div style=""font-size:60px;""> </div>","null","LF","learning/Slide67.JPG","This is a tob:","",""
"","html-keyboard-response","208","395489","0.0-6.0-0.67","LF","asumwjv4nj","1440","900","en","ne06je04","null","","","","learningBlock1","","","","This is a wug:","null","","","","",""
"","image-keyboard-response","209","395819","0.0-6.0-1.67","LF","asumwjv4nj","1440","900","en","ne06je04","null","","","","","","","","learning/Slide68.JPG","null","","","","",""
"","html-keyboard-response","210","396823","0.0-6.0-2.67","LF","asumwjv4nj","1440","900","en","ne06je04","null","","","","learningBlock1","","","","<div style=""font-size:60px;""> </div>","null","LF","learning/Slide68.JPG","This is a wug:","",""
"","html-keyboard-response","211","397824","0.0-6.0-0.68","LF","asumwjv4nj","1440","900","en","ne06je04","null","","","","learningBlock1","","","","This is a tob:","null","","","","",""
"","image-keyboard-response","212","398162","0.0-6.0-1.68","LF","asumwjv4nj","1440","900","en","ne06je04","null","","","","","","","","learning/Slide69.JPG","null","","","","",""
"","html-keyboard-response","213","399165","0.0-6.0-2.68","LF","asumwjv4nj","1440","900","en","ne06je04","null","","","","learningBlock1","","","","<div style=""font-size:60px;""> </div>","null","LF","learning/Slide69.JPG","This is a tob:","",""
"","html-keyboard-response","214","400171","0.0-6.0-0.69","LF","asumwjv4nj","1440","900","en","ne06je04","null","","","","learningBlock1","","","","This is a dep:","null","","","","",""
"","image-keyboard-response","215","400502","0.0-6.0-1.69","LF","asumwjv4nj","1440","900","en","ne06je04","null","","","","","","","","learning/Slide70.JPG","null","","","","",""
"","html-keyboard-response","216","401509","0.0-6.0-2.69","LF","asumwjv4nj","1440","900","en","ne06je04","null","","","","learningBlock1","","","","<div style=""font-size:60px;""> </div>","null","LF","learning/Slide70.JPG","This is a dep:","",""
"","html-keyboard-response","217","402512","0.0-6.0-0.70","LF","asumwjv4nj","1440","900","en","ne06je04","null","","","","learningBlock1","","","","This is a wug:","null","","","","",""
"","image-keyboard-response","218","402843","0.0-6.0-1.70","LF","asumwjv4nj","1440","900","en","ne06je04","null","","","","","","","","learning/Slide71.JPG","null","","","","",""
"","html-keyboard-response","219","403847","0.0-6.0-2.70","LF","asumwjv4nj","1440","900","en","ne06je04","null","","","","learningBlock1","","","","<div style=""font-size:60px;""> </div>","null","LF","learning/Slide71.JPG","This is a wug:","",""
"","html-keyboard-response","220","404852","0.0-6.0-0.71","LF","asumwjv4nj","1440","900","en","ne06je04","null","","","","learningBlock1","","","","This is a bim:","null","","","","",""
"","image-keyboard-response","221","405183","0.0-6.0-1.71","LF","asumwjv4nj","1440","900","en","ne06je04","null","","","","","","","","learning/Slide72.JPG","null","","","","",""
"","html-keyboard-response","222","406188","0.0-6.0-2.71","LF","asumwjv4nj","1440","900","en","ne06je04","null","","","","learningBlock1","","","","<div style=""font-size:60px;""> </div>","null","LF","learning/Slide72.JPG","This is a bim:","",""
"","html-keyboard-response","223","407193","0.0-6.0-0.72","LF","asumwjv4nj","1440","900","en","ne06je04","null","","","","learningBlock1","","","","This is a wug:","null","","","","",""
"","image-keyboard-response","224","407523","0.0-6.0-1.72","LF","asumwjv4nj","1440","900","en","ne06je04","null","","","","","","","","learning/Slide73.JPG","null","","","","",""
"","html-keyboard-response","225","408525","0.0-6.0-2.72","LF","asumwjv4nj","1440","900","en","ne06je04","null","","","","learningBlock1","","","","<div style=""font-size:60px;""> </div>","null","LF","learning/Slide73.JPG","This is a wug:","",""
"","html-keyboard-response","226","409527","0.0-6.0-0.73","LF","asumwjv4nj","1440","900","en","ne06je04","null","","","","learningBlock1","","","","This is a dep:","null","","","","",""
"","image-keyboard-response","227","409862","0.0-6.0-1.73","LF","asumwjv4nj","1440","900","en","ne06je04","null","","","","","","","","learning/Slide74.JPG","null","","","","",""
"","html-keyboard-response","228","410867","0.0-6.0-2.73","LF","asumwjv4nj","1440","900","en","ne06je04","null","","","","learningBlock1","","","","<div style=""font-size:60px;""> </div>","null","LF","learning/Slide74.JPG","This is a dep:","",""
"","html-keyboard-response","229","411871","0.0-6.0-0.74","LF","asumwjv4nj","1440","900","en","ne06je04","null","","","","learningBlock1","","","","This is a tob:","null","","","","",""
"","image-keyboard-response","230","412202","0.0-6.0-1.74","LF","asumwjv4nj","1440","900","en","ne06je04","null","","","","","","","","learning/Slide75.JPG","null","","","","",""
"","html-keyboard-response","231","413209","0.0-6.0-2.74","LF","asumwjv4nj","1440","900","en","ne06je04","null","","","","learningBlock1","","","","<div style=""font-size:60px;""> </div>","null","LF","learning/Slide75.JPG","This is a tob:","",""
"","html-keyboard-response","232","414213","0.0-6.0-0.75","LF","asumwjv4nj","1440","900","en","ne06je04","null","","","","learningBlock1","","","","This is a bim:","null","","","","",""
"","image-keyboard-response","233","414549","0.0-6.0-1.75","LF","asumwjv4nj","1440","900","en","ne06je04","null","","","","","","","","learning/Slide76.JPG","null","","","","",""
"","html-keyboard-response","234","415552","0.0-6.0-2.75","LF","asumwjv4nj","1440","900","en","ne06je04","null","","","","learningBlock1","","","","<div style=""font-size:60px;""> </div>","null","LF","learning/Slide76.JPG","This is a bim:","",""
"","html-keyboard-response","235","416556","0.0-6.0-0.76","LF","asumwjv4nj","1440","900","en","ne06je04","null","","","","learningBlock1","","","","This is a tob:","null","","","","",""
"","image-keyboard-response","236","416889","0.0-6.0-1.76","LF","asumwjv4nj","1440","900","en","ne06je04","null","","","","","","","","learning/Slide77.JPG","null","","","","",""
"","html-keyboard-response","237","417893","0.0-6.0-2.76","LF","asumwjv4nj","1440","900","en","ne06je04","null","","","","learningBlock1","","","","<div style=""font-size:60px;""> </div>","null","LF","learning/Slide77.JPG","This is a tob:","",""
"","html-keyboard-response","238","418899","0.0-6.0-0.77","LF","asumwjv4nj","1440","900","en","ne06je04","null","","","","learningBlock1","","","","This is a wug:","null","","","","",""
"","image-keyboard-response","239","419233","0.0-6.0-1.77","LF","asumwjv4nj","1440","900","en","ne06je04","null","","","","","","","","learning/Slide78.JPG","null","","","","",""
"","html-keyboard-response","240","420237","0.0-6.0-2.77","LF","asumwjv4nj","1440","900","en","ne06je04","null","","","","learningBlock1","","","","<div style=""font-size:60px;""> </div>","null","LF","learning/Slide78.JPG","This is a wug:","",""
"","html-keyboard-response","241","421243","0.0-6.0-0.78","LF","asumwjv4nj","1440","900","en","ne06je04","null","","","","learningBlock1","","","","This is a bim:","null","","","","",""
"","image-keyboard-response","242","421573","0.0-6.0-1.78","LF","asumwjv4nj","1440","900","en","ne06je04","null","","","","","","","","learning/Slide79.JPG","null","","","","",""
"","html-keyboard-response","243","422579","0.0-6.0-2.78","LF","asumwjv4nj","1440","900","en","ne06je04","null","","","","learningBlock1","","","","<div style=""font-size:60px;""> </div>","null","LF","learning/Slide79.JPG","This is a bim:","",""
"","html-keyboard-response","244","423583","0.0-6.0-0.79","LF","asumwjv4nj","1440","900","en","ne06je04","null","","","","learningBlock1","","","","This is a tob:","null","","","","",""
"","image-keyboard-response","245","423919","0.0-6.0-1.79","LF","asumwjv4nj","1440","900","en","ne06je04","null","","","","","","","","learning/Slide80.JPG","null","","","","",""
"","html-keyboard-response","246","424921","0.0-6.0-2.79","LF","asumwjv4nj","1440","900","en","ne06je04","null","","","","learningBlock1","","","","<div style=""font-size:60px;""> </div>","null","LF","learning/Slide80.JPG","This is a tob:","",""
"","instructions","247","433989","0.0-7.0","LF","asumwjv4nj","1440","900","en","ne06je04","NA","","","[{""page_index"":0,""viewing_time"":9066.304999985732}]","instructions","","","","","","","","","",""
"","html-keyboard-response","248","434992","0.0-8.0-0.0","LF","asumwjv4nj","1440","900","en","ne06je04","null","","","","learningBlock2","","","","This is a wug:","null","","","","",""
"","image-keyboard-response","249","435321","0.0-8.0-1.0","LF","asumwjv4nj","1440","900","en","ne06je04","null","","","","","","","","learning/Slide81.JPG","null","","","","",""
"","html-keyboard-response","250","436327","0.0-8.0-2.0","LF","asumwjv4nj","1440","900","en","ne06je04","null","","","","learningBlock2","","","","<div style=""font-size:60px;""> </div>","null","LF","learning/Slide81.JPG","This is a wug:","",""
"","html-keyboard-response","251","437332","0.0-8.0-0.1","LF","asumwjv4nj","1440","900","en","ne06je04","null","","","","learningBlock2","","","","This is a bim:","null","","","","",""
"","image-keyboard-response","252","437668","0.0-8.0-1.1","LF","asumwjv4nj","1440","900","en","ne06je04","null","","","","","","","","learning/Slide82.JPG","null","","","","",""
"","html-keyboard-response","253","438672","0.0-8.0-2.1","LF","asumwjv4nj","1440","900","en","ne06je04","null","","","","learningBlock2","","","","<div style=""font-size:60px;""> </div>","null","LF","learning/Slide82.JPG","This is a bim:","",""
"","html-keyboard-response","254","439678","0.0-8.0-0.2","LF","asumwjv4nj","1440","900","en","ne06je04","null","","","","learningBlock2","","","","This is a wug:","null","","","","",""
"","image-keyboard-response","255","440009","0.0-8.0-1.2","LF","asumwjv4nj","1440","900","en","ne06je04","null","","","","","","","","learning/Slide83.JPG","null","","","","",""
"","html-keyboard-response","256","441012","0.0-8.0-2.2","LF","asumwjv4nj","1440","900","en","ne06je04","null","","","","learningBlock2","","","","<div style=""font-size:60px;""> </div>","null","LF","learning/Slide83.JPG","This is a wug:","",""
"","html-keyboard-response","257","442016","0.0-8.0-0.3","LF","asumwjv4nj","1440","900","en","ne06je04","null","","","","learningBlock2","","","","This is a dep:","null","","","","",""
"","image-keyboard-response","258","442352","0.0-8.0-1.3","LF","asumwjv4nj","1440","900","en","ne06je04","null","","","","","","","","learning/Slide84.JPG","null","","","","",""
"","html-keyboard-response","259","443355","0.0-8.0-2.3","LF","asumwjv4nj","1440","900","en","ne06je04","null","","","","learningBlock2","","","","<div style=""font-size:60px;""> </div>","null","LF","learning/Slide84.JPG","This is a dep:","",""
"","html-keyboard-response","260","444361","0.0-8.0-0.4","LF","asumwjv4nj","1440","900","en","ne06je04","null","","","","learningBlock2","","","","This is a bim:","null","","","","",""
"","image-keyboard-response","261","444692","0.0-8.0-1.4","LF","asumwjv4nj","1440","900","en","ne06je04","null","","","","","","","","learning/Slide85.JPG","null","","","","",""
"","html-keyboard-response","262","445699","0.0-8.0-2.4","LF","asumwjv4nj","1440","900","en","ne06je04","null","","","","learningBlock2","","","","<div style=""font-size:60px;""> </div>","null","LF","learning/Slide85.JPG","This is a bim:","",""
"","html-keyboard-response","263","446702","0.0-8.0-0.5","LF","asumwjv4nj","1440","900","en","ne06je04","null","","","","learningBlock2","","","","This is a tob:","null","","","","",""
"","image-keyboard-response","264","447037","0.0-8.0-1.5","LF","asumwjv4nj","1440","900","en","ne06je04","null","","","","","","","","learning/Slide86.JPG","null","","","","",""
"","html-keyboard-response","265","448042","0.0-8.0-2.5","LF","asumwjv4nj","1440","900","en","ne06je04","null","","","","learningBlock2","","","","<div style=""font-size:60px;""> </div>","null","LF","learning/Slide86.JPG","This is a tob:","",""
"","html-keyboard-response","266","449046","0.0-8.0-0.6","LF","asumwjv4nj","1440","900","en","ne06je04","null","","","","learningBlock2","","","","This is a wug:","null","","","","",""
"","image-keyboard-response","267","449381","0.0-8.0-1.6","LF","asumwjv4nj","1440","900","en","ne06je04","null","","","","","","","","learning/Slide87.JPG","null","","","","",""
"","html-keyboard-response","268","450383","0.0-8.0-2.6","LF","asumwjv4nj","1440","900","en","ne06je04","null","","","","learningBlock2","","","","<div style=""font-size:60px;""> </div>","null","LF","learning/Slide87.JPG","This is a wug:","",""
"","html-keyboard-response","269","451389","0.0-8.0-0.7","LF","asumwjv4nj","1440","900","en","ne06je04","null","","","","learningBlock2","","","","This is a tob:","null","","","","",""
"","image-keyboard-response","270","451722","0.0-8.0-1.7","LF","asumwjv4nj","1440","900","en","ne06je04","null","","","","","","","","learning/Slide88.JPG","null","","","","",""
"","html-keyboard-response","271","452728","0.0-8.0-2.7","LF","asumwjv4nj","1440","900","en","ne06je04","null","","","","learningBlock2","","","","<div style=""font-size:60px;""> </div>","null","LF","learning/Slide88.JPG","This is a tob:","",""
"","html-keyboard-response","272","453732","0.0-8.0-0.8","LF","asumwjv4nj","1440","900","en","ne06je04","null","","","","learningBlock2","","","","This is a bim:","null","","","","",""
"","image-keyboard-response","273","454062","0.0-8.0-1.8","LF","asumwjv4nj","1440","900","en","ne06je04","null","","","","","","","","learning/Slide89.JPG","null","","","","",""
"","html-keyboard-response","274","455064","0.0-8.0-2.8","LF","asumwjv4nj","1440","900","en","ne06je04","null","","","","learningBlock2","","","","<div style=""font-size:60px;""> </div>","null","LF","learning/Slide89.JPG","This is a bim:","",""
"","html-keyboard-response","275","456069","0.0-8.0-0.9","LF","asumwjv4nj","1440","900","en","ne06je04","null","","","","learningBlock2","","","","This is a dep:","null","","","","",""
"","image-keyboard-response","276","456402","0.0-8.0-1.9","LF","asumwjv4nj","1440","900","en","ne06je04","null","","","","","","","","learning/Slide90.JPG","null","","","","",""
"","html-keyboard-response","277","457408","0.0-8.0-2.9","LF","asumwjv4nj","1440","900","en","ne06je04","null","","","","learningBlock2","","","","<div style=""font-size:60px;""> </div>","null","LF","learning/Slide90.JPG","This is a dep:","",""
"","html-keyboard-response","278","458412","0.0-8.0-0.10","LF","asumwjv4nj","1440","900","en","ne06je04","null","","","","learningBlock2","","","","This is a wug:","null","","","","",""
"","image-keyboard-response","279","458748","0.0-8.0-1.10","LF","asumwjv4nj","1440","900","en","ne06je04","null","","","","","","","","learning/Slide91.JPG","null","","","","",""
"","html-keyboard-response","280","459752","0.0-8.0-2.10","LF","asumwjv4nj","1440","900","en","ne06je04","null","","","","learningBlock2","","","","<div style=""font-size:60px;""> </div>","null","LF","learning/Slide91.JPG","This is a wug:","",""
"","html-keyboard-response","281","460754","0.0-8.0-0.11","LF","asumwjv4nj","1440","900","en","ne06je04","null","","","","learningBlock2","","","","This is a tob:","null","","","","",""
"","image-keyboard-response","282","461081","0.0-8.0-1.11","LF","asumwjv4nj","1440","900","en","ne06je04","null","","","","","","","","learning/Slide92.JPG","null","","","","",""
"","html-keyboard-response","283","462082","0.0-8.0-2.11","LF","asumwjv4nj","1440","900","en","ne06je04","null","","","","learningBlock2","","","","<div style=""font-size:60px;""> </div>","null","LF","learning/Slide92.JPG","This is a tob:","",""
"","html-keyboard-response","284","463085","0.0-8.0-0.12","LF","asumwjv4nj","1440","900","en","ne06je04","null","","","","learningBlock2","","","","This is a bim:","null","","","","",""
"","image-keyboard-response","285","463420","0.0-8.0-1.12","LF","asumwjv4nj","1440","900","en","ne06je04","null","","","","","","","","learning/Slide93.JPG","null","","","","",""
"","html-keyboard-response","286","464422","0.0-8.0-2.12","LF","asumwjv4nj","1440","900","en","ne06je04","null","","","","learningBlock2","","","","<div style=""font-size:60px;""> </div>","null","LF","learning/Slide93.JPG","This is a bim:","",""
"","html-keyboard-response","287","465423","0.0-8.0-0.13","LF","asumwjv4nj","1440","900","en","ne06je04","null","","","","learningBlock2","","","","This is a tob:","null","","","","",""
"","image-keyboard-response","288","465757","0.0-8.0-1.13","LF","asumwjv4nj","1440","900","en","ne06je04","null","","","","","","","","learning/Slide94.JPG","null","","","","",""
"","html-keyboard-response","289","466762","0.0-8.0-2.13","LF","asumwjv4nj","1440","900","en","ne06je04","null","","","","learningBlock2","","","","<div style=""font-size:60px;""> </div>","null","LF","learning/Slide94.JPG","This is a tob:","",""
"","html-keyboard-response","290","467768","0.0-8.0-0.14","LF","asumwjv4nj","1440","900","en","ne06je04","null","","","","learningBlock2","","","","This is a wug:","null","","","","",""
"","image-keyboard-response","291","468102","0.0-8.0-1.14","LF","asumwjv4nj","1440","900","en","ne06je04","null","","","","","","","","learning/Slide95.JPG","null","","","","",""
"","html-keyboard-response","292","469105","0.0-8.0-2.14","LF","asumwjv4nj","1440","900","en","ne06je04","null","","","","learningBlock2","","","","<div style=""font-size:60px;""> </div>","null","LF","learning/Slide95.JPG","This is a wug:","",""
"","html-keyboard-response","293","470111","0.0-8.0-0.15","LF","asumwjv4nj","1440","900","en","ne06je04","null","","","","learningBlock2","","","","This is a tob:","null","","","","",""
"","image-keyboard-response","294","470442","0.0-8.0-1.15","LF","asumwjv4nj","1440","900","en","ne06je04","null","","","","","","","","learning/Slide96.JPG","null","","","","",""
"","html-keyboard-response","295","471448","0.0-8.0-2.15","LF","asumwjv4nj","1440","900","en","ne06je04","null","","","","learningBlock2","","","","<div style=""font-size:60px;""> </div>","null","LF","learning/Slide96.JPG","This is a tob:","",""
"","html-keyboard-response","296","472452","0.0-8.0-0.16","LF","asumwjv4nj","1440","900","en","ne06je04","null","","","","learningBlock2","","","","This is a dep:","null","","","","",""
"","image-keyboard-response","297","472783","0.0-8.0-1.16","LF","asumwjv4nj","1440","900","en","ne06je04","null","","","","","","","","learning/Slide97.JPG","null","","","","",""
"","html-keyboard-response","298","473786","0.0-8.0-2.16","LF","asumwjv4nj","1440","900","en","ne06je04","null","","","","learningBlock2","","","","<div style=""font-size:60px;""> </div>","null","LF","learning/Slide97.JPG","This is a dep:","",""
"","html-keyboard-response","299","474788","0.0-8.0-0.17","LF","asumwjv4nj","1440","900","en","ne06je04","null","","","","learningBlock2","","","","This is a bim:","null","","","","",""
"","image-keyboard-response","300","475122","0.0-8.0-1.17","LF","asumwjv4nj","1440","900","en","ne06je04","null","","","","","","","","learning/Slide98.JPG","null","","","","",""
"","html-keyboard-response","301","476128","0.0-8.0-2.17","LF","asumwjv4nj","1440","900","en","ne06je04","null","","","","learningBlock2","","","","<div style=""font-size:60px;""> </div>","null","LF","learning/Slide98.JPG","This is a bim:","",""
"","html-keyboard-response","302","477132","0.0-8.0-0.18","LF","asumwjv4nj","1440","900","en","ne06je04","null","","","","learningBlock2","","","","This is a dep:","null","","","","",""
"","image-keyboard-response","303","477464","0.0-8.0-1.18","LF","asumwjv4nj","1440","900","en","ne06je04","null","","","","","","","","learning/Slide99.JPG","null","","","","",""
"","html-keyboard-response","304","478468","0.0-8.0-2.18","LF","asumwjv4nj","1440","900","en","ne06je04","null","","","","learningBlock2","","","","<div style=""font-size:60px;""> </div>","null","LF","learning/Slide99.JPG","This is a dep:","",""
"","html-keyboard-response","305","479472","0.0-8.0-0.19","LF","asumwjv4nj","1440","900","en","ne06je04","null","","","","learningBlock2","","","","This is a bim:","null","","","","",""
"","image-keyboard-response","306","479801","0.0-8.0-1.19","LF","asumwjv4nj","1440","900","en","ne06je04","null","","","","","","","","learning/Slide100.JPG","null","","","","",""
"","html-keyboard-response","307","480808","0.0-8.0-2.19","LF","asumwjv4nj","1440","900","en","ne06je04","null","","","","learningBlock2","","","","<div style=""font-size:60px;""> </div>","null","LF","learning/Slide100.JPG","This is a bim:","",""
"","html-keyboard-response","308","481812","0.0-8.0-0.20","LF","asumwjv4nj","1440","900","en","ne06je04","null","","","","learningBlock2","","","","This is a tob:","null","","","","",""
"","image-keyboard-response","309","482142","0.0-8.0-1.20","LF","asumwjv4nj","1440","900","en","ne06je04","null","","","","","","","","learning/Slide101.JPG","null","","","","",""
"","html-keyboard-response","310","483145","0.0-8.0-2.20","LF","asumwjv4nj","1440","900","en","ne06je04","null","","","","learningBlock2","","","","<div style=""font-size:60px;""> </div>","null","LF","learning/Slide101.JPG","This is a tob:","",""
"","html-keyboard-response","311","484148","0.0-8.0-0.21","LF","asumwjv4nj","1440","900","en","ne06je04","null","","","","learningBlock2","","","","This is a bim:","null","","","","",""
"","image-keyboard-response","312","484482","0.0-8.0-1.21","LF","asumwjv4nj","1440","900","en","ne06je04","null","","","","","","","","learning/Slide102.JPG","null","","","","",""
"","html-keyboard-response","313","485487","0.0-8.0-2.21","LF","asumwjv4nj","1440","900","en","ne06je04","null","","","","learningBlock2","","","","<div style=""font-size:60px;""> </div>","null","LF","learning/Slide102.JPG","This is a bim:","",""
"","html-keyboard-response","314","486492","0.0-8.0-0.22","LF","asumwjv4nj","1440","900","en","ne06je04","null","","","","learningBlock2","","","","This is a dep:","null","","","","",""
"","image-keyboard-response","315","486825","0.0-8.0-1.22","LF","asumwjv4nj","1440","900","en","ne06je04","null","","","","","","","","learning/Slide103.JPG","null","","","","",""
"","html-keyboard-response","316","487829","0.0-8.0-2.22","LF","asumwjv4nj","1440","900","en","ne06je04","null","","","","learningBlock2","","","","<div style=""font-size:60px;""> </div>","null","LF","learning/Slide103.JPG","This is a dep:","",""
"","html-keyboard-response","317","488832","0.0-8.0-0.23","LF","asumwjv4nj","1440","900","en","ne06je04","null","","","","learningBlock2","","","","This is a tob:","null","","","","",""
"","image-keyboard-response","318","489162","0.0-8.0-1.23","LF","asumwjv4nj","1440","900","en","ne06je04","null","","","","","","","","learning/Slide104.JPG","null","","","","",""
"","html-keyboard-response","319","490168","0.0-8.0-2.23","LF","asumwjv4nj","1440","900","en","ne06je04","null","","","","learningBlock2","","","","<div style=""font-size:60px;""> </div>","null","LF","learning/Slide104.JPG","This is a tob:","",""
"","html-keyboard-response","320","491172","0.0-8.0-0.24","LF","asumwjv4nj","1440","900","en","ne06je04","null","","","","learningBlock2","","","","This is a dep:","null","","","","",""
"","image-keyboard-response","321","491508","0.0-8.0-1.24","LF","asumwjv4nj","1440","900","en","ne06je04","null","","","","","","","","learning/Slide105.JPG","null","","","","",""
"","html-keyboard-response","322","492512","0.0-8.0-2.24","LF","asumwjv4nj","1440","900","en","ne06je04","null","","","","learningBlock2","","","","<div style=""font-size:60px;""> </div>","null","LF","learning/Slide105.JPG","This is a dep:","",""
"","html-keyboard-response","323","493513","0.0-8.0-0.25","LF","asumwjv4nj","1440","900","en","ne06je04","null","","","","learningBlock2","","","","This is a wug:","null","","","","",""
"","image-keyboard-response","324","493848","0.0-8.0-1.25","LF","asumwjv4nj","1440","900","en","ne06je04","null","","","","","","","","learning/Slide106.JPG","null","","","","",""
"","html-keyboard-response","325","494851","0.0-8.0-2.25","LF","asumwjv4nj","1440","900","en","ne06je04","null","","","","learningBlock2","","","","<div style=""font-size:60px;""> </div>","null","LF","learning/Slide106.JPG","This is a wug:","",""
"","html-keyboard-response","326","495854","0.0-8.0-0.26","LF","asumwjv4nj","1440","900","en","ne06je04","null","","","","learningBlock2","","","","This is a bim:","null","","","","",""
"","image-keyboard-response","327","496188","0.0-8.0-1.26","LF","asumwjv4nj","1440","900","en","ne06je04","null","","","","","","","","learning/Slide107.JPG","null","","","","",""
"","html-keyboard-response","328","497192","0.0-8.0-2.26","LF","asumwjv4nj","1440","900","en","ne06je04","null","","","","learningBlock2","","","","<div style=""font-size:60px;""> </div>","null","LF","learning/Slide107.JPG","This is a bim:","",""
"","html-keyboard-response","329","498198","0.0-8.0-0.27","LF","asumwjv4nj","1440","900","en","ne06je04","null","","","","learningBlock2","","","","This is a dep:","null","","","","",""
"","image-keyboard-response","330","498531","0.0-8.0-1.27","LF","asumwjv4nj","1440","900","en","ne06je04","null","","","","","","","","learning/Slide108.JPG","null","","","","",""
"","html-keyboard-response","331","499536","0.0-8.0-2.27","LF","asumwjv4nj","1440","900","en","ne06je04","null","","","","learningBlock2","","","","<div style=""font-size:60px;""> </div>","null","LF","learning/Slide108.JPG","This is a dep:","",""
"","html-keyboard-response","332","500542","0.0-8.0-0.28","LF","asumwjv4nj","1440","900","en","ne06je04","null","","","","learningBlock2","","","","This is a wug:","null","","","","",""
"","image-keyboard-response","333","500872","0.0-8.0-1.28","LF","asumwjv4nj","1440","900","en","ne06je04","null","","","","","","","","learning/Slide109.JPG","null","","","","",""
"","html-keyboard-response","334","501874","0.0-8.0-2.28","LF","asumwjv4nj","1440","900","en","ne06je04","null","","","","learningBlock2","","","","<div style=""font-size:60px;""> </div>","null","LF","learning/Slide109.JPG","This is a wug:","",""
"","html-keyboard-response","335","502880","0.0-8.0-0.29","LF","asumwjv4nj","1440","900","en","ne06je04","null","","","","learningBlock2","","","","This is a bim:","null","","","","",""
"","image-keyboard-response","336","503212","0.0-8.0-1.29","LF","asumwjv4nj","1440","900","en","ne06je04","null","","","","","","","","learning/Slide110.JPG","null","","","","",""
"","html-keyboard-response","337","504217","0.0-8.0-2.29","LF","asumwjv4nj","1440","900","en","ne06je04","null","","","","learningBlock2","","","","<div style=""font-size:60px;""> </div>","null","LF","learning/Slide110.JPG","This is a bim:","",""
"","html-keyboard-response","338","505222","0.0-8.0-0.30","LF","asumwjv4nj","1440","900","en","ne06je04","null","","","","learningBlock2","","","","This is a tob:","null","","","","",""
"","image-keyboard-response","339","505551","0.0-8.0-1.30","LF","asumwjv4nj","1440","900","en","ne06je04","null","","","","","","","","learning/Slide111.JPG","null","","","","",""
"","html-keyboard-response","340","506555","0.0-8.0-2.30","LF","asumwjv4nj","1440","900","en","ne06je04","null","","","","learningBlock2","","","","<div style=""font-size:60px;""> </div>","null","LF","learning/Slide111.JPG","This is a tob:","",""
"","html-keyboard-response","341","507560","0.0-8.0-0.31","LF","asumwjv4nj","1440","900","en","ne06je04","null","","","","learningBlock2","","","","This is a wug:","null","","","","",""
"","image-keyboard-response","342","507892","0.0-8.0-1.31","LF","asumwjv4nj","1440","900","en","ne06je04","null","","","","","","","","learning/Slide112.JPG","null","","","","",""
"","html-keyboard-response","343","508898","0.0-8.0-2.31","LF","asumwjv4nj","1440","900","en","ne06je04","null","","","","learningBlock2","","","","<div style=""font-size:60px;""> </div>","null","LF","learning/Slide112.JPG","This is a wug:","",""
"","html-keyboard-response","344","509901","0.0-8.0-0.32","LF","asumwjv4nj","1440","900","en","ne06je04","null","","","","learningBlock2","","","","This is a tob:","null","","","","",""
"","image-keyboard-response","345","510237","0.0-8.0-1.32","LF","asumwjv4nj","1440","900","en","ne06je04","null","","","","","","","","learning/Slide113.JPG","null","","","","",""
"","html-keyboard-response","346","511241","0.0-8.0-2.32","LF","asumwjv4nj","1440","900","en","ne06je04","null","","","","learningBlock2","","","","<div style=""font-size:60px;""> </div>","null","LF","learning/Slide113.JPG","This is a tob:","",""
"","html-keyboard-response","347","512244","0.0-8.0-0.33","LF","asumwjv4nj","1440","900","en","ne06je04","null","","","","learningBlock2","","","","This is a wug:","null","","","","",""
"","image-keyboard-response","348","512580","0.0-8.0-1.33","LF","asumwjv4nj","1440","900","en","ne06je04","null","","","","","","","","learning/Slide114.JPG","null","","","","",""
"","html-keyboard-response","349","513582","0.0-8.0-2.33","LF","asumwjv4nj","1440","900","en","ne06je04","null","","","","learningBlock2","","","","<div style=""font-size:60px;""> </div>","null","LF","learning/Slide114.JPG","This is a wug:","",""
"","html-keyboard-response","350","514587","0.0-8.0-0.34","LF","asumwjv4nj","1440","900","en","ne06je04","null","","","","learningBlock2","","","","This is a bim:","null","","","","",""
"","image-keyboard-response","351","514921","0.0-8.0-1.34","LF","asumwjv4nj","1440","900","en","ne06je04","null","","","","","","","","learning/Slide115.JPG","null","","","","",""
"","html-keyboard-response","352","515928","0.0-8.0-2.34","LF","asumwjv4nj","1440","900","en","ne06je04","null","","","","learningBlock2","","","","<div style=""font-size:60px;""> </div>","null","LF","learning/Slide115.JPG","This is a bim:","",""
"","html-keyboard-response","353","516931","0.0-8.0-0.35","LF","asumwjv4nj","1440","900","en","ne06je04","null","","","","learningBlock2","","","","This is a dep:","null","","","","",""
"","image-keyboard-response","354","517266","0.0-8.0-1.35","LF","asumwjv4nj","1440","900","en","ne06je04","null","","","","","","","","learning/Slide116.JPG","null","","","","",""
"","html-keyboard-response","355","518271","0.0-8.0-2.35","LF","asumwjv4nj","1440","900","en","ne06je04","null","","","","learningBlock2","","","","<div style=""font-size:60px;""> </div>","null","LF","learning/Slide116.JPG","This is a dep:","",""
"","html-keyboard-response","356","519277","0.0-8.0-0.36","LF","asumwjv4nj","1440","900","en","ne06je04","null","","","","learningBlock2","","","","This is a tob:","null","","","","",""
"","image-keyboard-response","357","519611","0.0-8.0-1.36","LF","asumwjv4nj","1440","900","en","ne06je04","null","","","","","","","","learning/Slide117.JPG","null","","","","",""
"","html-keyboard-response","358","520618","0.0-8.0-2.36","LF","asumwjv4nj","1440","900","en","ne06je04","null","","","","learningBlock2","","","","<div style=""font-size:60px;""> </div>","null","LF","learning/Slide117.JPG","This is a tob:","",""
"","html-keyboard-response","359","521620","0.0-8.0-0.37","LF","asumwjv4nj","1440","900","en","ne06je04","null","","","","learningBlock2","","","","This is a dep:","null","","","","",""
"","image-keyboard-response","360","521951","0.0-8.0-1.37","LF","asumwjv4nj","1440","900","en","ne06je04","null","","","","","","","","learning/Slide118.JPG","null","","","","",""
"","html-keyboard-response","361","522957","0.0-8.0-2.37","LF","asumwjv4nj","1440","900","en","ne06je04","null","","","","learningBlock2","","","","<div style=""font-size:60px;""> </div>","null","LF","learning/Slide118.JPG","This is a dep:","",""
"","html-keyboard-response","362","523962","0.0-8.0-0.38","LF","asumwjv4nj","1440","900","en","ne06je04","null","","","","learningBlock2","","","","This is a wug:","null","","","","",""
"","image-keyboard-response","363","524291","0.0-8.0-1.38","LF","asumwjv4nj","1440","900","en","ne06je04","null","","","","","","","","learning/Slide119.JPG","null","","","","",""
"","html-keyboard-response","364","525293","0.0-8.0-2.38","LF","asumwjv4nj","1440","900","en","ne06je04","null","","","","learningBlock2","","","","<div style=""font-size:60px;""> </div>","null","LF","learning/Slide119.JPG","This is a wug:","",""
"","html-keyboard-response","365","526296","0.0-8.0-0.39","LF","asumwjv4nj","1440","900","en","ne06je04","null","","","","learningBlock2","","","","This is a dep:","null","","","","",""
"","image-keyboard-response","366","526631","0.0-8.0-1.39","LF","asumwjv4nj","1440","900","en","ne06je04","null","","","","","","","","learning/Slide120.JPG","null","","","","",""
"","html-keyboard-response","367","527638","0.0-8.0-2.39","LF","asumwjv4nj","1440","900","en","ne06je04","null","","","","learningBlock2","","","","<div style=""font-size:60px;""> </div>","null","LF","learning/Slide120.JPG","This is a dep:","",""
"","html-keyboard-response","368","528641","0.0-8.0-0.40","LF","asumwjv4nj","1440","900","en","ne06je04","null","","","","learningBlock2","","","","This is a bim:","null","","","","",""
"","image-keyboard-response","369","528971","0.0-8.0-1.40","LF","asumwjv4nj","1440","900","en","ne06je04","null","","","","","","","","learning/Slide121.JPG","null","","","","",""
"","html-keyboard-response","370","529978","0.0-8.0-2.40","LF","asumwjv4nj","1440","900","en","ne06je04","null","","","","learningBlock2","","","","<div style=""font-size:60px;""> </div>","null","LF","learning/Slide121.JPG","This is a bim:","",""
"","html-keyboard-response","371","530981","0.0-8.0-0.41","LF","asumwjv4nj","1440","900","en","ne06je04","null","","","","learningBlock2","","","","This is a wug:","null","","","","",""
"","image-keyboard-response","372","531317","0.0-8.0-1.41","LF","asumwjv4nj","1440","900","en","ne06je04","null","","","","","","","","learning/Slide122.JPG","null","","","","",""
"","html-keyboard-response","373","532321","0.0-8.0-2.41","LF","asumwjv4nj","1440","900","en","ne06je04","null","","","","learningBlock2","","","","<div style=""font-size:60px;""> </div>","null","LF","learning/Slide122.JPG","This is a wug:","",""
"","html-keyboard-response","374","533327","0.0-8.0-0.42","LF","asumwjv4nj","1440","900","en","ne06je04","null","","","","learningBlock2","","","","This is a bim:","null","","","","",""
"","image-keyboard-response","375","533661","0.0-8.0-1.42","LF","asumwjv4nj","1440","900","en","ne06je04","null","","","","","","","","learning/Slide123.JPG","null","","","","",""
"","html-keyboard-response","376","534663","0.0-8.0-2.42","LF","asumwjv4nj","1440","900","en","ne06je04","null","","","","learningBlock2","","","","<div style=""font-size:60px;""> </div>","null","LF","learning/Slide123.JPG","This is a bim:","",""
"","html-keyboard-response","377","535665","0.0-8.0-0.43","LF","asumwjv4nj","1440","900","en","ne06je04","null","","","","learningBlock2","","","","This is a tob:","null","","","","",""
"","image-keyboard-response","378","536001","0.0-8.0-1.43","LF","asumwjv4nj","1440","900","en","ne06je04","null","","","","","","","","learning/Slide124.JPG","null","","","","",""
"","html-keyboard-response","379","537007","0.0-8.0-2.43","LF","asumwjv4nj","1440","900","en","ne06je04","null","","","","learningBlock2","","","","<div style=""font-size:60px;""> </div>","null","LF","learning/Slide124.JPG","This is a tob:","",""
"","html-keyboard-response","380","538011","0.0-8.0-0.44","LF","asumwjv4nj","1440","900","en","ne06je04","null","","","","learningBlock2","","","","This is a bim:","null","","","","",""
"","image-keyboard-response","381","538341","0.0-8.0-1.44","LF","asumwjv4nj","1440","900","en","ne06je04","null","","","","","","","","learning/Slide125.JPG","null","","","","",""
"","html-keyboard-response","382","539348","0.0-8.0-2.44","LF","asumwjv4nj","1440","900","en","ne06je04","null","","","","learningBlock2","","","","<div style=""font-size:60px;""> </div>","null","LF","learning/Slide125.JPG","This is a bim:","",""
"","html-keyboard-response","383","540351","0.0-8.0-0.45","LF","asumwjv4nj","1440","900","en","ne06je04","null","","","","learningBlock2","","","","This is a tob:","null","","","","",""
"","image-keyboard-response","384","540687","0.0-8.0-1.45","LF","asumwjv4nj","1440","900","en","ne06je04","null","","","","","","","","learning/Slide126.JPG","null","","","","",""
"","html-keyboard-response","385","541690","0.0-8.0-2.45","LF","asumwjv4nj","1440","900","en","ne06je04","null","","","","learningBlock2","","","","<div style=""font-size:60px;""> </div>","null","LF","learning/Slide126.JPG","This is a tob:","",""
"","html-keyboard-response","386","542692","0.0-8.0-0.46","LF","asumwjv4nj","1440","900","en","ne06je04","null","","","","learningBlock2","","","","This is a dep:","null","","","","",""
"","image-keyboard-response","387","543028","0.0-8.0-1.46","LF","asumwjv4nj","1440","900","en","ne06je04","null","","","","","","","","learning/Slide127.JPG","null","","","","",""
"","html-keyboard-response","388","544031","0.0-8.0-2.46","LF","asumwjv4nj","1440","900","en","ne06je04","null","","","","learningBlock2","","","","<div style=""font-size:60px;""> </div>","null","LF","learning/Slide127.JPG","This is a dep:","",""
"","html-keyboard-response","389","545034","0.0-8.0-0.47","LF","asumwjv4nj","1440","900","en","ne06je04","null","","","","learningBlock2","","","","This is a wug:","null","","","","",""
"","image-keyboard-response","390","545367","0.0-8.0-1.47","LF","asumwjv4nj","1440","900","en","ne06je04","null","","","","","","","","learning/Slide128.JPG","null","","","","",""
"","html-keyboard-response","391","546371","0.0-8.0-2.47","LF","asumwjv4nj","1440","900","en","ne06je04","null","","","","learningBlock2","","","","<div style=""font-size:60px;""> </div>","null","LF","learning/Slide128.JPG","This is a wug:","",""
"","html-keyboard-response","392","547377","0.0-8.0-0.48","LF","asumwjv4nj","1440","900","en","ne06je04","null","","","","learningBlock2","","","","This is a tob:","null","","","","",""
"","image-keyboard-response","393","547711","0.0-8.0-1.48","LF","asumwjv4nj","1440","900","en","ne06je04","null","","","","","","","","learning/Slide129.JPG","null","","","","",""
"","html-keyboard-response","394","548716","0.0-8.0-2.48","LF","asumwjv4nj","1440","900","en","ne06je04","null","","","","learningBlock2","","","","<div style=""font-size:60px;""> </div>","null","LF","learning/Slide129.JPG","This is a tob:","",""
"","html-keyboard-response","395","549720","0.0-8.0-0.49","LF","asumwjv4nj","1440","900","en","ne06je04","null","","","","learningBlock2","","","","This is a wug:","null","","","","",""
"","image-keyboard-response","396","550051","0.0-8.0-1.49","LF","asumwjv4nj","1440","900","en","ne06je04","null","","","","","","","","learning/Slide130.JPG","null","","","","",""
"","html-keyboard-response","397","551056","0.0-8.0-2.49","LF","asumwjv4nj","1440","900","en","ne06je04","null","","","","learningBlock2","","","","<div style=""font-size:60px;""> </div>","null","LF","learning/Slide130.JPG","This is a wug:","",""
"","html-keyboard-response","398","552061","0.0-8.0-0.50","LF","asumwjv4nj","1440","900","en","ne06je04","null","","","","learningBlock2","","","","This is a bim:","null","","","","",""
"","image-keyboard-response","399","552396","0.0-8.0-1.50","LF","asumwjv4nj","1440","900","en","ne06je04","null","","","","","","","","learning/Slide131.JPG","null","","","","",""
"","html-keyboard-response","400","553401","0.0-8.0-2.50","LF","asumwjv4nj","1440","900","en","ne06je04","null","","","","learningBlock2","","","","<div style=""font-size:60px;""> </div>","null","LF","learning/Slide131.JPG","This is a bim:","",""
"","html-keyboard-response","401","554407","0.0-8.0-0.51","LF","asumwjv4nj","1440","900","en","ne06je04","null","","","","learningBlock2","","","","This is a dep:","null","","","","",""
"","image-keyboard-response","402","554741","0.0-8.0-1.51","LF","asumwjv4nj","1440","900","en","ne06je04","null","","","","","","","","learning/Slide132.JPG","null","","","","",""
"","html-keyboard-response","403","555746","0.0-8.0-2.51","LF","asumwjv4nj","1440","900","en","ne06je04","null","","","","learningBlock2","","","","<div style=""font-size:60px;""> </div>","null","LF","learning/Slide132.JPG","This is a dep:","",""
"","html-keyboard-response","404","556751","0.0-8.0-0.52","LF","asumwjv4nj","1440","900","en","ne06je04","null","","","","learningBlock2","","","","This is a tob:","null","","","","",""
"","image-keyboard-response","405","557081","0.0-8.0-1.52","LF","asumwjv4nj","1440","900","en","ne06je04","null","","","","","","","","learning/Slide133.JPG","null","","","","",""
"","html-keyboard-response","406","558087","0.0-8.0-2.52","LF","asumwjv4nj","1440","900","en","ne06je04","null","","","","learningBlock2","","","","<div style=""font-size:60px;""> </div>","null","LF","learning/Slide133.JPG","This is a tob:","",""
"","html-keyboard-response","407","559091","0.0-8.0-0.53","LF","asumwjv4nj","1440","900","en","ne06je04","null","","","","learningBlock2","","","","This is a dep:","null","","","","",""
"","image-keyboard-response","408","559426","0.0-8.0-1.53","LF","asumwjv4nj","1440","900","en","ne06je04","null","","","","","","","","learning/Slide134.JPG","null","","","","",""
"","html-keyboard-response","409","560431","0.0-8.0-2.53","LF","asumwjv4nj","1440","900","en","ne06je04","null","","","","learningBlock2","","","","<div style=""font-size:60px;""> </div>","null","LF","learning/Slide134.JPG","This is a dep:","",""
"","html-keyboard-response","410","561433","0.0-8.0-0.54","LF","asumwjv4nj","1440","900","en","ne06je04","null","","","","learningBlock2","","","","This is a tob:","null","","","","",""
"","image-keyboard-response","411","561767","0.0-8.0-1.54","LF","asumwjv4nj","1440","900","en","ne06je04","null","","","","","","","","learning/Slide135.JPG","null","","","","",""
"","html-keyboard-response","412","562771","0.0-8.0-2.54","LF","asumwjv4nj","1440","900","en","ne06je04","null","","","","learningBlock2","","","","<div style=""font-size:60px;""> </div>","null","LF","learning/Slide135.JPG","This is a tob:","",""
"","html-keyboard-response","413","563773","0.0-8.0-0.55","LF","asumwjv4nj","1440","900","en","ne06je04","null","","","","learningBlock2","","","","This is a wug:","null","","","","",""
"","image-keyboard-response","414","564109","0.0-8.0-1.55","LF","asumwjv4nj","1440","900","en","ne06je04","null","","","","","","","","learning/Slide136.JPG","null","","","","",""
"","html-keyboard-response","415","565111","0.0-8.0-2.55","LF","asumwjv4nj","1440","900","en","ne06je04","null","","","","learningBlock2","","","","<div style=""font-size:60px;""> </div>","null","LF","learning/Slide136.JPG","This is a wug:","",""
"","html-keyboard-response","416","566114","0.0-8.0-0.56","LF","asumwjv4nj","1440","900","en","ne06je04","null","","","","learningBlock2","","","","This is a tob:","null","","","","",""
"","image-keyboard-response","417","566447","0.0-8.0-1.56","LF","asumwjv4nj","1440","900","en","ne06je04","null","","","","","","","","learning/Slide137.JPG","null","","","","",""
"","html-keyboard-response","418","567451","0.0-8.0-2.56","LF","asumwjv4nj","1440","900","en","ne06je04","null","","","","learningBlock2","","","","<div style=""font-size:60px;""> </div>","null","LF","learning/Slide137.JPG","This is a tob:","",""
"","html-keyboard-response","419","568453","0.0-8.0-0.57","LF","asumwjv4nj","1440","900","en","ne06je04","null","","","","learningBlock2","","","","This is a bim:","null","","","","",""
"","image-keyboard-response","420","568781","0.0-8.0-1.57","LF","asumwjv4nj","1440","900","en","ne06je04","null","","","","","","","","learning/Slide138.JPG","null","","","","",""
"","html-keyboard-response","421","569787","0.0-8.0-2.57","LF","asumwjv4nj","1440","900","en","ne06je04","null","","","","learningBlock2","","","","<div style=""font-size:60px;""> </div>","null","LF","learning/Slide138.JPG","This is a bim:","",""
"","html-keyboard-response","422","570791","0.0-8.0-0.58","LF","asumwjv4nj","1440","900","en","ne06je04","null","","","","learningBlock2","","","","This is a wug:","null","","","","",""
"","image-keyboard-response","423","571127","0.0-8.0-1.58","LF","asumwjv4nj","1440","900","en","ne06je04","null","","","","","","","","learning/Slide139.JPG","null","","","","",""
"","html-keyboard-response","424","572131","0.0-8.0-2.58","LF","asumwjv4nj","1440","900","en","ne06je04","null","","","","learningBlock2","","","","<div style=""font-size:60px;""> </div>","null","LF","learning/Slide139.JPG","This is a wug:","",""
"","html-keyboard-response","425","573133","0.0-8.0-0.59","LF","asumwjv4nj","1440","900","en","ne06je04","null","","","","learningBlock2","","","","This is a dep:","null","","","","",""
"","image-keyboard-response","426","573461","0.0-8.0-1.59","LF","asumwjv4nj","1440","900","en","ne06je04","null","","","","","","","","learning/Slide140.JPG","null","","","","",""
"","html-keyboard-response","427","574467","0.0-8.0-2.59","LF","asumwjv4nj","1440","900","en","ne06je04","null","","","","learningBlock2","","","","<div style=""font-size:60px;""> </div>","null","LF","learning/Slide140.JPG","This is a dep:","",""
"","html-keyboard-response","428","575471","0.0-8.0-0.60","LF","asumwjv4nj","1440","900","en","ne06je04","null","","","","learningBlock2","","","","This is a tob:","null","","","","",""
"","image-keyboard-response","429","575807","0.0-8.0-1.60","LF","asumwjv4nj","1440","900","en","ne06je04","null","","","","","","","","learning/Slide141.JPG","null","","","","",""
"","html-keyboard-response","430","576811","0.0-8.0-2.60","LF","asumwjv4nj","1440","900","en","ne06je04","null","","","","learningBlock2","","","","<div style=""font-size:60px;""> </div>","null","LF","learning/Slide141.JPG","This is a tob:","",""
"","html-keyboard-response","431","577814","0.0-8.0-0.61","LF","asumwjv4nj","1440","900","en","ne06je04","null","","","","learningBlock2","","","","This is a wug:","null","","","","",""
"","image-keyboard-response","432","578150","0.0-8.0-1.61","LF","asumwjv4nj","1440","900","en","ne06je04","null","","","","","","","","learning/Slide142.JPG","null","","","","",""
"","html-keyboard-response","433","579156","0.0-8.0-2.61","LF","asumwjv4nj","1440","900","en","ne06je04","null","","","","learningBlock2","","","","<div style=""font-size:60px;""> </div>","null","LF","learning/Slide142.JPG","This is a wug:","",""
"","html-keyboard-response","434","580161","0.0-8.0-0.62","LF","asumwjv4nj","1440","900","en","ne06je04","null","","","","learningBlock2","","","","This is a bim:","null","","","","",""
"","image-keyboard-response","435","580494","0.0-8.0-1.62","LF","asumwjv4nj","1440","900","en","ne06je04","null","","","","","","","","learning/Slide143.JPG","null","","","","",""
"","html-keyboard-response","436","581498","0.0-8.0-2.62","LF","asumwjv4nj","1440","900","en","ne06je04","null","","","","learningBlock2","","","","<div style=""font-size:60px;""> </div>","null","LF","learning/Slide143.JPG","This is a bim:","",""
"","html-keyboard-response","437","582504","0.0-8.0-0.63","LF","asumwjv4nj","1440","900","en","ne06je04","null","","","","learningBlock2","","","","This is a dep:","null","","","","",""
"","image-keyboard-response","438","582834","0.0-8.0-1.63","LF","asumwjv4nj","1440","900","en","ne06je04","null","","","","","","","","learning/Slide144.JPG","null","","","","",""
"","html-keyboard-response","439","583841","0.0-8.0-2.63","LF","asumwjv4nj","1440","900","en","ne06je04","null","","","","learningBlock2","","","","<div style=""font-size:60px;""> </div>","null","LF","learning/Slide144.JPG","This is a dep:","",""
"","html-keyboard-response","440","584847","0.0-8.0-0.64","LF","asumwjv4nj","1440","900","en","ne06je04","null","","","","learningBlock2","","","","This is a bim:","null","","","","",""
"","image-keyboard-response","441","585181","0.0-8.0-1.64","LF","asumwjv4nj","1440","900","en","ne06je04","null","","","","","","","","learning/Slide145.JPG","null","","","","",""
"","html-keyboard-response","442","586182","0.0-8.0-2.64","LF","asumwjv4nj","1440","900","en","ne06je04","null","","","","learningBlock2","","","","<div style=""font-size:60px;""> </div>","null","LF","learning/Slide145.JPG","This is a bim:","",""
"","html-keyboard-response","443","587185","0.0-8.0-0.65","LF","asumwjv4nj","1440","900","en","ne06je04","null","","","","learningBlock2","","","","This is a tob:","null","","","","",""
"","image-keyboard-response","444","587521","0.0-8.0-1.65","LF","asumwjv4nj","1440","900","en","ne06je04","null","","","","","","","","learning/Slide146.JPG","null","","","","",""
"","html-keyboard-response","445","588527","0.0-8.0-2.65","LF","asumwjv4nj","1440","900","en","ne06je04","null","","","","learningBlock2","","","","<div style=""font-size:60px;""> </div>","null","LF","learning/Slide146.JPG","This is a tob:","",""
"","html-keyboard-response","446","589530","0.0-8.0-0.66","LF","asumwjv4nj","1440","900","en","ne06je04","null","","","","learningBlock2","","","","This is a wug:","null","","","","",""
"","image-keyboard-response","447","589861","0.0-8.0-1.66","LF","asumwjv4nj","1440","900","en","ne06je04","null","","","","","","","","learning/Slide147.JPG","null","","","","",""
"","html-keyboard-response","448","590864","0.0-8.0-2.66","LF","asumwjv4nj","1440","900","en","ne06je04","null","","","","learningBlock2","","","","<div style=""font-size:60px;""> </div>","null","LF","learning/Slide147.JPG","This is a wug:","",""
"","html-keyboard-response","449","591868","0.0-8.0-0.67","LF","asumwjv4nj","1440","900","en","ne06je04","null","","","","learningBlock2","","","","This is a bim:","null","","","","",""
"","image-keyboard-response","450","592199","0.0-8.0-1.67","LF","asumwjv4nj","1440","900","en","ne06je04","null","","","","","","","","learning/Slide148.JPG","null","","","","",""
"","html-keyboard-response","451","593206","0.0-8.0-2.67","LF","asumwjv4nj","1440","900","en","ne06je04","null","","","","learningBlock2","","","","<div style=""font-size:60px;""> </div>","null","LF","learning/Slide148.JPG","This is a bim:","",""
"","html-keyboard-response","452","594209","0.0-8.0-0.68","LF","asumwjv4nj","1440","900","en","ne06je04","null","","","","learningBlock2","","","","This is a dep:","null","","","","",""
"","image-keyboard-response","453","594540","0.0-8.0-1.68","LF","asumwjv4nj","1440","900","en","ne06je04","null","","","","","","","","learning/Slide149.JPG","null","","","","",""
"","html-keyboard-response","454","595547","0.0-8.0-2.68","LF","asumwjv4nj","1440","900","en","ne06je04","null","","","","learningBlock2","","","","<div style=""font-size:60px;""> </div>","null","LF","learning/Slide149.JPG","This is a dep:","",""
"","html-keyboard-response","455","596550","0.0-8.0-0.69","LF","asumwjv4nj","1440","900","en","ne06je04","null","","","","learningBlock2","","","","This is a wug:","null","","","","",""
"","image-keyboard-response","456","596880","0.0-8.0-1.69","LF","asumwjv4nj","1440","900","en","ne06je04","null","","","","","","","","learning/Slide150.JPG","null","","","","",""
"","html-keyboard-response","457","597887","0.0-8.0-2.69","LF","asumwjv4nj","1440","900","en","ne06je04","null","","","","learningBlock2","","","","<div style=""font-size:60px;""> </div>","null","LF","learning/Slide150.JPG","This is a wug:","",""
"","html-keyboard-response","458","598891","0.0-8.0-0.70","LF","asumwjv4nj","1440","900","en","ne06je04","null","","","","learningBlock2","","","","This is a dep:","null","","","","",""
"","image-keyboard-response","459","599220","0.0-8.0-1.70","LF","asumwjv4nj","1440","900","en","ne06je04","null","","","","","","","","learning/Slide151.JPG","null","","","","",""
"","html-keyboard-response","460","600223","0.0-8.0-2.70","LF","asumwjv4nj","1440","900","en","ne06je04","null","","","","learningBlock2","","","","<div style=""font-size:60px;""> </div>","null","LF","learning/Slide151.JPG","This is a dep:","",""
"","html-keyboard-response","461","601224","0.0-8.0-0.71","LF","asumwjv4nj","1440","900","en","ne06je04","null","","","","learningBlock2","","","","This is a wug:","null","","","","",""
"","image-keyboard-response","462","601560","0.0-8.0-1.71","LF","asumwjv4nj","1440","900","en","ne06je04","null","","","","","","","","learning/Slide152.JPG","null","","","","",""
"","html-keyboard-response","463","602562","0.0-8.0-2.71","LF","asumwjv4nj","1440","900","en","ne06je04","null","","","","learningBlock2","","","","<div style=""font-size:60px;""> </div>","null","LF","learning/Slide152.JPG","This is a wug:","",""
"","html-keyboard-response","464","603568","0.0-8.0-0.72","LF","asumwjv4nj","1440","900","en","ne06je04","null","","","","learningBlock2","","","","This is a bim:","null","","","","",""
"","image-keyboard-response","465","603900","0.0-8.0-1.72","LF","asumwjv4nj","1440","900","en","ne06je04","null","","","","","","","","learning/Slide153.JPG","null","","","","",""
"","html-keyboard-response","466","604906","0.0-8.0-2.72","LF","asumwjv4nj","1440","900","en","ne06je04","null","","","","learningBlock2","","","","<div style=""font-size:60px;""> </div>","null","LF","learning/Slide153.JPG","This is a bim:","",""
"","html-keyboard-response","467","605910","0.0-8.0-0.73","LF","asumwjv4nj","1440","900","en","ne06je04","null","","","","learningBlock2","","","","This is a tob:","null","","","","",""
"","image-keyboard-response","468","606240","0.0-8.0-1.73","LF","asumwjv4nj","1440","900","en","ne06je04","null","","","","","","","","learning/Slide154.JPG","null","","","","",""
"","html-keyboard-response","469","607247","0.0-8.0-2.73","LF","asumwjv4nj","1440","900","en","ne06je04","null","","","","learningBlock2","","","","<div style=""font-size:60px;""> </div>","null","LF","learning/Slide154.JPG","This is a tob:","",""
"","html-keyboard-response","470","608250","0.0-8.0-0.74","LF","asumwjv4nj","1440","900","en","ne06je04","null","","","","learningBlock2","","","","This is a dep:","null","","","","",""
"","image-keyboard-response","471","608581","0.0-8.0-1.74","LF","asumwjv4nj","1440","900","en","ne06je04","null","","","","","","","","learning/Slide155.JPG","null","","","","",""
"","html-keyboard-response","472","609588","0.0-8.0-2.74","LF","asumwjv4nj","1440","900","en","ne06je04","null","","","","learningBlock2","","","","<div style=""font-size:60px;""> </div>","null","LF","learning/Slide155.JPG","This is a dep:","",""
"","html-keyboard-response","473","610590","0.0-8.0-0.75","LF","asumwjv4nj","1440","900","en","ne06je04","null","","","","learningBlock2","","","","This is a bim:","null","","","","",""
"","image-keyboard-response","474","610920","0.0-8.0-1.75","LF","asumwjv4nj","1440","900","en","ne06je04","null","","","","","","","","learning/Slide156.JPG","null","","","","",""
"","html-keyboard-response","475","611927","0.0-8.0-2.75","LF","asumwjv4nj","1440","900","en","ne06je04","null","","","","learningBlock2","","","","<div style=""font-size:60px;""> </div>","null","LF","learning/Slide156.JPG","This is a bim:","",""
"","html-keyboard-response","476","612930","0.0-8.0-0.76","LF","asumwjv4nj","1440","900","en","ne06je04","null","","","","learningBlock2","","","","This is a dep:","null","","","","",""
"","image-keyboard-response","477","613267","0.0-8.0-1.76","LF","asumwjv4nj","1440","900","en","ne06je04","null","","","","","","","","learning/Slide157.JPG","null","","","","",""
"","html-keyboard-response","478","614269","0.0-8.0-2.76","LF","asumwjv4nj","1440","900","en","ne06je04","null","","","","learningBlock2","","","","<div style=""font-size:60px;""> </div>","null","LF","learning/Slide157.JPG","This is a dep:","",""
"","html-keyboard-response","479","615270","0.0-8.0-0.77","LF","asumwjv4nj","1440","900","en","ne06je04","null","","","","learningBlock2","","","","This is a tob:","null","","","","",""
"","image-keyboard-response","480","615605","0.0-8.0-1.77","LF","asumwjv4nj","1440","900","en","ne06je04","null","","","","","","","","learning/Slide158.JPG","null","","","","",""
"","html-keyboard-response","481","616610","0.0-8.0-2.77","LF","asumwjv4nj","1440","900","en","ne06je04","null","","","","learningBlock2","","","","<div style=""font-size:60px;""> </div>","null","LF","learning/Slide158.JPG","This is a tob:","",""
"","html-keyboard-response","482","617615","0.0-8.0-0.78","LF","asumwjv4nj","1440","900","en","ne06je04","null","","","","learningBlock2","","","","This is a dep:","null","","","","",""
"","image-keyboard-response","483","617950","0.0-8.0-1.78","LF","asumwjv4nj","1440","900","en","ne06je04","null","","","","","","","","learning/Slide159.JPG","null","","","","",""
"","html-keyboard-response","484","618956","0.0-8.0-2.78","LF","asumwjv4nj","1440","900","en","ne06je04","null","","","","learningBlock2","","","","<div style=""font-size:60px;""> </div>","null","LF","learning/Slide159.JPG","This is a dep:","",""
"","html-keyboard-response","485","619960","0.0-8.0-0.79","LF","asumwjv4nj","1440","900","en","ne06je04","null","","","","learningBlock2","","","","This is a wug:","null","","","","",""
"","image-keyboard-response","486","620290","0.0-8.0-1.79","LF","asumwjv4nj","1440","900","en","ne06je04","null","","","","","","","","learning/Slide160.JPG","null","","","","",""
"","html-keyboard-response","487","621294","0.0-8.0-2.79","LF","asumwjv4nj","1440","900","en","ne06je04","null","","","","learningBlock2","","","","<div style=""font-size:60px;""> </div>","null","LF","learning/Slide160.JPG","This is a wug:","",""
"","resize2","488","623793","0.0-9.0","LF","asumwjv4nj","1440","900","en","ne06je04","","","","","","","105","1.05","","","","","","",""
"","instructions","489","630749","0.0-10.0","LF","asumwjv4nj","1440","900","en","ne06je04","NA","","","[{""page_index"":0,""viewing_time"":6954.880000004778}]","instructions","","","","","","","","","",""
