"success","trial_type","trial_index","time_elapsed","internal_node_id","condition","subject","screen_width","screen_height","language","codeword","rt","responses","url","view_history","test_part","final_height_px","final_width_px","scale_factor","stimulus","key_press","learningType","presentedImage","presentedLabel","button_pressed","response"
"true","fullscreen","0","1824","0.0-0.0","FL","dt4f26xnjv","1536","864","en","ER04LF09","","","","","","","","","","","","","","",""
"","survey-html-form","1","3228","0.0-1.0","FL","dt4f26xnjv","1536","864","en","ER04LF09","1397.705000003043","{""language"":""en""}","","","","","","","","","","","","",""
"","external-html","2","5911","0.0-3.0-0.0","FL","dt4f26xnjv","1536","864","en","ER04LF09","2673.86500000066","","text/information_english.html","","","","","","","","","","","",""
"","external-html","3","14954","0.0-3.0-1.0","FL","dt4f26xnjv","1536","864","en","ER04LF09","9034.934999999678","","text/consent_english.html","","","","","","","","","","","",""
"","survey-html-form","4","17350","0.0-3.0-2.0","FL","dt4f26xnjv","1536","864","en","ER04LF09","2393.180000002758","{""codeword_enter"":""ER04LF09""}","","","","","","","","","","","","",""
"","instructions","5","23607","0.0-4.0","FL","dt4f26xnjv","1536","864","en","ER04LF09","NA","","","[{""page_index"":0,""viewing_time"":1375.915000000532},{""page_index"":1,""viewing_time"":3374.9800000005052}]","instructions","","","","","","","","","",""
"","resize","6","32114","0.0-5.0","FL","dt4f26xnjv","1536","864","en","ER04LF09","","","","","","","386","2.450793650793651","","","","","","",""
"","image-keyboard-response","7","32294","0.0-6.0-0.0","FL","dt4f26xnjv","1536","864","en","ER04LF09","null","","","","","","","","learning/Slide1.JPG","null","","","","",""
"","html-keyboard-response","8","33450","0.0-6.0-1.0","FL","dt4f26xnjv","1536","864","en","ER04LF09","null","","","","learningBlock1","","","","That was a tob.","null","","","","",""
"","html-keyboard-response","9","34457","0.0-6.0-2.0","FL","dt4f26xnjv","1536","864","en","ER04LF09","null","","","","learningBlock1","","","","<div style=""font-size:60px;""> </div>","null","FL","learning/Slide1.JPG","That was a tob.","",""
"","image-keyboard-response","10","34639","0.0-6.0-0.1","FL","dt4f26xnjv","1536","864","en","ER04LF09","null","","","","","","","","learning/Slide2.JPG","null","","","","",""
"","html-keyboard-response","11","35794","0.0-6.0-1.1","FL","dt4f26xnjv","1536","864","en","ER04LF09","null","","","","learningBlock1","","","","That was a wug.","null","","","","",""
"","html-keyboard-response","12","36797","0.0-6.0-2.1","FL","dt4f26xnjv","1536","864","en","ER04LF09","null","","","","learningBlock1","","","","<div style=""font-size:60px;""> </div>","null","FL","learning/Slide2.JPG","That was a wug.","",""
"","image-keyboard-response","13","36976","0.0-6.0-0.2","FL","dt4f26xnjv","1536","864","en","ER04LF09","null","","","","","","","","learning/Slide3.JPG","null","","","","",""
"","html-keyboard-response","14","38133","0.0-6.0-1.2","FL","dt4f26xnjv","1536","864","en","ER04LF09","null","","","","learningBlock1","","","","That was a bim.","null","","","","",""
"","html-keyboard-response","15","39136","0.0-6.0-2.2","FL","dt4f26xnjv","1536","864","en","ER04LF09","null","","","","learningBlock1","","","","<div style=""font-size:60px;""> </div>","null","FL","learning/Slide3.JPG","That was a bim.","",""
"","image-keyboard-response","16","39318","0.0-6.0-0.3","FL","dt4f26xnjv","1536","864","en","ER04LF09","null","","","","","","","","learning/Slide4.JPG","null","","","","",""
"","html-keyboard-response","17","40474","0.0-6.0-1.3","FL","dt4f26xnjv","1536","864","en","ER04LF09","null","","","","learningBlock1","","","","That was a dep.","null","","","","",""
"","html-keyboard-response","18","41479","0.0-6.0-2.3","FL","dt4f26xnjv","1536","864","en","ER04LF09","null","","","","learningBlock1","","","","<div style=""font-size:60px;""> </div>","null","FL","learning/Slide4.JPG","That was a dep.","",""
"","image-keyboard-response","19","41657","0.0-6.0-0.4","FL","dt4f26xnjv","1536","864","en","ER04LF09","null","","","","","","","","learning/Slide5.JPG","null","","","","",""
"","html-keyboard-response","20","42814","0.0-6.0-1.4","FL","dt4f26xnjv","1536","864","en","ER04LF09","null","","","","learningBlock1","","","","That was a wug.","null","","","","",""
"","html-keyboard-response","21","43817","0.0-6.0-2.4","FL","dt4f26xnjv","1536","864","en","ER04LF09","null","","","","learningBlock1","","","","<div style=""font-size:60px;""> </div>","null","FL","learning/Slide5.JPG","That was a wug.","",""
"","image-keyboard-response","22","43996","0.0-6.0-0.5","FL","dt4f26xnjv","1536","864","en","ER04LF09","null","","","","","","","","learning/Slide6.JPG","null","","","","",""
"","html-keyboard-response","23","45150","0.0-6.0-1.5","FL","dt4f26xnjv","1536","864","en","ER04LF09","null","","","","learningBlock1","","","","That was a dep.","null","","","","",""
"","html-keyboard-response","24","46154","0.0-6.0-2.5","FL","dt4f26xnjv","1536","864","en","ER04LF09","null","","","","learningBlock1","","","","<div style=""font-size:60px;""> </div>","null","FL","learning/Slide6.JPG","That was a dep.","",""
"","image-keyboard-response","25","46333","0.0-6.0-0.6","FL","dt4f26xnjv","1536","864","en","ER04LF09","null","","","","","","","","learning/Slide7.JPG","null","","","","",""
"","html-keyboard-response","26","47490","0.0-6.0-1.6","FL","dt4f26xnjv","1536","864","en","ER04LF09","null","","","","learningBlock1","","","","That was a wug.","null","","","","",""
"","html-keyboard-response","27","48494","0.0-6.0-2.6","FL","dt4f26xnjv","1536","864","en","ER04LF09","null","","","","learningBlock1","","","","<div style=""font-size:60px;""> </div>","null","FL","learning/Slide7.JPG","That was a wug.","",""
"","image-keyboard-response","28","48674","0.0-6.0-0.7","FL","dt4f26xnjv","1536","864","en","ER04LF09","null","","","","","","","","learning/Slide8.JPG","null","","","","",""
"","html-keyboard-response","29","49830","0.0-6.0-1.7","FL","dt4f26xnjv","1536","864","en","ER04LF09","null","","","","learningBlock1","","","","That was a bim.","null","","","","",""
"","html-keyboard-response","30","50837","0.0-6.0-2.7","FL","dt4f26xnjv","1536","864","en","ER04LF09","null","","","","learningBlock1","","","","<div style=""font-size:60px;""> </div>","null","FL","learning/Slide8.JPG","That was a bim.","",""
"","image-keyboard-response","31","51015","0.0-6.0-0.8","FL","dt4f26xnjv","1536","864","en","ER04LF09","null","","","","","","","","learning/Slide9.JPG","null","","","","",""
"","html-keyboard-response","32","52169","0.0-6.0-1.8","FL","dt4f26xnjv","1536","864","en","ER04LF09","null","","","","learningBlock1","","","","That was a wug.","null","","","","",""
"","html-keyboard-response","33","53174","0.0-6.0-2.8","FL","dt4f26xnjv","1536","864","en","ER04LF09","null","","","","learningBlock1","","","","<div style=""font-size:60px;""> </div>","null","FL","learning/Slide9.JPG","That was a wug.","",""
"","image-keyboard-response","34","53352","0.0-6.0-0.9","FL","dt4f26xnjv","1536","864","en","ER04LF09","null","","","","","","","","learning/Slide10.JPG","null","","","","",""
"","html-keyboard-response","35","54508","0.0-6.0-1.9","FL","dt4f26xnjv","1536","864","en","ER04LF09","null","","","","learningBlock1","","","","That was a dep.","null","","","","",""
"","html-keyboard-response","36","55512","0.0-6.0-2.9","FL","dt4f26xnjv","1536","864","en","ER04LF09","null","","","","learningBlock1","","","","<div style=""font-size:60px;""> </div>","null","FL","learning/Slide10.JPG","That was a dep.","",""
"","image-keyboard-response","37","55690","0.0-6.0-0.10","FL","dt4f26xnjv","1536","864","en","ER04LF09","null","","","","","","","","learning/Slide11.JPG","null","","","","",""
"","html-keyboard-response","38","56846","0.0-6.0-1.10","FL","dt4f26xnjv","1536","864","en","ER04LF09","null","","","","learningBlock1","","","","That was a tob.","null","","","","",""
"","html-keyboard-response","39","57851","0.0-6.0-2.10","FL","dt4f26xnjv","1536","864","en","ER04LF09","null","","","","learningBlock1","","","","<div style=""font-size:60px;""> </div>","null","FL","learning/Slide11.JPG","That was a tob.","",""
"","image-keyboard-response","40","58031","0.0-6.0-0.11","FL","dt4f26xnjv","1536","864","en","ER04LF09","null","","","","","","","","learning/Slide12.JPG","null","","","","",""
"","html-keyboard-response","41","59188","0.0-6.0-1.11","FL","dt4f26xnjv","1536","864","en","ER04LF09","null","","","","learningBlock1","","","","That was a dep.","null","","","","",""
"","html-keyboard-response","42","60192","0.0-6.0-2.11","FL","dt4f26xnjv","1536","864","en","ER04LF09","null","","","","learningBlock1","","","","<div style=""font-size:60px;""> </div>","null","FL","learning/Slide12.JPG","That was a dep.","",""
"","image-keyboard-response","43","60370","0.0-6.0-0.12","FL","dt4f26xnjv","1536","864","en","ER04LF09","null","","","","","","","","learning/Slide13.JPG","null","","","","",""
"","html-keyboard-response","44","61525","0.0-6.0-1.12","FL","dt4f26xnjv","1536","864","en","ER04LF09","null","","","","learningBlock1","","","","That was a bim.","null","","","","",""
"","html-keyboard-response","45","62531","0.0-6.0-2.12","FL","dt4f26xnjv","1536","864","en","ER04LF09","null","","","","learningBlock1","","","","<div style=""font-size:60px;""> </div>","null","FL","learning/Slide13.JPG","That was a bim.","",""
"","image-keyboard-response","46","62709","0.0-6.0-0.13","FL","dt4f26xnjv","1536","864","en","ER04LF09","null","","","","","","","","learning/Slide14.JPG","null","","","","",""
"","html-keyboard-response","47","63865","0.0-6.0-1.13","FL","dt4f26xnjv","1536","864","en","ER04LF09","null","","","","learningBlock1","","","","That was a wug.","null","","","","",""
"","html-keyboard-response","48","64868","0.0-6.0-2.13","FL","dt4f26xnjv","1536","864","en","ER04LF09","null","","","","learningBlock1","","","","<div style=""font-size:60px;""> </div>","null","FL","learning/Slide14.JPG","That was a wug.","",""
"","image-keyboard-response","49","65048","0.0-6.0-0.14","FL","dt4f26xnjv","1536","864","en","ER04LF09","null","","","","","","","","learning/Slide15.JPG","null","","","","",""
"","html-keyboard-response","50","66201","0.0-6.0-1.14","FL","dt4f26xnjv","1536","864","en","ER04LF09","null","","","","learningBlock1","","","","That was a tob.","null","","","","",""
"","html-keyboard-response","51","67204","0.0-6.0-2.14","FL","dt4f26xnjv","1536","864","en","ER04LF09","null","","","","learningBlock1","","","","<div style=""font-size:60px;""> </div>","null","FL","learning/Slide15.JPG","That was a tob.","",""
"","image-keyboard-response","52","67383","0.0-6.0-0.15","FL","dt4f26xnjv","1536","864","en","ER04LF09","null","","","","","","","","learning/Slide16.JPG","null","","","","",""
"","html-keyboard-response","53","68538","0.0-6.0-1.15","FL","dt4f26xnjv","1536","864","en","ER04LF09","null","","","","learningBlock1","","","","That was a dep.","null","","","","",""
"","html-keyboard-response","54","69542","0.0-6.0-2.15","FL","dt4f26xnjv","1536","864","en","ER04LF09","null","","","","learningBlock1","","","","<div style=""font-size:60px;""> </div>","null","FL","learning/Slide16.JPG","That was a dep.","",""
"","image-keyboard-response","55","69720","0.0-6.0-0.16","FL","dt4f26xnjv","1536","864","en","ER04LF09","null","","","","","","","","learning/Slide17.JPG","null","","","","",""
"","html-keyboard-response","56","70874","0.0-6.0-1.16","FL","dt4f26xnjv","1536","864","en","ER04LF09","null","","","","learningBlock1","","","","That was a bim.","null","","","","",""
"","html-keyboard-response","57","71879","0.0-6.0-2.16","FL","dt4f26xnjv","1536","864","en","ER04LF09","null","","","","learningBlock1","","","","<div style=""font-size:60px;""> </div>","null","FL","learning/Slide17.JPG","That was a bim.","",""
"","image-keyboard-response","58","72058","0.0-6.0-0.17","FL","dt4f26xnjv","1536","864","en","ER04LF09","null","","","","","","","","learning/Slide18.JPG","null","","","","",""
"","html-keyboard-response","59","73212","0.0-6.0-1.17","FL","dt4f26xnjv","1536","864","en","ER04LF09","null","","","","learningBlock1","","","","That was a tob.","null","","","","",""
"","html-keyboard-response","60","74219","0.0-6.0-2.17","FL","dt4f26xnjv","1536","864","en","ER04LF09","null","","","","learningBlock1","","","","<div style=""font-size:60px;""> </div>","null","FL","learning/Slide18.JPG","That was a tob.","",""
"","image-keyboard-response","61","74399","0.0-6.0-0.18","FL","dt4f26xnjv","1536","864","en","ER04LF09","null","","","","","","","","learning/Slide19.JPG","null","","","","",""
"","html-keyboard-response","62","75555","0.0-6.0-1.18","FL","dt4f26xnjv","1536","864","en","ER04LF09","null","","","","learningBlock1","","","","That was a wug.","null","","","","",""
"","html-keyboard-response","63","76558","0.0-6.0-2.18","FL","dt4f26xnjv","1536","864","en","ER04LF09","null","","","","learningBlock1","","","","<div style=""font-size:60px;""> </div>","null","FL","learning/Slide19.JPG","That was a wug.","",""
"","image-keyboard-response","64","76738","0.0-6.0-0.19","FL","dt4f26xnjv","1536","864","en","ER04LF09","null","","","","","","","","learning/Slide20.JPG","null","","","","",""
"","html-keyboard-response","65","77895","0.0-6.0-1.19","FL","dt4f26xnjv","1536","864","en","ER04LF09","null","","","","learningBlock1","","","","That was a bim.","null","","","","",""
"","html-keyboard-response","66","78898","0.0-6.0-2.19","FL","dt4f26xnjv","1536","864","en","ER04LF09","null","","","","learningBlock1","","","","<div style=""font-size:60px;""> </div>","null","FL","learning/Slide20.JPG","That was a bim.","",""
"","image-keyboard-response","67","79079","0.0-6.0-0.20","FL","dt4f26xnjv","1536","864","en","ER04LF09","null","","","","","","","","learning/Slide21.JPG","null","","","","",""
"","html-keyboard-response","68","80236","0.0-6.0-1.20","FL","dt4f26xnjv","1536","864","en","ER04LF09","null","","","","learningBlock1","","","","That was a dep.","null","","","","",""
"","html-keyboard-response","69","81244","0.0-6.0-2.20","FL","dt4f26xnjv","1536","864","en","ER04LF09","null","","","","learningBlock1","","","","<div style=""font-size:60px;""> </div>","null","FL","learning/Slide21.JPG","That was a dep.","",""
"","image-keyboard-response","70","81425","0.0-6.0-0.21","FL","dt4f26xnjv","1536","864","en","ER04LF09","null","","","","","","","","learning/Slide22.JPG","null","","","","",""
"","html-keyboard-response","71","82581","0.0-6.0-1.21","FL","dt4f26xnjv","1536","864","en","ER04LF09","null","","","","learningBlock1","","","","That was a bim.","null","","","","",""
"","html-keyboard-response","72","83586","0.0-6.0-2.21","FL","dt4f26xnjv","1536","864","en","ER04LF09","null","","","","learningBlock1","","","","<div style=""font-size:60px;""> </div>","null","FL","learning/Slide22.JPG","That was a bim.","",""
"","image-keyboard-response","73","83765","0.0-6.0-0.22","FL","dt4f26xnjv","1536","864","en","ER04LF09","null","","","","","","","","learning/Slide23.JPG","null","","","","",""
"","html-keyboard-response","74","84921","0.0-6.0-1.22","FL","dt4f26xnjv","1536","864","en","ER04LF09","null","","","","learningBlock1","","","","That was a tob.","null","","","","",""
"","html-keyboard-response","75","85924","0.0-6.0-2.22","FL","dt4f26xnjv","1536","864","en","ER04LF09","null","","","","learningBlock1","","","","<div style=""font-size:60px;""> </div>","null","FL","learning/Slide23.JPG","That was a tob.","",""
"","image-keyboard-response","76","86103","0.0-6.0-0.23","FL","dt4f26xnjv","1536","864","en","ER04LF09","null","","","","","","","","learning/Slide24.JPG","null","","","","",""
"","html-keyboard-response","77","87256","0.0-6.0-1.23","FL","dt4f26xnjv","1536","864","en","ER04LF09","null","","","","learningBlock1","","","","That was a wug.","null","","","","",""
"","html-keyboard-response","78","88259","0.0-6.0-2.23","FL","dt4f26xnjv","1536","864","en","ER04LF09","null","","","","learningBlock1","","","","<div style=""font-size:60px;""> </div>","null","FL","learning/Slide24.JPG","That was a wug.","",""
"","image-keyboard-response","79","88438","0.0-6.0-0.24","FL","dt4f26xnjv","1536","864","en","ER04LF09","null","","","","","","","","learning/Slide25.JPG","null","","","","",""
"","html-keyboard-response","80","89594","0.0-6.0-1.24","FL","dt4f26xnjv","1536","864","en","ER04LF09","null","","","","learningBlock1","","","","That was a dep.","null","","","","",""
"","html-keyboard-response","81","90596","0.0-6.0-2.24","FL","dt4f26xnjv","1536","864","en","ER04LF09","null","","","","learningBlock1","","","","<div style=""font-size:60px;""> </div>","null","FL","learning/Slide25.JPG","That was a dep.","",""
"","image-keyboard-response","82","90775","0.0-6.0-0.25","FL","dt4f26xnjv","1536","864","en","ER04LF09","null","","","","","","","","learning/Slide26.JPG","null","","","","",""
"","html-keyboard-response","83","91933","0.0-6.0-1.25","FL","dt4f26xnjv","1536","864","en","ER04LF09","null","","","","learningBlock1","","","","That was a wug.","null","","","","",""
"","html-keyboard-response","84","92938","0.0-6.0-2.25","FL","dt4f26xnjv","1536","864","en","ER04LF09","null","","","","learningBlock1","","","","<div style=""font-size:60px;""> </div>","null","FL","learning/Slide26.JPG","That was a wug.","",""
"","image-keyboard-response","85","93120","0.0-6.0-0.26","FL","dt4f26xnjv","1536","864","en","ER04LF09","null","","","","","","","","learning/Slide27.JPG","null","","","","",""
"","html-keyboard-response","86","94274","0.0-6.0-1.26","FL","dt4f26xnjv","1536","864","en","ER04LF09","null","","","","learningBlock1","","","","That was a bim.","null","","","","",""
"","html-keyboard-response","87","95278","0.0-6.0-2.26","FL","dt4f26xnjv","1536","864","en","ER04LF09","null","","","","learningBlock1","","","","<div style=""font-size:60px;""> </div>","null","FL","learning/Slide27.JPG","That was a bim.","",""
"","image-keyboard-response","88","95459","0.0-6.0-0.27","FL","dt4f26xnjv","1536","864","en","ER04LF09","null","","","","","","","","learning/Slide28.JPG","null","","","","",""
"","html-keyboard-response","89","96612","0.0-6.0-1.27","FL","dt4f26xnjv","1536","864","en","ER04LF09","null","","","","learningBlock1","","","","That was a dep.","null","","","","",""
"","html-keyboard-response","90","97615","0.0-6.0-2.27","FL","dt4f26xnjv","1536","864","en","ER04LF09","null","","","","learningBlock1","","","","<div style=""font-size:60px;""> </div>","null","FL","learning/Slide28.JPG","That was a dep.","",""
"","image-keyboard-response","91","97793","0.0-6.0-0.28","FL","dt4f26xnjv","1536","864","en","ER04LF09","null","","","","","","","","learning/Slide29.JPG","null","","","","",""
"","html-keyboard-response","92","98950","0.0-6.0-1.28","FL","dt4f26xnjv","1536","864","en","ER04LF09","null","","","","learningBlock1","","","","That was a tob.","null","","","","",""
"","html-keyboard-response","93","99954","0.0-6.0-2.28","FL","dt4f26xnjv","1536","864","en","ER04LF09","null","","","","learningBlock1","","","","<div style=""font-size:60px;""> </div>","null","FL","learning/Slide29.JPG","That was a tob.","",""
"","image-keyboard-response","94","100132","0.0-6.0-0.29","FL","dt4f26xnjv","1536","864","en","ER04LF09","null","","","","","","","","learning/Slide30.JPG","null","","","","",""
"","html-keyboard-response","95","101290","0.0-6.0-1.29","FL","dt4f26xnjv","1536","864","en","ER04LF09","null","","","","learningBlock1","","","","That was a dep.","null","","","","",""
"","html-keyboard-response","96","102294","0.0-6.0-2.29","FL","dt4f26xnjv","1536","864","en","ER04LF09","null","","","","learningBlock1","","","","<div style=""font-size:60px;""> </div>","null","FL","learning/Slide30.JPG","That was a dep.","",""
"","image-keyboard-response","97","102474","0.0-6.0-0.30","FL","dt4f26xnjv","1536","864","en","ER04LF09","null","","","","","","","","learning/Slide31.JPG","null","","","","",""
"","html-keyboard-response","98","103631","0.0-6.0-1.30","FL","dt4f26xnjv","1536","864","en","ER04LF09","null","","","","learningBlock1","","","","That was a wug.","null","","","","",""
"","html-keyboard-response","99","104634","0.0-6.0-2.30","FL","dt4f26xnjv","1536","864","en","ER04LF09","null","","","","learningBlock1","","","","<div style=""font-size:60px;""> </div>","null","FL","learning/Slide31.JPG","That was a wug.","",""
"","image-keyboard-response","100","104813","0.0-6.0-0.31","FL","dt4f26xnjv","1536","864","en","ER04LF09","null","","","","","","","","learning/Slide32.JPG","null","","","","",""
"","html-keyboard-response","101","105968","0.0-6.0-1.31","FL","dt4f26xnjv","1536","864","en","ER04LF09","null","","","","learningBlock1","","","","That was a tob.","null","","","","",""
"","html-keyboard-response","102","106974","0.0-6.0-2.31","FL","dt4f26xnjv","1536","864","en","ER04LF09","null","","","","learningBlock1","","","","<div style=""font-size:60px;""> </div>","null","FL","learning/Slide32.JPG","That was a tob.","",""
"","image-keyboard-response","103","107152","0.0-6.0-0.32","FL","dt4f26xnjv","1536","864","en","ER04LF09","null","","","","","","","","learning/Slide33.JPG","null","","","","",""
"","html-keyboard-response","104","108309","0.0-6.0-1.32","FL","dt4f26xnjv","1536","864","en","ER04LF09","null","","","","learningBlock1","","","","That was a bim.","null","","","","",""
"","html-keyboard-response","105","109313","0.0-6.0-2.32","FL","dt4f26xnjv","1536","864","en","ER04LF09","null","","","","learningBlock1","","","","<div style=""font-size:60px;""> </div>","null","FL","learning/Slide33.JPG","That was a bim.","",""
"","image-keyboard-response","106","109493","0.0-6.0-0.33","FL","dt4f26xnjv","1536","864","en","ER04LF09","null","","","","","","","","learning/Slide34.JPG","null","","","","",""
"","html-keyboard-response","107","110649","0.0-6.0-1.33","FL","dt4f26xnjv","1536","864","en","ER04LF09","null","","","","learningBlock1","","","","That was a tob.","null","","","","",""
"","html-keyboard-response","108","111654","0.0-6.0-2.33","FL","dt4f26xnjv","1536","864","en","ER04LF09","null","","","","learningBlock1","","","","<div style=""font-size:60px;""> </div>","null","FL","learning/Slide34.JPG","That was a tob.","",""
"","image-keyboard-response","109","111838","0.0-6.0-0.34","FL","dt4f26xnjv","1536","864","en","ER04LF09","null","","","","","","","","learning/Slide35.JPG","null","","","","",""
"","html-keyboard-response","110","112994","0.0-6.0-1.34","FL","dt4f26xnjv","1536","864","en","ER04LF09","null","","","","learningBlock1","","","","That was a bim.","null","","","","",""
"","html-keyboard-response","111","113998","0.0-6.0-2.34","FL","dt4f26xnjv","1536","864","en","ER04LF09","null","","","","learningBlock1","","","","<div style=""font-size:60px;""> </div>","null","FL","learning/Slide35.JPG","That was a bim.","",""
"","image-keyboard-response","112","114179","0.0-6.0-0.35","FL","dt4f26xnjv","1536","864","en","ER04LF09","null","","","","","","","","learning/Slide36.JPG","null","","","","",""
"","html-keyboard-response","113","115331","0.0-6.0-1.35","FL","dt4f26xnjv","1536","864","en","ER04LF09","null","","","","learningBlock1","","","","That was a dep.","null","","","","",""
"","html-keyboard-response","114","116335","0.0-6.0-2.35","FL","dt4f26xnjv","1536","864","en","ER04LF09","null","","","","learningBlock1","","","","<div style=""font-size:60px;""> </div>","null","FL","learning/Slide36.JPG","That was a dep.","",""
"","image-keyboard-response","115","116514","0.0-6.0-0.36","FL","dt4f26xnjv","1536","864","en","ER04LF09","null","","","","","","","","learning/Slide37.JPG","null","","","","",""
"","html-keyboard-response","116","117671","0.0-6.0-1.36","FL","dt4f26xnjv","1536","864","en","ER04LF09","null","","","","learningBlock1","","","","That was a tob.","null","","","","",""
"","html-keyboard-response","117","118674","0.0-6.0-2.36","FL","dt4f26xnjv","1536","864","en","ER04LF09","null","","","","learningBlock1","","","","<div style=""font-size:60px;""> </div>","null","FL","learning/Slide37.JPG","That was a tob.","",""
"","image-keyboard-response","118","118856","0.0-6.0-0.37","FL","dt4f26xnjv","1536","864","en","ER04LF09","null","","","","","","","","learning/Slide38.JPG","null","","","","",""
"","html-keyboard-response","119","120013","0.0-6.0-1.37","FL","dt4f26xnjv","1536","864","en","ER04LF09","null","","","","learningBlock1","","","","That was a wug.","null","","","","",""
"","html-keyboard-response","120","121016","0.0-6.0-2.37","FL","dt4f26xnjv","1536","864","en","ER04LF09","null","","","","learningBlock1","","","","<div style=""font-size:60px;""> </div>","null","FL","learning/Slide38.JPG","That was a wug.","",""
"","image-keyboard-response","121","121194","0.0-6.0-0.38","FL","dt4f26xnjv","1536","864","en","ER04LF09","null","","","","","","","","learning/Slide39.JPG","null","","","","",""
"","html-keyboard-response","122","122352","0.0-6.0-1.38","FL","dt4f26xnjv","1536","864","en","ER04LF09","null","","","","learningBlock1","","","","That was a bim.","null","","","","",""
"","html-keyboard-response","123","123355","0.0-6.0-2.38","FL","dt4f26xnjv","1536","864","en","ER04LF09","null","","","","learningBlock1","","","","<div style=""font-size:60px;""> </div>","null","FL","learning/Slide39.JPG","That was a bim.","",""
"","image-keyboard-response","124","123534","0.0-6.0-0.39","FL","dt4f26xnjv","1536","864","en","ER04LF09","null","","","","","","","","learning/Slide40.JPG","null","","","","",""
"","html-keyboard-response","125","124691","0.0-6.0-1.39","FL","dt4f26xnjv","1536","864","en","ER04LF09","null","","","","learningBlock1","","","","That was a tob.","null","","","","",""
"","html-keyboard-response","126","125694","0.0-6.0-2.39","FL","dt4f26xnjv","1536","864","en","ER04LF09","null","","","","learningBlock1","","","","<div style=""font-size:60px;""> </div>","null","FL","learning/Slide40.JPG","That was a tob.","",""
"","image-keyboard-response","127","125874","0.0-6.0-0.40","FL","dt4f26xnjv","1536","864","en","ER04LF09","null","","","","","","","","learning/Slide41.JPG","null","","","","",""
"","html-keyboard-response","128","127028","0.0-6.0-1.40","FL","dt4f26xnjv","1536","864","en","ER04LF09","null","","","","learningBlock1","","","","That was a bim.","null","","","","",""
"","html-keyboard-response","129","128031","0.0-6.0-2.40","FL","dt4f26xnjv","1536","864","en","ER04LF09","null","","","","learningBlock1","","","","<div style=""font-size:60px;""> </div>","null","FL","learning/Slide41.JPG","That was a bim.","",""
"","image-keyboard-response","130","128209","0.0-6.0-0.41","FL","dt4f26xnjv","1536","864","en","ER04LF09","null","","","","","","","","learning/Slide42.JPG","null","","","","",""
"","html-keyboard-response","131","129365","0.0-6.0-1.41","FL","dt4f26xnjv","1536","864","en","ER04LF09","null","","","","learningBlock1","","","","That was a dep.","null","","","","",""
"","html-keyboard-response","132","130370","0.0-6.0-2.41","FL","dt4f26xnjv","1536","864","en","ER04LF09","null","","","","learningBlock1","","","","<div style=""font-size:60px;""> </div>","null","FL","learning/Slide42.JPG","That was a dep.","",""
"","image-keyboard-response","133","130548","0.0-6.0-0.42","FL","dt4f26xnjv","1536","864","en","ER04LF09","null","","","","","","","","learning/Slide43.JPG","null","","","","",""
"","html-keyboard-response","134","131704","0.0-6.0-1.42","FL","dt4f26xnjv","1536","864","en","ER04LF09","null","","","","learningBlock1","","","","That was a wug.","null","","","","",""
"","html-keyboard-response","135","132708","0.0-6.0-2.42","FL","dt4f26xnjv","1536","864","en","ER04LF09","null","","","","learningBlock1","","","","<div style=""font-size:60px;""> </div>","null","FL","learning/Slide43.JPG","That was a wug.","",""
"","image-keyboard-response","136","132886","0.0-6.0-0.43","FL","dt4f26xnjv","1536","864","en","ER04LF09","null","","","","","","","","learning/Slide44.JPG","null","","","","",""
"","html-keyboard-response","137","134041","0.0-6.0-1.43","FL","dt4f26xnjv","1536","864","en","ER04LF09","null","","","","learningBlock1","","","","That was a bim.","null","","","","",""
"","html-keyboard-response","138","135045","0.0-6.0-2.43","FL","dt4f26xnjv","1536","864","en","ER04LF09","null","","","","learningBlock1","","","","<div style=""font-size:60px;""> </div>","null","FL","learning/Slide44.JPG","That was a bim.","",""
"","image-keyboard-response","139","135225","0.0-6.0-0.44","FL","dt4f26xnjv","1536","864","en","ER04LF09","null","","","","","","","","learning/Slide45.JPG","null","","","","",""
"","html-keyboard-response","140","136383","0.0-6.0-1.44","FL","dt4f26xnjv","1536","864","en","ER04LF09","null","","","","learningBlock1","","","","That was a wug.","null","","","","",""
"","html-keyboard-response","141","137386","0.0-6.0-2.44","FL","dt4f26xnjv","1536","864","en","ER04LF09","null","","","","learningBlock1","","","","<div style=""font-size:60px;""> </div>","null","FL","learning/Slide45.JPG","That was a wug.","",""
"","image-keyboard-response","142","137567","0.0-6.0-0.45","FL","dt4f26xnjv","1536","864","en","ER04LF09","null","","","","","","","","learning/Slide46.JPG","null","","","","",""
"","html-keyboard-response","143","138724","0.0-6.0-1.45","FL","dt4f26xnjv","1536","864","en","ER04LF09","null","","","","learningBlock1","","","","That was a dep.","null","","","","",""
"","html-keyboard-response","144","139730","0.0-6.0-2.45","FL","dt4f26xnjv","1536","864","en","ER04LF09","null","","","","learningBlock1","","","","<div style=""font-size:60px;""> </div>","null","FL","learning/Slide46.JPG","That was a dep.","",""
"","image-keyboard-response","145","139910","0.0-6.0-0.46","FL","dt4f26xnjv","1536","864","en","ER04LF09","null","","","","","","","","learning/Slide47.JPG","null","","","","",""
"","html-keyboard-response","146","141064","0.0-6.0-1.46","FL","dt4f26xnjv","1536","864","en","ER04LF09","null","","","","learningBlock1","","","","That was a tob.","null","","","","",""
"","html-keyboard-response","147","142068","0.0-6.0-2.46","FL","dt4f26xnjv","1536","864","en","ER04LF09","null","","","","learningBlock1","","","","<div style=""font-size:60px;""> </div>","null","FL","learning/Slide47.JPG","That was a tob.","",""
"","image-keyboard-response","148","142247","0.0-6.0-0.47","FL","dt4f26xnjv","1536","864","en","ER04LF09","null","","","","","","","","learning/Slide48.JPG","null","","","","",""
"","html-keyboard-response","149","143403","0.0-6.0-1.47","FL","dt4f26xnjv","1536","864","en","ER04LF09","null","","","","learningBlock1","","","","That was a bim.","null","","","","",""
"","html-keyboard-response","150","144408","0.0-6.0-2.47","FL","dt4f26xnjv","1536","864","en","ER04LF09","null","","","","learningBlock1","","","","<div style=""font-size:60px;""> </div>","null","FL","learning/Slide48.JPG","That was a bim.","",""
"","image-keyboard-response","151","144589","0.0-6.0-0.48","FL","dt4f26xnjv","1536","864","en","ER04LF09","null","","","","","","","","learning/Slide49.JPG","null","","","","",""
"","html-keyboard-response","152","145745","0.0-6.0-1.48","FL","dt4f26xnjv","1536","864","en","ER04LF09","null","","","","learningBlock1","","","","That was a dep.","null","","","","",""
"","html-keyboard-response","153","146749","0.0-6.0-2.48","FL","dt4f26xnjv","1536","864","en","ER04LF09","null","","","","learningBlock1","","","","<div style=""font-size:60px;""> </div>","null","FL","learning/Slide49.JPG","That was a dep.","",""
"","image-keyboard-response","154","146930","0.0-6.0-0.49","FL","dt4f26xnjv","1536","864","en","ER04LF09","null","","","","","","","","learning/Slide50.JPG","null","","","","",""
"","html-keyboard-response","155","148083","0.0-6.0-1.49","FL","dt4f26xnjv","1536","864","en","ER04LF09","null","","","","learningBlock1","","","","That was a tob.","null","","","","",""
"","html-keyboard-response","156","149088","0.0-6.0-2.49","FL","dt4f26xnjv","1536","864","en","ER04LF09","null","","","","learningBlock1","","","","<div style=""font-size:60px;""> </div>","null","FL","learning/Slide50.JPG","That was a tob.","",""
"","image-keyboard-response","157","149265","0.0-6.0-0.50","FL","dt4f26xnjv","1536","864","en","ER04LF09","null","","","","","","","","learning/Slide51.JPG","null","","","","",""
"","html-keyboard-response","158","150421","0.0-6.0-1.50","FL","dt4f26xnjv","1536","864","en","ER04LF09","null","","","","learningBlock1","","","","That was a bim.","null","","","","",""
"","html-keyboard-response","159","151424","0.0-6.0-2.50","FL","dt4f26xnjv","1536","864","en","ER04LF09","null","","","","learningBlock1","","","","<div style=""font-size:60px;""> </div>","null","FL","learning/Slide51.JPG","That was a bim.","",""
"","image-keyboard-response","160","151604","0.0-6.0-0.51","FL","dt4f26xnjv","1536","864","en","ER04LF09","null","","","","","","","","learning/Slide52.JPG","null","","","","",""
"","html-keyboard-response","161","152760","0.0-6.0-1.51","FL","dt4f26xnjv","1536","864","en","ER04LF09","null","","","","learningBlock1","","","","That was a wug.","null","","","","",""
"","html-keyboard-response","162","153762","0.0-6.0-2.51","FL","dt4f26xnjv","1536","864","en","ER04LF09","null","","","","learningBlock1","","","","<div style=""font-size:60px;""> </div>","null","FL","learning/Slide52.JPG","That was a wug.","",""
"","image-keyboard-response","163","153941","0.0-6.0-0.52","FL","dt4f26xnjv","1536","864","en","ER04LF09","null","","","","","","","","learning/Slide53.JPG","null","","","","",""
"","html-keyboard-response","164","155099","0.0-6.0-1.52","FL","dt4f26xnjv","1536","864","en","ER04LF09","null","","","","learningBlock1","","","","That was a tob.","null","","","","",""
"","html-keyboard-response","165","156101","0.0-6.0-2.52","FL","dt4f26xnjv","1536","864","en","ER04LF09","null","","","","learningBlock1","","","","<div style=""font-size:60px;""> </div>","null","FL","learning/Slide53.JPG","That was a tob.","",""
"","image-keyboard-response","166","156283","0.0-6.0-0.53","FL","dt4f26xnjv","1536","864","en","ER04LF09","null","","","","","","","","learning/Slide54.JPG","null","","","","",""
"","html-keyboard-response","167","157439","0.0-6.0-1.53","FL","dt4f26xnjv","1536","864","en","ER04LF09","null","","","","learningBlock1","","","","That was a dep.","null","","","","",""
"","html-keyboard-response","168","158441","0.0-6.0-2.53","FL","dt4f26xnjv","1536","864","en","ER04LF09","null","","","","learningBlock1","","","","<div style=""font-size:60px;""> </div>","null","FL","learning/Slide54.JPG","That was a dep.","",""
"","image-keyboard-response","169","158620","0.0-6.0-0.54","FL","dt4f26xnjv","1536","864","en","ER04LF09","null","","","","","","","","learning/Slide55.JPG","null","","","","",""
"","html-keyboard-response","170","159779","0.0-6.0-1.54","FL","dt4f26xnjv","1536","864","en","ER04LF09","null","","","","learningBlock1","","","","That was a bim.","null","","","","",""
"","html-keyboard-response","171","160784","0.0-6.0-2.54","FL","dt4f26xnjv","1536","864","en","ER04LF09","null","","","","learningBlock1","","","","<div style=""font-size:60px;""> </div>","null","FL","learning/Slide55.JPG","That was a bim.","",""
"","image-keyboard-response","172","160963","0.0-6.0-0.55","FL","dt4f26xnjv","1536","864","en","ER04LF09","null","","","","","","","","learning/Slide56.JPG","null","","","","",""
"","html-keyboard-response","173","162120","0.0-6.0-1.55","FL","dt4f26xnjv","1536","864","en","ER04LF09","null","","","","learningBlock1","","","","That was a tob.","null","","","","",""
"","html-keyboard-response","174","163127","0.0-6.0-2.55","FL","dt4f26xnjv","1536","864","en","ER04LF09","null","","","","learningBlock1","","","","<div style=""font-size:60px;""> </div>","null","FL","learning/Slide56.JPG","That was a tob.","",""
"","image-keyboard-response","175","163308","0.0-6.0-0.56","FL","dt4f26xnjv","1536","864","en","ER04LF09","null","","","","","","","","learning/Slide57.JPG","null","","","","",""
"","html-keyboard-response","176","164461","0.0-6.0-1.56","FL","dt4f26xnjv","1536","864","en","ER04LF09","null","","","","learningBlock1","","","","That was a dep.","null","","","","",""
"","html-keyboard-response","177","165466","0.0-6.0-2.56","FL","dt4f26xnjv","1536","864","en","ER04LF09","null","","","","learningBlock1","","","","<div style=""font-size:60px;""> </div>","null","FL","learning/Slide57.JPG","That was a dep.","",""
"","image-keyboard-response","178","165645","0.0-6.0-0.57","FL","dt4f26xnjv","1536","864","en","ER04LF09","null","","","","","","","","learning/Slide58.JPG","null","","","","",""
"","html-keyboard-response","179","166800","0.0-6.0-1.57","FL","dt4f26xnjv","1536","864","en","ER04LF09","null","","","","learningBlock1","","","","That was a wug.","null","","","","",""
"","html-keyboard-response","180","167803","0.0-6.0-2.57","FL","dt4f26xnjv","1536","864","en","ER04LF09","null","","","","learningBlock1","","","","<div style=""font-size:60px;""> </div>","null","FL","learning/Slide58.JPG","That was a wug.","",""
"","image-keyboard-response","181","167984","0.0-6.0-0.58","FL","dt4f26xnjv","1536","864","en","ER04LF09","null","","","","","","","","learning/Slide59.JPG","null","","","","",""
"","html-keyboard-response","182","169139","0.0-6.0-1.58","FL","dt4f26xnjv","1536","864","en","ER04LF09","null","","","","learningBlock1","","","","That was a dep.","null","","","","",""
"","html-keyboard-response","183","170143","0.0-6.0-2.58","FL","dt4f26xnjv","1536","864","en","ER04LF09","null","","","","learningBlock1","","","","<div style=""font-size:60px;""> </div>","null","FL","learning/Slide59.JPG","That was a dep.","",""
"","image-keyboard-response","184","170324","0.0-6.0-0.59","FL","dt4f26xnjv","1536","864","en","ER04LF09","null","","","","","","","","learning/Slide60.JPG","null","","","","",""
"","html-keyboard-response","185","171479","0.0-6.0-1.59","FL","dt4f26xnjv","1536","864","en","ER04LF09","null","","","","learningBlock1","","","","That was a wug.","null","","","","",""
"","html-keyboard-response","186","172482","0.0-6.0-2.59","FL","dt4f26xnjv","1536","864","en","ER04LF09","null","","","","learningBlock1","","","","<div style=""font-size:60px;""> </div>","null","FL","learning/Slide60.JPG","That was a wug.","",""
"","image-keyboard-response","187","172662","0.0-6.0-0.60","FL","dt4f26xnjv","1536","864","en","ER04LF09","null","","","","","","","","learning/Slide61.JPG","null","","","","",""
"","html-keyboard-response","188","173818","0.0-6.0-1.60","FL","dt4f26xnjv","1536","864","en","ER04LF09","null","","","","learningBlock1","","","","That was a bim.","null","","","","",""
"","html-keyboard-response","189","174822","0.0-6.0-2.60","FL","dt4f26xnjv","1536","864","en","ER04LF09","null","","","","learningBlock1","","","","<div style=""font-size:60px;""> </div>","null","FL","learning/Slide61.JPG","That was a bim.","",""
"","image-keyboard-response","190","175001","0.0-6.0-0.61","FL","dt4f26xnjv","1536","864","en","ER04LF09","null","","","","","","","","learning/Slide62.JPG","null","","","","",""
"","html-keyboard-response","191","176155","0.0-6.0-1.61","FL","dt4f26xnjv","1536","864","en","ER04LF09","null","","","","learningBlock1","","","","That was a dep.","null","","","","",""
"","html-keyboard-response","192","177158","0.0-6.0-2.61","FL","dt4f26xnjv","1536","864","en","ER04LF09","null","","","","learningBlock1","","","","<div style=""font-size:60px;""> </div>","null","FL","learning/Slide62.JPG","That was a dep.","",""
"","image-keyboard-response","193","177339","0.0-6.0-0.62","FL","dt4f26xnjv","1536","864","en","ER04LF09","null","","","","","","","","learning/Slide63.JPG","null","","","","",""
"","html-keyboard-response","194","178493","0.0-6.0-1.62","FL","dt4f26xnjv","1536","864","en","ER04LF09","null","","","","learningBlock1","","","","That was a bim.","null","","","","",""
"","html-keyboard-response","195","179496","0.0-6.0-2.62","FL","dt4f26xnjv","1536","864","en","ER04LF09","null","","","","learningBlock1","","","","<div style=""font-size:60px;""> </div>","null","FL","learning/Slide63.JPG","That was a bim.","",""
"","image-keyboard-response","196","179675","0.0-6.0-0.63","FL","dt4f26xnjv","1536","864","en","ER04LF09","null","","","","","","","","learning/Slide64.JPG","null","","","","",""
"","html-keyboard-response","197","180832","0.0-6.0-1.63","FL","dt4f26xnjv","1536","864","en","ER04LF09","null","","","","learningBlock1","","","","That was a tob.","null","","","","",""
"","html-keyboard-response","198","181835","0.0-6.0-2.63","FL","dt4f26xnjv","1536","864","en","ER04LF09","null","","","","learningBlock1","","","","<div style=""font-size:60px;""> </div>","null","FL","learning/Slide64.JPG","That was a tob.","",""
"","image-keyboard-response","199","182014","0.0-6.0-0.64","FL","dt4f26xnjv","1536","864","en","ER04LF09","null","","","","","","","","learning/Slide65.JPG","null","","","","",""
"","html-keyboard-response","200","183170","0.0-6.0-1.64","FL","dt4f26xnjv","1536","864","en","ER04LF09","null","","","","learningBlock1","","","","That was a wug.","null","","","","",""
"","html-keyboard-response","201","184174","0.0-6.0-2.64","FL","dt4f26xnjv","1536","864","en","ER04LF09","null","","","","learningBlock1","","","","<div style=""font-size:60px;""> </div>","null","FL","learning/Slide65.JPG","That was a wug.","",""
"","image-keyboard-response","202","184353","0.0-6.0-0.65","FL","dt4f26xnjv","1536","864","en","ER04LF09","null","","","","","","","","learning/Slide66.JPG","null","","","","",""
"","html-keyboard-response","203","185510","0.0-6.0-1.65","FL","dt4f26xnjv","1536","864","en","ER04LF09","null","","","","learningBlock1","","","","That was a dep.","null","","","","",""
"","html-keyboard-response","204","186513","0.0-6.0-2.65","FL","dt4f26xnjv","1536","864","en","ER04LF09","null","","","","learningBlock1","","","","<div style=""font-size:60px;""> </div>","null","FL","learning/Slide66.JPG","That was a dep.","",""
"","image-keyboard-response","205","186694","0.0-6.0-0.66","FL","dt4f26xnjv","1536","864","en","ER04LF09","null","","","","","","","","learning/Slide67.JPG","null","","","","",""
"","html-keyboard-response","206","187849","0.0-6.0-1.66","FL","dt4f26xnjv","1536","864","en","ER04LF09","null","","","","learningBlock1","","","","That was a tob.","null","","","","",""
"","html-keyboard-response","207","188855","0.0-6.0-2.66","FL","dt4f26xnjv","1536","864","en","ER04LF09","null","","","","learningBlock1","","","","<div style=""font-size:60px;""> </div>","null","FL","learning/Slide67.JPG","That was a tob.","",""
"","image-keyboard-response","208","189035","0.0-6.0-0.67","FL","dt4f26xnjv","1536","864","en","ER04LF09","null","","","","","","","","learning/Slide68.JPG","null","","","","",""
"","html-keyboard-response","209","190192","0.0-6.0-1.67","FL","dt4f26xnjv","1536","864","en","ER04LF09","null","","","","learningBlock1","","","","That was a wug.","null","","","","",""
"","html-keyboard-response","210","191196","0.0-6.0-2.67","FL","dt4f26xnjv","1536","864","en","ER04LF09","null","","","","learningBlock1","","","","<div style=""font-size:60px;""> </div>","null","FL","learning/Slide68.JPG","That was a wug.","",""
"","image-keyboard-response","211","191374","0.0-6.0-0.68","FL","dt4f26xnjv","1536","864","en","ER04LF09","null","","","","","","","","learning/Slide69.JPG","null","","","","",""
"","html-keyboard-response","212","192530","0.0-6.0-1.68","FL","dt4f26xnjv","1536","864","en","ER04LF09","null","","","","learningBlock1","","","","That was a tob.","null","","","","",""
"","html-keyboard-response","213","193534","0.0-6.0-2.68","FL","dt4f26xnjv","1536","864","en","ER04LF09","null","","","","learningBlock1","","","","<div style=""font-size:60px;""> </div>","null","FL","learning/Slide69.JPG","That was a tob.","",""
"","image-keyboard-response","214","193713","0.0-6.0-0.69","FL","dt4f26xnjv","1536","864","en","ER04LF09","null","","","","","","","","learning/Slide70.JPG","null","","","","",""
"","html-keyboard-response","215","194868","0.0-6.0-1.69","FL","dt4f26xnjv","1536","864","en","ER04LF09","null","","","","learningBlock1","","","","That was a dep.","null","","","","",""
"","html-keyboard-response","216","195871","0.0-6.0-2.69","FL","dt4f26xnjv","1536","864","en","ER04LF09","null","","","","learningBlock1","","","","<div style=""font-size:60px;""> </div>","null","FL","learning/Slide70.JPG","That was a dep.","",""
"","image-keyboard-response","217","196050","0.0-6.0-0.70","FL","dt4f26xnjv","1536","864","en","ER04LF09","null","","","","","","","","learning/Slide71.JPG","null","","","","",""
"","html-keyboard-response","218","197208","0.0-6.0-1.70","FL","dt4f26xnjv","1536","864","en","ER04LF09","null","","","","learningBlock1","","","","That was a wug.","null","","","","",""
"","html-keyboard-response","219","198212","0.0-6.0-2.70","FL","dt4f26xnjv","1536","864","en","ER04LF09","null","","","","learningBlock1","","","","<div style=""font-size:60px;""> </div>","null","FL","learning/Slide71.JPG","That was a wug.","",""
"","image-keyboard-response","220","198391","0.0-6.0-0.71","FL","dt4f26xnjv","1536","864","en","ER04LF09","null","","","","","","","","learning/Slide72.JPG","null","","","","",""
"","html-keyboard-response","221","199548","0.0-6.0-1.71","FL","dt4f26xnjv","1536","864","en","ER04LF09","null","","","","learningBlock1","","","","That was a bim.","null","","","","",""
"","html-keyboard-response","222","200551","0.0-6.0-2.71","FL","dt4f26xnjv","1536","864","en","ER04LF09","null","","","","learningBlock1","","","","<div style=""font-size:60px;""> </div>","null","FL","learning/Slide72.JPG","That was a bim.","",""
"","image-keyboard-response","223","200732","0.0-6.0-0.72","FL","dt4f26xnjv","1536","864","en","ER04LF09","null","","","","","","","","learning/Slide73.JPG","null","","","","",""
"","html-keyboard-response","224","201888","0.0-6.0-1.72","FL","dt4f26xnjv","1536","864","en","ER04LF09","null","","","","learningBlock1","","","","That was a wug.","null","","","","",""
"","html-keyboard-response","225","202891","0.0-6.0-2.72","FL","dt4f26xnjv","1536","864","en","ER04LF09","null","","","","learningBlock1","","","","<div style=""font-size:60px;""> </div>","null","FL","learning/Slide73.JPG","That was a wug.","",""
"","image-keyboard-response","226","203070","0.0-6.0-0.73","FL","dt4f26xnjv","1536","864","en","ER04LF09","null","","","","","","","","learning/Slide74.JPG","null","","","","",""
"","html-keyboard-response","227","204224","0.0-6.0-1.73","FL","dt4f26xnjv","1536","864","en","ER04LF09","null","","","","learningBlock1","","","","That was a dep.","null","","","","",""
"","html-keyboard-response","228","205230","0.0-6.0-2.73","FL","dt4f26xnjv","1536","864","en","ER04LF09","null","","","","learningBlock1","","","","<div style=""font-size:60px;""> </div>","null","FL","learning/Slide74.JPG","That was a dep.","",""
"","image-keyboard-response","229","205408","0.0-6.0-0.74","FL","dt4f26xnjv","1536","864","en","ER04LF09","null","","","","","","","","learning/Slide75.JPG","null","","","","",""
"","html-keyboard-response","230","206562","0.0-6.0-1.74","FL","dt4f26xnjv","1536","864","en","ER04LF09","null","","","","learningBlock1","","","","That was a tob.","null","","","","",""
"","html-keyboard-response","231","207565","0.0-6.0-2.74","FL","dt4f26xnjv","1536","864","en","ER04LF09","null","","","","learningBlock1","","","","<div style=""font-size:60px;""> </div>","null","FL","learning/Slide75.JPG","That was a tob.","",""
"","image-keyboard-response","232","207745","0.0-6.0-0.75","FL","dt4f26xnjv","1536","864","en","ER04LF09","null","","","","","","","","learning/Slide76.JPG","null","","","","",""
"","html-keyboard-response","233","208900","0.0-6.0-1.75","FL","dt4f26xnjv","1536","864","en","ER04LF09","null","","","","learningBlock1","","","","That was a bim.","null","","","","",""
"","html-keyboard-response","234","209904","0.0-6.0-2.75","FL","dt4f26xnjv","1536","864","en","ER04LF09","null","","","","learningBlock1","","","","<div style=""font-size:60px;""> </div>","null","FL","learning/Slide76.JPG","That was a bim.","",""
"","image-keyboard-response","235","210083","0.0-6.0-0.76","FL","dt4f26xnjv","1536","864","en","ER04LF09","null","","","","","","","","learning/Slide77.JPG","null","","","","",""
"","html-keyboard-response","236","211239","0.0-6.0-1.76","FL","dt4f26xnjv","1536","864","en","ER04LF09","null","","","","learningBlock1","","","","That was a tob.","null","","","","",""
"","html-keyboard-response","237","212243","0.0-6.0-2.76","FL","dt4f26xnjv","1536","864","en","ER04LF09","null","","","","learningBlock1","","","","<div style=""font-size:60px;""> </div>","null","FL","learning/Slide77.JPG","That was a tob.","",""
"","image-keyboard-response","238","212423","0.0-6.0-0.77","FL","dt4f26xnjv","1536","864","en","ER04LF09","null","","","","","","","","learning/Slide78.JPG","null","","","","",""
"","html-keyboard-response","239","213579","0.0-6.0-1.77","FL","dt4f26xnjv","1536","864","en","ER04LF09","null","","","","learningBlock1","","","","That was a wug.","null","","","","",""
"","html-keyboard-response","240","214581","0.0-6.0-2.77","FL","dt4f26xnjv","1536","864","en","ER04LF09","null","","","","learningBlock1","","","","<div style=""font-size:60px;""> </div>","null","FL","learning/Slide78.JPG","That was a wug.","",""
"","image-keyboard-response","241","214759","0.0-6.0-0.78","FL","dt4f26xnjv","1536","864","en","ER04LF09","null","","","","","","","","learning/Slide79.JPG","null","","","","",""
"","html-keyboard-response","242","215918","0.0-6.0-1.78","FL","dt4f26xnjv","1536","864","en","ER04LF09","null","","","","learningBlock1","","","","That was a bim.","null","","","","",""
"","html-keyboard-response","243","216921","0.0-6.0-2.78","FL","dt4f26xnjv","1536","864","en","ER04LF09","null","","","","learningBlock1","","","","<div style=""font-size:60px;""> </div>","null","FL","learning/Slide79.JPG","That was a bim.","",""
"","image-keyboard-response","244","217100","0.0-6.0-0.79","FL","dt4f26xnjv","1536","864","en","ER04LF09","null","","","","","","","","learning/Slide80.JPG","null","","","","",""
"","html-keyboard-response","245","218253","0.0-6.0-1.79","FL","dt4f26xnjv","1536","864","en","ER04LF09","null","","","","learningBlock1","","","","That was a tob.","null","","","","",""
"","html-keyboard-response","246","219257","0.0-6.0-2.79","FL","dt4f26xnjv","1536","864","en","ER04LF09","null","","","","learningBlock1","","","","<div style=""font-size:60px;""> </div>","null","FL","learning/Slide80.JPG","That was a tob.","",""
"","instructions","247","222014","0.0-7.0","FL","dt4f26xnjv","1536","864","en","ER04LF09","NA","","","[{""page_index"":0,""viewing_time"":2755.349999999453}]","instructions","","","","","","","","","",""
"","image-keyboard-response","248","222193","0.0-8.0-0.0","FL","dt4f26xnjv","1536","864","en","ER04LF09","null","","","","","","","","learning/Slide81.JPG","null","","","","",""
"","html-keyboard-response","249","223350","0.0-8.0-1.0","FL","dt4f26xnjv","1536","864","en","ER04LF09","null","","","","learningBlock2","","","","That was a wug.","null","","","","",""
"","html-keyboard-response","250","224353","0.0-8.0-2.0","FL","dt4f26xnjv","1536","864","en","ER04LF09","null","","","","learningBlock2","","","","<div style=""font-size:60px;""> </div>","null","FL","learning/Slide81.JPG","That was a wug.","",""
"","image-keyboard-response","251","224535","0.0-8.0-0.1","FL","dt4f26xnjv","1536","864","en","ER04LF09","null","","","","","","","","learning/Slide82.JPG","null","","","","",""
"","html-keyboard-response","252","225692","0.0-8.0-1.1","FL","dt4f26xnjv","1536","864","en","ER04LF09","null","","","","learningBlock2","","","","That was a bim.","null","","","","",""
"","html-keyboard-response","253","226695","0.0-8.0-2.1","FL","dt4f26xnjv","1536","864","en","ER04LF09","null","","","","learningBlock2","","","","<div style=""font-size:60px;""> </div>","null","FL","learning/Slide82.JPG","That was a bim.","",""
"","image-keyboard-response","254","226874","0.0-8.0-0.2","FL","dt4f26xnjv","1536","864","en","ER04LF09","null","","","","","","","","learning/Slide83.JPG","null","","","","",""
"","html-keyboard-response","255","228028","0.0-8.0-1.2","FL","dt4f26xnjv","1536","864","en","ER04LF09","null","","","","learningBlock2","","","","That was a wug.","null","","","","",""
"","html-keyboard-response","256","229031","0.0-8.0-2.2","FL","dt4f26xnjv","1536","864","en","ER04LF09","null","","","","learningBlock2","","","","<div style=""font-size:60px;""> </div>","null","FL","learning/Slide83.JPG","That was a wug.","",""
"","image-keyboard-response","257","229210","0.0-8.0-0.3","FL","dt4f26xnjv","1536","864","en","ER04LF09","null","","","","","","","","learning/Slide84.JPG","null","","","","",""
"","html-keyboard-response","258","230364","0.0-8.0-1.3","FL","dt4f26xnjv","1536","864","en","ER04LF09","null","","","","learningBlock2","","","","That was a dep.","null","","","","",""
"","html-keyboard-response","259","231367","0.0-8.0-2.3","FL","dt4f26xnjv","1536","864","en","ER04LF09","null","","","","learningBlock2","","","","<div style=""font-size:60px;""> </div>","null","FL","learning/Slide84.JPG","That was a dep.","",""
"","image-keyboard-response","260","231546","0.0-8.0-0.4","FL","dt4f26xnjv","1536","864","en","ER04LF09","null","","","","","","","","learning/Slide85.JPG","null","","","","",""
"","html-keyboard-response","261","232703","0.0-8.0-1.4","FL","dt4f26xnjv","1536","864","en","ER04LF09","null","","","","learningBlock2","","","","That was a bim.","null","","","","",""
"","html-keyboard-response","262","233707","0.0-8.0-2.4","FL","dt4f26xnjv","1536","864","en","ER04LF09","null","","","","learningBlock2","","","","<div style=""font-size:60px;""> </div>","null","FL","learning/Slide85.JPG","That was a bim.","",""
"","image-keyboard-response","263","233888","0.0-8.0-0.5","FL","dt4f26xnjv","1536","864","en","ER04LF09","null","","","","","","","","learning/Slide86.JPG","null","","","","",""
"","html-keyboard-response","264","235040","0.0-8.0-1.5","FL","dt4f26xnjv","1536","864","en","ER04LF09","null","","","","learningBlock2","","","","That was a tob.","null","","","","",""
"","html-keyboard-response","265","236042","0.0-8.0-2.5","FL","dt4f26xnjv","1536","864","en","ER04LF09","null","","","","learningBlock2","","","","<div style=""font-size:60px;""> </div>","null","FL","learning/Slide86.JPG","That was a tob.","",""
"","image-keyboard-response","266","236221","0.0-8.0-0.6","FL","dt4f26xnjv","1536","864","en","ER04LF09","null","","","","","","","","learning/Slide87.JPG","null","","","","",""
"","html-keyboard-response","267","237374","0.0-8.0-1.6","FL","dt4f26xnjv","1536","864","en","ER04LF09","null","","","","learningBlock2","","","","That was a wug.","null","","","","",""
"","html-keyboard-response","268","238378","0.0-8.0-2.6","FL","dt4f26xnjv","1536","864","en","ER04LF09","null","","","","learningBlock2","","","","<div style=""font-size:60px;""> </div>","null","FL","learning/Slide87.JPG","That was a wug.","",""
"","image-keyboard-response","269","238559","0.0-8.0-0.7","FL","dt4f26xnjv","1536","864","en","ER04LF09","null","","","","","","","","learning/Slide88.JPG","null","","","","",""
"","html-keyboard-response","270","239719","0.0-8.0-1.7","FL","dt4f26xnjv","1536","864","en","ER04LF09","null","","","","learningBlock2","","","","That was a tob.","null","","","","",""
"","html-keyboard-response","271","240723","0.0-8.0-2.7","FL","dt4f26xnjv","1536","864","en","ER04LF09","null","","","","learningBlock2","","","","<div style=""font-size:60px;""> </div>","null","FL","learning/Slide88.JPG","That was a tob.","",""
"","image-keyboard-response","272","240902","0.0-8.0-0.8","FL","dt4f26xnjv","1536","864","en","ER04LF09","null","","","","","","","","learning/Slide89.JPG","null","","","","",""
"","html-keyboard-response","273","242056","0.0-8.0-1.8","FL","dt4f26xnjv","1536","864","en","ER04LF09","null","","","","learningBlock2","","","","That was a bim.","null","","","","",""
"","html-keyboard-response","274","243060","0.0-8.0-2.8","FL","dt4f26xnjv","1536","864","en","ER04LF09","null","","","","learningBlock2","","","","<div style=""font-size:60px;""> </div>","null","FL","learning/Slide89.JPG","That was a bim.","",""
"","image-keyboard-response","275","243239","0.0-8.0-0.9","FL","dt4f26xnjv","1536","864","en","ER04LF09","null","","","","","","","","learning/Slide90.JPG","null","","","","",""
"","html-keyboard-response","276","244399","0.0-8.0-1.9","FL","dt4f26xnjv","1536","864","en","ER04LF09","null","","","","learningBlock2","","","","That was a dep.","null","","","","",""
"","html-keyboard-response","277","245403","0.0-8.0-2.9","FL","dt4f26xnjv","1536","864","en","ER04LF09","null","","","","learningBlock2","","","","<div style=""font-size:60px;""> </div>","null","FL","learning/Slide90.JPG","That was a dep.","",""
"","image-keyboard-response","278","245583","0.0-8.0-0.10","FL","dt4f26xnjv","1536","864","en","ER04LF09","null","","","","","","","","learning/Slide91.JPG","null","","","","",""
"","html-keyboard-response","279","246741","0.0-8.0-1.10","FL","dt4f26xnjv","1536","864","en","ER04LF09","null","","","","learningBlock2","","","","That was a wug.","null","","","","",""
"","html-keyboard-response","280","247744","0.0-8.0-2.10","FL","dt4f26xnjv","1536","864","en","ER04LF09","null","","","","learningBlock2","","","","<div style=""font-size:60px;""> </div>","null","FL","learning/Slide91.JPG","That was a wug.","",""
"","image-keyboard-response","281","247923","0.0-8.0-0.11","FL","dt4f26xnjv","1536","864","en","ER04LF09","null","","","","","","","","learning/Slide92.JPG","null","","","","",""
"","html-keyboard-response","282","249079","0.0-8.0-1.11","FL","dt4f26xnjv","1536","864","en","ER04LF09","null","","","","learningBlock2","","","","That was a tob.","null","","","","",""
"","html-keyboard-response","283","250081","0.0-8.0-2.11","FL","dt4f26xnjv","1536","864","en","ER04LF09","null","","","","learningBlock2","","","","<div style=""font-size:60px;""> </div>","null","FL","learning/Slide92.JPG","That was a tob.","",""
"","image-keyboard-response","284","250261","0.0-8.0-0.12","FL","dt4f26xnjv","1536","864","en","ER04LF09","null","","","","","","","","learning/Slide93.JPG","null","","","","",""
"","html-keyboard-response","285","251414","0.0-8.0-1.12","FL","dt4f26xnjv","1536","864","en","ER04LF09","null","","","","learningBlock2","","","","That was a bim.","null","","","","",""
"","html-keyboard-response","286","252416","0.0-8.0-2.12","FL","dt4f26xnjv","1536","864","en","ER04LF09","null","","","","learningBlock2","","","","<div style=""font-size:60px;""> </div>","null","FL","learning/Slide93.JPG","That was a bim.","",""
"","image-keyboard-response","287","252594","0.0-8.0-0.13","FL","dt4f26xnjv","1536","864","en","ER04LF09","null","","","","","","","","learning/Slide94.JPG","null","","","","",""
"","html-keyboard-response","288","253754","0.0-8.0-1.13","FL","dt4f26xnjv","1536","864","en","ER04LF09","null","","","","learningBlock2","","","","That was a tob.","null","","","","",""
"","html-keyboard-response","289","254758","0.0-8.0-2.13","FL","dt4f26xnjv","1536","864","en","ER04LF09","null","","","","learningBlock2","","","","<div style=""font-size:60px;""> </div>","null","FL","learning/Slide94.JPG","That was a tob.","",""
"","image-keyboard-response","290","254940","0.0-8.0-0.14","FL","dt4f26xnjv","1536","864","en","ER04LF09","null","","","","","","","","learning/Slide95.JPG","null","","","","",""
"","html-keyboard-response","291","256096","0.0-8.0-1.14","FL","dt4f26xnjv","1536","864","en","ER04LF09","null","","","","learningBlock2","","","","That was a wug.","null","","","","",""
"","html-keyboard-response","292","257099","0.0-8.0-2.14","FL","dt4f26xnjv","1536","864","en","ER04LF09","null","","","","learningBlock2","","","","<div style=""font-size:60px;""> </div>","null","FL","learning/Slide95.JPG","That was a wug.","",""
"","image-keyboard-response","293","257278","0.0-8.0-0.15","FL","dt4f26xnjv","1536","864","en","ER04LF09","null","","","","","","","","learning/Slide96.JPG","null","","","","",""
"","html-keyboard-response","294","258438","0.0-8.0-1.15","FL","dt4f26xnjv","1536","864","en","ER04LF09","null","","","","learningBlock2","","","","That was a tob.","null","","","","",""
"","html-keyboard-response","295","259440","0.0-8.0-2.15","FL","dt4f26xnjv","1536","864","en","ER04LF09","null","","","","learningBlock2","","","","<div style=""font-size:60px;""> </div>","null","FL","learning/Slide96.JPG","That was a tob.","",""
"","image-keyboard-response","296","259618","0.0-8.0-0.16","FL","dt4f26xnjv","1536","864","en","ER04LF09","null","","","","","","","","learning/Slide97.JPG","null","","","","",""
"","html-keyboard-response","297","260775","0.0-8.0-1.16","FL","dt4f26xnjv","1536","864","en","ER04LF09","null","","","","learningBlock2","","","","That was a dep.","null","","","","",""
"","html-keyboard-response","298","261780","0.0-8.0-2.16","FL","dt4f26xnjv","1536","864","en","ER04LF09","null","","","","learningBlock2","","","","<div style=""font-size:60px;""> </div>","null","FL","learning/Slide97.JPG","That was a dep.","",""
"","image-keyboard-response","299","261959","0.0-8.0-0.17","FL","dt4f26xnjv","1536","864","en","ER04LF09","null","","","","","","","","learning/Slide98.JPG","null","","","","",""
"","html-keyboard-response","300","263115","0.0-8.0-1.17","FL","dt4f26xnjv","1536","864","en","ER04LF09","null","","","","learningBlock2","","","","That was a bim.","null","","","","",""
"","html-keyboard-response","301","264118","0.0-8.0-2.17","FL","dt4f26xnjv","1536","864","en","ER04LF09","null","","","","learningBlock2","","","","<div style=""font-size:60px;""> </div>","null","FL","learning/Slide98.JPG","That was a bim.","",""
"","image-keyboard-response","302","264299","0.0-8.0-0.18","FL","dt4f26xnjv","1536","864","en","ER04LF09","null","","","","","","","","learning/Slide99.JPG","null","","","","",""
"","html-keyboard-response","303","265453","0.0-8.0-1.18","FL","dt4f26xnjv","1536","864","en","ER04LF09","null","","","","learningBlock2","","","","That was a dep.","null","","","","",""
"","html-keyboard-response","304","266460","0.0-8.0-2.18","FL","dt4f26xnjv","1536","864","en","ER04LF09","null","","","","learningBlock2","","","","<div style=""font-size:60px;""> </div>","null","FL","learning/Slide99.JPG","That was a dep.","",""
"","image-keyboard-response","305","266639","0.0-8.0-0.19","FL","dt4f26xnjv","1536","864","en","ER04LF09","null","","","","","","","","learning/Slide100.JPG","null","","","","",""
"","html-keyboard-response","306","267796","0.0-8.0-1.19","FL","dt4f26xnjv","1536","864","en","ER04LF09","null","","","","learningBlock2","","","","That was a bim.","null","","","","",""
"","html-keyboard-response","307","268799","0.0-8.0-2.19","FL","dt4f26xnjv","1536","864","en","ER04LF09","null","","","","learningBlock2","","","","<div style=""font-size:60px;""> </div>","null","FL","learning/Slide100.JPG","That was a bim.","",""
"","image-keyboard-response","308","268980","0.0-8.0-0.20","FL","dt4f26xnjv","1536","864","en","ER04LF09","null","","","","","","","","learning/Slide101.JPG","null","","","","",""
"","html-keyboard-response","309","270135","0.0-8.0-1.20","FL","dt4f26xnjv","1536","864","en","ER04LF09","null","","","","learningBlock2","","","","That was a tob.","null","","","","",""
"","html-keyboard-response","310","271139","0.0-8.0-2.20","FL","dt4f26xnjv","1536","864","en","ER04LF09","null","","","","learningBlock2","","","","<div style=""font-size:60px;""> </div>","null","FL","learning/Slide101.JPG","That was a tob.","",""
"","image-keyboard-response","311","271320","0.0-8.0-0.21","FL","dt4f26xnjv","1536","864","en","ER04LF09","null","","","","","","","","learning/Slide102.JPG","null","","","","",""
"","html-keyboard-response","312","272478","0.0-8.0-1.21","FL","dt4f26xnjv","1536","864","en","ER04LF09","null","","","","learningBlock2","","","","That was a bim.","null","","","","",""
"","html-keyboard-response","313","273481","0.0-8.0-2.21","FL","dt4f26xnjv","1536","864","en","ER04LF09","null","","","","learningBlock2","","","","<div style=""font-size:60px;""> </div>","null","FL","learning/Slide102.JPG","That was a bim.","",""
"","image-keyboard-response","314","273661","0.0-8.0-0.22","FL","dt4f26xnjv","1536","864","en","ER04LF09","null","","","","","","","","learning/Slide103.JPG","null","","","","",""
"","html-keyboard-response","315","274816","0.0-8.0-1.22","FL","dt4f26xnjv","1536","864","en","ER04LF09","null","","","","learningBlock2","","","","That was a dep.","null","","","","",""
"","html-keyboard-response","316","275818","0.0-8.0-2.22","FL","dt4f26xnjv","1536","864","en","ER04LF09","null","","","","learningBlock2","","","","<div style=""font-size:60px;""> </div>","null","FL","learning/Slide103.JPG","That was a dep.","",""
"","image-keyboard-response","317","275995","0.0-8.0-0.23","FL","dt4f26xnjv","1536","864","en","ER04LF09","null","","","","","","","","learning/Slide104.JPG","null","","","","",""
"","html-keyboard-response","318","277152","0.0-8.0-1.23","FL","dt4f26xnjv","1536","864","en","ER04LF09","null","","","","learningBlock2","","","","That was a tob.","null","","","","",""
"","html-keyboard-response","319","278158","0.0-8.0-2.23","FL","dt4f26xnjv","1536","864","en","ER04LF09","null","","","","learningBlock2","","","","<div style=""font-size:60px;""> </div>","null","FL","learning/Slide104.JPG","That was a tob.","",""
"","image-keyboard-response","320","278340","0.0-8.0-0.24","FL","dt4f26xnjv","1536","864","en","ER04LF09","null","","","","","","","","learning/Slide105.JPG","null","","","","",""
"","html-keyboard-response","321","279497","0.0-8.0-1.24","FL","dt4f26xnjv","1536","864","en","ER04LF09","null","","","","learningBlock2","","","","That was a dep.","null","","","","",""
"","html-keyboard-response","322","280501","0.0-8.0-2.24","FL","dt4f26xnjv","1536","864","en","ER04LF09","null","","","","learningBlock2","","","","<div style=""font-size:60px;""> </div>","null","FL","learning/Slide105.JPG","That was a dep.","",""
"","image-keyboard-response","323","280680","0.0-8.0-0.25","FL","dt4f26xnjv","1536","864","en","ER04LF09","null","","","","","","","","learning/Slide106.JPG","null","","","","",""
"","html-keyboard-response","324","281840","0.0-8.0-1.25","FL","dt4f26xnjv","1536","864","en","ER04LF09","null","","","","learningBlock2","","","","That was a wug.","null","","","","",""
"","html-keyboard-response","325","282845","0.0-8.0-2.25","FL","dt4f26xnjv","1536","864","en","ER04LF09","null","","","","learningBlock2","","","","<div style=""font-size:60px;""> </div>","null","FL","learning/Slide106.JPG","That was a wug.","",""
"","image-keyboard-response","326","283024","0.0-8.0-0.26","FL","dt4f26xnjv","1536","864","en","ER04LF09","null","","","","","","","","learning/Slide107.JPG","null","","","","",""
"","html-keyboard-response","327","284179","0.0-8.0-1.26","FL","dt4f26xnjv","1536","864","en","ER04LF09","null","","","","learningBlock2","","","","That was a bim.","null","","","","",""
"","html-keyboard-response","328","285183","0.0-8.0-2.26","FL","dt4f26xnjv","1536","864","en","ER04LF09","null","","","","learningBlock2","","","","<div style=""font-size:60px;""> </div>","null","FL","learning/Slide107.JPG","That was a bim.","",""
"","image-keyboard-response","329","285362","0.0-8.0-0.27","FL","dt4f26xnjv","1536","864","en","ER04LF09","null","","","","","","","","learning/Slide108.JPG","null","","","","",""
"","html-keyboard-response","330","286519","0.0-8.0-1.27","FL","dt4f26xnjv","1536","864","en","ER04LF09","null","","","","learningBlock2","","","","That was a dep.","null","","","","",""
"","html-keyboard-response","331","287522","0.0-8.0-2.27","FL","dt4f26xnjv","1536","864","en","ER04LF09","null","","","","learningBlock2","","","","<div style=""font-size:60px;""> </div>","null","FL","learning/Slide108.JPG","That was a dep.","",""
"","image-keyboard-response","332","287702","0.0-8.0-0.28","FL","dt4f26xnjv","1536","864","en","ER04LF09","null","","","","","","","","learning/Slide109.JPG","null","","","","",""
"","html-keyboard-response","333","288856","0.0-8.0-1.28","FL","dt4f26xnjv","1536","864","en","ER04LF09","null","","","","learningBlock2","","","","That was a wug.","null","","","","",""
"","html-keyboard-response","334","289860","0.0-8.0-2.28","FL","dt4f26xnjv","1536","864","en","ER04LF09","null","","","","learningBlock2","","","","<div style=""font-size:60px;""> </div>","null","FL","learning/Slide109.JPG","That was a wug.","",""
"","image-keyboard-response","335","290040","0.0-8.0-0.29","FL","dt4f26xnjv","1536","864","en","ER04LF09","null","","","","","","","","learning/Slide110.JPG","null","","","","",""
"","html-keyboard-response","336","291195","0.0-8.0-1.29","FL","dt4f26xnjv","1536","864","en","ER04LF09","null","","","","learningBlock2","","","","That was a bim.","null","","","","",""
"","html-keyboard-response","337","292198","0.0-8.0-2.29","FL","dt4f26xnjv","1536","864","en","ER04LF09","null","","","","learningBlock2","","","","<div style=""font-size:60px;""> </div>","null","FL","learning/Slide110.JPG","That was a bim.","",""
"","image-keyboard-response","338","292379","0.0-8.0-0.30","FL","dt4f26xnjv","1536","864","en","ER04LF09","null","","","","","","","","learning/Slide111.JPG","null","","","","",""
"","html-keyboard-response","339","293534","0.0-8.0-1.30","FL","dt4f26xnjv","1536","864","en","ER04LF09","null","","","","learningBlock2","","","","That was a tob.","null","","","","",""
"","html-keyboard-response","340","294537","0.0-8.0-2.30","FL","dt4f26xnjv","1536","864","en","ER04LF09","null","","","","learningBlock2","","","","<div style=""font-size:60px;""> </div>","null","FL","learning/Slide111.JPG","That was a tob.","",""
"","image-keyboard-response","341","294719","0.0-8.0-0.31","FL","dt4f26xnjv","1536","864","en","ER04LF09","null","","","","","","","","learning/Slide112.JPG","null","","","","",""
"","html-keyboard-response","342","295878","0.0-8.0-1.31","FL","dt4f26xnjv","1536","864","en","ER04LF09","null","","","","learningBlock2","","","","That was a wug.","null","","","","",""
"","html-keyboard-response","343","296883","0.0-8.0-2.31","FL","dt4f26xnjv","1536","864","en","ER04LF09","null","","","","learningBlock2","","","","<div style=""font-size:60px;""> </div>","null","FL","learning/Slide112.JPG","That was a wug.","",""
"","image-keyboard-response","344","297062","0.0-8.0-0.32","FL","dt4f26xnjv","1536","864","en","ER04LF09","null","","","","","","","","learning/Slide113.JPG","null","","","","",""
"","html-keyboard-response","345","298220","0.0-8.0-1.32","FL","dt4f26xnjv","1536","864","en","ER04LF09","null","","","","learningBlock2","","","","That was a tob.","null","","","","",""
"","html-keyboard-response","346","299225","0.0-8.0-2.32","FL","dt4f26xnjv","1536","864","en","ER04LF09","null","","","","learningBlock2","","","","<div style=""font-size:60px;""> </div>","null","FL","learning/Slide113.JPG","That was a tob.","",""
"","image-keyboard-response","347","299404","0.0-8.0-0.33","FL","dt4f26xnjv","1536","864","en","ER04LF09","null","","","","","","","","learning/Slide114.JPG","null","","","","",""
"","html-keyboard-response","348","300560","0.0-8.0-1.33","FL","dt4f26xnjv","1536","864","en","ER04LF09","null","","","","learningBlock2","","","","That was a wug.","null","","","","",""
"","html-keyboard-response","349","301565","0.0-8.0-2.33","FL","dt4f26xnjv","1536","864","en","ER04LF09","null","","","","learningBlock2","","","","<div style=""font-size:60px;""> </div>","null","FL","learning/Slide114.JPG","That was a wug.","",""
"","image-keyboard-response","350","301745","0.0-8.0-0.34","FL","dt4f26xnjv","1536","864","en","ER04LF09","null","","","","","","","","learning/Slide115.JPG","null","","","","",""
"","html-keyboard-response","351","302903","0.0-8.0-1.34","FL","dt4f26xnjv","1536","864","en","ER04LF09","null","","","","learningBlock2","","","","That was a bim.","null","","","","",""
"","html-keyboard-response","352","303908","0.0-8.0-2.34","FL","dt4f26xnjv","1536","864","en","ER04LF09","null","","","","learningBlock2","","","","<div style=""font-size:60px;""> </div>","null","FL","learning/Slide115.JPG","That was a bim.","",""
"","image-keyboard-response","353","304089","0.0-8.0-0.35","FL","dt4f26xnjv","1536","864","en","ER04LF09","null","","","","","","","","learning/Slide116.JPG","null","","","","",""
"","html-keyboard-response","354","305242","0.0-8.0-1.35","FL","dt4f26xnjv","1536","864","en","ER04LF09","null","","","","learningBlock2","","","","That was a dep.","null","","","","",""
"","html-keyboard-response","355","306245","0.0-8.0-2.35","FL","dt4f26xnjv","1536","864","en","ER04LF09","null","","","","learningBlock2","","","","<div style=""font-size:60px;""> </div>","null","FL","learning/Slide116.JPG","That was a dep.","",""
"","image-keyboard-response","356","306425","0.0-8.0-0.36","FL","dt4f26xnjv","1536","864","en","ER04LF09","null","","","","","","","","learning/Slide117.JPG","null","","","","",""
"","html-keyboard-response","357","307583","0.0-8.0-1.36","FL","dt4f26xnjv","1536","864","en","ER04LF09","null","","","","learningBlock2","","","","That was a tob.","null","","","","",""
"","html-keyboard-response","358","308585","0.0-8.0-2.36","FL","dt4f26xnjv","1536","864","en","ER04LF09","null","","","","learningBlock2","","","","<div style=""font-size:60px;""> </div>","null","FL","learning/Slide117.JPG","That was a tob.","",""
"","image-keyboard-response","359","308765","0.0-8.0-0.37","FL","dt4f26xnjv","1536","864","en","ER04LF09","null","","","","","","","","learning/Slide118.JPG","null","","","","",""
"","html-keyboard-response","360","309920","0.0-8.0-1.37","FL","dt4f26xnjv","1536","864","en","ER04LF09","null","","","","learningBlock2","","","","That was a dep.","null","","","","",""
"","html-keyboard-response","361","310924","0.0-8.0-2.37","FL","dt4f26xnjv","1536","864","en","ER04LF09","null","","","","learningBlock2","","","","<div style=""font-size:60px;""> </div>","null","FL","learning/Slide118.JPG","That was a dep.","",""
"","image-keyboard-response","362","311105","0.0-8.0-0.38","FL","dt4f26xnjv","1536","864","en","ER04LF09","null","","","","","","","","learning/Slide119.JPG","null","","","","",""
"","html-keyboard-response","363","312258","0.0-8.0-1.38","FL","dt4f26xnjv","1536","864","en","ER04LF09","null","","","","learningBlock2","","","","That was a wug.","null","","","","",""
"","html-keyboard-response","364","313264","0.0-8.0-2.38","FL","dt4f26xnjv","1536","864","en","ER04LF09","null","","","","learningBlock2","","","","<div style=""font-size:60px;""> </div>","null","FL","learning/Slide119.JPG","That was a wug.","",""
"","image-keyboard-response","365","313444","0.0-8.0-0.39","FL","dt4f26xnjv","1536","864","en","ER04LF09","null","","","","","","","","learning/Slide120.JPG","null","","","","",""
"","html-keyboard-response","366","314600","0.0-8.0-1.39","FL","dt4f26xnjv","1536","864","en","ER04LF09","null","","","","learningBlock2","","","","That was a dep.","null","","","","",""
"","html-keyboard-response","367","315602","0.0-8.0-2.39","FL","dt4f26xnjv","1536","864","en","ER04LF09","null","","","","learningBlock2","","","","<div style=""font-size:60px;""> </div>","null","FL","learning/Slide120.JPG","That was a dep.","",""
"","image-keyboard-response","368","315784","0.0-8.0-0.40","FL","dt4f26xnjv","1536","864","en","ER04LF09","null","","","","","","","","learning/Slide121.JPG","null","","","","",""
"","html-keyboard-response","369","316938","0.0-8.0-1.40","FL","dt4f26xnjv","1536","864","en","ER04LF09","null","","","","learningBlock2","","","","That was a bim.","null","","","","",""
"","html-keyboard-response","370","317941","0.0-8.0-2.40","FL","dt4f26xnjv","1536","864","en","ER04LF09","null","","","","learningBlock2","","","","<div style=""font-size:60px;""> </div>","null","FL","learning/Slide121.JPG","That was a bim.","",""
"","image-keyboard-response","371","318120","0.0-8.0-0.41","FL","dt4f26xnjv","1536","864","en","ER04LF09","null","","","","","","","","learning/Slide122.JPG","null","","","","",""
"","html-keyboard-response","372","319274","0.0-8.0-1.41","FL","dt4f26xnjv","1536","864","en","ER04LF09","null","","","","learningBlock2","","","","That was a wug.","null","","","","",""
"","html-keyboard-response","373","320280","0.0-8.0-2.41","FL","dt4f26xnjv","1536","864","en","ER04LF09","null","","","","learningBlock2","","","","<div style=""font-size:60px;""> </div>","null","FL","learning/Slide122.JPG","That was a wug.","",""
"","image-keyboard-response","374","320459","0.0-8.0-0.42","FL","dt4f26xnjv","1536","864","en","ER04LF09","null","","","","","","","","learning/Slide123.JPG","null","","","","",""
"","html-keyboard-response","375","321617","0.0-8.0-1.42","FL","dt4f26xnjv","1536","864","en","ER04LF09","null","","","","learningBlock2","","","","That was a bim.","null","","","","",""
"","html-keyboard-response","376","322620","0.0-8.0-2.42","FL","dt4f26xnjv","1536","864","en","ER04LF09","null","","","","learningBlock2","","","","<div style=""font-size:60px;""> </div>","null","FL","learning/Slide123.JPG","That was a bim.","",""
"","image-keyboard-response","377","322798","0.0-8.0-0.43","FL","dt4f26xnjv","1536","864","en","ER04LF09","null","","","","","","","","learning/Slide124.JPG","null","","","","",""
"","html-keyboard-response","378","323956","0.0-8.0-1.43","FL","dt4f26xnjv","1536","864","en","ER04LF09","null","","","","learningBlock2","","","","That was a tob.","null","","","","",""
"","html-keyboard-response","379","324960","0.0-8.0-2.43","FL","dt4f26xnjv","1536","864","en","ER04LF09","null","","","","learningBlock2","","","","<div style=""font-size:60px;""> </div>","null","FL","learning/Slide124.JPG","That was a tob.","",""
"","image-keyboard-response","380","325140","0.0-8.0-0.44","FL","dt4f26xnjv","1536","864","en","ER04LF09","null","","","","","","","","learning/Slide125.JPG","null","","","","",""
"","html-keyboard-response","381","326295","0.0-8.0-1.44","FL","dt4f26xnjv","1536","864","en","ER04LF09","null","","","","learningBlock2","","","","That was a bim.","null","","","","",""
"","html-keyboard-response","382","327298","0.0-8.0-2.44","FL","dt4f26xnjv","1536","864","en","ER04LF09","null","","","","learningBlock2","","","","<div style=""font-size:60px;""> </div>","null","FL","learning/Slide125.JPG","That was a bim.","",""
"","image-keyboard-response","383","327479","0.0-8.0-0.45","FL","dt4f26xnjv","1536","864","en","ER04LF09","null","","","","","","","","learning/Slide126.JPG","null","","","","",""
"","html-keyboard-response","384","328634","0.0-8.0-1.45","FL","dt4f26xnjv","1536","864","en","ER04LF09","null","","","","learningBlock2","","","","That was a tob.","null","","","","",""
"","html-keyboard-response","385","329637","0.0-8.0-2.45","FL","dt4f26xnjv","1536","864","en","ER04LF09","null","","","","learningBlock2","","","","<div style=""font-size:60px;""> </div>","null","FL","learning/Slide126.JPG","That was a tob.","",""
"","image-keyboard-response","386","329815","0.0-8.0-0.46","FL","dt4f26xnjv","1536","864","en","ER04LF09","null","","","","","","","","learning/Slide127.JPG","null","","","","",""
"","html-keyboard-response","387","330971","0.0-8.0-1.46","FL","dt4f26xnjv","1536","864","en","ER04LF09","null","","","","learningBlock2","","","","That was a dep.","null","","","","",""
"","html-keyboard-response","388","331974","0.0-8.0-2.46","FL","dt4f26xnjv","1536","864","en","ER04LF09","null","","","","learningBlock2","","","","<div style=""font-size:60px;""> </div>","null","FL","learning/Slide127.JPG","That was a dep.","",""
"","image-keyboard-response","389","332152","0.0-8.0-0.47","FL","dt4f26xnjv","1536","864","en","ER04LF09","null","","","","","","","","learning/Slide128.JPG","null","","","","",""
"","html-keyboard-response","390","333309","0.0-8.0-1.47","FL","dt4f26xnjv","1536","864","en","ER04LF09","null","","","","learningBlock2","","","","That was a wug.","null","","","","",""
"","html-keyboard-response","391","334314","0.0-8.0-2.47","FL","dt4f26xnjv","1536","864","en","ER04LF09","null","","","","learningBlock2","","","","<div style=""font-size:60px;""> </div>","null","FL","learning/Slide128.JPG","That was a wug.","",""
"","image-keyboard-response","392","334494","0.0-8.0-0.48","FL","dt4f26xnjv","1536","864","en","ER04LF09","null","","","","","","","","learning/Slide129.JPG","null","","","","",""
"","html-keyboard-response","393","335650","0.0-8.0-1.48","FL","dt4f26xnjv","1536","864","en","ER04LF09","null","","","","learningBlock2","","","","That was a tob.","null","","","","",""
"","html-keyboard-response","394","336655","0.0-8.0-2.48","FL","dt4f26xnjv","1536","864","en","ER04LF09","null","","","","learningBlock2","","","","<div style=""font-size:60px;""> </div>","null","FL","learning/Slide129.JPG","That was a tob.","",""
"","image-keyboard-response","395","336834","0.0-8.0-0.49","FL","dt4f26xnjv","1536","864","en","ER04LF09","null","","","","","","","","learning/Slide130.JPG","null","","","","",""
"","html-keyboard-response","396","337988","0.0-8.0-1.49","FL","dt4f26xnjv","1536","864","en","ER04LF09","null","","","","learningBlock2","","","","That was a wug.","null","","","","",""
"","html-keyboard-response","397","338991","0.0-8.0-2.49","FL","dt4f26xnjv","1536","864","en","ER04LF09","null","","","","learningBlock2","","","","<div style=""font-size:60px;""> </div>","null","FL","learning/Slide130.JPG","That was a wug.","",""
"","image-keyboard-response","398","339169","0.0-8.0-0.50","FL","dt4f26xnjv","1536","864","en","ER04LF09","null","","","","","","","","learning/Slide131.JPG","null","","","","",""
"","html-keyboard-response","399","340323","0.0-8.0-1.50","FL","dt4f26xnjv","1536","864","en","ER04LF09","null","","","","learningBlock2","","","","That was a bim.","null","","","","",""
"","html-keyboard-response","400","341329","0.0-8.0-2.50","FL","dt4f26xnjv","1536","864","en","ER04LF09","null","","","","learningBlock2","","","","<div style=""font-size:60px;""> </div>","null","FL","learning/Slide131.JPG","That was a bim.","",""
"","image-keyboard-response","401","341510","0.0-8.0-0.51","FL","dt4f26xnjv","1536","864","en","ER04LF09","null","","","","","","","","learning/Slide132.JPG","null","","","","",""
"","html-keyboard-response","402","342665","0.0-8.0-1.51","FL","dt4f26xnjv","1536","864","en","ER04LF09","null","","","","learningBlock2","","","","That was a dep.","null","","","","",""
"","html-keyboard-response","403","343669","0.0-8.0-2.51","FL","dt4f26xnjv","1536","864","en","ER04LF09","null","","","","learningBlock2","","","","<div style=""font-size:60px;""> </div>","null","FL","learning/Slide132.JPG","That was a dep.","",""
"","image-keyboard-response","404","343853","0.0-8.0-0.52","FL","dt4f26xnjv","1536","864","en","ER04LF09","null","","","","","","","","learning/Slide133.JPG","null","","","","",""
"","html-keyboard-response","405","345008","0.0-8.0-1.52","FL","dt4f26xnjv","1536","864","en","ER04LF09","null","","","","learningBlock2","","","","That was a tob.","null","","","","",""
"","html-keyboard-response","406","346013","0.0-8.0-2.52","FL","dt4f26xnjv","1536","864","en","ER04LF09","null","","","","learningBlock2","","","","<div style=""font-size:60px;""> </div>","null","FL","learning/Slide133.JPG","That was a tob.","",""
"","image-keyboard-response","407","346192","0.0-8.0-0.53","FL","dt4f26xnjv","1536","864","en","ER04LF09","null","","","","","","","","learning/Slide134.JPG","null","","","","",""
"","html-keyboard-response","408","347349","0.0-8.0-1.53","FL","dt4f26xnjv","1536","864","en","ER04LF09","null","","","","learningBlock2","","","","That was a dep.","null","","","","",""
"","html-keyboard-response","409","348356","0.0-8.0-2.53","FL","dt4f26xnjv","1536","864","en","ER04LF09","null","","","","learningBlock2","","","","<div style=""font-size:60px;""> </div>","null","FL","learning/Slide134.JPG","That was a dep.","",""
"","image-keyboard-response","410","348539","0.0-8.0-0.54","FL","dt4f26xnjv","1536","864","en","ER04LF09","null","","","","","","","","learning/Slide135.JPG","null","","","","",""
"","html-keyboard-response","411","349697","0.0-8.0-1.54","FL","dt4f26xnjv","1536","864","en","ER04LF09","null","","","","learningBlock2","","","","That was a tob.","null","","","","",""
"","html-keyboard-response","412","350702","0.0-8.0-2.54","FL","dt4f26xnjv","1536","864","en","ER04LF09","null","","","","learningBlock2","","","","<div style=""font-size:60px;""> </div>","null","FL","learning/Slide135.JPG","That was a tob.","",""
"","image-keyboard-response","413","350880","0.0-8.0-0.55","FL","dt4f26xnjv","1536","864","en","ER04LF09","null","","","","","","","","learning/Slide136.JPG","null","","","","",""
"","html-keyboard-response","414","352038","0.0-8.0-1.55","FL","dt4f26xnjv","1536","864","en","ER04LF09","null","","","","learningBlock2","","","","That was a wug.","null","","","","",""
"","html-keyboard-response","415","353042","0.0-8.0-2.55","FL","dt4f26xnjv","1536","864","en","ER04LF09","null","","","","learningBlock2","","","","<div style=""font-size:60px;""> </div>","null","FL","learning/Slide136.JPG","That was a wug.","",""
"","image-keyboard-response","416","353221","0.0-8.0-0.56","FL","dt4f26xnjv","1536","864","en","ER04LF09","null","","","","","","","","learning/Slide137.JPG","null","","","","",""
"","html-keyboard-response","417","354374","0.0-8.0-1.56","FL","dt4f26xnjv","1536","864","en","ER04LF09","null","","","","learningBlock2","","","","That was a tob.","null","","","","",""
"","html-keyboard-response","418","355379","0.0-8.0-2.56","FL","dt4f26xnjv","1536","864","en","ER04LF09","null","","","","learningBlock2","","","","<div style=""font-size:60px;""> </div>","null","FL","learning/Slide137.JPG","That was a tob.","",""
"","image-keyboard-response","419","355559","0.0-8.0-0.57","FL","dt4f26xnjv","1536","864","en","ER04LF09","null","","","","","","","","learning/Slide138.JPG","null","","","","",""
"","html-keyboard-response","420","356713","0.0-8.0-1.57","FL","dt4f26xnjv","1536","864","en","ER04LF09","null","","","","learningBlock2","","","","That was a bim.","null","","","","",""
"","html-keyboard-response","421","357716","0.0-8.0-2.57","FL","dt4f26xnjv","1536","864","en","ER04LF09","null","","","","learningBlock2","","","","<div style=""font-size:60px;""> </div>","null","FL","learning/Slide138.JPG","That was a bim.","",""
"","image-keyboard-response","422","357895","0.0-8.0-0.58","FL","dt4f26xnjv","1536","864","en","ER04LF09","null","","","","","","","","learning/Slide139.JPG","null","","","","",""
"","html-keyboard-response","423","359052","0.0-8.0-1.58","FL","dt4f26xnjv","1536","864","en","ER04LF09","null","","","","learningBlock2","","","","That was a wug.","null","","","","",""
"","html-keyboard-response","424","360058","0.0-8.0-2.58","FL","dt4f26xnjv","1536","864","en","ER04LF09","null","","","","learningBlock2","","","","<div style=""font-size:60px;""> </div>","null","FL","learning/Slide139.JPG","That was a wug.","",""
"","image-keyboard-response","425","360237","0.0-8.0-0.59","FL","dt4f26xnjv","1536","864","en","ER04LF09","null","","","","","","","","learning/Slide140.JPG","null","","","","",""
"","html-keyboard-response","426","361391","0.0-8.0-1.59","FL","dt4f26xnjv","1536","864","en","ER04LF09","null","","","","learningBlock2","","","","That was a dep.","null","","","","",""
"","html-keyboard-response","427","362398","0.0-8.0-2.59","FL","dt4f26xnjv","1536","864","en","ER04LF09","null","","","","learningBlock2","","","","<div style=""font-size:60px;""> </div>","null","FL","learning/Slide140.JPG","That was a dep.","",""
"","image-keyboard-response","428","362579","0.0-8.0-0.60","FL","dt4f26xnjv","1536","864","en","ER04LF09","null","","","","","","","","learning/Slide141.JPG","null","","","","",""
"","html-keyboard-response","429","363734","0.0-8.0-1.60","FL","dt4f26xnjv","1536","864","en","ER04LF09","null","","","","learningBlock2","","","","That was a tob.","null","","","","",""
"","html-keyboard-response","430","364738","0.0-8.0-2.60","FL","dt4f26xnjv","1536","864","en","ER04LF09","null","","","","learningBlock2","","","","<div style=""font-size:60px;""> </div>","null","FL","learning/Slide141.JPG","That was a tob.","",""
"","image-keyboard-response","431","364918","0.0-8.0-0.61","FL","dt4f26xnjv","1536","864","en","ER04LF09","null","","","","","","","","learning/Slide142.JPG","null","","","","",""
"","html-keyboard-response","432","366078","0.0-8.0-1.61","FL","dt4f26xnjv","1536","864","en","ER04LF09","null","","","","learningBlock2","","","","That was a wug.","null","","","","",""
"","html-keyboard-response","433","367081","0.0-8.0-2.61","FL","dt4f26xnjv","1536","864","en","ER04LF09","null","","","","learningBlock2","","","","<div style=""font-size:60px;""> </div>","null","FL","learning/Slide142.JPG","That was a wug.","",""
"","image-keyboard-response","434","367261","0.0-8.0-0.62","FL","dt4f26xnjv","1536","864","en","ER04LF09","null","","","","","","","","learning/Slide143.JPG","null","","","","",""
"","html-keyboard-response","435","368417","0.0-8.0-1.62","FL","dt4f26xnjv","1536","864","en","ER04LF09","null","","","","learningBlock2","","","","That was a bim.","null","","","","",""
"","html-keyboard-response","436","369423","0.0-8.0-2.62","FL","dt4f26xnjv","1536","864","en","ER04LF09","null","","","","learningBlock2","","","","<div style=""font-size:60px;""> </div>","null","FL","learning/Slide143.JPG","That was a bim.","",""
"","image-keyboard-response","437","369600","0.0-8.0-0.63","FL","dt4f26xnjv","1536","864","en","ER04LF09","null","","","","","","","","learning/Slide144.JPG","null","","","","",""
"","html-keyboard-response","438","370757","0.0-8.0-1.63","FL","dt4f26xnjv","1536","864","en","ER04LF09","null","","","","learningBlock2","","","","That was a dep.","null","","","","",""
"","html-keyboard-response","439","371761","0.0-8.0-2.63","FL","dt4f26xnjv","1536","864","en","ER04LF09","null","","","","learningBlock2","","","","<div style=""font-size:60px;""> </div>","null","FL","learning/Slide144.JPG","That was a dep.","",""
"","image-keyboard-response","440","371941","0.0-8.0-0.64","FL","dt4f26xnjv","1536","864","en","ER04LF09","null","","","","","","","","learning/Slide145.JPG","null","","","","",""
"","html-keyboard-response","441","373100","0.0-8.0-1.64","FL","dt4f26xnjv","1536","864","en","ER04LF09","null","","","","learningBlock2","","","","That was a bim.","null","","","","",""
"","html-keyboard-response","442","374102","0.0-8.0-2.64","FL","dt4f26xnjv","1536","864","en","ER04LF09","null","","","","learningBlock2","","","","<div style=""font-size:60px;""> </div>","null","FL","learning/Slide145.JPG","That was a bim.","",""
"","image-keyboard-response","443","374281","0.0-8.0-0.65","FL","dt4f26xnjv","1536","864","en","ER04LF09","null","","","","","","","","learning/Slide146.JPG","null","","","","",""
"","html-keyboard-response","444","375437","0.0-8.0-1.65","FL","dt4f26xnjv","1536","864","en","ER04LF09","null","","","","learningBlock2","","","","That was a tob.","null","","","","",""
"","html-keyboard-response","445","376441","0.0-8.0-2.65","FL","dt4f26xnjv","1536","864","en","ER04LF09","null","","","","learningBlock2","","","","<div style=""font-size:60px;""> </div>","null","FL","learning/Slide146.JPG","That was a tob.","",""
"","image-keyboard-response","446","376621","0.0-8.0-0.66","FL","dt4f26xnjv","1536","864","en","ER04LF09","null","","","","","","","","learning/Slide147.JPG","null","","","","",""
"","html-keyboard-response","447","377779","0.0-8.0-1.66","FL","dt4f26xnjv","1536","864","en","ER04LF09","null","","","","learningBlock2","","","","That was a wug.","null","","","","",""
"","html-keyboard-response","448","378782","0.0-8.0-2.66","FL","dt4f26xnjv","1536","864","en","ER04LF09","null","","","","learningBlock2","","","","<div style=""font-size:60px;""> </div>","null","FL","learning/Slide147.JPG","That was a wug.","",""
"","image-keyboard-response","449","378960","0.0-8.0-0.67","FL","dt4f26xnjv","1536","864","en","ER04LF09","null","","","","","","","","learning/Slide148.JPG","null","","","","",""
"","html-keyboard-response","450","380114","0.0-8.0-1.67","FL","dt4f26xnjv","1536","864","en","ER04LF09","null","","","","learningBlock2","","","","That was a bim.","null","","","","",""
"","html-keyboard-response","451","381118","0.0-8.0-2.67","FL","dt4f26xnjv","1536","864","en","ER04LF09","null","","","","learningBlock2","","","","<div style=""font-size:60px;""> </div>","null","FL","learning/Slide148.JPG","That was a bim.","",""
"","image-keyboard-response","452","381299","0.0-8.0-0.68","FL","dt4f26xnjv","1536","864","en","ER04LF09","null","","","","","","","","learning/Slide149.JPG","null","","","","",""
"","html-keyboard-response","453","382455","0.0-8.0-1.68","FL","dt4f26xnjv","1536","864","en","ER04LF09","null","","","","learningBlock2","","","","That was a dep.","null","","","","",""
"","html-keyboard-response","454","383459","0.0-8.0-2.68","FL","dt4f26xnjv","1536","864","en","ER04LF09","null","","","","learningBlock2","","","","<div style=""font-size:60px;""> </div>","null","FL","learning/Slide149.JPG","That was a dep.","",""
"","image-keyboard-response","455","383639","0.0-8.0-0.69","FL","dt4f26xnjv","1536","864","en","ER04LF09","null","","","","","","","","learning/Slide150.JPG","null","","","","",""
"","html-keyboard-response","456","384799","0.0-8.0-1.69","FL","dt4f26xnjv","1536","864","en","ER04LF09","null","","","","learningBlock2","","","","That was a wug.","null","","","","",""
"","html-keyboard-response","457","385801","0.0-8.0-2.69","FL","dt4f26xnjv","1536","864","en","ER04LF09","null","","","","learningBlock2","","","","<div style=""font-size:60px;""> </div>","null","FL","learning/Slide150.JPG","That was a wug.","",""
"","image-keyboard-response","458","385980","0.0-8.0-0.70","FL","dt4f26xnjv","1536","864","en","ER04LF09","null","","","","","","","","learning/Slide151.JPG","null","","","","",""
"","html-keyboard-response","459","387134","0.0-8.0-1.70","FL","dt4f26xnjv","1536","864","en","ER04LF09","null","","","","learningBlock2","","","","That was a dep.","null","","","","",""
"","html-keyboard-response","460","388137","0.0-8.0-2.70","FL","dt4f26xnjv","1536","864","en","ER04LF09","null","","","","learningBlock2","","","","<div style=""font-size:60px;""> </div>","null","FL","learning/Slide151.JPG","That was a dep.","",""
"","image-keyboard-response","461","388318","0.0-8.0-0.71","FL","dt4f26xnjv","1536","864","en","ER04LF09","null","","","","","","","","learning/Slide152.JPG","null","","","","",""
"","html-keyboard-response","462","389478","0.0-8.0-1.71","FL","dt4f26xnjv","1536","864","en","ER04LF09","null","","","","learningBlock2","","","","That was a wug.","null","","","","",""
"","html-keyboard-response","463","390480","0.0-8.0-2.71","FL","dt4f26xnjv","1536","864","en","ER04LF09","null","","","","learningBlock2","","","","<div style=""font-size:60px;""> </div>","null","FL","learning/Slide152.JPG","That was a wug.","",""
"","image-keyboard-response","464","390659","0.0-8.0-0.72","FL","dt4f26xnjv","1536","864","en","ER04LF09","null","","","","","","","","learning/Slide153.JPG","null","","","","",""
"","html-keyboard-response","465","391816","0.0-8.0-1.72","FL","dt4f26xnjv","1536","864","en","ER04LF09","null","","","","learningBlock2","","","","That was a bim.","null","","","","",""
"","html-keyboard-response","466","392819","0.0-8.0-2.72","FL","dt4f26xnjv","1536","864","en","ER04LF09","null","","","","learningBlock2","","","","<div style=""font-size:60px;""> </div>","null","FL","learning/Slide153.JPG","That was a bim.","",""
"","image-keyboard-response","467","392998","0.0-8.0-0.73","FL","dt4f26xnjv","1536","864","en","ER04LF09","null","","","","","","","","learning/Slide154.JPG","null","","","","",""
"","html-keyboard-response","468","394154","0.0-8.0-1.73","FL","dt4f26xnjv","1536","864","en","ER04LF09","null","","","","learningBlock2","","","","That was a tob.","null","","","","",""
"","html-keyboard-response","469","395158","0.0-8.0-2.73","FL","dt4f26xnjv","1536","864","en","ER04LF09","null","","","","learningBlock2","","","","<div style=""font-size:60px;""> </div>","null","FL","learning/Slide154.JPG","That was a tob.","",""
"","image-keyboard-response","470","395338","0.0-8.0-0.74","FL","dt4f26xnjv","1536","864","en","ER04LF09","null","","","","","","","","learning/Slide155.JPG","null","","","","",""
"","html-keyboard-response","471","396493","0.0-8.0-1.74","FL","dt4f26xnjv","1536","864","en","ER04LF09","null","","","","learningBlock2","","","","That was a dep.","null","","","","",""
"","html-keyboard-response","472","397496","0.0-8.0-2.74","FL","dt4f26xnjv","1536","864","en","ER04LF09","null","","","","learningBlock2","","","","<div style=""font-size:60px;""> </div>","null","FL","learning/Slide155.JPG","That was a dep.","",""
"","image-keyboard-response","473","397677","0.0-8.0-0.75","FL","dt4f26xnjv","1536","864","en","ER04LF09","null","","","","","","","","learning/Slide156.JPG","null","","","","",""
"","html-keyboard-response","474","398831","0.0-8.0-1.75","FL","dt4f26xnjv","1536","864","en","ER04LF09","null","","","","learningBlock2","","","","That was a bim.","null","","","","",""
"","html-keyboard-response","475","399838","0.0-8.0-2.75","FL","dt4f26xnjv","1536","864","en","ER04LF09","null","","","","learningBlock2","","","","<div style=""font-size:60px;""> </div>","null","FL","learning/Slide156.JPG","That was a bim.","",""
"","image-keyboard-response","476","400018","0.0-8.0-0.76","FL","dt4f26xnjv","1536","864","en","ER04LF09","null","","","","","","","","learning/Slide157.JPG","null","","","","",""
"","html-keyboard-response","477","401177","0.0-8.0-1.76","FL","dt4f26xnjv","1536","864","en","ER04LF09","null","","","","learningBlock2","","","","That was a dep.","null","","","","",""
"","html-keyboard-response","478","402182","0.0-8.0-2.76","FL","dt4f26xnjv","1536","864","en","ER04LF09","null","","","","learningBlock2","","","","<div style=""font-size:60px;""> </div>","null","FL","learning/Slide157.JPG","That was a dep.","",""
"","image-keyboard-response","479","402360","0.0-8.0-0.77","FL","dt4f26xnjv","1536","864","en","ER04LF09","null","","","","","","","","learning/Slide158.JPG","null","","","","",""
"","html-keyboard-response","480","403516","0.0-8.0-1.77","FL","dt4f26xnjv","1536","864","en","ER04LF09","null","","","","learningBlock2","","","","That was a tob.","null","","","","",""
"","html-keyboard-response","481","404518","0.0-8.0-2.77","FL","dt4f26xnjv","1536","864","en","ER04LF09","null","","","","learningBlock2","","","","<div style=""font-size:60px;""> </div>","null","FL","learning/Slide158.JPG","That was a tob.","",""
"","image-keyboard-response","482","404698","0.0-8.0-0.78","FL","dt4f26xnjv","1536","864","en","ER04LF09","null","","","","","","","","learning/Slide159.JPG","null","","","","",""
"","html-keyboard-response","483","405853","0.0-8.0-1.78","FL","dt4f26xnjv","1536","864","en","ER04LF09","null","","","","learningBlock2","","","","That was a dep.","null","","","","",""
"","html-keyboard-response","484","406856","0.0-8.0-2.78","FL","dt4f26xnjv","1536","864","en","ER04LF09","null","","","","learningBlock2","","","","<div style=""font-size:60px;""> </div>","null","FL","learning/Slide159.JPG","That was a dep.","",""
"","image-keyboard-response","485","407034","0.0-8.0-0.79","FL","dt4f26xnjv","1536","864","en","ER04LF09","null","","","","","","","","learning/Slide160.JPG","null","","","","",""
"","html-keyboard-response","486","408193","0.0-8.0-1.79","FL","dt4f26xnjv","1536","864","en","ER04LF09","null","","","","learningBlock2","","","","That was a wug.","null","","","","",""
"","html-keyboard-response","487","409199","0.0-8.0-2.79","FL","dt4f26xnjv","1536","864","en","ER04LF09","null","","","","learningBlock2","","","","<div style=""font-size:60px;""> </div>","null","FL","learning/Slide160.JPG","That was a wug.","",""
"","resize2","488","1404261","0.0-9.0","FL","dt4f26xnjv","1536","864","en","ER04LF09","","","","","","","104","1.04","","","","","","",""
