"success","trial_type","trial_index","time_elapsed","internal_node_id","condition","subject","screen_width","screen_height","language","codeword","rt","responses","url","view_history","test_part","final_height_px","final_width_px","scale_factor","stimulus","key_press","learningType","presentedImage","presentedLabel","button_pressed","response"
"true","fullscreen","0","83732","0.0-0.0","LF","f0xfptzqrg","1366","768","de","ay05em02","","","","","","","","","","","","","","",""
"","survey-html-form","1","95872","0.0-1.0","LF","f0xfptzqrg","1366","768","de","ay05em02","12136.079999967478","{""language"":""de""}","","","","","","","","","","","","",""
"","external-html","2","241905","0.0-2.0-0.0","LF","f0xfptzqrg","1366","768","de","ay05em02","145961.959999986","","text/information.html","","","","","","","","","","","",""
"","external-html","3","309705","0.0-2.0-1.0","LF","f0xfptzqrg","1366","768","de","ay05em02","67719.37499998603","","text/consent.html","","","","","","","","","","","",""
"","survey-html-form","4","400604","0.0-2.0-2.0","LF","f0xfptzqrg","1366","768","de","ay05em02","90895.03999997396","{""codeword_enter"":""ay05em02""}","","","","","","","","","","","","",""
"","instructions","5","420887","0.0-4.0","LF","f0xfptzqrg","1366","768","de","ay05em02","NA","","","[{""page_index"":0,""viewing_time"":5463.019999908283},{""page_index"":1,""viewing_time"":13316.995000001043}]","instructions","","","","","","","","","",""
"","resize","6","480756","0.0-5.0","LF","f0xfptzqrg","1366","768","de","ay05em02","","","","","","","128","0.8126984126984127","","","","","","",""
"","html-keyboard-response","7","481762","0.0-6.0-0.0","LF","f0xfptzqrg","1366","768","de","ay05em02","null","","","","learningBlock1","","","","This is a tob:","null","","","","",""
"","image-keyboard-response","8","482089","0.0-6.0-1.0","LF","f0xfptzqrg","1366","768","de","ay05em02","null","","","","","","","","learning/Slide1.JPG","null","","","","",""
"","html-keyboard-response","9","483090","0.0-6.0-2.0","LF","f0xfptzqrg","1366","768","de","ay05em02","null","","","","learningBlock1","","","","<div style=""font-size:60px;""> </div>","null","LF","learning/Slide1.JPG","This is a tob:","",""
"","html-keyboard-response","10","484092","0.0-6.0-0.1","LF","f0xfptzqrg","1366","768","de","ay05em02","null","","","","learningBlock1","","","","This is a wug:","null","","","","",""
"","image-keyboard-response","11","484421","0.0-6.0-1.1","LF","f0xfptzqrg","1366","768","de","ay05em02","null","","","","","","","","learning/Slide2.JPG","null","","","","",""
"","html-keyboard-response","12","485422","0.0-6.0-2.1","LF","f0xfptzqrg","1366","768","de","ay05em02","null","","","","learningBlock1","","","","<div style=""font-size:60px;""> </div>","null","LF","learning/Slide2.JPG","This is a wug:","",""
"","html-keyboard-response","13","486423","0.0-6.0-0.2","LF","f0xfptzqrg","1366","768","de","ay05em02","null","","","","learningBlock1","","","","This is a bim:","null","","","","",""
"","image-keyboard-response","14","486751","0.0-6.0-1.2","LF","f0xfptzqrg","1366","768","de","ay05em02","null","","","","","","","","learning/Slide3.JPG","null","","","","",""
"","html-keyboard-response","15","487754","0.0-6.0-2.2","LF","f0xfptzqrg","1366","768","de","ay05em02","null","","","","learningBlock1","","","","<div style=""font-size:60px;""> </div>","null","LF","learning/Slide3.JPG","This is a bim:","",""
"","html-keyboard-response","16","488756","0.0-6.0-0.3","LF","f0xfptzqrg","1366","768","de","ay05em02","null","","","","learningBlock1","","","","This is a dep:","null","","","","",""
"","image-keyboard-response","17","489083","0.0-6.0-1.3","LF","f0xfptzqrg","1366","768","de","ay05em02","null","","","","","","","","learning/Slide4.JPG","null","","","","",""
"","html-keyboard-response","18","490085","0.0-6.0-2.3","LF","f0xfptzqrg","1366","768","de","ay05em02","null","","","","learningBlock1","","","","<div style=""font-size:60px;""> </div>","null","LF","learning/Slide4.JPG","This is a dep:","",""
"","html-keyboard-response","19","491087","0.0-6.0-0.4","LF","f0xfptzqrg","1366","768","de","ay05em02","null","","","","learningBlock1","","","","This is a wug:","null","","","","",""
"","image-keyboard-response","20","491415","0.0-6.0-1.4","LF","f0xfptzqrg","1366","768","de","ay05em02","null","","","","","","","","learning/Slide5.JPG","null","","","","",""
"","html-keyboard-response","21","492418","0.0-6.0-2.4","LF","f0xfptzqrg","1366","768","de","ay05em02","null","","","","learningBlock1","","","","<div style=""font-size:60px;""> </div>","null","LF","learning/Slide5.JPG","This is a wug:","",""
"","html-keyboard-response","22","493420","0.0-6.0-0.5","LF","f0xfptzqrg","1366","768","de","ay05em02","null","","","","learningBlock1","","","","This is a dep:","null","","","","",""
"","image-keyboard-response","23","493748","0.0-6.0-1.5","LF","f0xfptzqrg","1366","768","de","ay05em02","null","","","","","","","","learning/Slide6.JPG","null","","","","",""
"","html-keyboard-response","24","494750","0.0-6.0-2.5","LF","f0xfptzqrg","1366","768","de","ay05em02","null","","","","learningBlock1","","","","<div style=""font-size:60px;""> </div>","null","LF","learning/Slide6.JPG","This is a dep:","",""
"","html-keyboard-response","25","495751","0.0-6.0-0.6","LF","f0xfptzqrg","1366","768","de","ay05em02","null","","","","learningBlock1","","","","This is a wug:","null","","","","",""
"","image-keyboard-response","26","496080","0.0-6.0-1.6","LF","f0xfptzqrg","1366","768","de","ay05em02","null","","","","","","","","learning/Slide7.JPG","null","","","","",""
"","html-keyboard-response","27","497082","0.0-6.0-2.6","LF","f0xfptzqrg","1366","768","de","ay05em02","null","","","","learningBlock1","","","","<div style=""font-size:60px;""> </div>","null","LF","learning/Slide7.JPG","This is a wug:","",""
"","html-keyboard-response","28","498084","0.0-6.0-0.7","LF","f0xfptzqrg","1366","768","de","ay05em02","null","","","","learningBlock1","","","","This is a bim:","null","","","","",""
"","image-keyboard-response","29","498413","0.0-6.0-1.7","LF","f0xfptzqrg","1366","768","de","ay05em02","null","","","","","","","","learning/Slide8.JPG","null","","","","",""
"","html-keyboard-response","30","499414","0.0-6.0-2.7","LF","f0xfptzqrg","1366","768","de","ay05em02","null","","","","learningBlock1","","","","<div style=""font-size:60px;""> </div>","null","LF","learning/Slide8.JPG","This is a bim:","",""
"","html-keyboard-response","31","500416","0.0-6.0-0.8","LF","f0xfptzqrg","1366","768","de","ay05em02","null","","","","learningBlock1","","","","This is a wug:","null","","","","",""
"","image-keyboard-response","32","500744","0.0-6.0-1.8","LF","f0xfptzqrg","1366","768","de","ay05em02","null","","","","","","","","learning/Slide9.JPG","null","","","","",""
"","html-keyboard-response","33","501749","0.0-6.0-2.8","LF","f0xfptzqrg","1366","768","de","ay05em02","null","","","","learningBlock1","","","","<div style=""font-size:60px;""> </div>","null","LF","learning/Slide9.JPG","This is a wug:","",""
"","html-keyboard-response","34","502750","0.0-6.0-0.9","LF","f0xfptzqrg","1366","768","de","ay05em02","null","","","","learningBlock1","","","","This is a dep:","null","","","","",""
"","image-keyboard-response","35","503079","0.0-6.0-1.9","LF","f0xfptzqrg","1366","768","de","ay05em02","null","","","","","","","","learning/Slide10.JPG","null","","","","",""
"","html-keyboard-response","36","504082","0.0-6.0-2.9","LF","f0xfptzqrg","1366","768","de","ay05em02","null","","","","learningBlock1","","","","<div style=""font-size:60px;""> </div>","null","LF","learning/Slide10.JPG","This is a dep:","",""
"","html-keyboard-response","37","505084","0.0-6.0-0.10","LF","f0xfptzqrg","1366","768","de","ay05em02","null","","","","learningBlock1","","","","This is a tob:","null","","","","",""
"","image-keyboard-response","38","505412","0.0-6.0-1.10","LF","f0xfptzqrg","1366","768","de","ay05em02","null","","","","","","","","learning/Slide11.JPG","null","","","","",""
"","html-keyboard-response","39","506413","0.0-6.0-2.10","LF","f0xfptzqrg","1366","768","de","ay05em02","null","","","","learningBlock1","","","","<div style=""font-size:60px;""> </div>","null","LF","learning/Slide11.JPG","This is a tob:","",""
"","html-keyboard-response","40","507414","0.0-6.0-0.11","LF","f0xfptzqrg","1366","768","de","ay05em02","null","","","","learningBlock1","","","","This is a dep:","null","","","","",""
"","image-keyboard-response","41","507742","0.0-6.0-1.11","LF","f0xfptzqrg","1366","768","de","ay05em02","null","","","","","","","","learning/Slide12.JPG","null","","","","",""
"","html-keyboard-response","42","508743","0.0-6.0-2.11","LF","f0xfptzqrg","1366","768","de","ay05em02","null","","","","learningBlock1","","","","<div style=""font-size:60px;""> </div>","null","LF","learning/Slide12.JPG","This is a dep:","",""
"","html-keyboard-response","43","509744","0.0-6.0-0.12","LF","f0xfptzqrg","1366","768","de","ay05em02","null","","","","learningBlock1","","","","This is a bim:","null","","","","",""
"","image-keyboard-response","44","510072","0.0-6.0-1.12","LF","f0xfptzqrg","1366","768","de","ay05em02","null","","","","","","","","learning/Slide13.JPG","null","","","","",""
"","html-keyboard-response","45","511074","0.0-6.0-2.12","LF","f0xfptzqrg","1366","768","de","ay05em02","null","","","","learningBlock1","","","","<div style=""font-size:60px;""> </div>","null","LF","learning/Slide13.JPG","This is a bim:","",""
"","html-keyboard-response","46","512076","0.0-6.0-0.13","LF","f0xfptzqrg","1366","768","de","ay05em02","null","","","","learningBlock1","","","","This is a wug:","null","","","","",""
"","image-keyboard-response","47","512404","0.0-6.0-1.13","LF","f0xfptzqrg","1366","768","de","ay05em02","null","","","","","","","","learning/Slide14.JPG","null","","","","",""
"","html-keyboard-response","48","513409","0.0-6.0-2.13","LF","f0xfptzqrg","1366","768","de","ay05em02","null","","","","learningBlock1","","","","<div style=""font-size:60px;""> </div>","null","LF","learning/Slide14.JPG","This is a wug:","",""
"","html-keyboard-response","49","514412","0.0-6.0-0.14","LF","f0xfptzqrg","1366","768","de","ay05em02","null","","","","learningBlock1","","","","This is a tob:","null","","","","",""
"","image-keyboard-response","50","514740","0.0-6.0-1.14","LF","f0xfptzqrg","1366","768","de","ay05em02","null","","","","","","","","learning/Slide15.JPG","null","","","","",""
"","html-keyboard-response","51","515742","0.0-6.0-2.14","LF","f0xfptzqrg","1366","768","de","ay05em02","null","","","","learningBlock1","","","","<div style=""font-size:60px;""> </div>","null","LF","learning/Slide15.JPG","This is a tob:","",""
"","html-keyboard-response","52","516744","0.0-6.0-0.15","LF","f0xfptzqrg","1366","768","de","ay05em02","null","","","","learningBlock1","","","","This is a dep:","null","","","","",""
"","image-keyboard-response","53","517072","0.0-6.0-1.15","LF","f0xfptzqrg","1366","768","de","ay05em02","null","","","","","","","","learning/Slide16.JPG","null","","","","",""
"","html-keyboard-response","54","518074","0.0-6.0-2.15","LF","f0xfptzqrg","1366","768","de","ay05em02","null","","","","learningBlock1","","","","<div style=""font-size:60px;""> </div>","null","LF","learning/Slide16.JPG","This is a dep:","",""
"","html-keyboard-response","55","519076","0.0-6.0-0.16","LF","f0xfptzqrg","1366","768","de","ay05em02","null","","","","learningBlock1","","","","This is a bim:","null","","","","",""
"","image-keyboard-response","56","519404","0.0-6.0-1.16","LF","f0xfptzqrg","1366","768","de","ay05em02","null","","","","","","","","learning/Slide17.JPG","null","","","","",""
"","html-keyboard-response","57","520406","0.0-6.0-2.16","LF","f0xfptzqrg","1366","768","de","ay05em02","null","","","","learningBlock1","","","","<div style=""font-size:60px;""> </div>","null","LF","learning/Slide17.JPG","This is a bim:","",""
"","html-keyboard-response","58","521408","0.0-6.0-0.17","LF","f0xfptzqrg","1366","768","de","ay05em02","null","","","","learningBlock1","","","","This is a tob:","null","","","","",""
"","image-keyboard-response","59","521735","0.0-6.0-1.17","LF","f0xfptzqrg","1366","768","de","ay05em02","null","","","","","","","","learning/Slide18.JPG","null","","","","",""
"","html-keyboard-response","60","522737","0.0-6.0-2.17","LF","f0xfptzqrg","1366","768","de","ay05em02","null","","","","learningBlock1","","","","<div style=""font-size:60px;""> </div>","null","LF","learning/Slide18.JPG","This is a tob:","",""
"","html-keyboard-response","61","523739","0.0-6.0-0.18","LF","f0xfptzqrg","1366","768","de","ay05em02","null","","","","learningBlock1","","","","This is a wug:","null","","","","",""
"","image-keyboard-response","62","524067","0.0-6.0-1.18","LF","f0xfptzqrg","1366","768","de","ay05em02","null","","","","","","","","learning/Slide19.JPG","null","","","","",""
"","html-keyboard-response","63","525070","0.0-6.0-2.18","LF","f0xfptzqrg","1366","768","de","ay05em02","null","","","","learningBlock1","","","","<div style=""font-size:60px;""> </div>","null","LF","learning/Slide19.JPG","This is a wug:","",""
"","html-keyboard-response","64","526072","0.0-6.0-0.19","LF","f0xfptzqrg","1366","768","de","ay05em02","null","","","","learningBlock1","","","","This is a bim:","null","","","","",""
"","image-keyboard-response","65","526404","0.0-6.0-1.19","LF","f0xfptzqrg","1366","768","de","ay05em02","null","","","","","","","","learning/Slide20.JPG","null","","","","",""
"","html-keyboard-response","66","527406","0.0-6.0-2.19","LF","f0xfptzqrg","1366","768","de","ay05em02","null","","","","learningBlock1","","","","<div style=""font-size:60px;""> </div>","null","LF","learning/Slide20.JPG","This is a bim:","",""
"","html-keyboard-response","67","528408","0.0-6.0-0.20","LF","f0xfptzqrg","1366","768","de","ay05em02","null","","","","learningBlock1","","","","This is a dep:","null","","","","",""
"","image-keyboard-response","68","528736","0.0-6.0-1.20","LF","f0xfptzqrg","1366","768","de","ay05em02","null","","","","","","","","learning/Slide21.JPG","null","","","","",""
"","html-keyboard-response","69","529738","0.0-6.0-2.20","LF","f0xfptzqrg","1366","768","de","ay05em02","null","","","","learningBlock1","","","","<div style=""font-size:60px;""> </div>","null","LF","learning/Slide21.JPG","This is a dep:","",""
"","html-keyboard-response","70","530740","0.0-6.0-0.21","LF","f0xfptzqrg","1366","768","de","ay05em02","null","","","","learningBlock1","","","","This is a bim:","null","","","","",""
"","image-keyboard-response","71","531067","0.0-6.0-1.21","LF","f0xfptzqrg","1366","768","de","ay05em02","null","","","","","","","","learning/Slide22.JPG","null","","","","",""
"","html-keyboard-response","72","532069","0.0-6.0-2.21","LF","f0xfptzqrg","1366","768","de","ay05em02","null","","","","learningBlock1","","","","<div style=""font-size:60px;""> </div>","null","LF","learning/Slide22.JPG","This is a bim:","",""
"","html-keyboard-response","73","533072","0.0-6.0-0.22","LF","f0xfptzqrg","1366","768","de","ay05em02","null","","","","learningBlock1","","","","This is a tob:","null","","","","",""
"","image-keyboard-response","74","533400","0.0-6.0-1.22","LF","f0xfptzqrg","1366","768","de","ay05em02","null","","","","","","","","learning/Slide23.JPG","null","","","","",""
"","html-keyboard-response","75","534402","0.0-6.0-2.22","LF","f0xfptzqrg","1366","768","de","ay05em02","null","","","","learningBlock1","","","","<div style=""font-size:60px;""> </div>","null","LF","learning/Slide23.JPG","This is a tob:","",""
"","html-keyboard-response","76","535404","0.0-6.0-0.23","LF","f0xfptzqrg","1366","768","de","ay05em02","null","","","","learningBlock1","","","","This is a wug:","null","","","","",""
"","image-keyboard-response","77","535733","0.0-6.0-1.23","LF","f0xfptzqrg","1366","768","de","ay05em02","null","","","","","","","","learning/Slide24.JPG","null","","","","",""
"","html-keyboard-response","78","536734","0.0-6.0-2.23","LF","f0xfptzqrg","1366","768","de","ay05em02","null","","","","learningBlock1","","","","<div style=""font-size:60px;""> </div>","null","LF","learning/Slide24.JPG","This is a wug:","",""
"","html-keyboard-response","79","537737","0.0-6.0-0.24","LF","f0xfptzqrg","1366","768","de","ay05em02","null","","","","learningBlock1","","","","This is a dep:","null","","","","",""
"","image-keyboard-response","80","538065","0.0-6.0-1.24","LF","f0xfptzqrg","1366","768","de","ay05em02","null","","","","","","","","learning/Slide25.JPG","null","","","","",""
"","html-keyboard-response","81","539067","0.0-6.0-2.24","LF","f0xfptzqrg","1366","768","de","ay05em02","null","","","","learningBlock1","","","","<div style=""font-size:60px;""> </div>","null","LF","learning/Slide25.JPG","This is a dep:","",""
"","html-keyboard-response","82","540069","0.0-6.0-0.25","LF","f0xfptzqrg","1366","768","de","ay05em02","null","","","","learningBlock1","","","","This is a wug:","null","","","","",""
"","image-keyboard-response","83","540396","0.0-6.0-1.25","LF","f0xfptzqrg","1366","768","de","ay05em02","null","","","","","","","","learning/Slide26.JPG","null","","","","",""
"","html-keyboard-response","84","541398","0.0-6.0-2.25","LF","f0xfptzqrg","1366","768","de","ay05em02","null","","","","learningBlock1","","","","<div style=""font-size:60px;""> </div>","null","LF","learning/Slide26.JPG","This is a wug:","",""
"","html-keyboard-response","85","542399","0.0-6.0-0.26","LF","f0xfptzqrg","1366","768","de","ay05em02","null","","","","learningBlock1","","","","This is a bim:","null","","","","",""
"","image-keyboard-response","86","542727","0.0-6.0-1.26","LF","f0xfptzqrg","1366","768","de","ay05em02","null","","","","","","","","learning/Slide27.JPG","null","","","","",""
"","html-keyboard-response","87","543728","0.0-6.0-2.26","LF","f0xfptzqrg","1366","768","de","ay05em02","null","","","","learningBlock1","","","","<div style=""font-size:60px;""> </div>","null","LF","learning/Slide27.JPG","This is a bim:","",""
"","html-keyboard-response","88","544730","0.0-6.0-0.27","LF","f0xfptzqrg","1366","768","de","ay05em02","null","","","","learningBlock1","","","","This is a dep:","null","","","","",""
"","image-keyboard-response","89","545058","0.0-6.0-1.27","LF","f0xfptzqrg","1366","768","de","ay05em02","null","","","","","","","","learning/Slide28.JPG","null","","","","",""
"","html-keyboard-response","90","546060","0.0-6.0-2.27","LF","f0xfptzqrg","1366","768","de","ay05em02","null","","","","learningBlock1","","","","<div style=""font-size:60px;""> </div>","null","LF","learning/Slide28.JPG","This is a dep:","",""
"","html-keyboard-response","91","547061","0.0-6.0-0.28","LF","f0xfptzqrg","1366","768","de","ay05em02","null","","","","learningBlock1","","","","This is a tob:","null","","","","",""
"","image-keyboard-response","92","547389","0.0-6.0-1.28","LF","f0xfptzqrg","1366","768","de","ay05em02","null","","","","","","","","learning/Slide29.JPG","null","","","","",""
"","html-keyboard-response","93","548393","0.0-6.0-2.28","LF","f0xfptzqrg","1366","768","de","ay05em02","null","","","","learningBlock1","","","","<div style=""font-size:60px;""> </div>","null","LF","learning/Slide29.JPG","This is a tob:","",""
"","html-keyboard-response","94","549396","0.0-6.0-0.29","LF","f0xfptzqrg","1366","768","de","ay05em02","null","","","","learningBlock1","","","","This is a dep:","null","","","","",""
"","image-keyboard-response","95","549724","0.0-6.0-1.29","LF","f0xfptzqrg","1366","768","de","ay05em02","null","","","","","","","","learning/Slide30.JPG","null","","","","",""
"","html-keyboard-response","96","550725","0.0-6.0-2.29","LF","f0xfptzqrg","1366","768","de","ay05em02","null","","","","learningBlock1","","","","<div style=""font-size:60px;""> </div>","null","LF","learning/Slide30.JPG","This is a dep:","",""
"","html-keyboard-response","97","551728","0.0-6.0-0.30","LF","f0xfptzqrg","1366","768","de","ay05em02","null","","","","learningBlock1","","","","This is a wug:","null","","","","",""
"","image-keyboard-response","98","552058","0.0-6.0-1.30","LF","f0xfptzqrg","1366","768","de","ay05em02","null","","","","","","","","learning/Slide31.JPG","null","","","","",""
"","html-keyboard-response","99","553063","0.0-6.0-2.30","LF","f0xfptzqrg","1366","768","de","ay05em02","null","","","","learningBlock1","","","","<div style=""font-size:60px;""> </div>","null","LF","learning/Slide31.JPG","This is a wug:","",""
"","html-keyboard-response","100","554064","0.0-6.0-0.31","LF","f0xfptzqrg","1366","768","de","ay05em02","null","","","","learningBlock1","","","","This is a tob:","null","","","","",""
"","image-keyboard-response","101","554391","0.0-6.0-1.31","LF","f0xfptzqrg","1366","768","de","ay05em02","null","","","","","","","","learning/Slide32.JPG","null","","","","",""
"","html-keyboard-response","102","555393","0.0-6.0-2.31","LF","f0xfptzqrg","1366","768","de","ay05em02","null","","","","learningBlock1","","","","<div style=""font-size:60px;""> </div>","null","LF","learning/Slide32.JPG","This is a tob:","",""
"","html-keyboard-response","103","556395","0.0-6.0-0.32","LF","f0xfptzqrg","1366","768","de","ay05em02","null","","","","learningBlock1","","","","This is a bim:","null","","","","",""
"","image-keyboard-response","104","556722","0.0-6.0-1.32","LF","f0xfptzqrg","1366","768","de","ay05em02","null","","","","","","","","learning/Slide33.JPG","null","","","","",""
"","html-keyboard-response","105","557725","0.0-6.0-2.32","LF","f0xfptzqrg","1366","768","de","ay05em02","null","","","","learningBlock1","","","","<div style=""font-size:60px;""> </div>","null","LF","learning/Slide33.JPG","This is a bim:","",""
"","html-keyboard-response","106","558726","0.0-6.0-0.33","LF","f0xfptzqrg","1366","768","de","ay05em02","null","","","","learningBlock1","","","","This is a tob:","null","","","","",""
"","image-keyboard-response","107","559054","0.0-6.0-1.33","LF","f0xfptzqrg","1366","768","de","ay05em02","null","","","","","","","","learning/Slide34.JPG","null","","","","",""
"","html-keyboard-response","108","560056","0.0-6.0-2.33","LF","f0xfptzqrg","1366","768","de","ay05em02","null","","","","learningBlock1","","","","<div style=""font-size:60px;""> </div>","null","LF","learning/Slide34.JPG","This is a tob:","",""
"","html-keyboard-response","109","561057","0.0-6.0-0.34","LF","f0xfptzqrg","1366","768","de","ay05em02","null","","","","learningBlock1","","","","This is a bim:","null","","","","",""
"","image-keyboard-response","110","561386","0.0-6.0-1.34","LF","f0xfptzqrg","1366","768","de","ay05em02","null","","","","","","","","learning/Slide35.JPG","null","","","","",""
"","html-keyboard-response","111","562388","0.0-6.0-2.34","LF","f0xfptzqrg","1366","768","de","ay05em02","null","","","","learningBlock1","","","","<div style=""font-size:60px;""> </div>","null","LF","learning/Slide35.JPG","This is a bim:","",""
"","html-keyboard-response","112","563389","0.0-6.0-0.35","LF","f0xfptzqrg","1366","768","de","ay05em02","null","","","","learningBlock1","","","","This is a dep:","null","","","","",""
"","image-keyboard-response","113","563716","0.0-6.0-1.35","LF","f0xfptzqrg","1366","768","de","ay05em02","null","","","","","","","","learning/Slide36.JPG","null","","","","",""
"","html-keyboard-response","114","564719","0.0-6.0-2.35","LF","f0xfptzqrg","1366","768","de","ay05em02","null","","","","learningBlock1","","","","<div style=""font-size:60px;""> </div>","null","LF","learning/Slide36.JPG","This is a dep:","",""
"","html-keyboard-response","115","565726","0.0-6.0-0.36","LF","f0xfptzqrg","1366","768","de","ay05em02","null","","","","learningBlock1","","","","This is a tob:","null","","","","",""
"","image-keyboard-response","116","566054","0.0-6.0-1.36","LF","f0xfptzqrg","1366","768","de","ay05em02","null","","","","","","","","learning/Slide37.JPG","null","","","","",""
"","html-keyboard-response","117","567055","0.0-6.0-2.36","LF","f0xfptzqrg","1366","768","de","ay05em02","null","","","","learningBlock1","","","","<div style=""font-size:60px;""> </div>","null","LF","learning/Slide37.JPG","This is a tob:","",""
"","html-keyboard-response","118","568057","0.0-6.0-0.37","LF","f0xfptzqrg","1366","768","de","ay05em02","null","","","","learningBlock1","","","","This is a wug:","null","","","","",""
"","image-keyboard-response","119","568384","0.0-6.0-1.37","LF","f0xfptzqrg","1366","768","de","ay05em02","null","","","","","","","","learning/Slide38.JPG","null","","","","",""
"","html-keyboard-response","120","569385","0.0-6.0-2.37","LF","f0xfptzqrg","1366","768","de","ay05em02","null","","","","learningBlock1","","","","<div style=""font-size:60px;""> </div>","null","LF","learning/Slide38.JPG","This is a wug:","",""
"","html-keyboard-response","121","570386","0.0-6.0-0.38","LF","f0xfptzqrg","1366","768","de","ay05em02","null","","","","learningBlock1","","","","This is a bim:","null","","","","",""
"","image-keyboard-response","122","570716","0.0-6.0-1.38","LF","f0xfptzqrg","1366","768","de","ay05em02","null","","","","","","","","learning/Slide39.JPG","null","","","","",""
"","html-keyboard-response","123","571717","0.0-6.0-2.38","LF","f0xfptzqrg","1366","768","de","ay05em02","null","","","","learningBlock1","","","","<div style=""font-size:60px;""> </div>","null","LF","learning/Slide39.JPG","This is a bim:","",""
"","html-keyboard-response","124","572719","0.0-6.0-0.39","LF","f0xfptzqrg","1366","768","de","ay05em02","null","","","","learningBlock1","","","","This is a tob:","null","","","","",""
"","image-keyboard-response","125","573050","0.0-6.0-1.39","LF","f0xfptzqrg","1366","768","de","ay05em02","null","","","","","","","","learning/Slide40.JPG","null","","","","",""
"","html-keyboard-response","126","574053","0.0-6.0-2.39","LF","f0xfptzqrg","1366","768","de","ay05em02","null","","","","learningBlock1","","","","<div style=""font-size:60px;""> </div>","null","LF","learning/Slide40.JPG","This is a tob:","",""
"","html-keyboard-response","127","575054","0.0-6.0-0.40","LF","f0xfptzqrg","1366","768","de","ay05em02","null","","","","learningBlock1","","","","This is a bim:","null","","","","",""
"","image-keyboard-response","128","575382","0.0-6.0-1.40","LF","f0xfptzqrg","1366","768","de","ay05em02","null","","","","","","","","learning/Slide41.JPG","null","","","","",""
"","html-keyboard-response","129","576384","0.0-6.0-2.40","LF","f0xfptzqrg","1366","768","de","ay05em02","null","","","","learningBlock1","","","","<div style=""font-size:60px;""> </div>","null","LF","learning/Slide41.JPG","This is a bim:","",""
"","html-keyboard-response","130","577386","0.0-6.0-0.41","LF","f0xfptzqrg","1366","768","de","ay05em02","null","","","","learningBlock1","","","","This is a dep:","null","","","","",""
"","image-keyboard-response","131","577714","0.0-6.0-1.41","LF","f0xfptzqrg","1366","768","de","ay05em02","null","","","","","","","","learning/Slide42.JPG","null","","","","",""
"","html-keyboard-response","132","578716","0.0-6.0-2.41","LF","f0xfptzqrg","1366","768","de","ay05em02","null","","","","learningBlock1","","","","<div style=""font-size:60px;""> </div>","null","LF","learning/Slide42.JPG","This is a dep:","",""
"","html-keyboard-response","133","579717","0.0-6.0-0.42","LF","f0xfptzqrg","1366","768","de","ay05em02","null","","","","learningBlock1","","","","This is a wug:","null","","","","",""
"","image-keyboard-response","134","580044","0.0-6.0-1.42","LF","f0xfptzqrg","1366","768","de","ay05em02","null","","","","","","","","learning/Slide43.JPG","null","","","","",""
"","html-keyboard-response","135","581049","0.0-6.0-2.42","LF","f0xfptzqrg","1366","768","de","ay05em02","null","","","","learningBlock1","","","","<div style=""font-size:60px;""> </div>","null","LF","learning/Slide43.JPG","This is a wug:","",""
"","html-keyboard-response","136","582050","0.0-6.0-0.43","LF","f0xfptzqrg","1366","768","de","ay05em02","null","","","","learningBlock1","","","","This is a bim:","null","","","","",""
"","image-keyboard-response","137","582378","0.0-6.0-1.43","LF","f0xfptzqrg","1366","768","de","ay05em02","null","","","","","","","","learning/Slide44.JPG","null","","","","",""
"","html-keyboard-response","138","583379","0.0-6.0-2.43","LF","f0xfptzqrg","1366","768","de","ay05em02","null","","","","learningBlock1","","","","<div style=""font-size:60px;""> </div>","null","LF","learning/Slide44.JPG","This is a bim:","",""
"","html-keyboard-response","139","584381","0.0-6.0-0.44","LF","f0xfptzqrg","1366","768","de","ay05em02","null","","","","learningBlock1","","","","This is a wug:","null","","","","",""
"","image-keyboard-response","140","584710","0.0-6.0-1.44","LF","f0xfptzqrg","1366","768","de","ay05em02","null","","","","","","","","learning/Slide45.JPG","null","","","","",""
"","html-keyboard-response","141","585711","0.0-6.0-2.44","LF","f0xfptzqrg","1366","768","de","ay05em02","null","","","","learningBlock1","","","","<div style=""font-size:60px;""> </div>","null","LF","learning/Slide45.JPG","This is a wug:","",""
"","html-keyboard-response","142","586713","0.0-6.0-0.45","LF","f0xfptzqrg","1366","768","de","ay05em02","null","","","","learningBlock1","","","","This is a dep:","null","","","","",""
"","image-keyboard-response","143","587045","0.0-6.0-1.45","LF","f0xfptzqrg","1366","768","de","ay05em02","null","","","","","","","","learning/Slide46.JPG","null","","","","",""
"","html-keyboard-response","144","588048","0.0-6.0-2.45","LF","f0xfptzqrg","1366","768","de","ay05em02","null","","","","learningBlock1","","","","<div style=""font-size:60px;""> </div>","null","LF","learning/Slide46.JPG","This is a dep:","",""
"","html-keyboard-response","145","589050","0.0-6.0-0.46","LF","f0xfptzqrg","1366","768","de","ay05em02","null","","","","learningBlock1","","","","This is a tob:","null","","","","",""
"","image-keyboard-response","146","589379","0.0-6.0-1.46","LF","f0xfptzqrg","1366","768","de","ay05em02","null","","","","","","","","learning/Slide47.JPG","null","","","","",""
"","html-keyboard-response","147","590381","0.0-6.0-2.46","LF","f0xfptzqrg","1366","768","de","ay05em02","null","","","","learningBlock1","","","","<div style=""font-size:60px;""> </div>","null","LF","learning/Slide47.JPG","This is a tob:","",""
"","html-keyboard-response","148","591383","0.0-6.0-0.47","LF","f0xfptzqrg","1366","768","de","ay05em02","null","","","","learningBlock1","","","","This is a bim:","null","","","","",""
"","image-keyboard-response","149","591711","0.0-6.0-1.47","LF","f0xfptzqrg","1366","768","de","ay05em02","null","","","","","","","","learning/Slide48.JPG","null","","","","",""
"","html-keyboard-response","150","592713","0.0-6.0-2.47","LF","f0xfptzqrg","1366","768","de","ay05em02","null","","","","learningBlock1","","","","<div style=""font-size:60px;""> </div>","null","LF","learning/Slide48.JPG","This is a bim:","",""
"","html-keyboard-response","151","593714","0.0-6.0-0.48","LF","f0xfptzqrg","1366","768","de","ay05em02","null","","","","learningBlock1","","","","This is a dep:","null","","","","",""
"","image-keyboard-response","152","594043","0.0-6.0-1.48","LF","f0xfptzqrg","1366","768","de","ay05em02","null","","","","","","","","learning/Slide49.JPG","null","","","","",""
"","html-keyboard-response","153","595046","0.0-6.0-2.48","LF","f0xfptzqrg","1366","768","de","ay05em02","null","","","","learningBlock1","","","","<div style=""font-size:60px;""> </div>","null","LF","learning/Slide49.JPG","This is a dep:","",""
"","html-keyboard-response","154","596047","0.0-6.0-0.49","LF","f0xfptzqrg","1366","768","de","ay05em02","null","","","","learningBlock1","","","","This is a tob:","null","","","","",""
"","image-keyboard-response","155","596375","0.0-6.0-1.49","LF","f0xfptzqrg","1366","768","de","ay05em02","null","","","","","","","","learning/Slide50.JPG","null","","","","",""
"","html-keyboard-response","156","597376","0.0-6.0-2.49","LF","f0xfptzqrg","1366","768","de","ay05em02","null","","","","learningBlock1","","","","<div style=""font-size:60px;""> </div>","null","LF","learning/Slide50.JPG","This is a tob:","",""
"","html-keyboard-response","157","598377","0.0-6.0-0.50","LF","f0xfptzqrg","1366","768","de","ay05em02","null","","","","learningBlock1","","","","This is a bim:","null","","","","",""
"","image-keyboard-response","158","598705","0.0-6.0-1.50","LF","f0xfptzqrg","1366","768","de","ay05em02","null","","","","","","","","learning/Slide51.JPG","null","","","","",""
"","html-keyboard-response","159","599706","0.0-6.0-2.50","LF","f0xfptzqrg","1366","768","de","ay05em02","null","","","","learningBlock1","","","","<div style=""font-size:60px;""> </div>","null","LF","learning/Slide51.JPG","This is a bim:","",""
"","html-keyboard-response","160","600708","0.0-6.0-0.51","LF","f0xfptzqrg","1366","768","de","ay05em02","null","","","","learningBlock1","","","","This is a wug:","null","","","","",""
"","image-keyboard-response","161","601035","0.0-6.0-1.51","LF","f0xfptzqrg","1366","768","de","ay05em02","null","","","","","","","","learning/Slide52.JPG","null","","","","",""
"","html-keyboard-response","162","602038","0.0-6.0-2.51","LF","f0xfptzqrg","1366","768","de","ay05em02","null","","","","learningBlock1","","","","<div style=""font-size:60px;""> </div>","null","LF","learning/Slide52.JPG","This is a wug:","",""
"","html-keyboard-response","163","603039","0.0-6.0-0.52","LF","f0xfptzqrg","1366","768","de","ay05em02","null","","","","learningBlock1","","","","This is a tob:","null","","","","",""
"","image-keyboard-response","164","603366","0.0-6.0-1.52","LF","f0xfptzqrg","1366","768","de","ay05em02","null","","","","","","","","learning/Slide53.JPG","null","","","","",""
"","html-keyboard-response","165","604373","0.0-6.0-2.52","LF","f0xfptzqrg","1366","768","de","ay05em02","null","","","","learningBlock1","","","","<div style=""font-size:60px;""> </div>","null","LF","learning/Slide53.JPG","This is a tob:","",""
"","html-keyboard-response","166","605375","0.0-6.0-0.53","LF","f0xfptzqrg","1366","768","de","ay05em02","null","","","","learningBlock1","","","","This is a dep:","null","","","","",""
"","image-keyboard-response","167","605703","0.0-6.0-1.53","LF","f0xfptzqrg","1366","768","de","ay05em02","null","","","","","","","","learning/Slide54.JPG","null","","","","",""
"","html-keyboard-response","168","606705","0.0-6.0-2.53","LF","f0xfptzqrg","1366","768","de","ay05em02","null","","","","learningBlock1","","","","<div style=""font-size:60px;""> </div>","null","LF","learning/Slide54.JPG","This is a dep:","",""
"","html-keyboard-response","169","607706","0.0-6.0-0.54","LF","f0xfptzqrg","1366","768","de","ay05em02","null","","","","learningBlock1","","","","This is a bim:","null","","","","",""
"","image-keyboard-response","170","608034","0.0-6.0-1.54","LF","f0xfptzqrg","1366","768","de","ay05em02","null","","","","","","","","learning/Slide55.JPG","null","","","","",""
"","html-keyboard-response","171","609038","0.0-6.0-2.54","LF","f0xfptzqrg","1366","768","de","ay05em02","null","","","","learningBlock1","","","","<div style=""font-size:60px;""> </div>","null","LF","learning/Slide55.JPG","This is a bim:","",""
"","html-keyboard-response","172","610040","0.0-6.0-0.55","LF","f0xfptzqrg","1366","768","de","ay05em02","null","","","","learningBlock1","","","","This is a tob:","null","","","","",""
"","image-keyboard-response","173","610368","0.0-6.0-1.55","LF","f0xfptzqrg","1366","768","de","ay05em02","null","","","","","","","","learning/Slide56.JPG","null","","","","",""
"","html-keyboard-response","174","611371","0.0-6.0-2.55","LF","f0xfptzqrg","1366","768","de","ay05em02","null","","","","learningBlock1","","","","<div style=""font-size:60px;""> </div>","null","LF","learning/Slide56.JPG","This is a tob:","",""
"","html-keyboard-response","175","612373","0.0-6.0-0.56","LF","f0xfptzqrg","1366","768","de","ay05em02","null","","","","learningBlock1","","","","This is a dep:","null","","","","",""
"","image-keyboard-response","176","612700","0.0-6.0-1.56","LF","f0xfptzqrg","1366","768","de","ay05em02","null","","","","","","","","learning/Slide57.JPG","null","","","","",""
"","html-keyboard-response","177","613702","0.0-6.0-2.56","LF","f0xfptzqrg","1366","768","de","ay05em02","null","","","","learningBlock1","","","","<div style=""font-size:60px;""> </div>","null","LF","learning/Slide57.JPG","This is a dep:","",""
"","html-keyboard-response","178","614704","0.0-6.0-0.57","LF","f0xfptzqrg","1366","768","de","ay05em02","null","","","","learningBlock1","","","","This is a wug:","null","","","","",""
"","image-keyboard-response","179","615032","0.0-6.0-1.57","LF","f0xfptzqrg","1366","768","de","ay05em02","null","","","","","","","","learning/Slide58.JPG","null","","","","",""
"","html-keyboard-response","180","616034","0.0-6.0-2.57","LF","f0xfptzqrg","1366","768","de","ay05em02","null","","","","learningBlock1","","","","<div style=""font-size:60px;""> </div>","null","LF","learning/Slide58.JPG","This is a wug:","",""
"","html-keyboard-response","181","617036","0.0-6.0-0.58","LF","f0xfptzqrg","1366","768","de","ay05em02","null","","","","learningBlock1","","","","This is a dep:","null","","","","",""
"","image-keyboard-response","182","617364","0.0-6.0-1.58","LF","f0xfptzqrg","1366","768","de","ay05em02","null","","","","","","","","learning/Slide59.JPG","null","","","","",""
"","html-keyboard-response","183","618366","0.0-6.0-2.58","LF","f0xfptzqrg","1366","768","de","ay05em02","null","","","","learningBlock1","","","","<div style=""font-size:60px;""> </div>","null","LF","learning/Slide59.JPG","This is a dep:","",""
"","html-keyboard-response","184","619369","0.0-6.0-0.59","LF","f0xfptzqrg","1366","768","de","ay05em02","null","","","","learningBlock1","","","","This is a wug:","null","","","","",""
"","image-keyboard-response","185","619697","0.0-6.0-1.59","LF","f0xfptzqrg","1366","768","de","ay05em02","null","","","","","","","","learning/Slide60.JPG","null","","","","",""
"","html-keyboard-response","186","620699","0.0-6.0-2.59","LF","f0xfptzqrg","1366","768","de","ay05em02","null","","","","learningBlock1","","","","<div style=""font-size:60px;""> </div>","null","LF","learning/Slide60.JPG","This is a wug:","",""
"","html-keyboard-response","187","621701","0.0-6.0-0.60","LF","f0xfptzqrg","1366","768","de","ay05em02","null","","","","learningBlock1","","","","This is a bim:","null","","","","",""
"","image-keyboard-response","188","622029","0.0-6.0-1.60","LF","f0xfptzqrg","1366","768","de","ay05em02","null","","","","","","","","learning/Slide61.JPG","null","","","","",""
"","html-keyboard-response","189","623031","0.0-6.0-2.60","LF","f0xfptzqrg","1366","768","de","ay05em02","null","","","","learningBlock1","","","","<div style=""font-size:60px;""> </div>","null","LF","learning/Slide61.JPG","This is a bim:","",""
"","html-keyboard-response","190","624032","0.0-6.0-0.61","LF","f0xfptzqrg","1366","768","de","ay05em02","null","","","","learningBlock1","","","","This is a dep:","null","","","","",""
"","image-keyboard-response","191","624359","0.0-6.0-1.61","LF","f0xfptzqrg","1366","768","de","ay05em02","null","","","","","","","","learning/Slide62.JPG","null","","","","",""
"","html-keyboard-response","192","625361","0.0-6.0-2.61","LF","f0xfptzqrg","1366","768","de","ay05em02","null","","","","learningBlock1","","","","<div style=""font-size:60px;""> </div>","null","LF","learning/Slide62.JPG","This is a dep:","",""
"","html-keyboard-response","193","626364","0.0-6.0-0.62","LF","f0xfptzqrg","1366","768","de","ay05em02","null","","","","learningBlock1","","","","This is a bim:","null","","","","",""
"","image-keyboard-response","194","626691","0.0-6.0-1.62","LF","f0xfptzqrg","1366","768","de","ay05em02","null","","","","","","","","learning/Slide63.JPG","null","","","","",""
"","html-keyboard-response","195","627692","0.0-6.0-2.62","LF","f0xfptzqrg","1366","768","de","ay05em02","null","","","","learningBlock1","","","","<div style=""font-size:60px;""> </div>","null","LF","learning/Slide63.JPG","This is a bim:","",""
"","html-keyboard-response","196","628694","0.0-6.0-0.63","LF","f0xfptzqrg","1366","768","de","ay05em02","null","","","","learningBlock1","","","","This is a tob:","null","","","","",""
"","image-keyboard-response","197","629021","0.0-6.0-1.63","LF","f0xfptzqrg","1366","768","de","ay05em02","null","","","","","","","","learning/Slide64.JPG","null","","","","",""
"","html-keyboard-response","198","630024","0.0-6.0-2.63","LF","f0xfptzqrg","1366","768","de","ay05em02","null","","","","learningBlock1","","","","<div style=""font-size:60px;""> </div>","null","LF","learning/Slide64.JPG","This is a tob:","",""
"","html-keyboard-response","199","631025","0.0-6.0-0.64","LF","f0xfptzqrg","1366","768","de","ay05em02","null","","","","learningBlock1","","","","This is a wug:","null","","","","",""
"","image-keyboard-response","200","631354","0.0-6.0-1.64","LF","f0xfptzqrg","1366","768","de","ay05em02","null","","","","","","","","learning/Slide65.JPG","null","","","","",""
"","html-keyboard-response","201","632355","0.0-6.0-2.64","LF","f0xfptzqrg","1366","768","de","ay05em02","null","","","","learningBlock1","","","","<div style=""font-size:60px;""> </div>","null","LF","learning/Slide65.JPG","This is a wug:","",""
"","html-keyboard-response","202","633357","0.0-6.0-0.65","LF","f0xfptzqrg","1366","768","de","ay05em02","null","","","","learningBlock1","","","","This is a dep:","null","","","","",""
"","image-keyboard-response","203","633685","0.0-6.0-1.65","LF","f0xfptzqrg","1366","768","de","ay05em02","null","","","","","","","","learning/Slide66.JPG","null","","","","",""
"","html-keyboard-response","204","634687","0.0-6.0-2.65","LF","f0xfptzqrg","1366","768","de","ay05em02","null","","","","learningBlock1","","","","<div style=""font-size:60px;""> </div>","null","LF","learning/Slide66.JPG","This is a dep:","",""
"","html-keyboard-response","205","635688","0.0-6.0-0.66","LF","f0xfptzqrg","1366","768","de","ay05em02","null","","","","learningBlock1","","","","This is a tob:","null","","","","",""
"","image-keyboard-response","206","636018","0.0-6.0-1.66","LF","f0xfptzqrg","1366","768","de","ay05em02","null","","","","","","","","learning/Slide67.JPG","null","","","","",""
"","html-keyboard-response","207","637019","0.0-6.0-2.66","LF","f0xfptzqrg","1366","768","de","ay05em02","null","","","","learningBlock1","","","","<div style=""font-size:60px;""> </div>","null","LF","learning/Slide67.JPG","This is a tob:","",""
"","html-keyboard-response","208","638021","0.0-6.0-0.67","LF","f0xfptzqrg","1366","768","de","ay05em02","null","","","","learningBlock1","","","","This is a wug:","null","","","","",""
"","image-keyboard-response","209","638348","0.0-6.0-1.67","LF","f0xfptzqrg","1366","768","de","ay05em02","null","","","","","","","","learning/Slide68.JPG","null","","","","",""
"","html-keyboard-response","210","639350","0.0-6.0-2.67","LF","f0xfptzqrg","1366","768","de","ay05em02","null","","","","learningBlock1","","","","<div style=""font-size:60px;""> </div>","null","LF","learning/Slide68.JPG","This is a wug:","",""
"","html-keyboard-response","211","640352","0.0-6.0-0.68","LF","f0xfptzqrg","1366","768","de","ay05em02","null","","","","learningBlock1","","","","This is a tob:","null","","","","",""
"","image-keyboard-response","212","640679","0.0-6.0-1.68","LF","f0xfptzqrg","1366","768","de","ay05em02","null","","","","","","","","learning/Slide69.JPG","null","","","","",""
"","html-keyboard-response","213","641680","0.0-6.0-2.68","LF","f0xfptzqrg","1366","768","de","ay05em02","null","","","","learningBlock1","","","","<div style=""font-size:60px;""> </div>","null","LF","learning/Slide69.JPG","This is a tob:","",""
"","html-keyboard-response","214","642684","0.0-6.0-0.69","LF","f0xfptzqrg","1366","768","de","ay05em02","null","","","","learningBlock1","","","","This is a dep:","null","","","","",""
"","image-keyboard-response","215","643012","0.0-6.0-1.69","LF","f0xfptzqrg","1366","768","de","ay05em02","null","","","","","","","","learning/Slide70.JPG","null","","","","",""
"","html-keyboard-response","216","644014","0.0-6.0-2.69","LF","f0xfptzqrg","1366","768","de","ay05em02","null","","","","learningBlock1","","","","<div style=""font-size:60px;""> </div>","null","LF","learning/Slide70.JPG","This is a dep:","",""
"","html-keyboard-response","217","645016","0.0-6.0-0.70","LF","f0xfptzqrg","1366","768","de","ay05em02","null","","","","learningBlock1","","","","This is a wug:","null","","","","",""
"","image-keyboard-response","218","645346","0.0-6.0-1.70","LF","f0xfptzqrg","1366","768","de","ay05em02","null","","","","","","","","learning/Slide71.JPG","null","","","","",""
"","html-keyboard-response","219","646347","0.0-6.0-2.70","LF","f0xfptzqrg","1366","768","de","ay05em02","null","","","","learningBlock1","","","","<div style=""font-size:60px;""> </div>","null","LF","learning/Slide71.JPG","This is a wug:","",""
"","html-keyboard-response","220","647349","0.0-6.0-0.71","LF","f0xfptzqrg","1366","768","de","ay05em02","null","","","","learningBlock1","","","","This is a bim:","null","","","","",""
"","image-keyboard-response","221","647677","0.0-6.0-1.71","LF","f0xfptzqrg","1366","768","de","ay05em02","null","","","","","","","","learning/Slide72.JPG","null","","","","",""
"","html-keyboard-response","222","648679","0.0-6.0-2.71","LF","f0xfptzqrg","1366","768","de","ay05em02","null","","","","learningBlock1","","","","<div style=""font-size:60px;""> </div>","null","LF","learning/Slide72.JPG","This is a bim:","",""
"","html-keyboard-response","223","649681","0.0-6.0-0.72","LF","f0xfptzqrg","1366","768","de","ay05em02","null","","","","learningBlock1","","","","This is a wug:","null","","","","",""
"","image-keyboard-response","224","650012","0.0-6.0-1.72","LF","f0xfptzqrg","1366","768","de","ay05em02","null","","","","","","","","learning/Slide73.JPG","null","","","","",""
"","html-keyboard-response","225","651016","0.0-6.0-2.72","LF","f0xfptzqrg","1366","768","de","ay05em02","null","","","","learningBlock1","","","","<div style=""font-size:60px;""> </div>","null","LF","learning/Slide73.JPG","This is a wug:","",""
"","html-keyboard-response","226","652018","0.0-6.0-0.73","LF","f0xfptzqrg","1366","768","de","ay05em02","null","","","","learningBlock1","","","","This is a dep:","null","","","","",""
"","image-keyboard-response","227","652346","0.0-6.0-1.73","LF","f0xfptzqrg","1366","768","de","ay05em02","null","","","","","","","","learning/Slide74.JPG","null","","","","",""
"","html-keyboard-response","228","653347","0.0-6.0-2.73","LF","f0xfptzqrg","1366","768","de","ay05em02","null","","","","learningBlock1","","","","<div style=""font-size:60px;""> </div>","null","LF","learning/Slide74.JPG","This is a dep:","",""
"","html-keyboard-response","229","654349","0.0-6.0-0.74","LF","f0xfptzqrg","1366","768","de","ay05em02","null","","","","learningBlock1","","","","This is a tob:","null","","","","",""
"","image-keyboard-response","230","654677","0.0-6.0-1.74","LF","f0xfptzqrg","1366","768","de","ay05em02","null","","","","","","","","learning/Slide75.JPG","null","","","","",""
"","html-keyboard-response","231","655678","0.0-6.0-2.74","LF","f0xfptzqrg","1366","768","de","ay05em02","null","","","","learningBlock1","","","","<div style=""font-size:60px;""> </div>","null","LF","learning/Slide75.JPG","This is a tob:","",""
"","html-keyboard-response","232","656681","0.0-6.0-0.75","LF","f0xfptzqrg","1366","768","de","ay05em02","null","","","","learningBlock1","","","","This is a bim:","null","","","","",""
"","image-keyboard-response","233","657008","0.0-6.0-1.75","LF","f0xfptzqrg","1366","768","de","ay05em02","null","","","","","","","","learning/Slide76.JPG","null","","","","",""
"","html-keyboard-response","234","658011","0.0-6.0-2.75","LF","f0xfptzqrg","1366","768","de","ay05em02","null","","","","learningBlock1","","","","<div style=""font-size:60px;""> </div>","null","LF","learning/Slide76.JPG","This is a bim:","",""
"","html-keyboard-response","235","659013","0.0-6.0-0.76","LF","f0xfptzqrg","1366","768","de","ay05em02","null","","","","learningBlock1","","","","This is a tob:","null","","","","",""
"","image-keyboard-response","236","659341","0.0-6.0-1.76","LF","f0xfptzqrg","1366","768","de","ay05em02","null","","","","","","","","learning/Slide77.JPG","null","","","","",""
"","html-keyboard-response","237","660343","0.0-6.0-2.76","LF","f0xfptzqrg","1366","768","de","ay05em02","null","","","","learningBlock1","","","","<div style=""font-size:60px;""> </div>","null","LF","learning/Slide77.JPG","This is a tob:","",""
"","html-keyboard-response","238","661345","0.0-6.0-0.77","LF","f0xfptzqrg","1366","768","de","ay05em02","null","","","","learningBlock1","","","","This is a wug:","null","","","","",""
"","image-keyboard-response","239","661675","0.0-6.0-1.77","LF","f0xfptzqrg","1366","768","de","ay05em02","null","","","","","","","","learning/Slide78.JPG","null","","","","",""
"","html-keyboard-response","240","662677","0.0-6.0-2.77","LF","f0xfptzqrg","1366","768","de","ay05em02","null","","","","learningBlock1","","","","<div style=""font-size:60px;""> </div>","null","LF","learning/Slide78.JPG","This is a wug:","",""
"","html-keyboard-response","241","663682","0.0-6.0-0.78","LF","f0xfptzqrg","1366","768","de","ay05em02","null","","","","learningBlock1","","","","This is a bim:","null","","","","",""
"","image-keyboard-response","242","664010","0.0-6.0-1.78","LF","f0xfptzqrg","1366","768","de","ay05em02","null","","","","","","","","learning/Slide79.JPG","null","","","","",""
"","html-keyboard-response","243","665013","0.0-6.0-2.78","LF","f0xfptzqrg","1366","768","de","ay05em02","null","","","","learningBlock1","","","","<div style=""font-size:60px;""> </div>","null","LF","learning/Slide79.JPG","This is a bim:","",""
"","html-keyboard-response","244","666015","0.0-6.0-0.79","LF","f0xfptzqrg","1366","768","de","ay05em02","null","","","","learningBlock1","","","","This is a tob:","null","","","","",""
"","image-keyboard-response","245","666343","0.0-6.0-1.79","LF","f0xfptzqrg","1366","768","de","ay05em02","null","","","","","","","","learning/Slide80.JPG","null","","","","",""
"","html-keyboard-response","246","667346","0.0-6.0-2.79","LF","f0xfptzqrg","1366","768","de","ay05em02","null","","","","learningBlock1","","","","<div style=""font-size:60px;""> </div>","null","LF","learning/Slide80.JPG","This is a tob:","",""
"","instructions","247","695220","0.0-7.0","LF","f0xfptzqrg","1366","768","de","ay05em02","NA","","","[{""page_index"":0,""viewing_time"":27871.61000003107}]","instructions","","","","","","","","","",""
"","html-keyboard-response","248","696223","0.0-8.0-0.0","LF","f0xfptzqrg","1366","768","de","ay05em02","null","","","","learningBlock2","","","","This is a wug:","null","","","","",""
"","image-keyboard-response","249","696551","0.0-8.0-1.0","LF","f0xfptzqrg","1366","768","de","ay05em02","null","","","","","","","","learning/Slide81.JPG","null","","","","",""
"","html-keyboard-response","250","697554","0.0-8.0-2.0","LF","f0xfptzqrg","1366","768","de","ay05em02","null","","","","learningBlock2","","","","<div style=""font-size:60px;""> </div>","null","LF","learning/Slide81.JPG","This is a wug:","",""
"","html-keyboard-response","251","698556","0.0-8.0-0.1","LF","f0xfptzqrg","1366","768","de","ay05em02","null","","","","learningBlock2","","","","This is a bim:","null","","","","",""
"","image-keyboard-response","252","698883","0.0-8.0-1.1","LF","f0xfptzqrg","1366","768","de","ay05em02","null","","","","","","","","learning/Slide82.JPG","null","","","","",""
"","html-keyboard-response","253","699886","0.0-8.0-2.1","LF","f0xfptzqrg","1366","768","de","ay05em02","null","","","","learningBlock2","","","","<div style=""font-size:60px;""> </div>","null","LF","learning/Slide82.JPG","This is a bim:","",""
"","html-keyboard-response","254","700887","0.0-8.0-0.2","LF","f0xfptzqrg","1366","768","de","ay05em02","null","","","","learningBlock2","","","","This is a wug:","null","","","","",""
"","image-keyboard-response","255","701216","0.0-8.0-1.2","LF","f0xfptzqrg","1366","768","de","ay05em02","null","","","","","","","","learning/Slide83.JPG","null","","","","",""
"","html-keyboard-response","256","702218","0.0-8.0-2.2","LF","f0xfptzqrg","1366","768","de","ay05em02","null","","","","learningBlock2","","","","<div style=""font-size:60px;""> </div>","null","LF","learning/Slide83.JPG","This is a wug:","",""
"","html-keyboard-response","257","703220","0.0-8.0-0.3","LF","f0xfptzqrg","1366","768","de","ay05em02","null","","","","learningBlock2","","","","This is a dep:","null","","","","",""
"","image-keyboard-response","258","703549","0.0-8.0-1.3","LF","f0xfptzqrg","1366","768","de","ay05em02","null","","","","","","","","learning/Slide84.JPG","null","","","","",""
"","html-keyboard-response","259","704551","0.0-8.0-2.3","LF","f0xfptzqrg","1366","768","de","ay05em02","null","","","","learningBlock2","","","","<div style=""font-size:60px;""> </div>","null","LF","learning/Slide84.JPG","This is a dep:","",""
"","html-keyboard-response","260","705552","0.0-8.0-0.4","LF","f0xfptzqrg","1366","768","de","ay05em02","null","","","","learningBlock2","","","","This is a bim:","null","","","","",""
"","image-keyboard-response","261","705881","0.0-8.0-1.4","LF","f0xfptzqrg","1366","768","de","ay05em02","null","","","","","","","","learning/Slide85.JPG","null","","","","",""
"","html-keyboard-response","262","706883","0.0-8.0-2.4","LF","f0xfptzqrg","1366","768","de","ay05em02","null","","","","learningBlock2","","","","<div style=""font-size:60px;""> </div>","null","LF","learning/Slide85.JPG","This is a bim:","",""
"","html-keyboard-response","263","707886","0.0-8.0-0.5","LF","f0xfptzqrg","1366","768","de","ay05em02","null","","","","learningBlock2","","","","This is a tob:","null","","","","",""
"","image-keyboard-response","264","708214","0.0-8.0-1.5","LF","f0xfptzqrg","1366","768","de","ay05em02","null","","","","","","","","learning/Slide86.JPG","null","","","","",""
"","html-keyboard-response","265","709216","0.0-8.0-2.5","LF","f0xfptzqrg","1366","768","de","ay05em02","null","","","","learningBlock2","","","","<div style=""font-size:60px;""> </div>","null","LF","learning/Slide86.JPG","This is a tob:","",""
"","html-keyboard-response","266","710218","0.0-8.0-0.6","LF","f0xfptzqrg","1366","768","de","ay05em02","null","","","","learningBlock2","","","","This is a wug:","null","","","","",""
"","image-keyboard-response","267","710547","0.0-8.0-1.6","LF","f0xfptzqrg","1366","768","de","ay05em02","null","","","","","","","","learning/Slide87.JPG","null","","","","",""
"","html-keyboard-response","268","711548","0.0-8.0-2.6","LF","f0xfptzqrg","1366","768","de","ay05em02","null","","","","learningBlock2","","","","<div style=""font-size:60px;""> </div>","null","LF","learning/Slide87.JPG","This is a wug:","",""
"","html-keyboard-response","269","712549","0.0-8.0-0.7","LF","f0xfptzqrg","1366","768","de","ay05em02","null","","","","learningBlock2","","","","This is a tob:","null","","","","",""
"","image-keyboard-response","270","712877","0.0-8.0-1.7","LF","f0xfptzqrg","1366","768","de","ay05em02","null","","","","","","","","learning/Slide88.JPG","null","","","","",""
"","html-keyboard-response","271","713879","0.0-8.0-2.7","LF","f0xfptzqrg","1366","768","de","ay05em02","null","","","","learningBlock2","","","","<div style=""font-size:60px;""> </div>","null","LF","learning/Slide88.JPG","This is a tob:","",""
"","html-keyboard-response","272","714882","0.0-8.0-0.8","LF","f0xfptzqrg","1366","768","de","ay05em02","null","","","","learningBlock2","","","","This is a bim:","null","","","","",""
"","image-keyboard-response","273","715211","0.0-8.0-1.8","LF","f0xfptzqrg","1366","768","de","ay05em02","null","","","","","","","","learning/Slide89.JPG","null","","","","",""
"","html-keyboard-response","274","716212","0.0-8.0-2.8","LF","f0xfptzqrg","1366","768","de","ay05em02","null","","","","learningBlock2","","","","<div style=""font-size:60px;""> </div>","null","LF","learning/Slide89.JPG","This is a bim:","",""
"","html-keyboard-response","275","717214","0.0-8.0-0.9","LF","f0xfptzqrg","1366","768","de","ay05em02","null","","","","learningBlock2","","","","This is a dep:","null","","","","",""
"","image-keyboard-response","276","717541","0.0-8.0-1.9","LF","f0xfptzqrg","1366","768","de","ay05em02","null","","","","","","","","learning/Slide90.JPG","null","","","","",""
"","html-keyboard-response","277","718543","0.0-8.0-2.9","LF","f0xfptzqrg","1366","768","de","ay05em02","null","","","","learningBlock2","","","","<div style=""font-size:60px;""> </div>","null","LF","learning/Slide90.JPG","This is a dep:","",""
"","html-keyboard-response","278","719546","0.0-8.0-0.10","LF","f0xfptzqrg","1366","768","de","ay05em02","null","","","","learningBlock2","","","","This is a wug:","null","","","","",""
"","image-keyboard-response","279","719873","0.0-8.0-1.10","LF","f0xfptzqrg","1366","768","de","ay05em02","null","","","","","","","","learning/Slide91.JPG","null","","","","",""
"","html-keyboard-response","280","720874","0.0-8.0-2.10","LF","f0xfptzqrg","1366","768","de","ay05em02","null","","","","learningBlock2","","","","<div style=""font-size:60px;""> </div>","null","LF","learning/Slide91.JPG","This is a wug:","",""
"","html-keyboard-response","281","721876","0.0-8.0-0.11","LF","f0xfptzqrg","1366","768","de","ay05em02","null","","","","learningBlock2","","","","This is a tob:","null","","","","",""
"","image-keyboard-response","282","722209","0.0-8.0-1.11","LF","f0xfptzqrg","1366","768","de","ay05em02","null","","","","","","","","learning/Slide92.JPG","null","","","","",""
"","html-keyboard-response","283","723213","0.0-8.0-2.11","LF","f0xfptzqrg","1366","768","de","ay05em02","null","","","","learningBlock2","","","","<div style=""font-size:60px;""> </div>","null","LF","learning/Slide92.JPG","This is a tob:","",""
"","html-keyboard-response","284","724215","0.0-8.0-0.12","LF","f0xfptzqrg","1366","768","de","ay05em02","null","","","","learningBlock2","","","","This is a bim:","null","","","","",""
"","image-keyboard-response","285","724542","0.0-8.0-1.12","LF","f0xfptzqrg","1366","768","de","ay05em02","null","","","","","","","","learning/Slide93.JPG","null","","","","",""
"","html-keyboard-response","286","725544","0.0-8.0-2.12","LF","f0xfptzqrg","1366","768","de","ay05em02","null","","","","learningBlock2","","","","<div style=""font-size:60px;""> </div>","null","LF","learning/Slide93.JPG","This is a bim:","",""
"","html-keyboard-response","287","726546","0.0-8.0-0.13","LF","f0xfptzqrg","1366","768","de","ay05em02","null","","","","learningBlock2","","","","This is a tob:","null","","","","",""
"","image-keyboard-response","288","726874","0.0-8.0-1.13","LF","f0xfptzqrg","1366","768","de","ay05em02","null","","","","","","","","learning/Slide94.JPG","null","","","","",""
"","html-keyboard-response","289","727877","0.0-8.0-2.13","LF","f0xfptzqrg","1366","768","de","ay05em02","null","","","","learningBlock2","","","","<div style=""font-size:60px;""> </div>","null","LF","learning/Slide94.JPG","This is a tob:","",""
"","html-keyboard-response","290","728879","0.0-8.0-0.14","LF","f0xfptzqrg","1366","768","de","ay05em02","null","","","","learningBlock2","","","","This is a wug:","null","","","","",""
"","image-keyboard-response","291","729210","0.0-8.0-1.14","LF","f0xfptzqrg","1366","768","de","ay05em02","null","","","","","","","","learning/Slide95.JPG","null","","","","",""
"","html-keyboard-response","292","730214","0.0-8.0-2.14","LF","f0xfptzqrg","1366","768","de","ay05em02","null","","","","learningBlock2","","","","<div style=""font-size:60px;""> </div>","null","LF","learning/Slide95.JPG","This is a wug:","",""
"","html-keyboard-response","293","731216","0.0-8.0-0.15","LF","f0xfptzqrg","1366","768","de","ay05em02","null","","","","learningBlock2","","","","This is a tob:","null","","","","",""
"","image-keyboard-response","294","731545","0.0-8.0-1.15","LF","f0xfptzqrg","1366","768","de","ay05em02","null","","","","","","","","learning/Slide96.JPG","null","","","","",""
"","html-keyboard-response","295","732547","0.0-8.0-2.15","LF","f0xfptzqrg","1366","768","de","ay05em02","null","","","","learningBlock2","","","","<div style=""font-size:60px;""> </div>","null","LF","learning/Slide96.JPG","This is a tob:","",""
"","html-keyboard-response","296","733548","0.0-8.0-0.16","LF","f0xfptzqrg","1366","768","de","ay05em02","null","","","","learningBlock2","","","","This is a dep:","null","","","","",""
"","image-keyboard-response","297","733876","0.0-8.0-1.16","LF","f0xfptzqrg","1366","768","de","ay05em02","null","","","","","","","","learning/Slide97.JPG","null","","","","",""
"","html-keyboard-response","298","734878","0.0-8.0-2.16","LF","f0xfptzqrg","1366","768","de","ay05em02","null","","","","learningBlock2","","","","<div style=""font-size:60px;""> </div>","null","LF","learning/Slide97.JPG","This is a dep:","",""
"","html-keyboard-response","299","735881","0.0-8.0-0.17","LF","f0xfptzqrg","1366","768","de","ay05em02","null","","","","learningBlock2","","","","This is a bim:","null","","","","",""
"","image-keyboard-response","300","736209","0.0-8.0-1.17","LF","f0xfptzqrg","1366","768","de","ay05em02","null","","","","","","","","learning/Slide98.JPG","null","","","","",""
"","html-keyboard-response","301","737211","0.0-8.0-2.17","LF","f0xfptzqrg","1366","768","de","ay05em02","null","","","","learningBlock2","","","","<div style=""font-size:60px;""> </div>","null","LF","learning/Slide98.JPG","This is a bim:","",""
"","html-keyboard-response","302","738213","0.0-8.0-0.18","LF","f0xfptzqrg","1366","768","de","ay05em02","null","","","","learningBlock2","","","","This is a dep:","null","","","","",""
"","image-keyboard-response","303","738541","0.0-8.0-1.18","LF","f0xfptzqrg","1366","768","de","ay05em02","null","","","","","","","","learning/Slide99.JPG","null","","","","",""
"","html-keyboard-response","304","739543","0.0-8.0-2.18","LF","f0xfptzqrg","1366","768","de","ay05em02","null","","","","learningBlock2","","","","<div style=""font-size:60px;""> </div>","null","LF","learning/Slide99.JPG","This is a dep:","",""
"","html-keyboard-response","305","740545","0.0-8.0-0.19","LF","f0xfptzqrg","1366","768","de","ay05em02","null","","","","learningBlock2","","","","This is a bim:","null","","","","",""
"","image-keyboard-response","306","740873","0.0-8.0-1.19","LF","f0xfptzqrg","1366","768","de","ay05em02","null","","","","","","","","learning/Slide100.JPG","null","","","","",""
"","html-keyboard-response","307","741875","0.0-8.0-2.19","LF","f0xfptzqrg","1366","768","de","ay05em02","null","","","","learningBlock2","","","","<div style=""font-size:60px;""> </div>","null","LF","learning/Slide100.JPG","This is a bim:","",""
"","html-keyboard-response","308","742877","0.0-8.0-0.20","LF","f0xfptzqrg","1366","768","de","ay05em02","null","","","","learningBlock2","","","","This is a tob:","null","","","","",""
"","image-keyboard-response","309","743205","0.0-8.0-1.20","LF","f0xfptzqrg","1366","768","de","ay05em02","null","","","","","","","","learning/Slide101.JPG","null","","","","",""
"","html-keyboard-response","310","744207","0.0-8.0-2.20","LF","f0xfptzqrg","1366","768","de","ay05em02","null","","","","learningBlock2","","","","<div style=""font-size:60px;""> </div>","null","LF","learning/Slide101.JPG","This is a tob:","",""
"","html-keyboard-response","311","745212","0.0-8.0-0.21","LF","f0xfptzqrg","1366","768","de","ay05em02","null","","","","learningBlock2","","","","This is a bim:","null","","","","",""
"","image-keyboard-response","312","745543","0.0-8.0-1.21","LF","f0xfptzqrg","1366","768","de","ay05em02","null","","","","","","","","learning/Slide102.JPG","null","","","","",""
"","html-keyboard-response","313","746545","0.0-8.0-2.21","LF","f0xfptzqrg","1366","768","de","ay05em02","null","","","","learningBlock2","","","","<div style=""font-size:60px;""> </div>","null","LF","learning/Slide102.JPG","This is a bim:","",""
"","html-keyboard-response","314","747547","0.0-8.0-0.22","LF","f0xfptzqrg","1366","768","de","ay05em02","null","","","","learningBlock2","","","","This is a dep:","null","","","","",""
"","image-keyboard-response","315","747876","0.0-8.0-1.22","LF","f0xfptzqrg","1366","768","de","ay05em02","null","","","","","","","","learning/Slide103.JPG","null","","","","",""
"","html-keyboard-response","316","748877","0.0-8.0-2.22","LF","f0xfptzqrg","1366","768","de","ay05em02","null","","","","learningBlock2","","","","<div style=""font-size:60px;""> </div>","null","LF","learning/Slide103.JPG","This is a dep:","",""
"","html-keyboard-response","317","749880","0.0-8.0-0.23","LF","f0xfptzqrg","1366","768","de","ay05em02","null","","","","learningBlock2","","","","This is a tob:","null","","","","",""
"","image-keyboard-response","318","750208","0.0-8.0-1.23","LF","f0xfptzqrg","1366","768","de","ay05em02","null","","","","","","","","learning/Slide104.JPG","null","","","","",""
"","html-keyboard-response","319","751210","0.0-8.0-2.23","LF","f0xfptzqrg","1366","768","de","ay05em02","null","","","","learningBlock2","","","","<div style=""font-size:60px;""> </div>","null","LF","learning/Slide104.JPG","This is a tob:","",""
"","html-keyboard-response","320","752215","0.0-8.0-0.24","LF","f0xfptzqrg","1366","768","de","ay05em02","null","","","","learningBlock2","","","","This is a dep:","null","","","","",""
"","image-keyboard-response","321","752543","0.0-8.0-1.24","LF","f0xfptzqrg","1366","768","de","ay05em02","null","","","","","","","","learning/Slide105.JPG","null","","","","",""
"","html-keyboard-response","322","753546","0.0-8.0-2.24","LF","f0xfptzqrg","1366","768","de","ay05em02","null","","","","learningBlock2","","","","<div style=""font-size:60px;""> </div>","null","LF","learning/Slide105.JPG","This is a dep:","",""
"","html-keyboard-response","323","754549","0.0-8.0-0.25","LF","f0xfptzqrg","1366","768","de","ay05em02","null","","","","learningBlock2","","","","This is a wug:","null","","","","",""
"","image-keyboard-response","324","754877","0.0-8.0-1.25","LF","f0xfptzqrg","1366","768","de","ay05em02","null","","","","","","","","learning/Slide106.JPG","null","","","","",""
"","html-keyboard-response","325","755879","0.0-8.0-2.25","LF","f0xfptzqrg","1366","768","de","ay05em02","null","","","","learningBlock2","","","","<div style=""font-size:60px;""> </div>","null","LF","learning/Slide106.JPG","This is a wug:","",""
"","html-keyboard-response","326","756881","0.0-8.0-0.26","LF","f0xfptzqrg","1366","768","de","ay05em02","null","","","","learningBlock2","","","","This is a bim:","null","","","","",""
"","image-keyboard-response","327","757208","0.0-8.0-1.26","LF","f0xfptzqrg","1366","768","de","ay05em02","null","","","","","","","","learning/Slide107.JPG","null","","","","",""
"","html-keyboard-response","328","758210","0.0-8.0-2.26","LF","f0xfptzqrg","1366","768","de","ay05em02","null","","","","learningBlock2","","","","<div style=""font-size:60px;""> </div>","null","LF","learning/Slide107.JPG","This is a bim:","",""
"","html-keyboard-response","329","759215","0.0-8.0-0.27","LF","f0xfptzqrg","1366","768","de","ay05em02","null","","","","learningBlock2","","","","This is a dep:","null","","","","",""
"","image-keyboard-response","330","759545","0.0-8.0-1.27","LF","f0xfptzqrg","1366","768","de","ay05em02","null","","","","","","","","learning/Slide108.JPG","null","","","","",""
"","html-keyboard-response","331","760547","0.0-8.0-2.27","LF","f0xfptzqrg","1366","768","de","ay05em02","null","","","","learningBlock2","","","","<div style=""font-size:60px;""> </div>","null","LF","learning/Slide108.JPG","This is a dep:","",""
"","html-keyboard-response","332","761549","0.0-8.0-0.28","LF","f0xfptzqrg","1366","768","de","ay05em02","null","","","","learningBlock2","","","","This is a wug:","null","","","","",""
"","image-keyboard-response","333","761878","0.0-8.0-1.28","LF","f0xfptzqrg","1366","768","de","ay05em02","null","","","","","","","","learning/Slide109.JPG","null","","","","",""
"","html-keyboard-response","334","762880","0.0-8.0-2.28","LF","f0xfptzqrg","1366","768","de","ay05em02","null","","","","learningBlock2","","","","<div style=""font-size:60px;""> </div>","null","LF","learning/Slide109.JPG","This is a wug:","",""
"","html-keyboard-response","335","763883","0.0-8.0-0.29","LF","f0xfptzqrg","1366","768","de","ay05em02","null","","","","learningBlock2","","","","This is a bim:","null","","","","",""
"","image-keyboard-response","336","764211","0.0-8.0-1.29","LF","f0xfptzqrg","1366","768","de","ay05em02","null","","","","","","","","learning/Slide110.JPG","null","","","","",""
"","html-keyboard-response","337","765212","0.0-8.0-2.29","LF","f0xfptzqrg","1366","768","de","ay05em02","null","","","","learningBlock2","","","","<div style=""font-size:60px;""> </div>","null","LF","learning/Slide110.JPG","This is a bim:","",""
"","html-keyboard-response","338","766216","0.0-8.0-0.30","LF","f0xfptzqrg","1366","768","de","ay05em02","null","","","","learningBlock2","","","","This is a tob:","null","","","","",""
"","image-keyboard-response","339","766545","0.0-8.0-1.30","LF","f0xfptzqrg","1366","768","de","ay05em02","null","","","","","","","","learning/Slide111.JPG","null","","","","",""
"","html-keyboard-response","340","767547","0.0-8.0-2.30","LF","f0xfptzqrg","1366","768","de","ay05em02","null","","","","learningBlock2","","","","<div style=""font-size:60px;""> </div>","null","LF","learning/Slide111.JPG","This is a tob:","",""
"","html-keyboard-response","341","768549","0.0-8.0-0.31","LF","f0xfptzqrg","1366","768","de","ay05em02","null","","","","learningBlock2","","","","This is a wug:","null","","","","",""
"","image-keyboard-response","342","768876","0.0-8.0-1.31","LF","f0xfptzqrg","1366","768","de","ay05em02","null","","","","","","","","learning/Slide112.JPG","null","","","","",""
"","html-keyboard-response","343","769878","0.0-8.0-2.31","LF","f0xfptzqrg","1366","768","de","ay05em02","null","","","","learningBlock2","","","","<div style=""font-size:60px;""> </div>","null","LF","learning/Slide112.JPG","This is a wug:","",""
"","html-keyboard-response","344","770881","0.0-8.0-0.32","LF","f0xfptzqrg","1366","768","de","ay05em02","null","","","","learningBlock2","","","","This is a tob:","null","","","","",""
"","image-keyboard-response","345","771208","0.0-8.0-1.32","LF","f0xfptzqrg","1366","768","de","ay05em02","null","","","","","","","","learning/Slide113.JPG","null","","","","",""
"","html-keyboard-response","346","772209","0.0-8.0-2.32","LF","f0xfptzqrg","1366","768","de","ay05em02","null","","","","learningBlock2","","","","<div style=""font-size:60px;""> </div>","null","LF","learning/Slide113.JPG","This is a tob:","",""
"","html-keyboard-response","347","773211","0.0-8.0-0.33","LF","f0xfptzqrg","1366","768","de","ay05em02","null","","","","learningBlock2","","","","This is a wug:","null","","","","",""
"","image-keyboard-response","348","773540","0.0-8.0-1.33","LF","f0xfptzqrg","1366","768","de","ay05em02","null","","","","","","","","learning/Slide114.JPG","null","","","","",""
"","html-keyboard-response","349","774542","0.0-8.0-2.33","LF","f0xfptzqrg","1366","768","de","ay05em02","null","","","","learningBlock2","","","","<div style=""font-size:60px;""> </div>","null","LF","learning/Slide114.JPG","This is a wug:","",""
"","html-keyboard-response","350","775543","0.0-8.0-0.34","LF","f0xfptzqrg","1366","768","de","ay05em02","null","","","","learningBlock2","","","","This is a bim:","null","","","","",""
"","image-keyboard-response","351","775872","0.0-8.0-1.34","LF","f0xfptzqrg","1366","768","de","ay05em02","null","","","","","","","","learning/Slide115.JPG","null","","","","",""
"","html-keyboard-response","352","776873","0.0-8.0-2.34","LF","f0xfptzqrg","1366","768","de","ay05em02","null","","","","learningBlock2","","","","<div style=""font-size:60px;""> </div>","null","LF","learning/Slide115.JPG","This is a bim:","",""
"","html-keyboard-response","353","777875","0.0-8.0-0.35","LF","f0xfptzqrg","1366","768","de","ay05em02","null","","","","learningBlock2","","","","This is a dep:","null","","","","",""
"","image-keyboard-response","354","778203","0.0-8.0-1.35","LF","f0xfptzqrg","1366","768","de","ay05em02","null","","","","","","","","learning/Slide116.JPG","null","","","","",""
"","html-keyboard-response","355","779205","0.0-8.0-2.35","LF","f0xfptzqrg","1366","768","de","ay05em02","null","","","","learningBlock2","","","","<div style=""font-size:60px;""> </div>","null","LF","learning/Slide116.JPG","This is a dep:","",""
"","html-keyboard-response","356","780206","0.0-8.0-0.36","LF","f0xfptzqrg","1366","768","de","ay05em02","null","","","","learningBlock2","","","","This is a tob:","null","","","","",""
"","image-keyboard-response","357","780534","0.0-8.0-1.36","LF","f0xfptzqrg","1366","768","de","ay05em02","null","","","","","","","","learning/Slide117.JPG","null","","","","",""
"","html-keyboard-response","358","781536","0.0-8.0-2.36","LF","f0xfptzqrg","1366","768","de","ay05em02","null","","","","learningBlock2","","","","<div style=""font-size:60px;""> </div>","null","LF","learning/Slide117.JPG","This is a tob:","",""
"","html-keyboard-response","359","782539","0.0-8.0-0.37","LF","f0xfptzqrg","1366","768","de","ay05em02","null","","","","learningBlock2","","","","This is a dep:","null","","","","",""
"","image-keyboard-response","360","782868","0.0-8.0-1.37","LF","f0xfptzqrg","1366","768","de","ay05em02","null","","","","","","","","learning/Slide118.JPG","null","","","","",""
"","html-keyboard-response","361","783869","0.0-8.0-2.37","LF","f0xfptzqrg","1366","768","de","ay05em02","null","","","","learningBlock2","","","","<div style=""font-size:60px;""> </div>","null","LF","learning/Slide118.JPG","This is a dep:","",""
"","html-keyboard-response","362","784871","0.0-8.0-0.38","LF","f0xfptzqrg","1366","768","de","ay05em02","null","","","","learningBlock2","","","","This is a wug:","null","","","","",""
"","image-keyboard-response","363","785202","0.0-8.0-1.38","LF","f0xfptzqrg","1366","768","de","ay05em02","null","","","","","","","","learning/Slide119.JPG","null","","","","",""
"","html-keyboard-response","364","786204","0.0-8.0-2.38","LF","f0xfptzqrg","1366","768","de","ay05em02","null","","","","learningBlock2","","","","<div style=""font-size:60px;""> </div>","null","LF","learning/Slide119.JPG","This is a wug:","",""
"","html-keyboard-response","365","787206","0.0-8.0-0.39","LF","f0xfptzqrg","1366","768","de","ay05em02","null","","","","learningBlock2","","","","This is a dep:","null","","","","",""
"","image-keyboard-response","366","787535","0.0-8.0-1.39","LF","f0xfptzqrg","1366","768","de","ay05em02","null","","","","","","","","learning/Slide120.JPG","null","","","","",""
"","html-keyboard-response","367","788537","0.0-8.0-2.39","LF","f0xfptzqrg","1366","768","de","ay05em02","null","","","","learningBlock2","","","","<div style=""font-size:60px;""> </div>","null","LF","learning/Slide120.JPG","This is a dep:","",""
"","html-keyboard-response","368","789538","0.0-8.0-0.40","LF","f0xfptzqrg","1366","768","de","ay05em02","null","","","","learningBlock2","","","","This is a bim:","null","","","","",""
"","image-keyboard-response","369","789866","0.0-8.0-1.40","LF","f0xfptzqrg","1366","768","de","ay05em02","null","","","","","","","","learning/Slide121.JPG","null","","","","",""
"","html-keyboard-response","370","790869","0.0-8.0-2.40","LF","f0xfptzqrg","1366","768","de","ay05em02","null","","","","learningBlock2","","","","<div style=""font-size:60px;""> </div>","null","LF","learning/Slide121.JPG","This is a bim:","",""
"","html-keyboard-response","371","791872","0.0-8.0-0.41","LF","f0xfptzqrg","1366","768","de","ay05em02","null","","","","learningBlock2","","","","This is a wug:","null","","","","",""
"","image-keyboard-response","372","792200","0.0-8.0-1.41","LF","f0xfptzqrg","1366","768","de","ay05em02","null","","","","","","","","learning/Slide122.JPG","null","","","","",""
"","html-keyboard-response","373","793203","0.0-8.0-2.41","LF","f0xfptzqrg","1366","768","de","ay05em02","null","","","","learningBlock2","","","","<div style=""font-size:60px;""> </div>","null","LF","learning/Slide122.JPG","This is a wug:","",""
"","html-keyboard-response","374","794205","0.0-8.0-0.42","LF","f0xfptzqrg","1366","768","de","ay05em02","null","","","","learningBlock2","","","","This is a bim:","null","","","","",""
"","image-keyboard-response","375","794534","0.0-8.0-1.42","LF","f0xfptzqrg","1366","768","de","ay05em02","null","","","","","","","","learning/Slide123.JPG","null","","","","",""
"","html-keyboard-response","376","795536","0.0-8.0-2.42","LF","f0xfptzqrg","1366","768","de","ay05em02","null","","","","learningBlock2","","","","<div style=""font-size:60px;""> </div>","null","LF","learning/Slide123.JPG","This is a bim:","",""
"","html-keyboard-response","377","796537","0.0-8.0-0.43","LF","f0xfptzqrg","1366","768","de","ay05em02","null","","","","learningBlock2","","","","This is a tob:","null","","","","",""
"","image-keyboard-response","378","796866","0.0-8.0-1.43","LF","f0xfptzqrg","1366","768","de","ay05em02","null","","","","","","","","learning/Slide124.JPG","null","","","","",""
"","html-keyboard-response","379","797867","0.0-8.0-2.43","LF","f0xfptzqrg","1366","768","de","ay05em02","null","","","","learningBlock2","","","","<div style=""font-size:60px;""> </div>","null","LF","learning/Slide124.JPG","This is a tob:","",""
"","html-keyboard-response","380","798868","0.0-8.0-0.44","LF","f0xfptzqrg","1366","768","de","ay05em02","null","","","","learningBlock2","","","","This is a bim:","null","","","","",""
"","image-keyboard-response","381","799197","0.0-8.0-1.44","LF","f0xfptzqrg","1366","768","de","ay05em02","null","","","","","","","","learning/Slide125.JPG","null","","","","",""
"","html-keyboard-response","382","800199","0.0-8.0-2.44","LF","f0xfptzqrg","1366","768","de","ay05em02","null","","","","learningBlock2","","","","<div style=""font-size:60px;""> </div>","null","LF","learning/Slide125.JPG","This is a bim:","",""
"","html-keyboard-response","383","801202","0.0-8.0-0.45","LF","f0xfptzqrg","1366","768","de","ay05em02","null","","","","learningBlock2","","","","This is a tob:","null","","","","",""
"","image-keyboard-response","384","801531","0.0-8.0-1.45","LF","f0xfptzqrg","1366","768","de","ay05em02","null","","","","","","","","learning/Slide126.JPG","null","","","","",""
"","html-keyboard-response","385","802534","0.0-8.0-2.45","LF","f0xfptzqrg","1366","768","de","ay05em02","null","","","","learningBlock2","","","","<div style=""font-size:60px;""> </div>","null","LF","learning/Slide126.JPG","This is a tob:","",""
"","html-keyboard-response","386","803537","0.0-8.0-0.46","LF","f0xfptzqrg","1366","768","de","ay05em02","null","","","","learningBlock2","","","","This is a dep:","null","","","","",""
"","image-keyboard-response","387","803865","0.0-8.0-1.46","LF","f0xfptzqrg","1366","768","de","ay05em02","null","","","","","","","","learning/Slide127.JPG","null","","","","",""
"","html-keyboard-response","388","804867","0.0-8.0-2.46","LF","f0xfptzqrg","1366","768","de","ay05em02","null","","","","learningBlock2","","","","<div style=""font-size:60px;""> </div>","null","LF","learning/Slide127.JPG","This is a dep:","",""
"","html-keyboard-response","389","805868","0.0-8.0-0.47","LF","f0xfptzqrg","1366","768","de","ay05em02","null","","","","learningBlock2","","","","This is a wug:","null","","","","",""
"","image-keyboard-response","390","806197","0.0-8.0-1.47","LF","f0xfptzqrg","1366","768","de","ay05em02","null","","","","","","","","learning/Slide128.JPG","null","","","","",""
"","html-keyboard-response","391","807198","0.0-8.0-2.47","LF","f0xfptzqrg","1366","768","de","ay05em02","null","","","","learningBlock2","","","","<div style=""font-size:60px;""> </div>","null","LF","learning/Slide128.JPG","This is a wug:","",""
"","html-keyboard-response","392","808199","0.0-8.0-0.48","LF","f0xfptzqrg","1366","768","de","ay05em02","null","","","","learningBlock2","","","","This is a tob:","null","","","","",""
"","image-keyboard-response","393","808528","0.0-8.0-1.48","LF","f0xfptzqrg","1366","768","de","ay05em02","null","","","","","","","","learning/Slide129.JPG","null","","","","",""
"","html-keyboard-response","394","809529","0.0-8.0-2.48","LF","f0xfptzqrg","1366","768","de","ay05em02","null","","","","learningBlock2","","","","<div style=""font-size:60px;""> </div>","null","LF","learning/Slide129.JPG","This is a tob:","",""
"","html-keyboard-response","395","810531","0.0-8.0-0.49","LF","f0xfptzqrg","1366","768","de","ay05em02","null","","","","learningBlock2","","","","This is a wug:","null","","","","",""
"","image-keyboard-response","396","810860","0.0-8.0-1.49","LF","f0xfptzqrg","1366","768","de","ay05em02","null","","","","","","","","learning/Slide130.JPG","null","","","","",""
"","html-keyboard-response","397","811864","0.0-8.0-2.49","LF","f0xfptzqrg","1366","768","de","ay05em02","null","","","","learningBlock2","","","","<div style=""font-size:60px;""> </div>","null","LF","learning/Slide130.JPG","This is a wug:","",""
"","html-keyboard-response","398","812865","0.0-8.0-0.50","LF","f0xfptzqrg","1366","768","de","ay05em02","null","","","","learningBlock2","","","","This is a bim:","null","","","","",""
"","image-keyboard-response","399","813193","0.0-8.0-1.50","LF","f0xfptzqrg","1366","768","de","ay05em02","null","","","","","","","","learning/Slide131.JPG","null","","","","",""
"","html-keyboard-response","400","814195","0.0-8.0-2.50","LF","f0xfptzqrg","1366","768","de","ay05em02","null","","","","learningBlock2","","","","<div style=""font-size:60px;""> </div>","null","LF","learning/Slide131.JPG","This is a bim:","",""
"","html-keyboard-response","401","815196","0.0-8.0-0.51","LF","f0xfptzqrg","1366","768","de","ay05em02","null","","","","learningBlock2","","","","This is a dep:","null","","","","",""
"","image-keyboard-response","402","815526","0.0-8.0-1.51","LF","f0xfptzqrg","1366","768","de","ay05em02","null","","","","","","","","learning/Slide132.JPG","null","","","","",""
"","html-keyboard-response","403","816528","0.0-8.0-2.51","LF","f0xfptzqrg","1366","768","de","ay05em02","null","","","","learningBlock2","","","","<div style=""font-size:60px;""> </div>","null","LF","learning/Slide132.JPG","This is a dep:","",""
"","html-keyboard-response","404","817536","0.0-8.0-0.52","LF","f0xfptzqrg","1366","768","de","ay05em02","null","","","","learningBlock2","","","","This is a tob:","null","","","","",""
"","image-keyboard-response","405","817863","0.0-8.0-1.52","LF","f0xfptzqrg","1366","768","de","ay05em02","null","","","","","","","","learning/Slide133.JPG","null","","","","",""
"","html-keyboard-response","406","818865","0.0-8.0-2.52","LF","f0xfptzqrg","1366","768","de","ay05em02","null","","","","learningBlock2","","","","<div style=""font-size:60px;""> </div>","null","LF","learning/Slide133.JPG","This is a tob:","",""
"","html-keyboard-response","407","819867","0.0-8.0-0.53","LF","f0xfptzqrg","1366","768","de","ay05em02","null","","","","learningBlock2","","","","This is a dep:","null","","","","",""
"","image-keyboard-response","408","820195","0.0-8.0-1.53","LF","f0xfptzqrg","1366","768","de","ay05em02","null","","","","","","","","learning/Slide134.JPG","null","","","","",""
"","html-keyboard-response","409","821196","0.0-8.0-2.53","LF","f0xfptzqrg","1366","768","de","ay05em02","null","","","","learningBlock2","","","","<div style=""font-size:60px;""> </div>","null","LF","learning/Slide134.JPG","This is a dep:","",""
"","html-keyboard-response","410","822197","0.0-8.0-0.54","LF","f0xfptzqrg","1366","768","de","ay05em02","null","","","","learningBlock2","","","","This is a tob:","null","","","","",""
"","image-keyboard-response","411","822525","0.0-8.0-1.54","LF","f0xfptzqrg","1366","768","de","ay05em02","null","","","","","","","","learning/Slide135.JPG","null","","","","",""
"","html-keyboard-response","412","823527","0.0-8.0-2.54","LF","f0xfptzqrg","1366","768","de","ay05em02","null","","","","learningBlock2","","","","<div style=""font-size:60px;""> </div>","null","LF","learning/Slide135.JPG","This is a tob:","",""
"","html-keyboard-response","413","824529","0.0-8.0-0.55","LF","f0xfptzqrg","1366","768","de","ay05em02","null","","","","learningBlock2","","","","This is a wug:","null","","","","",""
"","image-keyboard-response","414","824857","0.0-8.0-1.55","LF","f0xfptzqrg","1366","768","de","ay05em02","null","","","","","","","","learning/Slide136.JPG","null","","","","",""
"","html-keyboard-response","415","825859","0.0-8.0-2.55","LF","f0xfptzqrg","1366","768","de","ay05em02","null","","","","learningBlock2","","","","<div style=""font-size:60px;""> </div>","null","LF","learning/Slide136.JPG","This is a wug:","",""
"","html-keyboard-response","416","826861","0.0-8.0-0.56","LF","f0xfptzqrg","1366","768","de","ay05em02","null","","","","learningBlock2","","","","This is a tob:","null","","","","",""
"","image-keyboard-response","417","827189","0.0-8.0-1.56","LF","f0xfptzqrg","1366","768","de","ay05em02","null","","","","","","","","learning/Slide137.JPG","null","","","","",""
"","html-keyboard-response","418","828191","0.0-8.0-2.56","LF","f0xfptzqrg","1366","768","de","ay05em02","null","","","","learningBlock2","","","","<div style=""font-size:60px;""> </div>","null","LF","learning/Slide137.JPG","This is a tob:","",""
"","html-keyboard-response","419","829192","0.0-8.0-0.57","LF","f0xfptzqrg","1366","768","de","ay05em02","null","","","","learningBlock2","","","","This is a bim:","null","","","","",""
"","image-keyboard-response","420","829520","0.0-8.0-1.57","LF","f0xfptzqrg","1366","768","de","ay05em02","null","","","","","","","","learning/Slide138.JPG","null","","","","",""
"","html-keyboard-response","421","830523","0.0-8.0-2.57","LF","f0xfptzqrg","1366","768","de","ay05em02","null","","","","learningBlock2","","","","<div style=""font-size:60px;""> </div>","null","LF","learning/Slide138.JPG","This is a bim:","",""
"","html-keyboard-response","422","831526","0.0-8.0-0.58","LF","f0xfptzqrg","1366","768","de","ay05em02","null","","","","learningBlock2","","","","This is a wug:","null","","","","",""
"","image-keyboard-response","423","831853","0.0-8.0-1.58","LF","f0xfptzqrg","1366","768","de","ay05em02","null","","","","","","","","learning/Slide139.JPG","null","","","","",""
"","html-keyboard-response","424","832858","0.0-8.0-2.58","LF","f0xfptzqrg","1366","768","de","ay05em02","null","","","","learningBlock2","","","","<div style=""font-size:60px;""> </div>","null","LF","learning/Slide139.JPG","This is a wug:","",""
"","html-keyboard-response","425","833859","0.0-8.0-0.59","LF","f0xfptzqrg","1366","768","de","ay05em02","null","","","","learningBlock2","","","","This is a dep:","null","","","","",""
"","image-keyboard-response","426","834187","0.0-8.0-1.59","LF","f0xfptzqrg","1366","768","de","ay05em02","null","","","","","","","","learning/Slide140.JPG","null","","","","",""
"","html-keyboard-response","427","835189","0.0-8.0-2.59","LF","f0xfptzqrg","1366","768","de","ay05em02","null","","","","learningBlock2","","","","<div style=""font-size:60px;""> </div>","null","LF","learning/Slide140.JPG","This is a dep:","",""
"","html-keyboard-response","428","836191","0.0-8.0-0.60","LF","f0xfptzqrg","1366","768","de","ay05em02","null","","","","learningBlock2","","","","This is a tob:","null","","","","",""
"","image-keyboard-response","429","836519","0.0-8.0-1.60","LF","f0xfptzqrg","1366","768","de","ay05em02","null","","","","","","","","learning/Slide141.JPG","null","","","","",""
"","html-keyboard-response","430","837521","0.0-8.0-2.60","LF","f0xfptzqrg","1366","768","de","ay05em02","null","","","","learningBlock2","","","","<div style=""font-size:60px;""> </div>","null","LF","learning/Slide141.JPG","This is a tob:","",""
"","html-keyboard-response","431","838524","0.0-8.0-0.61","LF","f0xfptzqrg","1366","768","de","ay05em02","null","","","","learningBlock2","","","","This is a wug:","null","","","","",""
"","image-keyboard-response","432","838853","0.0-8.0-1.61","LF","f0xfptzqrg","1366","768","de","ay05em02","null","","","","","","","","learning/Slide142.JPG","null","","","","",""
"","html-keyboard-response","433","839855","0.0-8.0-2.61","LF","f0xfptzqrg","1366","768","de","ay05em02","null","","","","learningBlock2","","","","<div style=""font-size:60px;""> </div>","null","LF","learning/Slide142.JPG","This is a wug:","",""
"","html-keyboard-response","434","840856","0.0-8.0-0.62","LF","f0xfptzqrg","1366","768","de","ay05em02","null","","","","learningBlock2","","","","This is a bim:","null","","","","",""
"","image-keyboard-response","435","841183","0.0-8.0-1.62","LF","f0xfptzqrg","1366","768","de","ay05em02","null","","","","","","","","learning/Slide143.JPG","null","","","","",""
"","html-keyboard-response","436","842185","0.0-8.0-2.62","LF","f0xfptzqrg","1366","768","de","ay05em02","null","","","","learningBlock2","","","","<div style=""font-size:60px;""> </div>","null","LF","learning/Slide143.JPG","This is a bim:","",""
"","html-keyboard-response","437","843186","0.0-8.0-0.63","LF","f0xfptzqrg","1366","768","de","ay05em02","null","","","","learningBlock2","","","","This is a dep:","null","","","","",""
"","image-keyboard-response","438","843514","0.0-8.0-1.63","LF","f0xfptzqrg","1366","768","de","ay05em02","null","","","","","","","","learning/Slide144.JPG","null","","","","",""
"","html-keyboard-response","439","844516","0.0-8.0-2.63","LF","f0xfptzqrg","1366","768","de","ay05em02","null","","","","learningBlock2","","","","<div style=""font-size:60px;""> </div>","null","LF","learning/Slide144.JPG","This is a dep:","",""
"","html-keyboard-response","440","845518","0.0-8.0-0.64","LF","f0xfptzqrg","1366","768","de","ay05em02","null","","","","learningBlock2","","","","This is a bim:","null","","","","",""
"","image-keyboard-response","441","845846","0.0-8.0-1.64","LF","f0xfptzqrg","1366","768","de","ay05em02","null","","","","","","","","learning/Slide145.JPG","null","","","","",""
"","html-keyboard-response","442","846847","0.0-8.0-2.64","LF","f0xfptzqrg","1366","768","de","ay05em02","null","","","","learningBlock2","","","","<div style=""font-size:60px;""> </div>","null","LF","learning/Slide145.JPG","This is a bim:","",""
"","html-keyboard-response","443","847855","0.0-8.0-0.65","LF","f0xfptzqrg","1366","768","de","ay05em02","null","","","","learningBlock2","","","","This is a tob:","null","","","","",""
"","image-keyboard-response","444","848184","0.0-8.0-1.65","LF","f0xfptzqrg","1366","768","de","ay05em02","null","","","","","","","","learning/Slide146.JPG","null","","","","",""
"","html-keyboard-response","445","849187","0.0-8.0-2.65","LF","f0xfptzqrg","1366","768","de","ay05em02","null","","","","learningBlock2","","","","<div style=""font-size:60px;""> </div>","null","LF","learning/Slide146.JPG","This is a tob:","",""
"","html-keyboard-response","446","850189","0.0-8.0-0.66","LF","f0xfptzqrg","1366","768","de","ay05em02","null","","","","learningBlock2","","","","This is a wug:","null","","","","",""
"","image-keyboard-response","447","850517","0.0-8.0-1.66","LF","f0xfptzqrg","1366","768","de","ay05em02","null","","","","","","","","learning/Slide147.JPG","null","","","","",""
"","html-keyboard-response","448","851519","0.0-8.0-2.66","LF","f0xfptzqrg","1366","768","de","ay05em02","null","","","","learningBlock2","","","","<div style=""font-size:60px;""> </div>","null","LF","learning/Slide147.JPG","This is a wug:","",""
"","html-keyboard-response","449","852522","0.0-8.0-0.67","LF","f0xfptzqrg","1366","768","de","ay05em02","null","","","","learningBlock2","","","","This is a bim:","null","","","","",""
"","image-keyboard-response","450","852849","0.0-8.0-1.67","LF","f0xfptzqrg","1366","768","de","ay05em02","null","","","","","","","","learning/Slide148.JPG","null","","","","",""
"","html-keyboard-response","451","853851","0.0-8.0-2.67","LF","f0xfptzqrg","1366","768","de","ay05em02","null","","","","learningBlock2","","","","<div style=""font-size:60px;""> </div>","null","LF","learning/Slide148.JPG","This is a bim:","",""
"","html-keyboard-response","452","854852","0.0-8.0-0.68","LF","f0xfptzqrg","1366","768","de","ay05em02","null","","","","learningBlock2","","","","This is a dep:","null","","","","",""
"","image-keyboard-response","453","855181","0.0-8.0-1.68","LF","f0xfptzqrg","1366","768","de","ay05em02","null","","","","","","","","learning/Slide149.JPG","null","","","","",""
"","html-keyboard-response","454","856183","0.0-8.0-2.68","LF","f0xfptzqrg","1366","768","de","ay05em02","null","","","","learningBlock2","","","","<div style=""font-size:60px;""> </div>","null","LF","learning/Slide149.JPG","This is a dep:","",""
"","html-keyboard-response","455","857185","0.0-8.0-0.69","LF","f0xfptzqrg","1366","768","de","ay05em02","null","","","","learningBlock2","","","","This is a wug:","null","","","","",""
"","image-keyboard-response","456","857513","0.0-8.0-1.69","LF","f0xfptzqrg","1366","768","de","ay05em02","null","","","","","","","","learning/Slide150.JPG","null","","","","",""
"","html-keyboard-response","457","858515","0.0-8.0-2.69","LF","f0xfptzqrg","1366","768","de","ay05em02","null","","","","learningBlock2","","","","<div style=""font-size:60px;""> </div>","null","LF","learning/Slide150.JPG","This is a wug:","",""
"","html-keyboard-response","458","859515","0.0-8.0-0.70","LF","f0xfptzqrg","1366","768","de","ay05em02","null","","","","learningBlock2","","","","This is a dep:","null","","","","",""
"","image-keyboard-response","459","859844","0.0-8.0-1.70","LF","f0xfptzqrg","1366","768","de","ay05em02","null","","","","","","","","learning/Slide151.JPG","null","","","","",""
"","html-keyboard-response","460","860846","0.0-8.0-2.70","LF","f0xfptzqrg","1366","768","de","ay05em02","null","","","","learningBlock2","","","","<div style=""font-size:60px;""> </div>","null","LF","learning/Slide151.JPG","This is a dep:","",""
"","html-keyboard-response","461","861848","0.0-8.0-0.71","LF","f0xfptzqrg","1366","768","de","ay05em02","null","","","","learningBlock2","","","","This is a wug:","null","","","","",""
"","image-keyboard-response","462","862176","0.0-8.0-1.71","LF","f0xfptzqrg","1366","768","de","ay05em02","null","","","","","","","","learning/Slide152.JPG","null","","","","",""
"","html-keyboard-response","463","863179","0.0-8.0-2.71","LF","f0xfptzqrg","1366","768","de","ay05em02","null","","","","learningBlock2","","","","<div style=""font-size:60px;""> </div>","null","LF","learning/Slide152.JPG","This is a wug:","",""
"","html-keyboard-response","464","864180","0.0-8.0-0.72","LF","f0xfptzqrg","1366","768","de","ay05em02","null","","","","learningBlock2","","","","This is a bim:","null","","","","",""
"","image-keyboard-response","465","864509","0.0-8.0-1.72","LF","f0xfptzqrg","1366","768","de","ay05em02","null","","","","","","","","learning/Slide153.JPG","null","","","","",""
"","html-keyboard-response","466","865510","0.0-8.0-2.72","LF","f0xfptzqrg","1366","768","de","ay05em02","null","","","","learningBlock2","","","","<div style=""font-size:60px;""> </div>","null","LF","learning/Slide153.JPG","This is a bim:","",""
"","html-keyboard-response","467","866512","0.0-8.0-0.73","LF","f0xfptzqrg","1366","768","de","ay05em02","null","","","","learningBlock2","","","","This is a tob:","null","","","","",""
"","image-keyboard-response","468","866840","0.0-8.0-1.73","LF","f0xfptzqrg","1366","768","de","ay05em02","null","","","","","","","","learning/Slide154.JPG","null","","","","",""
"","html-keyboard-response","469","867842","0.0-8.0-2.73","LF","f0xfptzqrg","1366","768","de","ay05em02","null","","","","learningBlock2","","","","<div style=""font-size:60px;""> </div>","null","LF","learning/Slide154.JPG","This is a tob:","",""
"","html-keyboard-response","470","868845","0.0-8.0-0.74","LF","f0xfptzqrg","1366","768","de","ay05em02","null","","","","learningBlock2","","","","This is a dep:","null","","","","",""
"","image-keyboard-response","471","869173","0.0-8.0-1.74","LF","f0xfptzqrg","1366","768","de","ay05em02","null","","","","","","","","learning/Slide155.JPG","null","","","","",""
"","html-keyboard-response","472","870175","0.0-8.0-2.74","LF","f0xfptzqrg","1366","768","de","ay05em02","null","","","","learningBlock2","","","","<div style=""font-size:60px;""> </div>","null","LF","learning/Slide155.JPG","This is a dep:","",""
"","html-keyboard-response","473","871176","0.0-8.0-0.75","LF","f0xfptzqrg","1366","768","de","ay05em02","null","","","","learningBlock2","","","","This is a bim:","null","","","","",""
"","image-keyboard-response","474","871505","0.0-8.0-1.75","LF","f0xfptzqrg","1366","768","de","ay05em02","null","","","","","","","","learning/Slide156.JPG","null","","","","",""
"","html-keyboard-response","475","872507","0.0-8.0-2.75","LF","f0xfptzqrg","1366","768","de","ay05em02","null","","","","learningBlock2","","","","<div style=""font-size:60px;""> </div>","null","LF","learning/Slide156.JPG","This is a bim:","",""
"","html-keyboard-response","476","873509","0.0-8.0-0.76","LF","f0xfptzqrg","1366","768","de","ay05em02","null","","","","learningBlock2","","","","This is a dep:","null","","","","",""
"","image-keyboard-response","477","873837","0.0-8.0-1.76","LF","f0xfptzqrg","1366","768","de","ay05em02","null","","","","","","","","learning/Slide157.JPG","null","","","","",""
"","html-keyboard-response","478","874839","0.0-8.0-2.76","LF","f0xfptzqrg","1366","768","de","ay05em02","null","","","","learningBlock2","","","","<div style=""font-size:60px;""> </div>","null","LF","learning/Slide157.JPG","This is a dep:","",""
"","html-keyboard-response","479","875842","0.0-8.0-0.77","LF","f0xfptzqrg","1366","768","de","ay05em02","null","","","","learningBlock2","","","","This is a tob:","null","","","","",""
"","image-keyboard-response","480","876170","0.0-8.0-1.77","LF","f0xfptzqrg","1366","768","de","ay05em02","null","","","","","","","","learning/Slide158.JPG","null","","","","",""
"","html-keyboard-response","481","877172","0.0-8.0-2.77","LF","f0xfptzqrg","1366","768","de","ay05em02","null","","","","learningBlock2","","","","<div style=""font-size:60px;""> </div>","null","LF","learning/Slide158.JPG","This is a tob:","",""
"","html-keyboard-response","482","878174","0.0-8.0-0.78","LF","f0xfptzqrg","1366","768","de","ay05em02","null","","","","learningBlock2","","","","This is a dep:","null","","","","",""
"","image-keyboard-response","483","878502","0.0-8.0-1.78","LF","f0xfptzqrg","1366","768","de","ay05em02","null","","","","","","","","learning/Slide159.JPG","null","","","","",""
"","html-keyboard-response","484","879505","0.0-8.0-2.78","LF","f0xfptzqrg","1366","768","de","ay05em02","null","","","","learningBlock2","","","","<div style=""font-size:60px;""> </div>","null","LF","learning/Slide159.JPG","This is a dep:","",""
"","html-keyboard-response","485","880508","0.0-8.0-0.79","LF","f0xfptzqrg","1366","768","de","ay05em02","null","","","","learningBlock2","","","","This is a wug:","null","","","","",""
"","image-keyboard-response","486","880836","0.0-8.0-1.79","LF","f0xfptzqrg","1366","768","de","ay05em02","null","","","","","","","","learning/Slide160.JPG","null","","","","",""
"","html-keyboard-response","487","881838","0.0-8.0-2.79","LF","f0xfptzqrg","1366","768","de","ay05em02","null","","","","learningBlock2","","","","<div style=""font-size:60px;""> </div>","null","LF","learning/Slide160.JPG","This is a wug:","",""
"","resize2","488","912693","0.0-9.0","LF","f0xfptzqrg","1366","768","de","ay05em02","","","","","","","104","1.04","","","","","","",""
"","instructions","489","931086","0.0-10.0","LF","f0xfptzqrg","1366","768","de","ay05em02","NA","","","[{""page_index"":0,""viewing_time"":18391.94000000134}]","instructions","","","","","","","","","",""
