"success","trial_type","trial_index","time_elapsed","internal_node_id","condition","subject","screen_width","screen_height","language","codeword","rt","responses","url","view_history","test_part","final_height_px","final_width_px","scale_factor","stimulus","key_press","learningType","presentedImage","presentedLabel","button_pressed","response"
"true","fullscreen","0","11002","0.0-0.0","FL","emk1tsfc0c","1280","720","en","dt05as10","","","","","","","","","","","","","","",""
"","survey-html-form","1","27932","0.0-1.0","FL","emk1tsfc0c","1280","720","en","dt05as10","16923","{""language"":""en""}","","","","","","","","","","","","",""
"","external-html","2","202390","0.0-3.0-0.0","FL","emk1tsfc0c","1280","720","en","dt05as10","174368","","text/information_english.html","","","","","","","","","","","",""
"","external-html","3","281002","0.0-3.0-1.0","FL","emk1tsfc0c","1280","720","en","dt05as10","78513","","text/consent_english.html","","","","","","","","","","","",""
"","survey-html-form","4","386981","0.0-3.0-2.0","FL","emk1tsfc0c","1280","720","en","dt05as10","105973","{""codeword_enter"":""dt05as10""}","","","","","","","","","","","","",""
"","instructions","5","423502","0.0-4.0","FL","emk1tsfc0c","1280","720","en","dt05as10","NA","","","[{""page_index"":0,""viewing_time"":6267},{""page_index"":1,""viewing_time"":28742}]","instructions","","","","","","","","","",""
"","resize","6","524974","0.0-5.0","FL","emk1tsfc0c","1280","720","en","dt05as10","","","","","","","380","2.4126984126984126","","","","","","",""
"","image-keyboard-response","7","525166","0.0-6.0-0.0","FL","emk1tsfc0c","1280","720","en","dt05as10","null","","","","","","","","learning/Slide1.JPG","null","","","","",""
"","html-keyboard-response","8","526336","0.0-6.0-1.0","FL","emk1tsfc0c","1280","720","en","dt05as10","null","","","","learningBlock1","","","","That was a tob.","null","","","","",""
"","html-keyboard-response","9","527342","0.0-6.0-2.0","FL","emk1tsfc0c","1280","720","en","dt05as10","null","","","","learningBlock1","","","","<div style=""font-size:60px;""> </div>","null","FL","learning/Slide1.JPG","That was a tob.","",""
"","image-keyboard-response","10","527533","0.0-6.0-0.1","FL","emk1tsfc0c","1280","720","en","dt05as10","null","","","","","","","","learning/Slide2.JPG","null","","","","",""
"","html-keyboard-response","11","528713","0.0-6.0-1.1","FL","emk1tsfc0c","1280","720","en","dt05as10","null","","","","learningBlock1","","","","That was a wug.","null","","","","",""
"","html-keyboard-response","12","529724","0.0-6.0-2.1","FL","emk1tsfc0c","1280","720","en","dt05as10","null","","","","learningBlock1","","","","<div style=""font-size:60px;""> </div>","null","FL","learning/Slide2.JPG","That was a wug.","",""
"","image-keyboard-response","13","529913","0.0-6.0-0.2","FL","emk1tsfc0c","1280","720","en","dt05as10","null","","","","","","","","learning/Slide3.JPG","null","","","","",""
"","html-keyboard-response","14","531093","0.0-6.0-1.2","FL","emk1tsfc0c","1280","720","en","dt05as10","null","","","","learningBlock1","","","","That was a bim.","null","","","","",""
"","html-keyboard-response","15","532113","0.0-6.0-2.2","FL","emk1tsfc0c","1280","720","en","dt05as10","null","","","","learningBlock1","","","","<div style=""font-size:60px;""> </div>","null","FL","learning/Slide3.JPG","That was a bim.","",""
"","image-keyboard-response","16","532303","0.0-6.0-0.3","FL","emk1tsfc0c","1280","720","en","dt05as10","null","","","","","","","","learning/Slide4.JPG","null","","","","",""
"","html-keyboard-response","17","533483","0.0-6.0-1.3","FL","emk1tsfc0c","1280","720","en","dt05as10","null","","","","learningBlock1","","","","That was a dep.","null","","","","",""
"","html-keyboard-response","18","534493","0.0-6.0-2.3","FL","emk1tsfc0c","1280","720","en","dt05as10","null","","","","learningBlock1","","","","<div style=""font-size:60px;""> </div>","null","FL","learning/Slide4.JPG","That was a dep.","",""
"","image-keyboard-response","19","534672","0.0-6.0-0.4","FL","emk1tsfc0c","1280","720","en","dt05as10","null","","","","","","","","learning/Slide5.JPG","null","","","","",""
"","html-keyboard-response","20","535853","0.0-6.0-1.4","FL","emk1tsfc0c","1280","720","en","dt05as10","null","","","","learningBlock1","","","","That was a wug.","null","","","","",""
"","html-keyboard-response","21","536874","0.0-6.0-2.4","FL","emk1tsfc0c","1280","720","en","dt05as10","null","","","","learningBlock1","","","","<div style=""font-size:60px;""> </div>","null","FL","learning/Slide5.JPG","That was a wug.","",""
"","image-keyboard-response","22","537064","0.0-6.0-0.5","FL","emk1tsfc0c","1280","720","en","dt05as10","null","","","","","","","","learning/Slide6.JPG","null","","","","",""
"","html-keyboard-response","23","538243","0.0-6.0-1.5","FL","emk1tsfc0c","1280","720","en","dt05as10","null","","","","learningBlock1","","","","That was a dep.","null","","","","",""
"","html-keyboard-response","24","539263","0.0-6.0-2.5","FL","emk1tsfc0c","1280","720","en","dt05as10","null","","","","learningBlock1","","","","<div style=""font-size:60px;""> </div>","null","FL","learning/Slide6.JPG","That was a dep.","",""
"","image-keyboard-response","25","539453","0.0-6.0-0.6","FL","emk1tsfc0c","1280","720","en","dt05as10","null","","","","","","","","learning/Slide7.JPG","null","","","","",""
"","html-keyboard-response","26","540623","0.0-6.0-1.6","FL","emk1tsfc0c","1280","720","en","dt05as10","null","","","","learningBlock1","","","","That was a wug.","null","","","","",""
"","html-keyboard-response","27","541643","0.0-6.0-2.6","FL","emk1tsfc0c","1280","720","en","dt05as10","null","","","","learningBlock1","","","","<div style=""font-size:60px;""> </div>","null","FL","learning/Slide7.JPG","That was a wug.","",""
"","image-keyboard-response","28","541834","0.0-6.0-0.7","FL","emk1tsfc0c","1280","720","en","dt05as10","null","","","","","","","","learning/Slide8.JPG","null","","","","",""
"","html-keyboard-response","29","543013","0.0-6.0-1.7","FL","emk1tsfc0c","1280","720","en","dt05as10","null","","","","learningBlock1","","","","That was a bim.","null","","","","",""
"","html-keyboard-response","30","544033","0.0-6.0-2.7","FL","emk1tsfc0c","1280","720","en","dt05as10","null","","","","learningBlock1","","","","<div style=""font-size:60px;""> </div>","null","FL","learning/Slide8.JPG","That was a bim.","",""
"","image-keyboard-response","31","544224","0.0-6.0-0.8","FL","emk1tsfc0c","1280","720","en","dt05as10","null","","","","","","","","learning/Slide9.JPG","null","","","","",""
"","html-keyboard-response","32","545393","0.0-6.0-1.8","FL","emk1tsfc0c","1280","720","en","dt05as10","null","","","","learningBlock1","","","","That was a wug.","null","","","","",""
"","html-keyboard-response","33","546403","0.0-6.0-2.8","FL","emk1tsfc0c","1280","720","en","dt05as10","null","","","","learningBlock1","","","","<div style=""font-size:60px;""> </div>","null","FL","learning/Slide9.JPG","That was a wug.","",""
"","image-keyboard-response","34","546593","0.0-6.0-0.9","FL","emk1tsfc0c","1280","720","en","dt05as10","null","","","","","","","","learning/Slide10.JPG","null","","","","",""
"","html-keyboard-response","35","547762","0.0-6.0-1.9","FL","emk1tsfc0c","1280","720","en","dt05as10","null","","","","learningBlock1","","","","That was a dep.","null","","","","",""
"","html-keyboard-response","36","548784","0.0-6.0-2.9","FL","emk1tsfc0c","1280","720","en","dt05as10","null","","","","learningBlock1","","","","<div style=""font-size:60px;""> </div>","null","FL","learning/Slide10.JPG","That was a dep.","",""
"","image-keyboard-response","37","548973","0.0-6.0-0.10","FL","emk1tsfc0c","1280","720","en","dt05as10","null","","","","","","","","learning/Slide11.JPG","null","","","","",""
"","html-keyboard-response","38","550143","0.0-6.0-1.10","FL","emk1tsfc0c","1280","720","en","dt05as10","null","","","","learningBlock1","","","","That was a tob.","null","","","","",""
"","html-keyboard-response","39","551163","0.0-6.0-2.10","FL","emk1tsfc0c","1280","720","en","dt05as10","null","","","","learningBlock1","","","","<div style=""font-size:60px;""> </div>","null","FL","learning/Slide11.JPG","That was a tob.","",""
"","image-keyboard-response","40","551353","0.0-6.0-0.11","FL","emk1tsfc0c","1280","720","en","dt05as10","null","","","","","","","","learning/Slide12.JPG","null","","","","",""
"","html-keyboard-response","41","552529","0.0-6.0-1.11","FL","emk1tsfc0c","1280","720","en","dt05as10","null","","","","learningBlock1","","","","That was a dep.","null","","","","",""
"","html-keyboard-response","42","553533","0.0-6.0-2.11","FL","emk1tsfc0c","1280","720","en","dt05as10","null","","","","learningBlock1","","","","<div style=""font-size:60px;""> </div>","null","FL","learning/Slide12.JPG","That was a dep.","",""
"","image-keyboard-response","43","553723","0.0-6.0-0.12","FL","emk1tsfc0c","1280","720","en","dt05as10","null","","","","","","","","learning/Slide13.JPG","null","","","","",""
"","html-keyboard-response","44","554892","0.0-6.0-1.12","FL","emk1tsfc0c","1280","720","en","dt05as10","null","","","","learningBlock1","","","","That was a bim.","null","","","","",""
"","html-keyboard-response","45","555913","0.0-6.0-2.12","FL","emk1tsfc0c","1280","720","en","dt05as10","null","","","","learningBlock1","","","","<div style=""font-size:60px;""> </div>","null","FL","learning/Slide13.JPG","That was a bim.","",""
"","image-keyboard-response","46","556103","0.0-6.0-0.13","FL","emk1tsfc0c","1280","720","en","dt05as10","null","","","","","","","","learning/Slide14.JPG","null","","","","",""
"","html-keyboard-response","47","557282","0.0-6.0-1.13","FL","emk1tsfc0c","1280","720","en","dt05as10","null","","","","learningBlock1","","","","That was a wug.","null","","","","",""
"","html-keyboard-response","48","558303","0.0-6.0-2.13","FL","emk1tsfc0c","1280","720","en","dt05as10","null","","","","learningBlock1","","","","<div style=""font-size:60px;""> </div>","null","FL","learning/Slide14.JPG","That was a wug.","",""
"","image-keyboard-response","49","558493","0.0-6.0-0.14","FL","emk1tsfc0c","1280","720","en","dt05as10","null","","","","","","","","learning/Slide15.JPG","null","","","","",""
"","html-keyboard-response","50","559673","0.0-6.0-1.14","FL","emk1tsfc0c","1280","720","en","dt05as10","null","","","","learningBlock1","","","","That was a tob.","null","","","","",""
"","html-keyboard-response","51","560682","0.0-6.0-2.14","FL","emk1tsfc0c","1280","720","en","dt05as10","null","","","","learningBlock1","","","","<div style=""font-size:60px;""> </div>","null","FL","learning/Slide15.JPG","That was a tob.","",""
"","image-keyboard-response","52","560873","0.0-6.0-0.15","FL","emk1tsfc0c","1280","720","en","dt05as10","null","","","","","","","","learning/Slide16.JPG","null","","","","",""
"","html-keyboard-response","53","562052","0.0-6.0-1.15","FL","emk1tsfc0c","1280","720","en","dt05as10","null","","","","learningBlock1","","","","That was a dep.","null","","","","",""
"","html-keyboard-response","54","563063","0.0-6.0-2.15","FL","emk1tsfc0c","1280","720","en","dt05as10","null","","","","learningBlock1","","","","<div style=""font-size:60px;""> </div>","null","FL","learning/Slide16.JPG","That was a dep.","",""
"","image-keyboard-response","55","563242","0.0-6.0-0.16","FL","emk1tsfc0c","1280","720","en","dt05as10","null","","","","","","","","learning/Slide17.JPG","null","","","","",""
"","html-keyboard-response","56","564422","0.0-6.0-1.16","FL","emk1tsfc0c","1280","720","en","dt05as10","null","","","","learningBlock1","","","","That was a bim.","null","","","","",""
"","html-keyboard-response","57","565442","0.0-6.0-2.16","FL","emk1tsfc0c","1280","720","en","dt05as10","null","","","","learningBlock1","","","","<div style=""font-size:60px;""> </div>","null","FL","learning/Slide17.JPG","That was a bim.","",""
"","image-keyboard-response","58","565630","0.0-6.0-0.17","FL","emk1tsfc0c","1280","720","en","dt05as10","null","","","","","","","","learning/Slide18.JPG","null","","","","",""
"","html-keyboard-response","59","566813","0.0-6.0-1.17","FL","emk1tsfc0c","1280","720","en","dt05as10","null","","","","learningBlock1","","","","That was a tob.","null","","","","",""
"","html-keyboard-response","60","567822","0.0-6.0-2.17","FL","emk1tsfc0c","1280","720","en","dt05as10","null","","","","learningBlock1","","","","<div style=""font-size:60px;""> </div>","null","FL","learning/Slide18.JPG","That was a tob.","",""
"","image-keyboard-response","61","568002","0.0-6.0-0.18","FL","emk1tsfc0c","1280","720","en","dt05as10","null","","","","","","","","learning/Slide19.JPG","null","","","","",""
"","html-keyboard-response","62","569172","0.0-6.0-1.18","FL","emk1tsfc0c","1280","720","en","dt05as10","null","","","","learningBlock1","","","","That was a wug.","null","","","","",""
"","html-keyboard-response","63","570193","0.0-6.0-2.18","FL","emk1tsfc0c","1280","720","en","dt05as10","null","","","","learningBlock1","","","","<div style=""font-size:60px;""> </div>","null","FL","learning/Slide19.JPG","That was a wug.","",""
"","image-keyboard-response","64","570383","0.0-6.0-0.19","FL","emk1tsfc0c","1280","720","en","dt05as10","null","","","","","","","","learning/Slide20.JPG","null","","","","",""
"","html-keyboard-response","65","571563","0.0-6.0-1.19","FL","emk1tsfc0c","1280","720","en","dt05as10","null","","","","learningBlock1","","","","That was a bim.","null","","","","",""
"","html-keyboard-response","66","572582","0.0-6.0-2.19","FL","emk1tsfc0c","1280","720","en","dt05as10","null","","","","learningBlock1","","","","<div style=""font-size:60px;""> </div>","null","FL","learning/Slide20.JPG","That was a bim.","",""
"","image-keyboard-response","67","572773","0.0-6.0-0.20","FL","emk1tsfc0c","1280","720","en","dt05as10","null","","","","","","","","learning/Slide21.JPG","null","","","","",""
"","html-keyboard-response","68","573952","0.0-6.0-1.20","FL","emk1tsfc0c","1280","720","en","dt05as10","null","","","","learningBlock1","","","","That was a dep.","null","","","","",""
"","html-keyboard-response","69","574958","0.0-6.0-2.20","FL","emk1tsfc0c","1280","720","en","dt05as10","null","","","","learningBlock1","","","","<div style=""font-size:60px;""> </div>","null","FL","learning/Slide21.JPG","That was a dep.","",""
"","image-keyboard-response","70","575148","0.0-6.0-0.21","FL","emk1tsfc0c","1280","720","en","dt05as10","null","","","","","","","","learning/Slide22.JPG","null","","","","",""
"","html-keyboard-response","71","576322","0.0-6.0-1.21","FL","emk1tsfc0c","1280","720","en","dt05as10","null","","","","learningBlock1","","","","That was a bim.","null","","","","",""
"","html-keyboard-response","72","577343","0.0-6.0-2.21","FL","emk1tsfc0c","1280","720","en","dt05as10","null","","","","learningBlock1","","","","<div style=""font-size:60px;""> </div>","null","FL","learning/Slide22.JPG","That was a bim.","",""
"","image-keyboard-response","73","577533","0.0-6.0-0.22","FL","emk1tsfc0c","1280","720","en","dt05as10","null","","","","","","","","learning/Slide23.JPG","null","","","","",""
"","html-keyboard-response","74","578713","0.0-6.0-1.22","FL","emk1tsfc0c","1280","720","en","dt05as10","null","","","","learningBlock1","","","","That was a tob.","null","","","","",""
"","html-keyboard-response","75","579723","0.0-6.0-2.22","FL","emk1tsfc0c","1280","720","en","dt05as10","null","","","","learningBlock1","","","","<div style=""font-size:60px;""> </div>","null","FL","learning/Slide23.JPG","That was a tob.","",""
"","image-keyboard-response","76","579913","0.0-6.0-0.23","FL","emk1tsfc0c","1280","720","en","dt05as10","null","","","","","","","","learning/Slide24.JPG","null","","","","",""
"","html-keyboard-response","77","581093","0.0-6.0-1.23","FL","emk1tsfc0c","1280","720","en","dt05as10","null","","","","learningBlock1","","","","That was a wug.","null","","","","",""
"","html-keyboard-response","78","582113","0.0-6.0-2.23","FL","emk1tsfc0c","1280","720","en","dt05as10","null","","","","learningBlock1","","","","<div style=""font-size:60px;""> </div>","null","FL","learning/Slide24.JPG","That was a wug.","",""
"","image-keyboard-response","79","582292","0.0-6.0-0.24","FL","emk1tsfc0c","1280","720","en","dt05as10","null","","","","","","","","learning/Slide25.JPG","null","","","","",""
"","html-keyboard-response","80","583463","0.0-6.0-1.24","FL","emk1tsfc0c","1280","720","en","dt05as10","null","","","","learningBlock1","","","","That was a dep.","null","","","","",""
"","html-keyboard-response","81","584472","0.0-6.0-2.24","FL","emk1tsfc0c","1280","720","en","dt05as10","null","","","","learningBlock1","","","","<div style=""font-size:60px;""> </div>","null","FL","learning/Slide25.JPG","That was a dep.","",""
"","image-keyboard-response","82","584663","0.0-6.0-0.25","FL","emk1tsfc0c","1280","720","en","dt05as10","null","","","","","","","","learning/Slide26.JPG","null","","","","",""
"","html-keyboard-response","83","585833","0.0-6.0-1.25","FL","emk1tsfc0c","1280","720","en","dt05as10","null","","","","learningBlock1","","","","That was a wug.","null","","","","",""
"","html-keyboard-response","84","586853","0.0-6.0-2.25","FL","emk1tsfc0c","1280","720","en","dt05as10","null","","","","learningBlock1","","","","<div style=""font-size:60px;""> </div>","null","FL","learning/Slide26.JPG","That was a wug.","",""
"","image-keyboard-response","85","587043","0.0-6.0-0.26","FL","emk1tsfc0c","1280","720","en","dt05as10","null","","","","","","","","learning/Slide27.JPG","null","","","","",""
"","html-keyboard-response","86","588213","0.0-6.0-1.26","FL","emk1tsfc0c","1280","720","en","dt05as10","null","","","","learningBlock1","","","","That was a bim.","null","","","","",""
"","html-keyboard-response","87","589233","0.0-6.0-2.26","FL","emk1tsfc0c","1280","720","en","dt05as10","null","","","","learningBlock1","","","","<div style=""font-size:60px;""> </div>","null","FL","learning/Slide27.JPG","That was a bim.","",""
"","image-keyboard-response","88","589423","0.0-6.0-0.27","FL","emk1tsfc0c","1280","720","en","dt05as10","null","","","","","","","","learning/Slide28.JPG","null","","","","",""
"","html-keyboard-response","89","590603","0.0-6.0-1.27","FL","emk1tsfc0c","1280","720","en","dt05as10","null","","","","learningBlock1","","","","That was a dep.","null","","","","",""
"","html-keyboard-response","90","591622","0.0-6.0-2.27","FL","emk1tsfc0c","1280","720","en","dt05as10","null","","","","learningBlock1","","","","<div style=""font-size:60px;""> </div>","null","FL","learning/Slide28.JPG","That was a dep.","",""
"","image-keyboard-response","91","591802","0.0-6.0-0.28","FL","emk1tsfc0c","1280","720","en","dt05as10","null","","","","","","","","learning/Slide29.JPG","null","","","","",""
"","html-keyboard-response","92","592972","0.0-6.0-1.28","FL","emk1tsfc0c","1280","720","en","dt05as10","null","","","","learningBlock1","","","","That was a tob.","null","","","","",""
"","html-keyboard-response","93","593992","0.0-6.0-2.28","FL","emk1tsfc0c","1280","720","en","dt05as10","null","","","","learningBlock1","","","","<div style=""font-size:60px;""> </div>","null","FL","learning/Slide29.JPG","That was a tob.","",""
"","image-keyboard-response","94","594183","0.0-6.0-0.29","FL","emk1tsfc0c","1280","720","en","dt05as10","null","","","","","","","","learning/Slide30.JPG","null","","","","",""
"","html-keyboard-response","95","595363","0.0-6.0-1.29","FL","emk1tsfc0c","1280","720","en","dt05as10","null","","","","learningBlock1","","","","That was a dep.","null","","","","",""
"","html-keyboard-response","96","596373","0.0-6.0-2.29","FL","emk1tsfc0c","1280","720","en","dt05as10","null","","","","learningBlock1","","","","<div style=""font-size:60px;""> </div>","null","FL","learning/Slide30.JPG","That was a dep.","",""
"","image-keyboard-response","97","596564","0.0-6.0-0.30","FL","emk1tsfc0c","1280","720","en","dt05as10","null","","","","","","","","learning/Slide31.JPG","null","","","","",""
"","html-keyboard-response","98","597743","0.0-6.0-1.30","FL","emk1tsfc0c","1280","720","en","dt05as10","null","","","","learningBlock1","","","","That was a wug.","null","","","","",""
"","html-keyboard-response","99","598763","0.0-6.0-2.30","FL","emk1tsfc0c","1280","720","en","dt05as10","null","","","","learningBlock1","","","","<div style=""font-size:60px;""> </div>","null","FL","learning/Slide31.JPG","That was a wug.","",""
"","image-keyboard-response","100","598953","0.0-6.0-0.31","FL","emk1tsfc0c","1280","720","en","dt05as10","null","","","","","","","","learning/Slide32.JPG","null","","","","",""
"","html-keyboard-response","101","600123","0.0-6.0-1.31","FL","emk1tsfc0c","1280","720","en","dt05as10","null","","","","learningBlock1","","","","That was a tob.","null","","","","",""
"","html-keyboard-response","102","601133","0.0-6.0-2.31","FL","emk1tsfc0c","1280","720","en","dt05as10","null","","","","learningBlock1","","","","<div style=""font-size:60px;""> </div>","null","FL","learning/Slide32.JPG","That was a tob.","",""
"","image-keyboard-response","103","601324","0.0-6.0-0.32","FL","emk1tsfc0c","1280","720","en","dt05as10","null","","","","","","","","learning/Slide33.JPG","null","","","","",""
"","html-keyboard-response","104","602493","0.0-6.0-1.32","FL","emk1tsfc0c","1280","720","en","dt05as10","null","","","","learningBlock1","","","","That was a bim.","null","","","","",""
"","html-keyboard-response","105","603503","0.0-6.0-2.32","FL","emk1tsfc0c","1280","720","en","dt05as10","null","","","","learningBlock1","","","","<div style=""font-size:60px;""> </div>","null","FL","learning/Slide33.JPG","That was a bim.","",""
"","image-keyboard-response","106","603693","0.0-6.0-0.33","FL","emk1tsfc0c","1280","720","en","dt05as10","null","","","","","","","","learning/Slide34.JPG","null","","","","",""
"","html-keyboard-response","107","604874","0.0-6.0-1.33","FL","emk1tsfc0c","1280","720","en","dt05as10","null","","","","learningBlock1","","","","That was a tob.","null","","","","",""
"","html-keyboard-response","108","605892","0.0-6.0-2.33","FL","emk1tsfc0c","1280","720","en","dt05as10","null","","","","learningBlock1","","","","<div style=""font-size:60px;""> </div>","null","FL","learning/Slide34.JPG","That was a tob.","",""
"","image-keyboard-response","109","606083","0.0-6.0-0.34","FL","emk1tsfc0c","1280","720","en","dt05as10","null","","","","","","","","learning/Slide35.JPG","null","","","","",""
"","html-keyboard-response","110","607252","0.0-6.0-1.34","FL","emk1tsfc0c","1280","720","en","dt05as10","null","","","","learningBlock1","","","","That was a bim.","null","","","","",""
"","html-keyboard-response","111","608273","0.0-6.0-2.34","FL","emk1tsfc0c","1280","720","en","dt05as10","null","","","","learningBlock1","","","","<div style=""font-size:60px;""> </div>","null","FL","learning/Slide35.JPG","That was a bim.","",""
"","image-keyboard-response","112","608452","0.0-6.0-0.35","FL","emk1tsfc0c","1280","720","en","dt05as10","null","","","","","","","","learning/Slide36.JPG","null","","","","",""
"","html-keyboard-response","113","609632","0.0-6.0-1.35","FL","emk1tsfc0c","1280","720","en","dt05as10","null","","","","learningBlock1","","","","That was a dep.","null","","","","",""
"","html-keyboard-response","114","610652","0.0-6.0-2.35","FL","emk1tsfc0c","1280","720","en","dt05as10","null","","","","learningBlock1","","","","<div style=""font-size:60px;""> </div>","null","FL","learning/Slide36.JPG","That was a dep.","",""
"","image-keyboard-response","115","610842","0.0-6.0-0.36","FL","emk1tsfc0c","1280","720","en","dt05as10","null","","","","","","","","learning/Slide37.JPG","null","","","","",""
"","html-keyboard-response","116","612022","0.0-6.0-1.36","FL","emk1tsfc0c","1280","720","en","dt05as10","null","","","","learningBlock1","","","","That was a tob.","null","","","","",""
"","html-keyboard-response","117","613032","0.0-6.0-2.36","FL","emk1tsfc0c","1280","720","en","dt05as10","null","","","","learningBlock1","","","","<div style=""font-size:60px;""> </div>","null","FL","learning/Slide37.JPG","That was a tob.","",""
"","image-keyboard-response","118","613223","0.0-6.0-0.37","FL","emk1tsfc0c","1280","720","en","dt05as10","null","","","","","","","","learning/Slide38.JPG","null","","","","",""
"","html-keyboard-response","119","614403","0.0-6.0-1.37","FL","emk1tsfc0c","1280","720","en","dt05as10","null","","","","learningBlock1","","","","That was a wug.","null","","","","",""
"","html-keyboard-response","120","615413","0.0-6.0-2.37","FL","emk1tsfc0c","1280","720","en","dt05as10","null","","","","learningBlock1","","","","<div style=""font-size:60px;""> </div>","null","FL","learning/Slide38.JPG","That was a wug.","",""
"","image-keyboard-response","121","615603","0.0-6.0-0.38","FL","emk1tsfc0c","1280","720","en","dt05as10","null","","","","","","","","learning/Slide39.JPG","null","","","","",""
"","html-keyboard-response","122","616783","0.0-6.0-1.38","FL","emk1tsfc0c","1280","720","en","dt05as10","null","","","","learningBlock1","","","","That was a bim.","null","","","","",""
"","html-keyboard-response","123","617792","0.0-6.0-2.38","FL","emk1tsfc0c","1280","720","en","dt05as10","null","","","","learningBlock1","","","","<div style=""font-size:60px;""> </div>","null","FL","learning/Slide39.JPG","That was a bim.","",""
"","image-keyboard-response","124","617984","0.0-6.0-0.39","FL","emk1tsfc0c","1280","720","en","dt05as10","null","","","","","","","","learning/Slide40.JPG","null","","","","",""
"","html-keyboard-response","125","619152","0.0-6.0-1.39","FL","emk1tsfc0c","1280","720","en","dt05as10","null","","","","learningBlock1","","","","That was a tob.","null","","","","",""
"","html-keyboard-response","126","620162","0.0-6.0-2.39","FL","emk1tsfc0c","1280","720","en","dt05as10","null","","","","learningBlock1","","","","<div style=""font-size:60px;""> </div>","null","FL","learning/Slide40.JPG","That was a tob.","",""
"","image-keyboard-response","127","620353","0.0-6.0-0.40","FL","emk1tsfc0c","1280","720","en","dt05as10","null","","","","","","","","learning/Slide41.JPG","null","","","","",""
"","html-keyboard-response","128","621522","0.0-6.0-1.40","FL","emk1tsfc0c","1280","720","en","dt05as10","null","","","","learningBlock1","","","","That was a bim.","null","","","","",""
"","html-keyboard-response","129","622532","0.0-6.0-2.40","FL","emk1tsfc0c","1280","720","en","dt05as10","null","","","","learningBlock1","","","","<div style=""font-size:60px;""> </div>","null","FL","learning/Slide41.JPG","That was a bim.","",""
"","image-keyboard-response","130","622723","0.0-6.0-0.41","FL","emk1tsfc0c","1280","720","en","dt05as10","null","","","","","","","","learning/Slide42.JPG","null","","","","",""
"","html-keyboard-response","131","623893","0.0-6.0-1.41","FL","emk1tsfc0c","1280","720","en","dt05as10","null","","","","learningBlock1","","","","That was a dep.","null","","","","",""
"","html-keyboard-response","132","624895","0.0-6.0-2.41","FL","emk1tsfc0c","1280","720","en","dt05as10","null","","","","learningBlock1","","","","<div style=""font-size:60px;""> </div>","null","FL","learning/Slide42.JPG","That was a dep.","",""
"","image-keyboard-response","133","625085","0.0-6.0-0.42","FL","emk1tsfc0c","1280","720","en","dt05as10","null","","","","","","","","learning/Slide43.JPG","null","","","","",""
"","html-keyboard-response","134","626262","0.0-6.0-1.42","FL","emk1tsfc0c","1280","720","en","dt05as10","null","","","","learningBlock1","","","","That was a wug.","null","","","","",""
"","html-keyboard-response","135","627283","0.0-6.0-2.42","FL","emk1tsfc0c","1280","720","en","dt05as10","null","","","","learningBlock1","","","","<div style=""font-size:60px;""> </div>","null","FL","learning/Slide43.JPG","That was a wug.","",""
"","image-keyboard-response","136","627473","0.0-6.0-0.43","FL","emk1tsfc0c","1280","720","en","dt05as10","null","","","","","","","","learning/Slide44.JPG","null","","","","",""
"","html-keyboard-response","137","628652","0.0-6.0-1.43","FL","emk1tsfc0c","1280","720","en","dt05as10","null","","","","learningBlock1","","","","That was a bim.","null","","","","",""
"","html-keyboard-response","138","629662","0.0-6.0-2.43","FL","emk1tsfc0c","1280","720","en","dt05as10","null","","","","learningBlock1","","","","<div style=""font-size:60px;""> </div>","null","FL","learning/Slide44.JPG","That was a bim.","",""
"","image-keyboard-response","139","629854","0.0-6.0-0.44","FL","emk1tsfc0c","1280","720","en","dt05as10","null","","","","","","","","learning/Slide45.JPG","null","","","","",""
"","html-keyboard-response","140","631022","0.0-6.0-1.44","FL","emk1tsfc0c","1280","720","en","dt05as10","null","","","","learningBlock1","","","","That was a wug.","null","","","","",""
"","html-keyboard-response","141","632042","0.0-6.0-2.44","FL","emk1tsfc0c","1280","720","en","dt05as10","null","","","","learningBlock1","","","","<div style=""font-size:60px;""> </div>","null","FL","learning/Slide45.JPG","That was a wug.","",""
"","image-keyboard-response","142","632233","0.0-6.0-0.45","FL","emk1tsfc0c","1280","720","en","dt05as10","null","","","","","","","","learning/Slide46.JPG","null","","","","",""
"","html-keyboard-response","143","633412","0.0-6.0-1.45","FL","emk1tsfc0c","1280","720","en","dt05as10","null","","","","learningBlock1","","","","That was a dep.","null","","","","",""
"","html-keyboard-response","144","634434","0.0-6.0-2.45","FL","emk1tsfc0c","1280","720","en","dt05as10","null","","","","learningBlock1","","","","<div style=""font-size:60px;""> </div>","null","FL","learning/Slide46.JPG","That was a dep.","",""
"","image-keyboard-response","145","634622","0.0-6.0-0.46","FL","emk1tsfc0c","1280","720","en","dt05as10","null","","","","","","","","learning/Slide47.JPG","null","","","","",""
"","html-keyboard-response","146","635803","0.0-6.0-1.46","FL","emk1tsfc0c","1280","720","en","dt05as10","null","","","","learningBlock1","","","","That was a tob.","null","","","","",""
"","html-keyboard-response","147","636812","0.0-6.0-2.46","FL","emk1tsfc0c","1280","720","en","dt05as10","null","","","","learningBlock1","","","","<div style=""font-size:60px;""> </div>","null","FL","learning/Slide47.JPG","That was a tob.","",""
"","image-keyboard-response","148","637003","0.0-6.0-0.47","FL","emk1tsfc0c","1280","720","en","dt05as10","null","","","","","","","","learning/Slide48.JPG","null","","","","",""
"","html-keyboard-response","149","638172","0.0-6.0-1.47","FL","emk1tsfc0c","1280","720","en","dt05as10","null","","","","learningBlock1","","","","That was a bim.","null","","","","",""
"","html-keyboard-response","150","639183","0.0-6.0-2.47","FL","emk1tsfc0c","1280","720","en","dt05as10","null","","","","learningBlock1","","","","<div style=""font-size:60px;""> </div>","null","FL","learning/Slide48.JPG","That was a bim.","",""
"","image-keyboard-response","151","639373","0.0-6.0-0.48","FL","emk1tsfc0c","1280","720","en","dt05as10","null","","","","","","","","learning/Slide49.JPG","null","","","","",""
"","html-keyboard-response","152","640553","0.0-6.0-1.48","FL","emk1tsfc0c","1280","720","en","dt05as10","null","","","","learningBlock1","","","","That was a dep.","null","","","","",""
"","html-keyboard-response","153","641563","0.0-6.0-2.48","FL","emk1tsfc0c","1280","720","en","dt05as10","null","","","","learningBlock1","","","","<div style=""font-size:60px;""> </div>","null","FL","learning/Slide49.JPG","That was a dep.","",""
"","image-keyboard-response","154","641753","0.0-6.0-0.49","FL","emk1tsfc0c","1280","720","en","dt05as10","null","","","","","","","","learning/Slide50.JPG","null","","","","",""
"","html-keyboard-response","155","642933","0.0-6.0-1.49","FL","emk1tsfc0c","1280","720","en","dt05as10","null","","","","learningBlock1","","","","That was a tob.","null","","","","",""
"","html-keyboard-response","156","643953","0.0-6.0-2.49","FL","emk1tsfc0c","1280","720","en","dt05as10","null","","","","learningBlock1","","","","<div style=""font-size:60px;""> </div>","null","FL","learning/Slide50.JPG","That was a tob.","",""
"","image-keyboard-response","157","644143","0.0-6.0-0.50","FL","emk1tsfc0c","1280","720","en","dt05as10","null","","","","","","","","learning/Slide51.JPG","null","","","","",""
"","html-keyboard-response","158","645312","0.0-6.0-1.50","FL","emk1tsfc0c","1280","720","en","dt05as10","null","","","","learningBlock1","","","","That was a bim.","null","","","","",""
"","html-keyboard-response","159","646333","0.0-6.0-2.50","FL","emk1tsfc0c","1280","720","en","dt05as10","null","","","","learningBlock1","","","","<div style=""font-size:60px;""> </div>","null","FL","learning/Slide51.JPG","That was a bim.","",""
"","image-keyboard-response","160","646523","0.0-6.0-0.51","FL","emk1tsfc0c","1280","720","en","dt05as10","null","","","","","","","","learning/Slide52.JPG","null","","","","",""
"","html-keyboard-response","161","647693","0.0-6.0-1.51","FL","emk1tsfc0c","1280","720","en","dt05as10","null","","","","learningBlock1","","","","That was a wug.","null","","","","",""
"","html-keyboard-response","162","648712","0.0-6.0-2.51","FL","emk1tsfc0c","1280","720","en","dt05as10","null","","","","learningBlock1","","","","<div style=""font-size:60px;""> </div>","null","FL","learning/Slide52.JPG","That was a wug.","",""
"","image-keyboard-response","163","648903","0.0-6.0-0.52","FL","emk1tsfc0c","1280","720","en","dt05as10","null","","","","","","","","learning/Slide53.JPG","null","","","","",""
"","html-keyboard-response","164","650073","0.0-6.0-1.52","FL","emk1tsfc0c","1280","720","en","dt05as10","null","","","","learningBlock1","","","","That was a tob.","null","","","","",""
"","html-keyboard-response","165","651083","0.0-6.0-2.52","FL","emk1tsfc0c","1280","720","en","dt05as10","null","","","","learningBlock1","","","","<div style=""font-size:60px;""> </div>","null","FL","learning/Slide53.JPG","That was a tob.","",""
"","image-keyboard-response","166","651263","0.0-6.0-0.53","FL","emk1tsfc0c","1280","720","en","dt05as10","null","","","","","","","","learning/Slide54.JPG","null","","","","",""
"","html-keyboard-response","167","652423","0.0-6.0-1.53","FL","emk1tsfc0c","1280","720","en","dt05as10","null","","","","learningBlock1","","","","That was a dep.","null","","","","",""
"","html-keyboard-response","168","653443","0.0-6.0-2.53","FL","emk1tsfc0c","1280","720","en","dt05as10","null","","","","learningBlock1","","","","<div style=""font-size:60px;""> </div>","null","FL","learning/Slide54.JPG","That was a dep.","",""
"","image-keyboard-response","169","653633","0.0-6.0-0.54","FL","emk1tsfc0c","1280","720","en","dt05as10","null","","","","","","","","learning/Slide55.JPG","null","","","","",""
"","html-keyboard-response","170","654813","0.0-6.0-1.54","FL","emk1tsfc0c","1280","720","en","dt05as10","null","","","","learningBlock1","","","","That was a bim.","null","","","","",""
"","html-keyboard-response","171","655833","0.0-6.0-2.54","FL","emk1tsfc0c","1280","720","en","dt05as10","null","","","","learningBlock1","","","","<div style=""font-size:60px;""> </div>","null","FL","learning/Slide55.JPG","That was a bim.","",""
"","image-keyboard-response","172","656022","0.0-6.0-0.55","FL","emk1tsfc0c","1280","720","en","dt05as10","null","","","","","","","","learning/Slide56.JPG","null","","","","",""
"","html-keyboard-response","173","657203","0.0-6.0-1.55","FL","emk1tsfc0c","1280","720","en","dt05as10","null","","","","learningBlock1","","","","That was a tob.","null","","","","",""
"","html-keyboard-response","174","658222","0.0-6.0-2.55","FL","emk1tsfc0c","1280","720","en","dt05as10","null","","","","learningBlock1","","","","<div style=""font-size:60px;""> </div>","null","FL","learning/Slide56.JPG","That was a tob.","",""
"","image-keyboard-response","175","658413","0.0-6.0-0.56","FL","emk1tsfc0c","1280","720","en","dt05as10","null","","","","","","","","learning/Slide57.JPG","null","","","","",""
"","html-keyboard-response","176","659583","0.0-6.0-1.56","FL","emk1tsfc0c","1280","720","en","dt05as10","null","","","","learningBlock1","","","","That was a dep.","null","","","","",""
"","html-keyboard-response","177","660603","0.0-6.0-2.56","FL","emk1tsfc0c","1280","720","en","dt05as10","null","","","","learningBlock1","","","","<div style=""font-size:60px;""> </div>","null","FL","learning/Slide57.JPG","That was a dep.","",""
"","image-keyboard-response","178","660793","0.0-6.0-0.57","FL","emk1tsfc0c","1280","720","en","dt05as10","null","","","","","","","","learning/Slide58.JPG","null","","","","",""
"","html-keyboard-response","179","661963","0.0-6.0-1.57","FL","emk1tsfc0c","1280","720","en","dt05as10","null","","","","learningBlock1","","","","That was a wug.","null","","","","",""
"","html-keyboard-response","180","662973","0.0-6.0-2.57","FL","emk1tsfc0c","1280","720","en","dt05as10","null","","","","learningBlock1","","","","<div style=""font-size:60px;""> </div>","null","FL","learning/Slide58.JPG","That was a wug.","",""
"","image-keyboard-response","181","663163","0.0-6.0-0.58","FL","emk1tsfc0c","1280","720","en","dt05as10","null","","","","","","","","learning/Slide59.JPG","null","","","","",""
"","html-keyboard-response","182","664343","0.0-6.0-1.58","FL","emk1tsfc0c","1280","720","en","dt05as10","null","","","","learningBlock1","","","","That was a dep.","null","","","","",""
"","html-keyboard-response","183","665363","0.0-6.0-2.58","FL","emk1tsfc0c","1280","720","en","dt05as10","null","","","","learningBlock1","","","","<div style=""font-size:60px;""> </div>","null","FL","learning/Slide59.JPG","That was a dep.","",""
"","image-keyboard-response","184","665553","0.0-6.0-0.59","FL","emk1tsfc0c","1280","720","en","dt05as10","null","","","","","","","","learning/Slide60.JPG","null","","","","",""
"","html-keyboard-response","185","666732","0.0-6.0-1.59","FL","emk1tsfc0c","1280","720","en","dt05as10","null","","","","learningBlock1","","","","That was a wug.","null","","","","",""
"","html-keyboard-response","186","667752","0.0-6.0-2.59","FL","emk1tsfc0c","1280","720","en","dt05as10","null","","","","learningBlock1","","","","<div style=""font-size:60px;""> </div>","null","FL","learning/Slide60.JPG","That was a wug.","",""
"","image-keyboard-response","187","667943","0.0-6.0-0.60","FL","emk1tsfc0c","1280","720","en","dt05as10","null","","","","","","","","learning/Slide61.JPG","null","","","","",""
"","html-keyboard-response","188","669112","0.0-6.0-1.60","FL","emk1tsfc0c","1280","720","en","dt05as10","null","","","","learningBlock1","","","","That was a bim.","null","","","","",""
"","html-keyboard-response","189","670132","0.0-6.0-2.60","FL","emk1tsfc0c","1280","720","en","dt05as10","null","","","","learningBlock1","","","","<div style=""font-size:60px;""> </div>","null","FL","learning/Slide61.JPG","That was a bim.","",""
"","image-keyboard-response","190","670322","0.0-6.0-0.61","FL","emk1tsfc0c","1280","720","en","dt05as10","null","","","","","","","","learning/Slide62.JPG","null","","","","",""
"","html-keyboard-response","191","671502","0.0-6.0-1.61","FL","emk1tsfc0c","1280","720","en","dt05as10","null","","","","learningBlock1","","","","That was a dep.","null","","","","",""
"","html-keyboard-response","192","672513","0.0-6.0-2.61","FL","emk1tsfc0c","1280","720","en","dt05as10","null","","","","learningBlock1","","","","<div style=""font-size:60px;""> </div>","null","FL","learning/Slide62.JPG","That was a dep.","",""
"","image-keyboard-response","193","672703","0.0-6.0-0.62","FL","emk1tsfc0c","1280","720","en","dt05as10","null","","","","","","","","learning/Slide63.JPG","null","","","","",""
"","html-keyboard-response","194","673873","0.0-6.0-1.62","FL","emk1tsfc0c","1280","720","en","dt05as10","null","","","","learningBlock1","","","","That was a bim.","null","","","","",""
"","html-keyboard-response","195","674882","0.0-6.0-2.62","FL","emk1tsfc0c","1280","720","en","dt05as10","null","","","","learningBlock1","","","","<div style=""font-size:60px;""> </div>","null","FL","learning/Slide63.JPG","That was a bim.","",""
"","image-keyboard-response","196","675062","0.0-6.0-0.63","FL","emk1tsfc0c","1280","720","en","dt05as10","null","","","","","","","","learning/Slide64.JPG","null","","","","",""
"","html-keyboard-response","197","676243","0.0-6.0-1.63","FL","emk1tsfc0c","1280","720","en","dt05as10","null","","","","learningBlock1","","","","That was a tob.","null","","","","",""
"","html-keyboard-response","198","677253","0.0-6.0-2.63","FL","emk1tsfc0c","1280","720","en","dt05as10","null","","","","learningBlock1","","","","<div style=""font-size:60px;""> </div>","null","FL","learning/Slide64.JPG","That was a tob.","",""
"","image-keyboard-response","199","677443","0.0-6.0-0.64","FL","emk1tsfc0c","1280","720","en","dt05as10","null","","","","","","","","learning/Slide65.JPG","null","","","","",""
"","html-keyboard-response","200","678614","0.0-6.0-1.64","FL","emk1tsfc0c","1280","720","en","dt05as10","null","","","","learningBlock1","","","","That was a wug.","null","","","","",""
"","html-keyboard-response","201","679622","0.0-6.0-2.64","FL","emk1tsfc0c","1280","720","en","dt05as10","null","","","","learningBlock1","","","","<div style=""font-size:60px;""> </div>","null","FL","learning/Slide65.JPG","That was a wug.","",""
"","image-keyboard-response","202","679802","0.0-6.0-0.65","FL","emk1tsfc0c","1280","720","en","dt05as10","null","","","","","","","","learning/Slide66.JPG","null","","","","",""
"","html-keyboard-response","203","680977","0.0-6.0-1.65","FL","emk1tsfc0c","1280","720","en","dt05as10","null","","","","learningBlock1","","","","That was a dep.","null","","","","",""
"","html-keyboard-response","204","681982","0.0-6.0-2.65","FL","emk1tsfc0c","1280","720","en","dt05as10","null","","","","learningBlock1","","","","<div style=""font-size:60px;""> </div>","null","FL","learning/Slide66.JPG","That was a dep.","",""
"","image-keyboard-response","205","682158","0.0-6.0-0.66","FL","emk1tsfc0c","1280","720","en","dt05as10","null","","","","","","","","learning/Slide67.JPG","null","","","","",""
"","html-keyboard-response","206","683309","0.0-6.0-1.66","FL","emk1tsfc0c","1280","720","en","dt05as10","null","","","","learningBlock1","","","","That was a tob.","null","","","","",""
"","html-keyboard-response","207","684310","0.0-6.0-2.66","FL","emk1tsfc0c","1280","720","en","dt05as10","null","","","","learningBlock1","","","","<div style=""font-size:60px;""> </div>","null","FL","learning/Slide67.JPG","That was a tob.","",""
"","image-keyboard-response","208","684487","0.0-6.0-0.67","FL","emk1tsfc0c","1280","720","en","dt05as10","null","","","","","","","","learning/Slide68.JPG","null","","","","",""
"","html-keyboard-response","209","685639","0.0-6.0-1.67","FL","emk1tsfc0c","1280","720","en","dt05as10","null","","","","learningBlock1","","","","That was a wug.","null","","","","",""
"","html-keyboard-response","210","686640","0.0-6.0-2.67","FL","emk1tsfc0c","1280","720","en","dt05as10","null","","","","learningBlock1","","","","<div style=""font-size:60px;""> </div>","null","FL","learning/Slide68.JPG","That was a wug.","",""
"","image-keyboard-response","211","686818","0.0-6.0-0.68","FL","emk1tsfc0c","1280","720","en","dt05as10","null","","","","","","","","learning/Slide69.JPG","null","","","","",""
"","html-keyboard-response","212","687969","0.0-6.0-1.68","FL","emk1tsfc0c","1280","720","en","dt05as10","null","","","","learningBlock1","","","","That was a tob.","null","","","","",""
"","html-keyboard-response","213","688971","0.0-6.0-2.68","FL","emk1tsfc0c","1280","720","en","dt05as10","null","","","","learningBlock1","","","","<div style=""font-size:60px;""> </div>","null","FL","learning/Slide69.JPG","That was a tob.","",""
"","image-keyboard-response","214","689150","0.0-6.0-0.69","FL","emk1tsfc0c","1280","720","en","dt05as10","null","","","","","","","","learning/Slide70.JPG","null","","","","",""
"","html-keyboard-response","215","690304","0.0-6.0-1.69","FL","emk1tsfc0c","1280","720","en","dt05as10","null","","","","learningBlock1","","","","That was a dep.","null","","","","",""
"","html-keyboard-response","216","691306","0.0-6.0-2.69","FL","emk1tsfc0c","1280","720","en","dt05as10","null","","","","learningBlock1","","","","<div style=""font-size:60px;""> </div>","null","FL","learning/Slide70.JPG","That was a dep.","",""
"","image-keyboard-response","217","691483","0.0-6.0-0.70","FL","emk1tsfc0c","1280","720","en","dt05as10","null","","","","","","","","learning/Slide71.JPG","null","","","","",""
"","html-keyboard-response","218","692635","0.0-6.0-1.70","FL","emk1tsfc0c","1280","720","en","dt05as10","null","","","","learningBlock1","","","","That was a wug.","null","","","","",""
"","html-keyboard-response","219","693637","0.0-6.0-2.70","FL","emk1tsfc0c","1280","720","en","dt05as10","null","","","","learningBlock1","","","","<div style=""font-size:60px;""> </div>","null","FL","learning/Slide71.JPG","That was a wug.","",""
"","image-keyboard-response","220","693814","0.0-6.0-0.71","FL","emk1tsfc0c","1280","720","en","dt05as10","null","","","","","","","","learning/Slide72.JPG","null","","","","",""
"","html-keyboard-response","221","694965","0.0-6.0-1.71","FL","emk1tsfc0c","1280","720","en","dt05as10","null","","","","learningBlock1","","","","That was a bim.","null","","","","",""
"","html-keyboard-response","222","695967","0.0-6.0-2.71","FL","emk1tsfc0c","1280","720","en","dt05as10","null","","","","learningBlock1","","","","<div style=""font-size:60px;""> </div>","null","FL","learning/Slide72.JPG","That was a bim.","",""
"","image-keyboard-response","223","696144","0.0-6.0-0.72","FL","emk1tsfc0c","1280","720","en","dt05as10","null","","","","","","","","learning/Slide73.JPG","null","","","","",""
"","html-keyboard-response","224","697298","0.0-6.0-1.72","FL","emk1tsfc0c","1280","720","en","dt05as10","null","","","","learningBlock1","","","","That was a wug.","null","","","","",""
"","html-keyboard-response","225","698300","0.0-6.0-2.72","FL","emk1tsfc0c","1280","720","en","dt05as10","null","","","","learningBlock1","","","","<div style=""font-size:60px;""> </div>","null","FL","learning/Slide73.JPG","That was a wug.","",""
"","image-keyboard-response","226","698477","0.0-6.0-0.73","FL","emk1tsfc0c","1280","720","en","dt05as10","null","","","","","","","","learning/Slide74.JPG","null","","","","",""
"","html-keyboard-response","227","699629","0.0-6.0-1.73","FL","emk1tsfc0c","1280","720","en","dt05as10","null","","","","learningBlock1","","","","That was a dep.","null","","","","",""
"","html-keyboard-response","228","700631","0.0-6.0-2.73","FL","emk1tsfc0c","1280","720","en","dt05as10","null","","","","learningBlock1","","","","<div style=""font-size:60px;""> </div>","null","FL","learning/Slide74.JPG","That was a dep.","",""
"","image-keyboard-response","229","700808","0.0-6.0-0.74","FL","emk1tsfc0c","1280","720","en","dt05as10","null","","","","","","","","learning/Slide75.JPG","null","","","","",""
"","html-keyboard-response","230","701958","0.0-6.0-1.74","FL","emk1tsfc0c","1280","720","en","dt05as10","null","","","","learningBlock1","","","","That was a tob.","null","","","","",""
"","html-keyboard-response","231","702961","0.0-6.0-2.74","FL","emk1tsfc0c","1280","720","en","dt05as10","null","","","","learningBlock1","","","","<div style=""font-size:60px;""> </div>","null","FL","learning/Slide75.JPG","That was a tob.","",""
"","image-keyboard-response","232","703137","0.0-6.0-0.75","FL","emk1tsfc0c","1280","720","en","dt05as10","null","","","","","","","","learning/Slide76.JPG","null","","","","",""
"","html-keyboard-response","233","704290","0.0-6.0-1.75","FL","emk1tsfc0c","1280","720","en","dt05as10","null","","","","learningBlock1","","","","That was a bim.","null","","","","",""
"","html-keyboard-response","234","705294","0.0-6.0-2.75","FL","emk1tsfc0c","1280","720","en","dt05as10","null","","","","learningBlock1","","","","<div style=""font-size:60px;""> </div>","null","FL","learning/Slide76.JPG","That was a bim.","",""
"","image-keyboard-response","235","705471","0.0-6.0-0.76","FL","emk1tsfc0c","1280","720","en","dt05as10","null","","","","","","","","learning/Slide77.JPG","null","","","","",""
"","html-keyboard-response","236","706625","0.0-6.0-1.76","FL","emk1tsfc0c","1280","720","en","dt05as10","null","","","","learningBlock1","","","","That was a tob.","null","","","","",""
"","html-keyboard-response","237","707625","0.0-6.0-2.76","FL","emk1tsfc0c","1280","720","en","dt05as10","null","","","","learningBlock1","","","","<div style=""font-size:60px;""> </div>","null","FL","learning/Slide77.JPG","That was a tob.","",""
"","image-keyboard-response","238","707801","0.0-6.0-0.77","FL","emk1tsfc0c","1280","720","en","dt05as10","null","","","","","","","","learning/Slide78.JPG","null","","","","",""
"","html-keyboard-response","239","708953","0.0-6.0-1.77","FL","emk1tsfc0c","1280","720","en","dt05as10","null","","","","learningBlock1","","","","That was a wug.","null","","","","",""
"","html-keyboard-response","240","709955","0.0-6.0-2.77","FL","emk1tsfc0c","1280","720","en","dt05as10","null","","","","learningBlock1","","","","<div style=""font-size:60px;""> </div>","null","FL","learning/Slide78.JPG","That was a wug.","",""
"","image-keyboard-response","241","710133","0.0-6.0-0.78","FL","emk1tsfc0c","1280","720","en","dt05as10","null","","","","","","","","learning/Slide79.JPG","null","","","","",""
"","html-keyboard-response","242","711293","0.0-6.0-1.78","FL","emk1tsfc0c","1280","720","en","dt05as10","null","","","","learningBlock1","","","","That was a bim.","null","","","","",""
"","html-keyboard-response","243","712296","0.0-6.0-2.78","FL","emk1tsfc0c","1280","720","en","dt05as10","null","","","","learningBlock1","","","","<div style=""font-size:60px;""> </div>","null","FL","learning/Slide79.JPG","That was a bim.","",""
"","image-keyboard-response","244","712486","0.0-6.0-0.79","FL","emk1tsfc0c","1280","720","en","dt05as10","null","","","","","","","","learning/Slide80.JPG","null","","","","",""
"","html-keyboard-response","245","713663","0.0-6.0-1.79","FL","emk1tsfc0c","1280","720","en","dt05as10","null","","","","learningBlock1","","","","That was a tob.","null","","","","",""
"","html-keyboard-response","246","714683","0.0-6.0-2.79","FL","emk1tsfc0c","1280","720","en","dt05as10","null","","","","learningBlock1","","","","<div style=""font-size:60px;""> </div>","null","FL","learning/Slide80.JPG","That was a tob.","",""
"","instructions","247","745539","0.0-7.0","FL","emk1tsfc0c","1280","720","en","dt05as10","NA","","","[{""page_index"":0,""viewing_time"":30853}]","instructions","","","","","","","","","",""
"","image-keyboard-response","248","745723","0.0-8.0-0.0","FL","emk1tsfc0c","1280","720","en","dt05as10","null","","","","","","","","learning/Slide81.JPG","null","","","","",""
"","html-keyboard-response","249","746893","0.0-8.0-1.0","FL","emk1tsfc0c","1280","720","en","dt05as10","null","","","","learningBlock2","","","","That was a wug.","null","","","","",""
"","html-keyboard-response","250","747912","0.0-8.0-2.0","FL","emk1tsfc0c","1280","720","en","dt05as10","null","","","","learningBlock2","","","","<div style=""font-size:60px;""> </div>","null","FL","learning/Slide81.JPG","That was a wug.","",""
"","image-keyboard-response","251","748103","0.0-8.0-0.1","FL","emk1tsfc0c","1280","720","en","dt05as10","null","","","","","","","","learning/Slide82.JPG","null","","","","",""
"","html-keyboard-response","252","749272","0.0-8.0-1.1","FL","emk1tsfc0c","1280","720","en","dt05as10","null","","","","learningBlock2","","","","That was a bim.","null","","","","",""
"","html-keyboard-response","253","750293","0.0-8.0-2.1","FL","emk1tsfc0c","1280","720","en","dt05as10","null","","","","learningBlock2","","","","<div style=""font-size:60px;""> </div>","null","FL","learning/Slide82.JPG","That was a bim.","",""
"","image-keyboard-response","254","750482","0.0-8.0-0.2","FL","emk1tsfc0c","1280","720","en","dt05as10","null","","","","","","","","learning/Slide83.JPG","null","","","","",""
"","html-keyboard-response","255","751664","0.0-8.0-1.2","FL","emk1tsfc0c","1280","720","en","dt05as10","null","","","","learningBlock2","","","","That was a wug.","null","","","","",""
"","html-keyboard-response","256","752673","0.0-8.0-2.2","FL","emk1tsfc0c","1280","720","en","dt05as10","null","","","","learningBlock2","","","","<div style=""font-size:60px;""> </div>","null","FL","learning/Slide83.JPG","That was a wug.","",""
"","image-keyboard-response","257","752864","0.0-8.0-0.3","FL","emk1tsfc0c","1280","720","en","dt05as10","null","","","","","","","","learning/Slide84.JPG","null","","","","",""
"","html-keyboard-response","258","754042","0.0-8.0-1.3","FL","emk1tsfc0c","1280","720","en","dt05as10","null","","","","learningBlock2","","","","That was a dep.","null","","","","",""
"","html-keyboard-response","259","755045","0.0-8.0-2.3","FL","emk1tsfc0c","1280","720","en","dt05as10","null","","","","learningBlock2","","","","<div style=""font-size:60px;""> </div>","null","FL","learning/Slide84.JPG","That was a dep.","",""
"","image-keyboard-response","260","755236","0.0-8.0-0.4","FL","emk1tsfc0c","1280","720","en","dt05as10","null","","","","","","","","learning/Slide85.JPG","null","","","","",""
"","html-keyboard-response","261","756422","0.0-8.0-1.4","FL","emk1tsfc0c","1280","720","en","dt05as10","null","","","","learningBlock2","","","","That was a bim.","null","","","","",""
"","html-keyboard-response","262","757432","0.0-8.0-2.4","FL","emk1tsfc0c","1280","720","en","dt05as10","null","","","","learningBlock2","","","","<div style=""font-size:60px;""> </div>","null","FL","learning/Slide85.JPG","That was a bim.","",""
"","image-keyboard-response","263","757613","0.0-8.0-0.5","FL","emk1tsfc0c","1280","720","en","dt05as10","null","","","","","","","","learning/Slide86.JPG","null","","","","",""
"","html-keyboard-response","264","758793","0.0-8.0-1.5","FL","emk1tsfc0c","1280","720","en","dt05as10","null","","","","learningBlock2","","","","That was a tob.","null","","","","",""
"","html-keyboard-response","265","759812","0.0-8.0-2.5","FL","emk1tsfc0c","1280","720","en","dt05as10","null","","","","learningBlock2","","","","<div style=""font-size:60px;""> </div>","null","FL","learning/Slide86.JPG","That was a tob.","",""
"","image-keyboard-response","266","760002","0.0-8.0-0.6","FL","emk1tsfc0c","1280","720","en","dt05as10","null","","","","","","","","learning/Slide87.JPG","null","","","","",""
"","html-keyboard-response","267","761174","0.0-8.0-1.6","FL","emk1tsfc0c","1280","720","en","dt05as10","null","","","","learningBlock2","","","","That was a wug.","null","","","","",""
"","html-keyboard-response","268","762182","0.0-8.0-2.6","FL","emk1tsfc0c","1280","720","en","dt05as10","null","","","","learningBlock2","","","","<div style=""font-size:60px;""> </div>","null","FL","learning/Slide87.JPG","That was a wug.","",""
"","image-keyboard-response","269","762372","0.0-8.0-0.7","FL","emk1tsfc0c","1280","720","en","dt05as10","null","","","","","","","","learning/Slide88.JPG","null","","","","",""
"","html-keyboard-response","270","763552","0.0-8.0-1.7","FL","emk1tsfc0c","1280","720","en","dt05as10","null","","","","learningBlock2","","","","That was a tob.","null","","","","",""
"","html-keyboard-response","271","764573","0.0-8.0-2.7","FL","emk1tsfc0c","1280","720","en","dt05as10","null","","","","learningBlock2","","","","<div style=""font-size:60px;""> </div>","null","FL","learning/Slide88.JPG","That was a tob.","",""
"","image-keyboard-response","272","764762","0.0-8.0-0.8","FL","emk1tsfc0c","1280","720","en","dt05as10","null","","","","","","","","learning/Slide89.JPG","null","","","","",""
"","html-keyboard-response","273","765932","0.0-8.0-1.8","FL","emk1tsfc0c","1280","720","en","dt05as10","null","","","","learningBlock2","","","","That was a bim.","null","","","","",""
"","html-keyboard-response","274","766952","0.0-8.0-2.8","FL","emk1tsfc0c","1280","720","en","dt05as10","null","","","","learningBlock2","","","","<div style=""font-size:60px;""> </div>","null","FL","learning/Slide89.JPG","That was a bim.","",""
"","image-keyboard-response","275","767142","0.0-8.0-0.9","FL","emk1tsfc0c","1280","720","en","dt05as10","null","","","","","","","","learning/Slide90.JPG","null","","","","",""
"","html-keyboard-response","276","768323","0.0-8.0-1.9","FL","emk1tsfc0c","1280","720","en","dt05as10","null","","","","learningBlock2","","","","That was a dep.","null","","","","",""
"","html-keyboard-response","277","769342","0.0-8.0-2.9","FL","emk1tsfc0c","1280","720","en","dt05as10","null","","","","learningBlock2","","","","<div style=""font-size:60px;""> </div>","null","FL","learning/Slide90.JPG","That was a dep.","",""
"","image-keyboard-response","278","769533","0.0-8.0-0.10","FL","emk1tsfc0c","1280","720","en","dt05as10","null","","","","","","","","learning/Slide91.JPG","null","","","","",""
"","html-keyboard-response","279","770712","0.0-8.0-1.10","FL","emk1tsfc0c","1280","720","en","dt05as10","null","","","","learningBlock2","","","","That was a wug.","null","","","","",""
"","html-keyboard-response","280","771732","0.0-8.0-2.10","FL","emk1tsfc0c","1280","720","en","dt05as10","null","","","","learningBlock2","","","","<div style=""font-size:60px;""> </div>","null","FL","learning/Slide91.JPG","That was a wug.","",""
"","image-keyboard-response","281","771915","0.0-8.0-0.11","FL","emk1tsfc0c","1280","720","en","dt05as10","null","","","","","","","","learning/Slide92.JPG","null","","","","",""
"","html-keyboard-response","282","773082","0.0-8.0-1.11","FL","emk1tsfc0c","1280","720","en","dt05as10","null","","","","learningBlock2","","","","That was a tob.","null","","","","",""
"","html-keyboard-response","283","774102","0.0-8.0-2.11","FL","emk1tsfc0c","1280","720","en","dt05as10","null","","","","learningBlock2","","","","<div style=""font-size:60px;""> </div>","null","FL","learning/Slide92.JPG","That was a tob.","",""
"","image-keyboard-response","284","774292","0.0-8.0-0.12","FL","emk1tsfc0c","1280","720","en","dt05as10","null","","","","","","","","learning/Slide93.JPG","null","","","","",""
"","html-keyboard-response","285","775463","0.0-8.0-1.12","FL","emk1tsfc0c","1280","720","en","dt05as10","null","","","","learningBlock2","","","","That was a bim.","null","","","","",""
"","html-keyboard-response","286","776482","0.0-8.0-2.12","FL","emk1tsfc0c","1280","720","en","dt05as10","null","","","","learningBlock2","","","","<div style=""font-size:60px;""> </div>","null","FL","learning/Slide93.JPG","That was a bim.","",""
"","image-keyboard-response","287","776674","0.0-8.0-0.13","FL","emk1tsfc0c","1280","720","en","dt05as10","null","","","","","","","","learning/Slide94.JPG","null","","","","",""
"","html-keyboard-response","288","777852","0.0-8.0-1.13","FL","emk1tsfc0c","1280","720","en","dt05as10","null","","","","learningBlock2","","","","That was a tob.","null","","","","",""
"","html-keyboard-response","289","778872","0.0-8.0-2.13","FL","emk1tsfc0c","1280","720","en","dt05as10","null","","","","learningBlock2","","","","<div style=""font-size:60px;""> </div>","null","FL","learning/Slide94.JPG","That was a tob.","",""
"","image-keyboard-response","290","779063","0.0-8.0-0.14","FL","emk1tsfc0c","1280","720","en","dt05as10","null","","","","","","","","learning/Slide95.JPG","null","","","","",""
"","html-keyboard-response","291","780242","0.0-8.0-1.14","FL","emk1tsfc0c","1280","720","en","dt05as10","null","","","","learningBlock2","","","","That was a wug.","null","","","","",""
"","html-keyboard-response","292","781263","0.0-8.0-2.14","FL","emk1tsfc0c","1280","720","en","dt05as10","null","","","","learningBlock2","","","","<div style=""font-size:60px;""> </div>","null","FL","learning/Slide95.JPG","That was a wug.","",""
"","image-keyboard-response","293","781453","0.0-8.0-0.15","FL","emk1tsfc0c","1280","720","en","dt05as10","null","","","","","","","","learning/Slide96.JPG","null","","","","",""
"","html-keyboard-response","294","782632","0.0-8.0-1.15","FL","emk1tsfc0c","1280","720","en","dt05as10","null","","","","learningBlock2","","","","That was a tob.","null","","","","",""
"","html-keyboard-response","295","783642","0.0-8.0-2.15","FL","emk1tsfc0c","1280","720","en","dt05as10","null","","","","learningBlock2","","","","<div style=""font-size:60px;""> </div>","null","FL","learning/Slide96.JPG","That was a tob.","",""
"","image-keyboard-response","296","783833","0.0-8.0-0.16","FL","emk1tsfc0c","1280","720","en","dt05as10","null","","","","","","","","learning/Slide97.JPG","null","","","","",""
"","html-keyboard-response","297","785012","0.0-8.0-1.16","FL","emk1tsfc0c","1280","720","en","dt05as10","null","","","","learningBlock2","","","","That was a dep.","null","","","","",""
"","html-keyboard-response","298","786033","0.0-8.0-2.16","FL","emk1tsfc0c","1280","720","en","dt05as10","null","","","","learningBlock2","","","","<div style=""font-size:60px;""> </div>","null","FL","learning/Slide97.JPG","That was a dep.","",""
"","image-keyboard-response","299","786222","0.0-8.0-0.17","FL","emk1tsfc0c","1280","720","en","dt05as10","null","","","","","","","","learning/Slide98.JPG","null","","","","",""
"","html-keyboard-response","300","787392","0.0-8.0-1.17","FL","emk1tsfc0c","1280","720","en","dt05as10","null","","","","learningBlock2","","","","That was a bim.","null","","","","",""
"","html-keyboard-response","301","788413","0.0-8.0-2.17","FL","emk1tsfc0c","1280","720","en","dt05as10","null","","","","learningBlock2","","","","<div style=""font-size:60px;""> </div>","null","FL","learning/Slide98.JPG","That was a bim.","",""
"","image-keyboard-response","302","788603","0.0-8.0-0.18","FL","emk1tsfc0c","1280","720","en","dt05as10","null","","","","","","","","learning/Slide99.JPG","null","","","","",""
"","html-keyboard-response","303","789772","0.0-8.0-1.18","FL","emk1tsfc0c","1280","720","en","dt05as10","null","","","","learningBlock2","","","","That was a dep.","null","","","","",""
"","html-keyboard-response","304","790792","0.0-8.0-2.18","FL","emk1tsfc0c","1280","720","en","dt05as10","null","","","","learningBlock2","","","","<div style=""font-size:60px;""> </div>","null","FL","learning/Slide99.JPG","That was a dep.","",""
"","image-keyboard-response","305","790983","0.0-8.0-0.19","FL","emk1tsfc0c","1280","720","en","dt05as10","null","","","","","","","","learning/Slide100.JPG","null","","","","",""
"","html-keyboard-response","306","792152","0.0-8.0-1.19","FL","emk1tsfc0c","1280","720","en","dt05as10","null","","","","learningBlock2","","","","That was a bim.","null","","","","",""
"","html-keyboard-response","307","793173","0.0-8.0-2.19","FL","emk1tsfc0c","1280","720","en","dt05as10","null","","","","learningBlock2","","","","<div style=""font-size:60px;""> </div>","null","FL","learning/Slide100.JPG","That was a bim.","",""
"","image-keyboard-response","308","793352","0.0-8.0-0.20","FL","emk1tsfc0c","1280","720","en","dt05as10","null","","","","","","","","learning/Slide101.JPG","null","","","","",""
"","html-keyboard-response","309","794533","0.0-8.0-1.20","FL","emk1tsfc0c","1280","720","en","dt05as10","null","","","","learningBlock2","","","","That was a tob.","null","","","","",""
"","html-keyboard-response","310","795553","0.0-8.0-2.20","FL","emk1tsfc0c","1280","720","en","dt05as10","null","","","","learningBlock2","","","","<div style=""font-size:60px;""> </div>","null","FL","learning/Slide101.JPG","That was a tob.","",""
"","image-keyboard-response","311","795742","0.0-8.0-0.21","FL","emk1tsfc0c","1280","720","en","dt05as10","null","","","","","","","","learning/Slide102.JPG","null","","","","",""
"","html-keyboard-response","312","796912","0.0-8.0-1.21","FL","emk1tsfc0c","1280","720","en","dt05as10","null","","","","learningBlock2","","","","That was a bim.","null","","","","",""
"","html-keyboard-response","313","797923","0.0-8.0-2.21","FL","emk1tsfc0c","1280","720","en","dt05as10","null","","","","learningBlock2","","","","<div style=""font-size:60px;""> </div>","null","FL","learning/Slide102.JPG","That was a bim.","",""
"","image-keyboard-response","314","798113","0.0-8.0-0.22","FL","emk1tsfc0c","1280","720","en","dt05as10","null","","","","","","","","learning/Slide103.JPG","null","","","","",""
"","html-keyboard-response","315","799283","0.0-8.0-1.22","FL","emk1tsfc0c","1280","720","en","dt05as10","null","","","","learningBlock2","","","","That was a dep.","null","","","","",""
"","html-keyboard-response","316","800302","0.0-8.0-2.22","FL","emk1tsfc0c","1280","720","en","dt05as10","null","","","","learningBlock2","","","","<div style=""font-size:60px;""> </div>","null","FL","learning/Slide103.JPG","That was a dep.","",""
"","image-keyboard-response","317","800482","0.0-8.0-0.23","FL","emk1tsfc0c","1280","720","en","dt05as10","null","","","","","","","","learning/Slide104.JPG","null","","","","",""
"","html-keyboard-response","318","801652","0.0-8.0-1.23","FL","emk1tsfc0c","1280","720","en","dt05as10","null","","","","learningBlock2","","","","That was a tob.","null","","","","",""
"","html-keyboard-response","319","802672","0.0-8.0-2.23","FL","emk1tsfc0c","1280","720","en","dt05as10","null","","","","learningBlock2","","","","<div style=""font-size:60px;""> </div>","null","FL","learning/Slide104.JPG","That was a tob.","",""
"","image-keyboard-response","320","802862","0.0-8.0-0.24","FL","emk1tsfc0c","1280","720","en","dt05as10","null","","","","","","","","learning/Slide105.JPG","null","","","","",""
"","html-keyboard-response","321","804043","0.0-8.0-1.24","FL","emk1tsfc0c","1280","720","en","dt05as10","null","","","","learningBlock2","","","","That was a dep.","null","","","","",""
"","html-keyboard-response","322","805062","0.0-8.0-2.24","FL","emk1tsfc0c","1280","720","en","dt05as10","null","","","","learningBlock2","","","","<div style=""font-size:60px;""> </div>","null","FL","learning/Slide105.JPG","That was a dep.","",""
"","image-keyboard-response","323","805243","0.0-8.0-0.25","FL","emk1tsfc0c","1280","720","en","dt05as10","null","","","","","","","","learning/Slide106.JPG","null","","","","",""
"","html-keyboard-response","324","806422","0.0-8.0-1.25","FL","emk1tsfc0c","1280","720","en","dt05as10","null","","","","learningBlock2","","","","That was a wug.","null","","","","",""
"","html-keyboard-response","325","807443","0.0-8.0-2.25","FL","emk1tsfc0c","1280","720","en","dt05as10","null","","","","learningBlock2","","","","<div style=""font-size:60px;""> </div>","null","FL","learning/Slide106.JPG","That was a wug.","",""
"","image-keyboard-response","326","807633","0.0-8.0-0.26","FL","emk1tsfc0c","1280","720","en","dt05as10","null","","","","","","","","learning/Slide107.JPG","null","","","","",""
"","html-keyboard-response","327","808813","0.0-8.0-1.26","FL","emk1tsfc0c","1280","720","en","dt05as10","null","","","","learningBlock2","","","","That was a bim.","null","","","","",""
"","html-keyboard-response","328","809833","0.0-8.0-2.26","FL","emk1tsfc0c","1280","720","en","dt05as10","null","","","","learningBlock2","","","","<div style=""font-size:60px;""> </div>","null","FL","learning/Slide107.JPG","That was a bim.","",""
"","image-keyboard-response","329","810023","0.0-8.0-0.27","FL","emk1tsfc0c","1280","720","en","dt05as10","null","","","","","","","","learning/Slide108.JPG","null","","","","",""
"","html-keyboard-response","330","811183","0.0-8.0-1.27","FL","emk1tsfc0c","1280","720","en","dt05as10","null","","","","learningBlock2","","","","That was a dep.","null","","","","",""
"","html-keyboard-response","331","812185","0.0-8.0-2.27","FL","emk1tsfc0c","1280","720","en","dt05as10","null","","","","learningBlock2","","","","<div style=""font-size:60px;""> </div>","null","FL","learning/Slide108.JPG","That was a dep.","",""
"","image-keyboard-response","332","812376","0.0-8.0-0.28","FL","emk1tsfc0c","1280","720","en","dt05as10","null","","","","","","","","learning/Slide109.JPG","null","","","","",""
"","html-keyboard-response","333","813553","0.0-8.0-1.28","FL","emk1tsfc0c","1280","720","en","dt05as10","null","","","","learningBlock2","","","","That was a wug.","null","","","","",""
"","html-keyboard-response","334","814573","0.0-8.0-2.28","FL","emk1tsfc0c","1280","720","en","dt05as10","null","","","","learningBlock2","","","","<div style=""font-size:60px;""> </div>","null","FL","learning/Slide109.JPG","That was a wug.","",""
"","image-keyboard-response","335","814762","0.0-8.0-0.29","FL","emk1tsfc0c","1280","720","en","dt05as10","null","","","","","","","","learning/Slide110.JPG","null","","","","",""
"","html-keyboard-response","336","815933","0.0-8.0-1.29","FL","emk1tsfc0c","1280","720","en","dt05as10","null","","","","learningBlock2","","","","That was a bim.","null","","","","",""
"","html-keyboard-response","337","816954","0.0-8.0-2.29","FL","emk1tsfc0c","1280","720","en","dt05as10","null","","","","learningBlock2","","","","<div style=""font-size:60px;""> </div>","null","FL","learning/Slide110.JPG","That was a bim.","",""
"","image-keyboard-response","338","817133","0.0-8.0-0.30","FL","emk1tsfc0c","1280","720","en","dt05as10","null","","","","","","","","learning/Slide111.JPG","null","","","","",""
"","html-keyboard-response","339","818302","0.0-8.0-1.30","FL","emk1tsfc0c","1280","720","en","dt05as10","null","","","","learningBlock2","","","","That was a tob.","null","","","","",""
"","html-keyboard-response","340","819312","0.0-8.0-2.30","FL","emk1tsfc0c","1280","720","en","dt05as10","null","","","","learningBlock2","","","","<div style=""font-size:60px;""> </div>","null","FL","learning/Slide111.JPG","That was a tob.","",""
"","image-keyboard-response","341","819503","0.0-8.0-0.31","FL","emk1tsfc0c","1280","720","en","dt05as10","null","","","","","","","","learning/Slide112.JPG","null","","","","",""
"","html-keyboard-response","342","820672","0.0-8.0-1.31","FL","emk1tsfc0c","1280","720","en","dt05as10","null","","","","learningBlock2","","","","That was a wug.","null","","","","",""
"","html-keyboard-response","343","821683","0.0-8.0-2.31","FL","emk1tsfc0c","1280","720","en","dt05as10","null","","","","learningBlock2","","","","<div style=""font-size:60px;""> </div>","null","FL","learning/Slide112.JPG","That was a wug.","",""
"","image-keyboard-response","344","821873","0.0-8.0-0.32","FL","emk1tsfc0c","1280","720","en","dt05as10","null","","","","","","","","learning/Slide113.JPG","null","","","","",""
"","html-keyboard-response","345","823043","0.0-8.0-1.32","FL","emk1tsfc0c","1280","720","en","dt05as10","null","","","","learningBlock2","","","","That was a tob.","null","","","","",""
"","html-keyboard-response","346","824063","0.0-8.0-2.32","FL","emk1tsfc0c","1280","720","en","dt05as10","null","","","","learningBlock2","","","","<div style=""font-size:60px;""> </div>","null","FL","learning/Slide113.JPG","That was a tob.","",""
"","image-keyboard-response","347","824254","0.0-8.0-0.33","FL","emk1tsfc0c","1280","720","en","dt05as10","null","","","","","","","","learning/Slide114.JPG","null","","","","",""
"","html-keyboard-response","348","825432","0.0-8.0-1.33","FL","emk1tsfc0c","1280","720","en","dt05as10","null","","","","learningBlock2","","","","That was a wug.","null","","","","",""
"","html-keyboard-response","349","826452","0.0-8.0-2.33","FL","emk1tsfc0c","1280","720","en","dt05as10","null","","","","learningBlock2","","","","<div style=""font-size:60px;""> </div>","null","FL","learning/Slide114.JPG","That was a wug.","",""
"","image-keyboard-response","350","826643","0.0-8.0-0.34","FL","emk1tsfc0c","1280","720","en","dt05as10","null","","","","","","","","learning/Slide115.JPG","null","","","","",""
"","html-keyboard-response","351","827812","0.0-8.0-1.34","FL","emk1tsfc0c","1280","720","en","dt05as10","null","","","","learningBlock2","","","","That was a bim.","null","","","","",""
"","html-keyboard-response","352","828833","0.0-8.0-2.34","FL","emk1tsfc0c","1280","720","en","dt05as10","null","","","","learningBlock2","","","","<div style=""font-size:60px;""> </div>","null","FL","learning/Slide115.JPG","That was a bim.","",""
"","image-keyboard-response","353","829023","0.0-8.0-0.35","FL","emk1tsfc0c","1280","720","en","dt05as10","null","","","","","","","","learning/Slide116.JPG","null","","","","",""
"","html-keyboard-response","354","830192","0.0-8.0-1.35","FL","emk1tsfc0c","1280","720","en","dt05as10","null","","","","learningBlock2","","","","That was a dep.","null","","","","",""
"","html-keyboard-response","355","831212","0.0-8.0-2.35","FL","emk1tsfc0c","1280","720","en","dt05as10","null","","","","learningBlock2","","","","<div style=""font-size:60px;""> </div>","null","FL","learning/Slide116.JPG","That was a dep.","",""
"","image-keyboard-response","356","831403","0.0-8.0-0.36","FL","emk1tsfc0c","1280","720","en","dt05as10","null","","","","","","","","learning/Slide117.JPG","null","","","","",""
"","html-keyboard-response","357","832572","0.0-8.0-1.36","FL","emk1tsfc0c","1280","720","en","dt05as10","null","","","","learningBlock2","","","","That was a tob.","null","","","","",""
"","html-keyboard-response","358","833593","0.0-8.0-2.36","FL","emk1tsfc0c","1280","720","en","dt05as10","null","","","","learningBlock2","","","","<div style=""font-size:60px;""> </div>","null","FL","learning/Slide117.JPG","That was a tob.","",""
"","image-keyboard-response","359","833784","0.0-8.0-0.37","FL","emk1tsfc0c","1280","720","en","dt05as10","null","","","","","","","","learning/Slide118.JPG","null","","","","",""
"","html-keyboard-response","360","834963","0.0-8.0-1.37","FL","emk1tsfc0c","1280","720","en","dt05as10","null","","","","learningBlock2","","","","That was a dep.","null","","","","",""
"","html-keyboard-response","361","835983","0.0-8.0-2.37","FL","emk1tsfc0c","1280","720","en","dt05as10","null","","","","learningBlock2","","","","<div style=""font-size:60px;""> </div>","null","FL","learning/Slide118.JPG","That was a dep.","",""
"","image-keyboard-response","362","836175","0.0-8.0-0.38","FL","emk1tsfc0c","1280","720","en","dt05as10","null","","","","","","","","learning/Slide119.JPG","null","","","","",""
"","html-keyboard-response","363","837352","0.0-8.0-1.38","FL","emk1tsfc0c","1280","720","en","dt05as10","null","","","","learningBlock2","","","","That was a wug.","null","","","","",""
"","html-keyboard-response","364","838372","0.0-8.0-2.38","FL","emk1tsfc0c","1280","720","en","dt05as10","null","","","","learningBlock2","","","","<div style=""font-size:60px;""> </div>","null","FL","learning/Slide119.JPG","That was a wug.","",""
"","image-keyboard-response","365","838563","0.0-8.0-0.39","FL","emk1tsfc0c","1280","720","en","dt05as10","null","","","","","","","","learning/Slide120.JPG","null","","","","",""
"","html-keyboard-response","366","839733","0.0-8.0-1.39","FL","emk1tsfc0c","1280","720","en","dt05as10","null","","","","learningBlock2","","","","That was a dep.","null","","","","",""
"","html-keyboard-response","367","840753","0.0-8.0-2.39","FL","emk1tsfc0c","1280","720","en","dt05as10","null","","","","learningBlock2","","","","<div style=""font-size:60px;""> </div>","null","FL","learning/Slide120.JPG","That was a dep.","",""
"","image-keyboard-response","368","840944","0.0-8.0-0.40","FL","emk1tsfc0c","1280","720","en","dt05as10","null","","","","","","","","learning/Slide121.JPG","null","","","","",""
"","html-keyboard-response","369","842113","0.0-8.0-1.40","FL","emk1tsfc0c","1280","720","en","dt05as10","null","","","","learningBlock2","","","","That was a bim.","null","","","","",""
"","html-keyboard-response","370","843122","0.0-8.0-2.40","FL","emk1tsfc0c","1280","720","en","dt05as10","null","","","","learningBlock2","","","","<div style=""font-size:60px;""> </div>","null","FL","learning/Slide121.JPG","That was a bim.","",""
"","image-keyboard-response","371","843312","0.0-8.0-0.41","FL","emk1tsfc0c","1280","720","en","dt05as10","null","","","","","","","","learning/Slide122.JPG","null","","","","",""
"","html-keyboard-response","372","844492","0.0-8.0-1.41","FL","emk1tsfc0c","1280","720","en","dt05as10","null","","","","learningBlock2","","","","That was a wug.","null","","","","",""
"","html-keyboard-response","373","845503","0.0-8.0-2.41","FL","emk1tsfc0c","1280","720","en","dt05as10","null","","","","learningBlock2","","","","<div style=""font-size:60px;""> </div>","null","FL","learning/Slide122.JPG","That was a wug.","",""
"","image-keyboard-response","374","845688","0.0-8.0-0.42","FL","emk1tsfc0c","1280","720","en","dt05as10","null","","","","","","","","learning/Slide123.JPG","null","","","","",""
"","html-keyboard-response","375","846853","0.0-8.0-1.42","FL","emk1tsfc0c","1280","720","en","dt05as10","null","","","","learningBlock2","","","","That was a bim.","null","","","","",""
"","html-keyboard-response","376","847873","0.0-8.0-2.42","FL","emk1tsfc0c","1280","720","en","dt05as10","null","","","","learningBlock2","","","","<div style=""font-size:60px;""> </div>","null","FL","learning/Slide123.JPG","That was a bim.","",""
"","image-keyboard-response","377","848063","0.0-8.0-0.43","FL","emk1tsfc0c","1280","720","en","dt05as10","null","","","","","","","","learning/Slide124.JPG","null","","","","",""
"","html-keyboard-response","378","849243","0.0-8.0-1.43","FL","emk1tsfc0c","1280","720","en","dt05as10","null","","","","learningBlock2","","","","That was a tob.","null","","","","",""
"","html-keyboard-response","379","850252","0.0-8.0-2.43","FL","emk1tsfc0c","1280","720","en","dt05as10","null","","","","learningBlock2","","","","<div style=""font-size:60px;""> </div>","null","FL","learning/Slide124.JPG","That was a tob.","",""
"","image-keyboard-response","380","850443","0.0-8.0-0.44","FL","emk1tsfc0c","1280","720","en","dt05as10","null","","","","","","","","learning/Slide125.JPG","null","","","","",""
"","html-keyboard-response","381","851612","0.0-8.0-1.44","FL","emk1tsfc0c","1280","720","en","dt05as10","null","","","","learningBlock2","","","","That was a bim.","null","","","","",""
"","html-keyboard-response","382","852622","0.0-8.0-2.44","FL","emk1tsfc0c","1280","720","en","dt05as10","null","","","","learningBlock2","","","","<div style=""font-size:60px;""> </div>","null","FL","learning/Slide125.JPG","That was a bim.","",""
"","image-keyboard-response","383","852802","0.0-8.0-0.45","FL","emk1tsfc0c","1280","720","en","dt05as10","null","","","","","","","","learning/Slide126.JPG","null","","","","",""
"","html-keyboard-response","384","853973","0.0-8.0-1.45","FL","emk1tsfc0c","1280","720","en","dt05as10","null","","","","learningBlock2","","","","That was a tob.","null","","","","",""
"","html-keyboard-response","385","854993","0.0-8.0-2.45","FL","emk1tsfc0c","1280","720","en","dt05as10","null","","","","learningBlock2","","","","<div style=""font-size:60px;""> </div>","null","FL","learning/Slide126.JPG","That was a tob.","",""
"","image-keyboard-response","386","855183","0.0-8.0-0.46","FL","emk1tsfc0c","1280","720","en","dt05as10","null","","","","","","","","learning/Slide127.JPG","null","","","","",""
"","html-keyboard-response","387","856362","0.0-8.0-1.46","FL","emk1tsfc0c","1280","720","en","dt05as10","null","","","","learningBlock2","","","","That was a dep.","null","","","","",""
"","html-keyboard-response","388","857382","0.0-8.0-2.46","FL","emk1tsfc0c","1280","720","en","dt05as10","null","","","","learningBlock2","","","","<div style=""font-size:60px;""> </div>","null","FL","learning/Slide127.JPG","That was a dep.","",""
"","image-keyboard-response","389","857572","0.0-8.0-0.47","FL","emk1tsfc0c","1280","720","en","dt05as10","null","","","","","","","","learning/Slide128.JPG","null","","","","",""
"","html-keyboard-response","390","858753","0.0-8.0-1.47","FL","emk1tsfc0c","1280","720","en","dt05as10","null","","","","learningBlock2","","","","That was a wug.","null","","","","",""
"","html-keyboard-response","391","859773","0.0-8.0-2.47","FL","emk1tsfc0c","1280","720","en","dt05as10","null","","","","learningBlock2","","","","<div style=""font-size:60px;""> </div>","null","FL","learning/Slide128.JPG","That was a wug.","",""
"","image-keyboard-response","392","859963","0.0-8.0-0.48","FL","emk1tsfc0c","1280","720","en","dt05as10","null","","","","","","","","learning/Slide129.JPG","null","","","","",""
"","html-keyboard-response","393","861133","0.0-8.0-1.48","FL","emk1tsfc0c","1280","720","en","dt05as10","null","","","","learningBlock2","","","","That was a tob.","null","","","","",""
"","html-keyboard-response","394","862152","0.0-8.0-2.48","FL","emk1tsfc0c","1280","720","en","dt05as10","null","","","","learningBlock2","","","","<div style=""font-size:60px;""> </div>","null","FL","learning/Slide129.JPG","That was a tob.","",""
"","image-keyboard-response","395","862343","0.0-8.0-0.49","FL","emk1tsfc0c","1280","720","en","dt05as10","null","","","","","","","","learning/Slide130.JPG","null","","","","",""
"","html-keyboard-response","396","863523","0.0-8.0-1.49","FL","emk1tsfc0c","1280","720","en","dt05as10","null","","","","learningBlock2","","","","That was a wug.","null","","","","",""
"","html-keyboard-response","397","864532","0.0-8.0-2.49","FL","emk1tsfc0c","1280","720","en","dt05as10","null","","","","learningBlock2","","","","<div style=""font-size:60px;""> </div>","null","FL","learning/Slide130.JPG","That was a wug.","",""
"","image-keyboard-response","398","864723","0.0-8.0-0.50","FL","emk1tsfc0c","1280","720","en","dt05as10","null","","","","","","","","learning/Slide131.JPG","null","","","","",""
"","html-keyboard-response","399","865903","0.0-8.0-1.50","FL","emk1tsfc0c","1280","720","en","dt05as10","null","","","","learningBlock2","","","","That was a bim.","null","","","","",""
"","html-keyboard-response","400","866923","0.0-8.0-2.50","FL","emk1tsfc0c","1280","720","en","dt05as10","null","","","","learningBlock2","","","","<div style=""font-size:60px;""> </div>","null","FL","learning/Slide131.JPG","That was a bim.","",""
"","image-keyboard-response","401","867113","0.0-8.0-0.51","FL","emk1tsfc0c","1280","720","en","dt05as10","null","","","","","","","","learning/Slide132.JPG","null","","","","",""
"","html-keyboard-response","402","868283","0.0-8.0-1.51","FL","emk1tsfc0c","1280","720","en","dt05as10","null","","","","learningBlock2","","","","That was a dep.","null","","","","",""
"","html-keyboard-response","403","869303","0.0-8.0-2.51","FL","emk1tsfc0c","1280","720","en","dt05as10","null","","","","learningBlock2","","","","<div style=""font-size:60px;""> </div>","null","FL","learning/Slide132.JPG","That was a dep.","",""
"","image-keyboard-response","404","869493","0.0-8.0-0.52","FL","emk1tsfc0c","1280","720","en","dt05as10","null","","","","","","","","learning/Slide133.JPG","null","","","","",""
"","html-keyboard-response","405","870672","0.0-8.0-1.52","FL","emk1tsfc0c","1280","720","en","dt05as10","null","","","","learningBlock2","","","","That was a tob.","null","","","","",""
"","html-keyboard-response","406","871692","0.0-8.0-2.52","FL","emk1tsfc0c","1280","720","en","dt05as10","null","","","","learningBlock2","","","","<div style=""font-size:60px;""> </div>","null","FL","learning/Slide133.JPG","That was a tob.","",""
"","image-keyboard-response","407","871883","0.0-8.0-0.53","FL","emk1tsfc0c","1280","720","en","dt05as10","null","","","","","","","","learning/Slide134.JPG","null","","","","",""
"","html-keyboard-response","408","873053","0.0-8.0-1.53","FL","emk1tsfc0c","1280","720","en","dt05as10","null","","","","learningBlock2","","","","That was a dep.","null","","","","",""
"","html-keyboard-response","409","874072","0.0-8.0-2.53","FL","emk1tsfc0c","1280","720","en","dt05as10","null","","","","learningBlock2","","","","<div style=""font-size:60px;""> </div>","null","FL","learning/Slide134.JPG","That was a dep.","",""
"","image-keyboard-response","410","874263","0.0-8.0-0.54","FL","emk1tsfc0c","1280","720","en","dt05as10","null","","","","","","","","learning/Slide135.JPG","null","","","","",""
"","html-keyboard-response","411","875442","0.0-8.0-1.54","FL","emk1tsfc0c","1280","720","en","dt05as10","null","","","","learningBlock2","","","","That was a tob.","null","","","","",""
"","html-keyboard-response","412","876462","0.0-8.0-2.54","FL","emk1tsfc0c","1280","720","en","dt05as10","null","","","","learningBlock2","","","","<div style=""font-size:60px;""> </div>","null","FL","learning/Slide135.JPG","That was a tob.","",""
"","image-keyboard-response","413","876653","0.0-8.0-0.55","FL","emk1tsfc0c","1280","720","en","dt05as10","null","","","","","","","","learning/Slide136.JPG","null","","","","",""
"","html-keyboard-response","414","877822","0.0-8.0-1.55","FL","emk1tsfc0c","1280","720","en","dt05as10","null","","","","learningBlock2","","","","That was a wug.","null","","","","",""
"","html-keyboard-response","415","878843","0.0-8.0-2.55","FL","emk1tsfc0c","1280","720","en","dt05as10","null","","","","learningBlock2","","","","<div style=""font-size:60px;""> </div>","null","FL","learning/Slide136.JPG","That was a wug.","",""
"","image-keyboard-response","416","879033","0.0-8.0-0.56","FL","emk1tsfc0c","1280","720","en","dt05as10","null","","","","","","","","learning/Slide137.JPG","null","","","","",""
"","html-keyboard-response","417","880212","0.0-8.0-1.56","FL","emk1tsfc0c","1280","720","en","dt05as10","null","","","","learningBlock2","","","","That was a tob.","null","","","","",""
"","html-keyboard-response","418","881233","0.0-8.0-2.56","FL","emk1tsfc0c","1280","720","en","dt05as10","null","","","","learningBlock2","","","","<div style=""font-size:60px;""> </div>","null","FL","learning/Slide137.JPG","That was a tob.","",""
"","image-keyboard-response","419","881423","0.0-8.0-0.57","FL","emk1tsfc0c","1280","720","en","dt05as10","null","","","","","","","","learning/Slide138.JPG","null","","","","",""
"","html-keyboard-response","420","882592","0.0-8.0-1.57","FL","emk1tsfc0c","1280","720","en","dt05as10","null","","","","learningBlock2","","","","That was a bim.","null","","","","",""
"","html-keyboard-response","421","883603","0.0-8.0-2.57","FL","emk1tsfc0c","1280","720","en","dt05as10","null","","","","learningBlock2","","","","<div style=""font-size:60px;""> </div>","null","FL","learning/Slide138.JPG","That was a bim.","",""
"","image-keyboard-response","422","883792","0.0-8.0-0.58","FL","emk1tsfc0c","1280","720","en","dt05as10","null","","","","","","","","learning/Slide139.JPG","null","","","","",""
"","html-keyboard-response","423","884973","0.0-8.0-1.58","FL","emk1tsfc0c","1280","720","en","dt05as10","null","","","","learningBlock2","","","","That was a wug.","null","","","","",""
"","html-keyboard-response","424","885993","0.0-8.0-2.58","FL","emk1tsfc0c","1280","720","en","dt05as10","null","","","","learningBlock2","","","","<div style=""font-size:60px;""> </div>","null","FL","learning/Slide139.JPG","That was a wug.","",""
"","image-keyboard-response","425","886183","0.0-8.0-0.59","FL","emk1tsfc0c","1280","720","en","dt05as10","null","","","","","","","","learning/Slide140.JPG","null","","","","",""
"","html-keyboard-response","426","887362","0.0-8.0-1.59","FL","emk1tsfc0c","1280","720","en","dt05as10","null","","","","learningBlock2","","","","That was a dep.","null","","","","",""
"","html-keyboard-response","427","888383","0.0-8.0-2.59","FL","emk1tsfc0c","1280","720","en","dt05as10","null","","","","learningBlock2","","","","<div style=""font-size:60px;""> </div>","null","FL","learning/Slide140.JPG","That was a dep.","",""
"","image-keyboard-response","428","888573","0.0-8.0-0.60","FL","emk1tsfc0c","1280","720","en","dt05as10","null","","","","","","","","learning/Slide141.JPG","null","","","","",""
"","html-keyboard-response","429","889752","0.0-8.0-1.60","FL","emk1tsfc0c","1280","720","en","dt05as10","null","","","","learningBlock2","","","","That was a tob.","null","","","","",""
"","html-keyboard-response","430","890765","0.0-8.0-2.60","FL","emk1tsfc0c","1280","720","en","dt05as10","null","","","","learningBlock2","","","","<div style=""font-size:60px;""> </div>","null","FL","learning/Slide141.JPG","That was a tob.","",""
"","image-keyboard-response","431","890953","0.0-8.0-0.61","FL","emk1tsfc0c","1280","720","en","dt05as10","null","","","","","","","","learning/Slide142.JPG","null","","","","",""
"","html-keyboard-response","432","892133","0.0-8.0-1.61","FL","emk1tsfc0c","1280","720","en","dt05as10","null","","","","learningBlock2","","","","That was a wug.","null","","","","",""
"","html-keyboard-response","433","893153","0.0-8.0-2.61","FL","emk1tsfc0c","1280","720","en","dt05as10","null","","","","learningBlock2","","","","<div style=""font-size:60px;""> </div>","null","FL","learning/Slide142.JPG","That was a wug.","",""
"","image-keyboard-response","434","893343","0.0-8.0-0.62","FL","emk1tsfc0c","1280","720","en","dt05as10","null","","","","","","","","learning/Slide143.JPG","null","","","","",""
"","html-keyboard-response","435","894523","0.0-8.0-1.62","FL","emk1tsfc0c","1280","720","en","dt05as10","null","","","","learningBlock2","","","","That was a bim.","null","","","","",""
"","html-keyboard-response","436","895533","0.0-8.0-2.62","FL","emk1tsfc0c","1280","720","en","dt05as10","null","","","","learningBlock2","","","","<div style=""font-size:60px;""> </div>","null","FL","learning/Slide143.JPG","That was a bim.","",""
"","image-keyboard-response","437","895723","0.0-8.0-0.63","FL","emk1tsfc0c","1280","720","en","dt05as10","null","","","","","","","","learning/Slide144.JPG","null","","","","",""
"","html-keyboard-response","438","896902","0.0-8.0-1.63","FL","emk1tsfc0c","1280","720","en","dt05as10","null","","","","learningBlock2","","","","That was a dep.","null","","","","",""
"","html-keyboard-response","439","897922","0.0-8.0-2.63","FL","emk1tsfc0c","1280","720","en","dt05as10","null","","","","learningBlock2","","","","<div style=""font-size:60px;""> </div>","null","FL","learning/Slide144.JPG","That was a dep.","",""
"","image-keyboard-response","440","898114","0.0-8.0-0.64","FL","emk1tsfc0c","1280","720","en","dt05as10","null","","","","","","","","learning/Slide145.JPG","null","","","","",""
"","html-keyboard-response","441","899282","0.0-8.0-1.64","FL","emk1tsfc0c","1280","720","en","dt05as10","null","","","","learningBlock2","","","","That was a bim.","null","","","","",""
"","html-keyboard-response","442","900292","0.0-8.0-2.64","FL","emk1tsfc0c","1280","720","en","dt05as10","null","","","","learningBlock2","","","","<div style=""font-size:60px;""> </div>","null","FL","learning/Slide145.JPG","That was a bim.","",""
"","image-keyboard-response","443","900482","0.0-8.0-0.65","FL","emk1tsfc0c","1280","720","en","dt05as10","null","","","","","","","","learning/Slide146.JPG","null","","","","",""
"","html-keyboard-response","444","901653","0.0-8.0-1.65","FL","emk1tsfc0c","1280","720","en","dt05as10","null","","","","learningBlock2","","","","That was a tob.","null","","","","",""
"","html-keyboard-response","445","902672","0.0-8.0-2.65","FL","emk1tsfc0c","1280","720","en","dt05as10","null","","","","learningBlock2","","","","<div style=""font-size:60px;""> </div>","null","FL","learning/Slide146.JPG","That was a tob.","",""
"","image-keyboard-response","446","902863","0.0-8.0-0.66","FL","emk1tsfc0c","1280","720","en","dt05as10","null","","","","","","","","learning/Slide147.JPG","null","","","","",""
"","html-keyboard-response","447","904042","0.0-8.0-1.66","FL","emk1tsfc0c","1280","720","en","dt05as10","null","","","","learningBlock2","","","","That was a wug.","null","","","","",""
"","html-keyboard-response","448","905062","0.0-8.0-2.66","FL","emk1tsfc0c","1280","720","en","dt05as10","null","","","","learningBlock2","","","","<div style=""font-size:60px;""> </div>","null","FL","learning/Slide147.JPG","That was a wug.","",""
"","image-keyboard-response","449","905252","0.0-8.0-0.67","FL","emk1tsfc0c","1280","720","en","dt05as10","null","","","","","","","","learning/Slide148.JPG","null","","","","",""
"","html-keyboard-response","450","906433","0.0-8.0-1.67","FL","emk1tsfc0c","1280","720","en","dt05as10","null","","","","learningBlock2","","","","That was a bim.","null","","","","",""
"","html-keyboard-response","451","907453","0.0-8.0-2.67","FL","emk1tsfc0c","1280","720","en","dt05as10","null","","","","learningBlock2","","","","<div style=""font-size:60px;""> </div>","null","FL","learning/Slide148.JPG","That was a bim.","",""
"","image-keyboard-response","452","907643","0.0-8.0-0.68","FL","emk1tsfc0c","1280","720","en","dt05as10","null","","","","","","","","learning/Slide149.JPG","null","","","","",""
"","html-keyboard-response","453","908813","0.0-8.0-1.68","FL","emk1tsfc0c","1280","720","en","dt05as10","null","","","","learningBlock2","","","","That was a dep.","null","","","","",""
"","html-keyboard-response","454","909833","0.0-8.0-2.68","FL","emk1tsfc0c","1280","720","en","dt05as10","null","","","","learningBlock2","","","","<div style=""font-size:60px;""> </div>","null","FL","learning/Slide149.JPG","That was a dep.","",""
"","image-keyboard-response","455","910023","0.0-8.0-0.69","FL","emk1tsfc0c","1280","720","en","dt05as10","null","","","","","","","","learning/Slide150.JPG","null","","","","",""
"","html-keyboard-response","456","911182","0.0-8.0-1.69","FL","emk1tsfc0c","1280","720","en","dt05as10","null","","","","learningBlock2","","","","That was a wug.","null","","","","",""
"","html-keyboard-response","457","912203","0.0-8.0-2.69","FL","emk1tsfc0c","1280","720","en","dt05as10","null","","","","learningBlock2","","","","<div style=""font-size:60px;""> </div>","null","FL","learning/Slide150.JPG","That was a wug.","",""
"","image-keyboard-response","458","912393","0.0-8.0-0.70","FL","emk1tsfc0c","1280","720","en","dt05as10","null","","","","","","","","learning/Slide151.JPG","null","","","","",""
"","html-keyboard-response","459","913573","0.0-8.0-1.70","FL","emk1tsfc0c","1280","720","en","dt05as10","null","","","","learningBlock2","","","","That was a dep.","null","","","","",""
"","html-keyboard-response","460","914592","0.0-8.0-2.70","FL","emk1tsfc0c","1280","720","en","dt05as10","null","","","","learningBlock2","","","","<div style=""font-size:60px;""> </div>","null","FL","learning/Slide151.JPG","That was a dep.","",""
"","image-keyboard-response","461","914783","0.0-8.0-0.71","FL","emk1tsfc0c","1280","720","en","dt05as10","null","","","","","","","","learning/Slide152.JPG","null","","","","",""
"","html-keyboard-response","462","915963","0.0-8.0-1.71","FL","emk1tsfc0c","1280","720","en","dt05as10","null","","","","learningBlock2","","","","That was a wug.","null","","","","",""
"","html-keyboard-response","463","916983","0.0-8.0-2.71","FL","emk1tsfc0c","1280","720","en","dt05as10","null","","","","learningBlock2","","","","<div style=""font-size:60px;""> </div>","null","FL","learning/Slide152.JPG","That was a wug.","",""
"","image-keyboard-response","464","917162","0.0-8.0-0.72","FL","emk1tsfc0c","1280","720","en","dt05as10","null","","","","","","","","learning/Slide153.JPG","null","","","","",""
"","html-keyboard-response","465","918338","0.0-8.0-1.72","FL","emk1tsfc0c","1280","720","en","dt05as10","null","","","","learningBlock2","","","","That was a bim.","null","","","","",""
"","html-keyboard-response","466","919345","0.0-8.0-2.72","FL","emk1tsfc0c","1280","720","en","dt05as10","null","","","","learningBlock2","","","","<div style=""font-size:60px;""> </div>","null","FL","learning/Slide153.JPG","That was a bim.","",""
"","image-keyboard-response","467","919531","0.0-8.0-0.73","FL","emk1tsfc0c","1280","720","en","dt05as10","null","","","","","","","","learning/Slide154.JPG","null","","","","",""
"","html-keyboard-response","468","920697","0.0-8.0-1.73","FL","emk1tsfc0c","1280","720","en","dt05as10","null","","","","learningBlock2","","","","That was a tob.","null","","","","",""
"","html-keyboard-response","469","921703","0.0-8.0-2.73","FL","emk1tsfc0c","1280","720","en","dt05as10","null","","","","learningBlock2","","","","<div style=""font-size:60px;""> </div>","null","FL","learning/Slide154.JPG","That was a tob.","",""
"","image-keyboard-response","470","921893","0.0-8.0-0.74","FL","emk1tsfc0c","1280","720","en","dt05as10","null","","","","","","","","learning/Slide155.JPG","null","","","","",""
"","html-keyboard-response","471","923073","0.0-8.0-1.74","FL","emk1tsfc0c","1280","720","en","dt05as10","null","","","","learningBlock2","","","","That was a dep.","null","","","","",""
"","html-keyboard-response","472","924092","0.0-8.0-2.74","FL","emk1tsfc0c","1280","720","en","dt05as10","null","","","","learningBlock2","","","","<div style=""font-size:60px;""> </div>","null","FL","learning/Slide155.JPG","That was a dep.","",""
"","image-keyboard-response","473","924283","0.0-8.0-0.75","FL","emk1tsfc0c","1280","720","en","dt05as10","null","","","","","","","","learning/Slide156.JPG","null","","","","",""
"","html-keyboard-response","474","925465","0.0-8.0-1.75","FL","emk1tsfc0c","1280","720","en","dt05as10","null","","","","learningBlock2","","","","That was a bim.","null","","","","",""
"","html-keyboard-response","475","926483","0.0-8.0-2.75","FL","emk1tsfc0c","1280","720","en","dt05as10","null","","","","learningBlock2","","","","<div style=""font-size:60px;""> </div>","null","FL","learning/Slide156.JPG","That was a bim.","",""
"","image-keyboard-response","476","926672","0.0-8.0-0.76","FL","emk1tsfc0c","1280","720","en","dt05as10","null","","","","","","","","learning/Slide157.JPG","null","","","","",""
"","html-keyboard-response","477","927844","0.0-8.0-1.76","FL","emk1tsfc0c","1280","720","en","dt05as10","null","","","","learningBlock2","","","","That was a dep.","null","","","","",""
"","html-keyboard-response","478","928853","0.0-8.0-2.76","FL","emk1tsfc0c","1280","720","en","dt05as10","null","","","","learningBlock2","","","","<div style=""font-size:60px;""> </div>","null","FL","learning/Slide157.JPG","That was a dep.","",""
"","image-keyboard-response","479","929043","0.0-8.0-0.77","FL","emk1tsfc0c","1280","720","en","dt05as10","null","","","","","","","","learning/Slide158.JPG","null","","","","",""
"","html-keyboard-response","480","930223","0.0-8.0-1.77","FL","emk1tsfc0c","1280","720","en","dt05as10","null","","","","learningBlock2","","","","That was a tob.","null","","","","",""
"","html-keyboard-response","481","931243","0.0-8.0-2.77","FL","emk1tsfc0c","1280","720","en","dt05as10","null","","","","learningBlock2","","","","<div style=""font-size:60px;""> </div>","null","FL","learning/Slide158.JPG","That was a tob.","",""
"","image-keyboard-response","482","931433","0.0-8.0-0.78","FL","emk1tsfc0c","1280","720","en","dt05as10","null","","","","","","","","learning/Slide159.JPG","null","","","","",""
"","html-keyboard-response","483","932612","0.0-8.0-1.78","FL","emk1tsfc0c","1280","720","en","dt05as10","null","","","","learningBlock2","","","","That was a dep.","null","","","","",""
"","html-keyboard-response","484","933632","0.0-8.0-2.78","FL","emk1tsfc0c","1280","720","en","dt05as10","null","","","","learningBlock2","","","","<div style=""font-size:60px;""> </div>","null","FL","learning/Slide159.JPG","That was a dep.","",""
"","image-keyboard-response","485","933822","0.0-8.0-0.79","FL","emk1tsfc0c","1280","720","en","dt05as10","null","","","","","","","","learning/Slide160.JPG","null","","","","",""
"","html-keyboard-response","486","935002","0.0-8.0-1.79","FL","emk1tsfc0c","1280","720","en","dt05as10","null","","","","learningBlock2","","","","That was a wug.","null","","","","",""
"","html-keyboard-response","487","936013","0.0-8.0-2.79","FL","emk1tsfc0c","1280","720","en","dt05as10","null","","","","learningBlock2","","","","<div style=""font-size:60px;""> </div>","null","FL","learning/Slide160.JPG","That was a wug.","",""
"","resize2","488","945332","0.0-9.0","FL","emk1tsfc0c","1280","720","en","dt05as10","","","","","","","104","1.04","","","","","","",""
