"success","trial_type","trial_index","time_elapsed","internal_node_id","condition","subject","screen_width","screen_height","language","codeword","rt","responses","url","view_history","test_part","final_height_px","final_width_px","scale_factor","stimulus","key_press","learningType","presentedImage","presentedLabel","button_pressed","response"
"true","fullscreen","0","708024","0.0-0.0","FL","75db5dymcw","1366","768","de","er05en16","","","","","","","","","","","","","","",""
"","survey-html-form","1","714631","0.0-1.0","FL","75db5dymcw","1366","768","de","er05en16","6601.589999999967","{""language"":""de""}","","","","","","","","","","","","",""
"","external-html","2","756557","0.0-2.0-0.0","FL","75db5dymcw","1366","768","de","er05en16","41854.659999999916","","text/information.html","","","","","","","","","","","",""
"","external-html","3","777380","0.0-2.0-1.0","FL","75db5dymcw","1366","768","de","er05en16","20801.344999999972","","text/consent.html","","","","","","","","","","","",""
"","survey-html-form","4","874931","0.0-2.0-2.0","FL","75db5dymcw","1366","768","de","er05en16","97543.58500000008","{""codeword_enter"":""er05en16""}","","","","","","","","","","","","",""
"","instructions","5","1038288","0.0-4.0","FL","75db5dymcw","1366","768","de","er05en16","NA","","","[{""page_index"":0,""viewing_time"":150773.42000000004},{""page_index"":1,""viewing_time"":11079.430000000051}]","instructions","","","","","","","","","",""
"","resize","6","1086831","0.0-5.0","FL","75db5dymcw","1366","768","de","er05en16","","","","","","","274","1.7396825396825397","","","","","","",""
"","image-keyboard-response","7","1087010","0.0-6.0-0.0","FL","75db5dymcw","1366","768","de","er05en16","null","","","","","","","","learning/Slide1.JPG","null","","","","",""
"","html-keyboard-response","8","1088162","0.0-6.0-1.0","FL","75db5dymcw","1366","768","de","er05en16","null","","","","learningBlock1","","","","That was a tob.","null","","","","",""
"","html-keyboard-response","9","1089164","0.0-6.0-2.0","FL","75db5dymcw","1366","768","de","er05en16","null","","","","learningBlock1","","","","<div style=""font-size:60px;""> </div>","null","FL","learning/Slide1.JPG","That was a tob.","",""
"","image-keyboard-response","10","1089342","0.0-6.0-0.1","FL","75db5dymcw","1366","768","de","er05en16","null","","","","","","","","learning/Slide2.JPG","null","","","","",""
"","html-keyboard-response","11","1090493","0.0-6.0-1.1","FL","75db5dymcw","1366","768","de","er05en16","null","","","","learningBlock1","","","","That was a wug.","null","","","","",""
"","html-keyboard-response","12","1091495","0.0-6.0-2.1","FL","75db5dymcw","1366","768","de","er05en16","null","","","","learningBlock1","","","","<div style=""font-size:60px;""> </div>","null","FL","learning/Slide2.JPG","That was a wug.","",""
"","image-keyboard-response","13","1091671","0.0-6.0-0.2","FL","75db5dymcw","1366","768","de","er05en16","null","","","","","","","","learning/Slide3.JPG","null","","","","",""
"","html-keyboard-response","14","1092822","0.0-6.0-1.2","FL","75db5dymcw","1366","768","de","er05en16","null","","","","learningBlock1","","","","That was a bim.","null","","","","",""
"","html-keyboard-response","15","1093824","0.0-6.0-2.2","FL","75db5dymcw","1366","768","de","er05en16","null","","","","learningBlock1","","","","<div style=""font-size:60px;""> </div>","null","FL","learning/Slide3.JPG","That was a bim.","",""
"","image-keyboard-response","16","1094000","0.0-6.0-0.3","FL","75db5dymcw","1366","768","de","er05en16","null","","","","","","","","learning/Slide4.JPG","null","","","","",""
"","html-keyboard-response","17","1095151","0.0-6.0-1.3","FL","75db5dymcw","1366","768","de","er05en16","null","","","","learningBlock1","","","","That was a dep.","null","","","","",""
"","html-keyboard-response","18","1096153","0.0-6.0-2.3","FL","75db5dymcw","1366","768","de","er05en16","null","","","","learningBlock1","","","","<div style=""font-size:60px;""> </div>","null","FL","learning/Slide4.JPG","That was a dep.","",""
"","image-keyboard-response","19","1096329","0.0-6.0-0.4","FL","75db5dymcw","1366","768","de","er05en16","null","","","","","","","","learning/Slide5.JPG","null","","","","",""
"","html-keyboard-response","20","1097480","0.0-6.0-1.4","FL","75db5dymcw","1366","768","de","er05en16","null","","","","learningBlock1","","","","That was a wug.","null","","","","",""
"","html-keyboard-response","21","1098482","0.0-6.0-2.4","FL","75db5dymcw","1366","768","de","er05en16","null","","","","learningBlock1","","","","<div style=""font-size:60px;""> </div>","null","FL","learning/Slide5.JPG","That was a wug.","",""
"","image-keyboard-response","22","1098658","0.0-6.0-0.5","FL","75db5dymcw","1366","768","de","er05en16","null","","","","","","","","learning/Slide6.JPG","null","","","","",""
"","html-keyboard-response","23","1099809","0.0-6.0-1.5","FL","75db5dymcw","1366","768","de","er05en16","null","","","","learningBlock1","","","","That was a dep.","null","","","","",""
"","html-keyboard-response","24","1100810","0.0-6.0-2.5","FL","75db5dymcw","1366","768","de","er05en16","null","","","","learningBlock1","","","","<div style=""font-size:60px;""> </div>","null","FL","learning/Slide6.JPG","That was a dep.","",""
"","image-keyboard-response","25","1100987","0.0-6.0-0.6","FL","75db5dymcw","1366","768","de","er05en16","null","","","","","","","","learning/Slide7.JPG","null","","","","",""
"","html-keyboard-response","26","1102138","0.0-6.0-1.6","FL","75db5dymcw","1366","768","de","er05en16","null","","","","learningBlock1","","","","That was a wug.","null","","","","",""
"","html-keyboard-response","27","1103139","0.0-6.0-2.6","FL","75db5dymcw","1366","768","de","er05en16","null","","","","learningBlock1","","","","<div style=""font-size:60px;""> </div>","null","FL","learning/Slide7.JPG","That was a wug.","",""
"","image-keyboard-response","28","1103315","0.0-6.0-0.7","FL","75db5dymcw","1366","768","de","er05en16","null","","","","","","","","learning/Slide8.JPG","null","","","","",""
"","html-keyboard-response","29","1104467","0.0-6.0-1.7","FL","75db5dymcw","1366","768","de","er05en16","null","","","","learningBlock1","","","","That was a bim.","null","","","","",""
"","html-keyboard-response","30","1105470","0.0-6.0-2.7","FL","75db5dymcw","1366","768","de","er05en16","null","","","","learningBlock1","","","","<div style=""font-size:60px;""> </div>","null","FL","learning/Slide8.JPG","That was a bim.","",""
"","image-keyboard-response","31","1105646","0.0-6.0-0.8","FL","75db5dymcw","1366","768","de","er05en16","null","","","","","","","","learning/Slide9.JPG","null","","","","",""
"","html-keyboard-response","32","1106797","0.0-6.0-1.8","FL","75db5dymcw","1366","768","de","er05en16","null","","","","learningBlock1","","","","That was a wug.","null","","","","",""
"","html-keyboard-response","33","1107799","0.0-6.0-2.8","FL","75db5dymcw","1366","768","de","er05en16","null","","","","learningBlock1","","","","<div style=""font-size:60px;""> </div>","null","FL","learning/Slide9.JPG","That was a wug.","",""
"","image-keyboard-response","34","1107975","0.0-6.0-0.9","FL","75db5dymcw","1366","768","de","er05en16","null","","","","","","","","learning/Slide10.JPG","null","","","","",""
"","html-keyboard-response","35","1109126","0.0-6.0-1.9","FL","75db5dymcw","1366","768","de","er05en16","null","","","","learningBlock1","","","","That was a dep.","null","","","","",""
"","html-keyboard-response","36","1110127","0.0-6.0-2.9","FL","75db5dymcw","1366","768","de","er05en16","null","","","","learningBlock1","","","","<div style=""font-size:60px;""> </div>","null","FL","learning/Slide10.JPG","That was a dep.","",""
"","image-keyboard-response","37","1110303","0.0-6.0-0.10","FL","75db5dymcw","1366","768","de","er05en16","null","","","","","","","","learning/Slide11.JPG","null","","","","",""
"","html-keyboard-response","38","1111454","0.0-6.0-1.10","FL","75db5dymcw","1366","768","de","er05en16","null","","","","learningBlock1","","","","That was a tob.","null","","","","",""
"","html-keyboard-response","39","1112456","0.0-6.0-2.10","FL","75db5dymcw","1366","768","de","er05en16","null","","","","learningBlock1","","","","<div style=""font-size:60px;""> </div>","null","FL","learning/Slide11.JPG","That was a tob.","",""
"","image-keyboard-response","40","1112632","0.0-6.0-0.11","FL","75db5dymcw","1366","768","de","er05en16","null","","","","","","","","learning/Slide12.JPG","null","","","","",""
"","html-keyboard-response","41","1113783","0.0-6.0-1.11","FL","75db5dymcw","1366","768","de","er05en16","null","","","","learningBlock1","","","","That was a dep.","null","","","","",""
"","html-keyboard-response","42","1114784","0.0-6.0-2.11","FL","75db5dymcw","1366","768","de","er05en16","null","","","","learningBlock1","","","","<div style=""font-size:60px;""> </div>","null","FL","learning/Slide12.JPG","That was a dep.","",""
"","image-keyboard-response","43","1114961","0.0-6.0-0.12","FL","75db5dymcw","1366","768","de","er05en16","null","","","","","","","","learning/Slide13.JPG","null","","","","",""
"","html-keyboard-response","44","1116112","0.0-6.0-1.12","FL","75db5dymcw","1366","768","de","er05en16","null","","","","learningBlock1","","","","That was a bim.","null","","","","",""
"","html-keyboard-response","45","1117113","0.0-6.0-2.12","FL","75db5dymcw","1366","768","de","er05en16","null","","","","learningBlock1","","","","<div style=""font-size:60px;""> </div>","null","FL","learning/Slide13.JPG","That was a bim.","",""
"","image-keyboard-response","46","1117289","0.0-6.0-0.13","FL","75db5dymcw","1366","768","de","er05en16","null","","","","","","","","learning/Slide14.JPG","null","","","","",""
"","html-keyboard-response","47","1118440","0.0-6.0-1.13","FL","75db5dymcw","1366","768","de","er05en16","null","","","","learningBlock1","","","","That was a wug.","null","","","","",""
"","html-keyboard-response","48","1119442","0.0-6.0-2.13","FL","75db5dymcw","1366","768","de","er05en16","null","","","","learningBlock1","","","","<div style=""font-size:60px;""> </div>","null","FL","learning/Slide14.JPG","That was a wug.","",""
"","image-keyboard-response","49","1119618","0.0-6.0-0.14","FL","75db5dymcw","1366","768","de","er05en16","null","","","","","","","","learning/Slide15.JPG","null","","","","",""
"","html-keyboard-response","50","1120769","0.0-6.0-1.14","FL","75db5dymcw","1366","768","de","er05en16","null","","","","learningBlock1","","","","That was a tob.","null","","","","",""
"","html-keyboard-response","51","1121770","0.0-6.0-2.14","FL","75db5dymcw","1366","768","de","er05en16","null","","","","learningBlock1","","","","<div style=""font-size:60px;""> </div>","null","FL","learning/Slide15.JPG","That was a tob.","",""
"","image-keyboard-response","52","1121947","0.0-6.0-0.15","FL","75db5dymcw","1366","768","de","er05en16","null","","","","","","","","learning/Slide16.JPG","null","","","","",""
"","html-keyboard-response","53","1123098","0.0-6.0-1.15","FL","75db5dymcw","1366","768","de","er05en16","null","","","","learningBlock1","","","","That was a dep.","null","","","","",""
"","html-keyboard-response","54","1124099","0.0-6.0-2.15","FL","75db5dymcw","1366","768","de","er05en16","null","","","","learningBlock1","","","","<div style=""font-size:60px;""> </div>","null","FL","learning/Slide16.JPG","That was a dep.","",""
"","image-keyboard-response","55","1124275","0.0-6.0-0.16","FL","75db5dymcw","1366","768","de","er05en16","null","","","","","","","","learning/Slide17.JPG","null","","","","",""
"","html-keyboard-response","56","1125426","0.0-6.0-1.16","FL","75db5dymcw","1366","768","de","er05en16","null","","","","learningBlock1","","","","That was a bim.","null","","","","",""
"","html-keyboard-response","57","1126427","0.0-6.0-2.16","FL","75db5dymcw","1366","768","de","er05en16","null","","","","learningBlock1","","","","<div style=""font-size:60px;""> </div>","null","FL","learning/Slide17.JPG","That was a bim.","",""
"","image-keyboard-response","58","1126603","0.0-6.0-0.17","FL","75db5dymcw","1366","768","de","er05en16","null","","","","","","","","learning/Slide18.JPG","null","","","","",""
"","html-keyboard-response","59","1127754","0.0-6.0-1.17","FL","75db5dymcw","1366","768","de","er05en16","null","","","","learningBlock1","","","","That was a tob.","null","","","","",""
"","html-keyboard-response","60","1128756","0.0-6.0-2.17","FL","75db5dymcw","1366","768","de","er05en16","null","","","","learningBlock1","","","","<div style=""font-size:60px;""> </div>","null","FL","learning/Slide18.JPG","That was a tob.","",""
"","image-keyboard-response","61","1128932","0.0-6.0-0.18","FL","75db5dymcw","1366","768","de","er05en16","null","","","","","","","","learning/Slide19.JPG","null","","","","",""
"","html-keyboard-response","62","1130083","0.0-6.0-1.18","FL","75db5dymcw","1366","768","de","er05en16","null","","","","learningBlock1","","","","That was a wug.","null","","","","",""
"","html-keyboard-response","63","1131084","0.0-6.0-2.18","FL","75db5dymcw","1366","768","de","er05en16","null","","","","learningBlock1","","","","<div style=""font-size:60px;""> </div>","null","FL","learning/Slide19.JPG","That was a wug.","",""
"","image-keyboard-response","64","1131261","0.0-6.0-0.19","FL","75db5dymcw","1366","768","de","er05en16","null","","","","","","","","learning/Slide20.JPG","null","","","","",""
"","html-keyboard-response","65","1132412","0.0-6.0-1.19","FL","75db5dymcw","1366","768","de","er05en16","null","","","","learningBlock1","","","","That was a bim.","null","","","","",""
"","html-keyboard-response","66","1133413","0.0-6.0-2.19","FL","75db5dymcw","1366","768","de","er05en16","null","","","","learningBlock1","","","","<div style=""font-size:60px;""> </div>","null","FL","learning/Slide20.JPG","That was a bim.","",""
"","image-keyboard-response","67","1133589","0.0-6.0-0.20","FL","75db5dymcw","1366","768","de","er05en16","null","","","","","","","","learning/Slide21.JPG","null","","","","",""
"","html-keyboard-response","68","1134740","0.0-6.0-1.20","FL","75db5dymcw","1366","768","de","er05en16","null","","","","learningBlock1","","","","That was a dep.","null","","","","",""
"","html-keyboard-response","69","1135745","0.0-6.0-2.20","FL","75db5dymcw","1366","768","de","er05en16","null","","","","learningBlock1","","","","<div style=""font-size:60px;""> </div>","null","FL","learning/Slide21.JPG","That was a dep.","",""
"","image-keyboard-response","70","1135921","0.0-6.0-0.21","FL","75db5dymcw","1366","768","de","er05en16","null","","","","","","","","learning/Slide22.JPG","null","","","","",""
"","html-keyboard-response","71","1137072","0.0-6.0-1.21","FL","75db5dymcw","1366","768","de","er05en16","null","","","","learningBlock1","","","","That was a bim.","null","","","","",""
"","html-keyboard-response","72","1138073","0.0-6.0-2.21","FL","75db5dymcw","1366","768","de","er05en16","null","","","","learningBlock1","","","","<div style=""font-size:60px;""> </div>","null","FL","learning/Slide22.JPG","That was a bim.","",""
"","image-keyboard-response","73","1138249","0.0-6.0-0.22","FL","75db5dymcw","1366","768","de","er05en16","null","","","","","","","","learning/Slide23.JPG","null","","","","",""
"","html-keyboard-response","74","1139400","0.0-6.0-1.22","FL","75db5dymcw","1366","768","de","er05en16","null","","","","learningBlock1","","","","That was a tob.","null","","","","",""
"","html-keyboard-response","75","1140401","0.0-6.0-2.22","FL","75db5dymcw","1366","768","de","er05en16","null","","","","learningBlock1","","","","<div style=""font-size:60px;""> </div>","null","FL","learning/Slide23.JPG","That was a tob.","",""
"","image-keyboard-response","76","1140577","0.0-6.0-0.23","FL","75db5dymcw","1366","768","de","er05en16","null","","","","","","","","learning/Slide24.JPG","null","","","","",""
"","html-keyboard-response","77","1141728","0.0-6.0-1.23","FL","75db5dymcw","1366","768","de","er05en16","null","","","","learningBlock1","","","","That was a wug.","null","","","","",""
"","html-keyboard-response","78","1142729","0.0-6.0-2.23","FL","75db5dymcw","1366","768","de","er05en16","null","","","","learningBlock1","","","","<div style=""font-size:60px;""> </div>","null","FL","learning/Slide24.JPG","That was a wug.","",""
"","image-keyboard-response","79","1142905","0.0-6.0-0.24","FL","75db5dymcw","1366","768","de","er05en16","null","","","","","","","","learning/Slide25.JPG","null","","","","",""
"","html-keyboard-response","80","1144056","0.0-6.0-1.24","FL","75db5dymcw","1366","768","de","er05en16","null","","","","learningBlock1","","","","That was a dep.","null","","","","",""
"","html-keyboard-response","81","1145057","0.0-6.0-2.24","FL","75db5dymcw","1366","768","de","er05en16","null","","","","learningBlock1","","","","<div style=""font-size:60px;""> </div>","null","FL","learning/Slide25.JPG","That was a dep.","",""
"","image-keyboard-response","82","1145233","0.0-6.0-0.25","FL","75db5dymcw","1366","768","de","er05en16","null","","","","","","","","learning/Slide26.JPG","null","","","","",""
"","html-keyboard-response","83","1146384","0.0-6.0-1.25","FL","75db5dymcw","1366","768","de","er05en16","null","","","","learningBlock1","","","","That was a wug.","null","","","","",""
"","html-keyboard-response","84","1147385","0.0-6.0-2.25","FL","75db5dymcw","1366","768","de","er05en16","null","","","","learningBlock1","","","","<div style=""font-size:60px;""> </div>","null","FL","learning/Slide26.JPG","That was a wug.","",""
"","image-keyboard-response","85","1147561","0.0-6.0-0.26","FL","75db5dymcw","1366","768","de","er05en16","null","","","","","","","","learning/Slide27.JPG","null","","","","",""
"","html-keyboard-response","86","1148712","0.0-6.0-1.26","FL","75db5dymcw","1366","768","de","er05en16","null","","","","learningBlock1","","","","That was a bim.","null","","","","",""
"","html-keyboard-response","87","1149713","0.0-6.0-2.26","FL","75db5dymcw","1366","768","de","er05en16","null","","","","learningBlock1","","","","<div style=""font-size:60px;""> </div>","null","FL","learning/Slide27.JPG","That was a bim.","",""
"","image-keyboard-response","88","1149889","0.0-6.0-0.27","FL","75db5dymcw","1366","768","de","er05en16","null","","","","","","","","learning/Slide28.JPG","null","","","","",""
"","html-keyboard-response","89","1151040","0.0-6.0-1.27","FL","75db5dymcw","1366","768","de","er05en16","null","","","","learningBlock1","","","","That was a dep.","null","","","","",""
"","html-keyboard-response","90","1152042","0.0-6.0-2.27","FL","75db5dymcw","1366","768","de","er05en16","null","","","","learningBlock1","","","","<div style=""font-size:60px;""> </div>","null","FL","learning/Slide28.JPG","That was a dep.","",""
"","image-keyboard-response","91","1152218","0.0-6.0-0.28","FL","75db5dymcw","1366","768","de","er05en16","null","","","","","","","","learning/Slide29.JPG","null","","","","",""
"","html-keyboard-response","92","1153369","0.0-6.0-1.28","FL","75db5dymcw","1366","768","de","er05en16","null","","","","learningBlock1","","","","That was a tob.","null","","","","",""
"","html-keyboard-response","93","1154370","0.0-6.0-2.28","FL","75db5dymcw","1366","768","de","er05en16","null","","","","learningBlock1","","","","<div style=""font-size:60px;""> </div>","null","FL","learning/Slide29.JPG","That was a tob.","",""
"","image-keyboard-response","94","1154546","0.0-6.0-0.29","FL","75db5dymcw","1366","768","de","er05en16","null","","","","","","","","learning/Slide30.JPG","null","","","","",""
"","html-keyboard-response","95","1155697","0.0-6.0-1.29","FL","75db5dymcw","1366","768","de","er05en16","null","","","","learningBlock1","","","","That was a dep.","null","","","","",""
"","html-keyboard-response","96","1156699","0.0-6.0-2.29","FL","75db5dymcw","1366","768","de","er05en16","null","","","","learningBlock1","","","","<div style=""font-size:60px;""> </div>","null","FL","learning/Slide30.JPG","That was a dep.","",""
"","image-keyboard-response","97","1156875","0.0-6.0-0.30","FL","75db5dymcw","1366","768","de","er05en16","null","","","","","","","","learning/Slide31.JPG","null","","","","",""
"","html-keyboard-response","98","1158026","0.0-6.0-1.30","FL","75db5dymcw","1366","768","de","er05en16","null","","","","learningBlock1","","","","That was a wug.","null","","","","",""
"","html-keyboard-response","99","1159027","0.0-6.0-2.30","FL","75db5dymcw","1366","768","de","er05en16","null","","","","learningBlock1","","","","<div style=""font-size:60px;""> </div>","null","FL","learning/Slide31.JPG","That was a wug.","",""
"","image-keyboard-response","100","1159203","0.0-6.0-0.31","FL","75db5dymcw","1366","768","de","er05en16","null","","","","","","","","learning/Slide32.JPG","null","","","","",""
"","html-keyboard-response","101","1160354","0.0-6.0-1.31","FL","75db5dymcw","1366","768","de","er05en16","null","","","","learningBlock1","","","","That was a tob.","null","","","","",""
"","html-keyboard-response","102","1161356","0.0-6.0-2.31","FL","75db5dymcw","1366","768","de","er05en16","null","","","","learningBlock1","","","","<div style=""font-size:60px;""> </div>","null","FL","learning/Slide32.JPG","That was a tob.","",""
"","image-keyboard-response","103","1161532","0.0-6.0-0.32","FL","75db5dymcw","1366","768","de","er05en16","null","","","","","","","","learning/Slide33.JPG","null","","","","",""
"","html-keyboard-response","104","1162683","0.0-6.0-1.32","FL","75db5dymcw","1366","768","de","er05en16","null","","","","learningBlock1","","","","That was a bim.","null","","","","",""
"","html-keyboard-response","105","1163684","0.0-6.0-2.32","FL","75db5dymcw","1366","768","de","er05en16","null","","","","learningBlock1","","","","<div style=""font-size:60px;""> </div>","null","FL","learning/Slide33.JPG","That was a bim.","",""
"","image-keyboard-response","106","1163861","0.0-6.0-0.33","FL","75db5dymcw","1366","768","de","er05en16","null","","","","","","","","learning/Slide34.JPG","null","","","","",""
"","html-keyboard-response","107","1165011","0.0-6.0-1.33","FL","75db5dymcw","1366","768","de","er05en16","null","","","","learningBlock1","","","","That was a tob.","null","","","","",""
"","html-keyboard-response","108","1166013","0.0-6.0-2.33","FL","75db5dymcw","1366","768","de","er05en16","null","","","","learningBlock1","","","","<div style=""font-size:60px;""> </div>","null","FL","learning/Slide34.JPG","That was a tob.","",""
"","image-keyboard-response","109","1166189","0.0-6.0-0.34","FL","75db5dymcw","1366","768","de","er05en16","null","","","","","","","","learning/Slide35.JPG","null","","","","",""
"","html-keyboard-response","110","1167340","0.0-6.0-1.34","FL","75db5dymcw","1366","768","de","er05en16","null","","","","learningBlock1","","","","That was a bim.","null","","","","",""
"","html-keyboard-response","111","1168341","0.0-6.0-2.34","FL","75db5dymcw","1366","768","de","er05en16","null","","","","learningBlock1","","","","<div style=""font-size:60px;""> </div>","null","FL","learning/Slide35.JPG","That was a bim.","",""
"","image-keyboard-response","112","1168517","0.0-6.0-0.35","FL","75db5dymcw","1366","768","de","er05en16","null","","","","","","","","learning/Slide36.JPG","null","","","","",""
"","html-keyboard-response","113","1169668","0.0-6.0-1.35","FL","75db5dymcw","1366","768","de","er05en16","null","","","","learningBlock1","","","","That was a dep.","null","","","","",""
"","html-keyboard-response","114","1170669","0.0-6.0-2.35","FL","75db5dymcw","1366","768","de","er05en16","null","","","","learningBlock1","","","","<div style=""font-size:60px;""> </div>","null","FL","learning/Slide36.JPG","That was a dep.","",""
"","image-keyboard-response","115","1170846","0.0-6.0-0.36","FL","75db5dymcw","1366","768","de","er05en16","null","","","","","","","","learning/Slide37.JPG","null","","","","",""
"","html-keyboard-response","116","1171997","0.0-6.0-1.36","FL","75db5dymcw","1366","768","de","er05en16","null","","","","learningBlock1","","","","That was a tob.","null","","","","",""
"","html-keyboard-response","117","1172998","0.0-6.0-2.36","FL","75db5dymcw","1366","768","de","er05en16","null","","","","learningBlock1","","","","<div style=""font-size:60px;""> </div>","null","FL","learning/Slide37.JPG","That was a tob.","",""
"","image-keyboard-response","118","1173174","0.0-6.0-0.37","FL","75db5dymcw","1366","768","de","er05en16","null","","","","","","","","learning/Slide38.JPG","null","","","","",""
"","html-keyboard-response","119","1174325","0.0-6.0-1.37","FL","75db5dymcw","1366","768","de","er05en16","null","","","","learningBlock1","","","","That was a wug.","null","","","","",""
"","html-keyboard-response","120","1175326","0.0-6.0-2.37","FL","75db5dymcw","1366","768","de","er05en16","null","","","","learningBlock1","","","","<div style=""font-size:60px;""> </div>","null","FL","learning/Slide38.JPG","That was a wug.","",""
"","image-keyboard-response","121","1175503","0.0-6.0-0.38","FL","75db5dymcw","1366","768","de","er05en16","null","","","","","","","","learning/Slide39.JPG","null","","","","",""
"","html-keyboard-response","122","1176654","0.0-6.0-1.38","FL","75db5dymcw","1366","768","de","er05en16","null","","","","learningBlock1","","","","That was a bim.","null","","","","",""
"","html-keyboard-response","123","1177655","0.0-6.0-2.38","FL","75db5dymcw","1366","768","de","er05en16","null","","","","learningBlock1","","","","<div style=""font-size:60px;""> </div>","null","FL","learning/Slide39.JPG","That was a bim.","",""
"","image-keyboard-response","124","1177831","0.0-6.0-0.39","FL","75db5dymcw","1366","768","de","er05en16","null","","","","","","","","learning/Slide40.JPG","null","","","","",""
"","html-keyboard-response","125","1178982","0.0-6.0-1.39","FL","75db5dymcw","1366","768","de","er05en16","null","","","","learningBlock1","","","","That was a tob.","null","","","","",""
"","html-keyboard-response","126","1179983","0.0-6.0-2.39","FL","75db5dymcw","1366","768","de","er05en16","null","","","","learningBlock1","","","","<div style=""font-size:60px;""> </div>","null","FL","learning/Slide40.JPG","That was a tob.","",""
"","image-keyboard-response","127","1180160","0.0-6.0-0.40","FL","75db5dymcw","1366","768","de","er05en16","null","","","","","","","","learning/Slide41.JPG","null","","","","",""
"","html-keyboard-response","128","1181311","0.0-6.0-1.40","FL","75db5dymcw","1366","768","de","er05en16","null","","","","learningBlock1","","","","That was a bim.","null","","","","",""
"","html-keyboard-response","129","1182312","0.0-6.0-2.40","FL","75db5dymcw","1366","768","de","er05en16","null","","","","learningBlock1","","","","<div style=""font-size:60px;""> </div>","null","FL","learning/Slide41.JPG","That was a bim.","",""
"","image-keyboard-response","130","1182488","0.0-6.0-0.41","FL","75db5dymcw","1366","768","de","er05en16","null","","","","","","","","learning/Slide42.JPG","null","","","","",""
"","html-keyboard-response","131","1183639","0.0-6.0-1.41","FL","75db5dymcw","1366","768","de","er05en16","null","","","","learningBlock1","","","","That was a dep.","null","","","","",""
"","html-keyboard-response","132","1184641","0.0-6.0-2.41","FL","75db5dymcw","1366","768","de","er05en16","null","","","","learningBlock1","","","","<div style=""font-size:60px;""> </div>","null","FL","learning/Slide42.JPG","That was a dep.","",""
"","image-keyboard-response","133","1184817","0.0-6.0-0.42","FL","75db5dymcw","1366","768","de","er05en16","null","","","","","","","","learning/Slide43.JPG","null","","","","",""
"","html-keyboard-response","134","1185968","0.0-6.0-1.42","FL","75db5dymcw","1366","768","de","er05en16","null","","","","learningBlock1","","","","That was a wug.","null","","","","",""
"","html-keyboard-response","135","1186969","0.0-6.0-2.42","FL","75db5dymcw","1366","768","de","er05en16","null","","","","learningBlock1","","","","<div style=""font-size:60px;""> </div>","null","FL","learning/Slide43.JPG","That was a wug.","",""
"","image-keyboard-response","136","1187145","0.0-6.0-0.43","FL","75db5dymcw","1366","768","de","er05en16","null","","","","","","","","learning/Slide44.JPG","null","","","","",""
"","html-keyboard-response","137","1188296","0.0-6.0-1.43","FL","75db5dymcw","1366","768","de","er05en16","null","","","","learningBlock1","","","","That was a bim.","null","","","","",""
"","html-keyboard-response","138","1189297","0.0-6.0-2.43","FL","75db5dymcw","1366","768","de","er05en16","null","","","","learningBlock1","","","","<div style=""font-size:60px;""> </div>","null","FL","learning/Slide44.JPG","That was a bim.","",""
"","image-keyboard-response","139","1189473","0.0-6.0-0.44","FL","75db5dymcw","1366","768","de","er05en16","null","","","","","","","","learning/Slide45.JPG","null","","","","",""
"","html-keyboard-response","140","1190625","0.0-6.0-1.44","FL","75db5dymcw","1366","768","de","er05en16","null","","","","learningBlock1","","","","That was a wug.","null","","","","",""
"","html-keyboard-response","141","1191626","0.0-6.0-2.44","FL","75db5dymcw","1366","768","de","er05en16","null","","","","learningBlock1","","","","<div style=""font-size:60px;""> </div>","null","FL","learning/Slide45.JPG","That was a wug.","",""
"","image-keyboard-response","142","1191802","0.0-6.0-0.45","FL","75db5dymcw","1366","768","de","er05en16","null","","","","","","","","learning/Slide46.JPG","null","","","","",""
"","html-keyboard-response","143","1192953","0.0-6.0-1.45","FL","75db5dymcw","1366","768","de","er05en16","null","","","","learningBlock1","","","","That was a dep.","null","","","","",""
"","html-keyboard-response","144","1193954","0.0-6.0-2.45","FL","75db5dymcw","1366","768","de","er05en16","null","","","","learningBlock1","","","","<div style=""font-size:60px;""> </div>","null","FL","learning/Slide46.JPG","That was a dep.","",""
"","image-keyboard-response","145","1194130","0.0-6.0-0.46","FL","75db5dymcw","1366","768","de","er05en16","null","","","","","","","","learning/Slide47.JPG","null","","","","",""
"","html-keyboard-response","146","1195281","0.0-6.0-1.46","FL","75db5dymcw","1366","768","de","er05en16","null","","","","learningBlock1","","","","That was a tob.","null","","","","",""
"","html-keyboard-response","147","1196282","0.0-6.0-2.46","FL","75db5dymcw","1366","768","de","er05en16","null","","","","learningBlock1","","","","<div style=""font-size:60px;""> </div>","null","FL","learning/Slide47.JPG","That was a tob.","",""
"","image-keyboard-response","148","1196458","0.0-6.0-0.47","FL","75db5dymcw","1366","768","de","er05en16","null","","","","","","","","learning/Slide48.JPG","null","","","","",""
"","html-keyboard-response","149","1197609","0.0-6.0-1.47","FL","75db5dymcw","1366","768","de","er05en16","null","","","","learningBlock1","","","","That was a bim.","null","","","","",""
"","html-keyboard-response","150","1198611","0.0-6.0-2.47","FL","75db5dymcw","1366","768","de","er05en16","null","","","","learningBlock1","","","","<div style=""font-size:60px;""> </div>","null","FL","learning/Slide48.JPG","That was a bim.","",""
"","image-keyboard-response","151","1198787","0.0-6.0-0.48","FL","75db5dymcw","1366","768","de","er05en16","null","","","","","","","","learning/Slide49.JPG","null","","","","",""
"","html-keyboard-response","152","1199938","0.0-6.0-1.48","FL","75db5dymcw","1366","768","de","er05en16","null","","","","learningBlock1","","","","That was a dep.","null","","","","",""
"","html-keyboard-response","153","1200939","0.0-6.0-2.48","FL","75db5dymcw","1366","768","de","er05en16","null","","","","learningBlock1","","","","<div style=""font-size:60px;""> </div>","null","FL","learning/Slide49.JPG","That was a dep.","",""
"","image-keyboard-response","154","1201115","0.0-6.0-0.49","FL","75db5dymcw","1366","768","de","er05en16","null","","","","","","","","learning/Slide50.JPG","null","","","","",""
"","html-keyboard-response","155","1202266","0.0-6.0-1.49","FL","75db5dymcw","1366","768","de","er05en16","null","","","","learningBlock1","","","","That was a tob.","null","","","","",""
"","html-keyboard-response","156","1203267","0.0-6.0-2.49","FL","75db5dymcw","1366","768","de","er05en16","null","","","","learningBlock1","","","","<div style=""font-size:60px;""> </div>","null","FL","learning/Slide50.JPG","That was a tob.","",""
"","image-keyboard-response","157","1203442","0.0-6.0-0.50","FL","75db5dymcw","1366","768","de","er05en16","null","","","","","","","","learning/Slide51.JPG","null","","","","",""
"","html-keyboard-response","158","1204593","0.0-6.0-1.50","FL","75db5dymcw","1366","768","de","er05en16","null","","","","learningBlock1","","","","That was a bim.","null","","","","",""
"","html-keyboard-response","159","1205594","0.0-6.0-2.50","FL","75db5dymcw","1366","768","de","er05en16","null","","","","learningBlock1","","","","<div style=""font-size:60px;""> </div>","null","FL","learning/Slide51.JPG","That was a bim.","",""
"","image-keyboard-response","160","1205770","0.0-6.0-0.51","FL","75db5dymcw","1366","768","de","er05en16","null","","","","","","","","learning/Slide52.JPG","null","","","","",""
"","html-keyboard-response","161","1206921","0.0-6.0-1.51","FL","75db5dymcw","1366","768","de","er05en16","null","","","","learningBlock1","","","","That was a wug.","null","","","","",""
"","html-keyboard-response","162","1207924","0.0-6.0-2.51","FL","75db5dymcw","1366","768","de","er05en16","null","","","","learningBlock1","","","","<div style=""font-size:60px;""> </div>","null","FL","learning/Slide52.JPG","That was a wug.","",""
"","image-keyboard-response","163","1208100","0.0-6.0-0.52","FL","75db5dymcw","1366","768","de","er05en16","null","","","","","","","","learning/Slide53.JPG","null","","","","",""
"","html-keyboard-response","164","1209251","0.0-6.0-1.52","FL","75db5dymcw","1366","768","de","er05en16","null","","","","learningBlock1","","","","That was a tob.","null","","","","",""
"","html-keyboard-response","165","1210253","0.0-6.0-2.52","FL","75db5dymcw","1366","768","de","er05en16","null","","","","learningBlock1","","","","<div style=""font-size:60px;""> </div>","null","FL","learning/Slide53.JPG","That was a tob.","",""
"","image-keyboard-response","166","1210429","0.0-6.0-0.53","FL","75db5dymcw","1366","768","de","er05en16","null","","","","","","","","learning/Slide54.JPG","null","","","","",""
"","html-keyboard-response","167","1211580","0.0-6.0-1.53","FL","75db5dymcw","1366","768","de","er05en16","null","","","","learningBlock1","","","","That was a dep.","null","","","","",""
"","html-keyboard-response","168","1212581","0.0-6.0-2.53","FL","75db5dymcw","1366","768","de","er05en16","null","","","","learningBlock1","","","","<div style=""font-size:60px;""> </div>","null","FL","learning/Slide54.JPG","That was a dep.","",""
"","image-keyboard-response","169","1212758","0.0-6.0-0.54","FL","75db5dymcw","1366","768","de","er05en16","null","","","","","","","","learning/Slide55.JPG","null","","","","",""
"","html-keyboard-response","170","1213909","0.0-6.0-1.54","FL","75db5dymcw","1366","768","de","er05en16","null","","","","learningBlock1","","","","That was a bim.","null","","","","",""
"","html-keyboard-response","171","1214910","0.0-6.0-2.54","FL","75db5dymcw","1366","768","de","er05en16","null","","","","learningBlock1","","","","<div style=""font-size:60px;""> </div>","null","FL","learning/Slide55.JPG","That was a bim.","",""
"","image-keyboard-response","172","1215086","0.0-6.0-0.55","FL","75db5dymcw","1366","768","de","er05en16","null","","","","","","","","learning/Slide56.JPG","null","","","","",""
"","html-keyboard-response","173","1216237","0.0-6.0-1.55","FL","75db5dymcw","1366","768","de","er05en16","null","","","","learningBlock1","","","","That was a tob.","null","","","","",""
"","html-keyboard-response","174","1217238","0.0-6.0-2.55","FL","75db5dymcw","1366","768","de","er05en16","null","","","","learningBlock1","","","","<div style=""font-size:60px;""> </div>","null","FL","learning/Slide56.JPG","That was a tob.","",""
"","image-keyboard-response","175","1217414","0.0-6.0-0.56","FL","75db5dymcw","1366","768","de","er05en16","null","","","","","","","","learning/Slide57.JPG","null","","","","",""
"","html-keyboard-response","176","1218566","0.0-6.0-1.56","FL","75db5dymcw","1366","768","de","er05en16","null","","","","learningBlock1","","","","That was a dep.","null","","","","",""
"","html-keyboard-response","177","1219567","0.0-6.0-2.56","FL","75db5dymcw","1366","768","de","er05en16","null","","","","learningBlock1","","","","<div style=""font-size:60px;""> </div>","null","FL","learning/Slide57.JPG","That was a dep.","",""
"","image-keyboard-response","178","1219743","0.0-6.0-0.57","FL","75db5dymcw","1366","768","de","er05en16","null","","","","","","","","learning/Slide58.JPG","null","","","","",""
"","html-keyboard-response","179","1220894","0.0-6.0-1.57","FL","75db5dymcw","1366","768","de","er05en16","null","","","","learningBlock1","","","","That was a wug.","null","","","","",""
"","html-keyboard-response","180","1221895","0.0-6.0-2.57","FL","75db5dymcw","1366","768","de","er05en16","null","","","","learningBlock1","","","","<div style=""font-size:60px;""> </div>","null","FL","learning/Slide58.JPG","That was a wug.","",""
"","image-keyboard-response","181","1222071","0.0-6.0-0.58","FL","75db5dymcw","1366","768","de","er05en16","null","","","","","","","","learning/Slide59.JPG","null","","","","",""
"","html-keyboard-response","182","1223222","0.0-6.0-1.58","FL","75db5dymcw","1366","768","de","er05en16","null","","","","learningBlock1","","","","That was a dep.","null","","","","",""
"","html-keyboard-response","183","1224224","0.0-6.0-2.58","FL","75db5dymcw","1366","768","de","er05en16","null","","","","learningBlock1","","","","<div style=""font-size:60px;""> </div>","null","FL","learning/Slide59.JPG","That was a dep.","",""
"","image-keyboard-response","184","1224400","0.0-6.0-0.59","FL","75db5dymcw","1366","768","de","er05en16","null","","","","","","","","learning/Slide60.JPG","null","","","","",""
"","html-keyboard-response","185","1225551","0.0-6.0-1.59","FL","75db5dymcw","1366","768","de","er05en16","null","","","","learningBlock1","","","","That was a wug.","null","","","","",""
"","html-keyboard-response","186","1226552","0.0-6.0-2.59","FL","75db5dymcw","1366","768","de","er05en16","null","","","","learningBlock1","","","","<div style=""font-size:60px;""> </div>","null","FL","learning/Slide60.JPG","That was a wug.","",""
"","image-keyboard-response","187","1226728","0.0-6.0-0.60","FL","75db5dymcw","1366","768","de","er05en16","null","","","","","","","","learning/Slide61.JPG","null","","","","",""
"","html-keyboard-response","188","1227879","0.0-6.0-1.60","FL","75db5dymcw","1366","768","de","er05en16","null","","","","learningBlock1","","","","That was a bim.","null","","","","",""
"","html-keyboard-response","189","1228881","0.0-6.0-2.60","FL","75db5dymcw","1366","768","de","er05en16","null","","","","learningBlock1","","","","<div style=""font-size:60px;""> </div>","null","FL","learning/Slide61.JPG","That was a bim.","",""
"","image-keyboard-response","190","1229057","0.0-6.0-0.61","FL","75db5dymcw","1366","768","de","er05en16","null","","","","","","","","learning/Slide62.JPG","null","","","","",""
"","html-keyboard-response","191","1230208","0.0-6.0-1.61","FL","75db5dymcw","1366","768","de","er05en16","null","","","","learningBlock1","","","","That was a dep.","null","","","","",""
"","html-keyboard-response","192","1231209","0.0-6.0-2.61","FL","75db5dymcw","1366","768","de","er05en16","null","","","","learningBlock1","","","","<div style=""font-size:60px;""> </div>","null","FL","learning/Slide62.JPG","That was a dep.","",""
"","image-keyboard-response","193","1231385","0.0-6.0-0.62","FL","75db5dymcw","1366","768","de","er05en16","null","","","","","","","","learning/Slide63.JPG","null","","","","",""
"","html-keyboard-response","194","1232536","0.0-6.0-1.62","FL","75db5dymcw","1366","768","de","er05en16","null","","","","learningBlock1","","","","That was a bim.","null","","","","",""
"","html-keyboard-response","195","1233538","0.0-6.0-2.62","FL","75db5dymcw","1366","768","de","er05en16","null","","","","learningBlock1","","","","<div style=""font-size:60px;""> </div>","null","FL","learning/Slide63.JPG","That was a bim.","",""
"","image-keyboard-response","196","1233714","0.0-6.0-0.63","FL","75db5dymcw","1366","768","de","er05en16","null","","","","","","","","learning/Slide64.JPG","null","","","","",""
"","html-keyboard-response","197","1234865","0.0-6.0-1.63","FL","75db5dymcw","1366","768","de","er05en16","null","","","","learningBlock1","","","","That was a tob.","null","","","","",""
"","html-keyboard-response","198","1235866","0.0-6.0-2.63","FL","75db5dymcw","1366","768","de","er05en16","null","","","","learningBlock1","","","","<div style=""font-size:60px;""> </div>","null","FL","learning/Slide64.JPG","That was a tob.","",""
"","image-keyboard-response","199","1236042","0.0-6.0-0.64","FL","75db5dymcw","1366","768","de","er05en16","null","","","","","","","","learning/Slide65.JPG","null","","","","",""
"","html-keyboard-response","200","1237193","0.0-6.0-1.64","FL","75db5dymcw","1366","768","de","er05en16","null","","","","learningBlock1","","","","That was a wug.","null","","","","",""
"","html-keyboard-response","201","1238194","0.0-6.0-2.64","FL","75db5dymcw","1366","768","de","er05en16","null","","","","learningBlock1","","","","<div style=""font-size:60px;""> </div>","null","FL","learning/Slide65.JPG","That was a wug.","",""
"","image-keyboard-response","202","1238370","0.0-6.0-0.65","FL","75db5dymcw","1366","768","de","er05en16","null","","","","","","","","learning/Slide66.JPG","null","","","","",""
"","html-keyboard-response","203","1239521","0.0-6.0-1.65","FL","75db5dymcw","1366","768","de","er05en16","null","","","","learningBlock1","","","","That was a dep.","null","","","","",""
"","html-keyboard-response","204","1240523","0.0-6.0-2.65","FL","75db5dymcw","1366","768","de","er05en16","null","","","","learningBlock1","","","","<div style=""font-size:60px;""> </div>","null","FL","learning/Slide66.JPG","That was a dep.","",""
"","image-keyboard-response","205","1240699","0.0-6.0-0.66","FL","75db5dymcw","1366","768","de","er05en16","null","","","","","","","","learning/Slide67.JPG","null","","","","",""
"","html-keyboard-response","206","1241850","0.0-6.0-1.66","FL","75db5dymcw","1366","768","de","er05en16","null","","","","learningBlock1","","","","That was a tob.","null","","","","",""
"","html-keyboard-response","207","1242851","0.0-6.0-2.66","FL","75db5dymcw","1366","768","de","er05en16","null","","","","learningBlock1","","","","<div style=""font-size:60px;""> </div>","null","FL","learning/Slide67.JPG","That was a tob.","",""
"","image-keyboard-response","208","1243027","0.0-6.0-0.67","FL","75db5dymcw","1366","768","de","er05en16","null","","","","","","","","learning/Slide68.JPG","null","","","","",""
"","html-keyboard-response","209","1244178","0.0-6.0-1.67","FL","75db5dymcw","1366","768","de","er05en16","null","","","","learningBlock1","","","","That was a wug.","null","","","","",""
"","html-keyboard-response","210","1245179","0.0-6.0-2.67","FL","75db5dymcw","1366","768","de","er05en16","null","","","","learningBlock1","","","","<div style=""font-size:60px;""> </div>","null","FL","learning/Slide68.JPG","That was a wug.","",""
"","image-keyboard-response","211","1245355","0.0-6.0-0.68","FL","75db5dymcw","1366","768","de","er05en16","null","","","","","","","","learning/Slide69.JPG","null","","","","",""
"","html-keyboard-response","212","1246506","0.0-6.0-1.68","FL","75db5dymcw","1366","768","de","er05en16","null","","","","learningBlock1","","","","That was a tob.","null","","","","",""
"","html-keyboard-response","213","1247507","0.0-6.0-2.68","FL","75db5dymcw","1366","768","de","er05en16","null","","","","learningBlock1","","","","<div style=""font-size:60px;""> </div>","null","FL","learning/Slide69.JPG","That was a tob.","",""
"","image-keyboard-response","214","1247684","0.0-6.0-0.69","FL","75db5dymcw","1366","768","de","er05en16","null","","","","","","","","learning/Slide70.JPG","null","","","","",""
"","html-keyboard-response","215","1248835","0.0-6.0-1.69","FL","75db5dymcw","1366","768","de","er05en16","null","","","","learningBlock1","","","","That was a dep.","null","","","","",""
"","html-keyboard-response","216","1249836","0.0-6.0-2.69","FL","75db5dymcw","1366","768","de","er05en16","null","","","","learningBlock1","","","","<div style=""font-size:60px;""> </div>","null","FL","learning/Slide70.JPG","That was a dep.","",""
"","image-keyboard-response","217","1250012","0.0-6.0-0.70","FL","75db5dymcw","1366","768","de","er05en16","null","","","","","","","","learning/Slide71.JPG","null","","","","",""
"","html-keyboard-response","218","1251163","0.0-6.0-1.70","FL","75db5dymcw","1366","768","de","er05en16","null","","","","learningBlock1","","","","That was a wug.","null","","","","",""
"","html-keyboard-response","219","1252164","0.0-6.0-2.70","FL","75db5dymcw","1366","768","de","er05en16","null","","","","learningBlock1","","","","<div style=""font-size:60px;""> </div>","null","FL","learning/Slide71.JPG","That was a wug.","",""
"","image-keyboard-response","220","1252340","0.0-6.0-0.71","FL","75db5dymcw","1366","768","de","er05en16","null","","","","","","","","learning/Slide72.JPG","null","","","","",""
"","html-keyboard-response","221","1253491","0.0-6.0-1.71","FL","75db5dymcw","1366","768","de","er05en16","null","","","","learningBlock1","","","","That was a bim.","null","","","","",""
"","html-keyboard-response","222","1254492","0.0-6.0-2.71","FL","75db5dymcw","1366","768","de","er05en16","null","","","","learningBlock1","","","","<div style=""font-size:60px;""> </div>","null","FL","learning/Slide72.JPG","That was a bim.","",""
"","image-keyboard-response","223","1254669","0.0-6.0-0.72","FL","75db5dymcw","1366","768","de","er05en16","null","","","","","","","","learning/Slide73.JPG","null","","","","",""
"","html-keyboard-response","224","1255820","0.0-6.0-1.72","FL","75db5dymcw","1366","768","de","er05en16","null","","","","learningBlock1","","","","That was a wug.","null","","","","",""
"","html-keyboard-response","225","1256821","0.0-6.0-2.72","FL","75db5dymcw","1366","768","de","er05en16","null","","","","learningBlock1","","","","<div style=""font-size:60px;""> </div>","null","FL","learning/Slide73.JPG","That was a wug.","",""
"","image-keyboard-response","226","1256997","0.0-6.0-0.73","FL","75db5dymcw","1366","768","de","er05en16","null","","","","","","","","learning/Slide74.JPG","null","","","","",""
"","html-keyboard-response","227","1258148","0.0-6.0-1.73","FL","75db5dymcw","1366","768","de","er05en16","null","","","","learningBlock1","","","","That was a dep.","null","","","","",""
"","html-keyboard-response","228","1259149","0.0-6.0-2.73","FL","75db5dymcw","1366","768","de","er05en16","null","","","","learningBlock1","","","","<div style=""font-size:60px;""> </div>","null","FL","learning/Slide74.JPG","That was a dep.","",""
"","image-keyboard-response","229","1259325","0.0-6.0-0.74","FL","75db5dymcw","1366","768","de","er05en16","null","","","","","","","","learning/Slide75.JPG","null","","","","",""
"","html-keyboard-response","230","1260476","0.0-6.0-1.74","FL","75db5dymcw","1366","768","de","er05en16","null","","","","learningBlock1","","","","That was a tob.","null","","","","",""
"","html-keyboard-response","231","1261477","0.0-6.0-2.74","FL","75db5dymcw","1366","768","de","er05en16","null","","","","learningBlock1","","","","<div style=""font-size:60px;""> </div>","null","FL","learning/Slide75.JPG","That was a tob.","",""
"","image-keyboard-response","232","1261653","0.0-6.0-0.75","FL","75db5dymcw","1366","768","de","er05en16","null","","","","","","","","learning/Slide76.JPG","null","","","","",""
"","html-keyboard-response","233","1262804","0.0-6.0-1.75","FL","75db5dymcw","1366","768","de","er05en16","null","","","","learningBlock1","","","","That was a bim.","null","","","","",""
"","html-keyboard-response","234","1263805","0.0-6.0-2.75","FL","75db5dymcw","1366","768","de","er05en16","null","","","","learningBlock1","","","","<div style=""font-size:60px;""> </div>","null","FL","learning/Slide76.JPG","That was a bim.","",""
"","image-keyboard-response","235","1263981","0.0-6.0-0.76","FL","75db5dymcw","1366","768","de","er05en16","null","","","","","","","","learning/Slide77.JPG","null","","","","",""
"","html-keyboard-response","236","1265132","0.0-6.0-1.76","FL","75db5dymcw","1366","768","de","er05en16","null","","","","learningBlock1","","","","That was a tob.","null","","","","",""
"","html-keyboard-response","237","1266133","0.0-6.0-2.76","FL","75db5dymcw","1366","768","de","er05en16","null","","","","learningBlock1","","","","<div style=""font-size:60px;""> </div>","null","FL","learning/Slide77.JPG","That was a tob.","",""
"","image-keyboard-response","238","1266309","0.0-6.0-0.77","FL","75db5dymcw","1366","768","de","er05en16","null","","","","","","","","learning/Slide78.JPG","null","","","","",""
"","html-keyboard-response","239","1267460","0.0-6.0-1.77","FL","75db5dymcw","1366","768","de","er05en16","null","","","","learningBlock1","","","","That was a wug.","null","","","","",""
"","html-keyboard-response","240","1268461","0.0-6.0-2.77","FL","75db5dymcw","1366","768","de","er05en16","null","","","","learningBlock1","","","","<div style=""font-size:60px;""> </div>","null","FL","learning/Slide78.JPG","That was a wug.","",""
"","image-keyboard-response","241","1268637","0.0-6.0-0.78","FL","75db5dymcw","1366","768","de","er05en16","null","","","","","","","","learning/Slide79.JPG","null","","","","",""
"","html-keyboard-response","242","1269788","0.0-6.0-1.78","FL","75db5dymcw","1366","768","de","er05en16","null","","","","learningBlock1","","","","That was a bim.","null","","","","",""
"","html-keyboard-response","243","1270790","0.0-6.0-2.78","FL","75db5dymcw","1366","768","de","er05en16","null","","","","learningBlock1","","","","<div style=""font-size:60px;""> </div>","null","FL","learning/Slide79.JPG","That was a bim.","",""
"","image-keyboard-response","244","1270966","0.0-6.0-0.79","FL","75db5dymcw","1366","768","de","er05en16","null","","","","","","","","learning/Slide80.JPG","null","","","","",""
"","html-keyboard-response","245","1272117","0.0-6.0-1.79","FL","75db5dymcw","1366","768","de","er05en16","null","","","","learningBlock1","","","","That was a tob.","null","","","","",""
"","html-keyboard-response","246","1273118","0.0-6.0-2.79","FL","75db5dymcw","1366","768","de","er05en16","null","","","","learningBlock1","","","","<div style=""font-size:60px;""> </div>","null","FL","learning/Slide80.JPG","That was a tob.","",""
"","instructions","247","1284338","0.0-7.0","FL","75db5dymcw","1366","768","de","er05en16","NA","","","[{""page_index"":0,""viewing_time"":11218.070000000298}]","instructions","","","","","","","","","",""
"","image-keyboard-response","248","1284514","0.0-8.0-0.0","FL","75db5dymcw","1366","768","de","er05en16","null","","","","","","","","learning/Slide81.JPG","null","","","","",""
"","html-keyboard-response","249","1285665","0.0-8.0-1.0","FL","75db5dymcw","1366","768","de","er05en16","null","","","","learningBlock2","","","","That was a wug.","null","","","","",""
"","html-keyboard-response","250","1286667","0.0-8.0-2.0","FL","75db5dymcw","1366","768","de","er05en16","null","","","","learningBlock2","","","","<div style=""font-size:60px;""> </div>","null","FL","learning/Slide81.JPG","That was a wug.","",""
"","image-keyboard-response","251","1286843","0.0-8.0-0.1","FL","75db5dymcw","1366","768","de","er05en16","null","","","","","","","","learning/Slide82.JPG","null","","","","",""
"","html-keyboard-response","252","1287994","0.0-8.0-1.1","FL","75db5dymcw","1366","768","de","er05en16","null","","","","learningBlock2","","","","That was a bim.","null","","","","",""
"","html-keyboard-response","253","1288995","0.0-8.0-2.1","FL","75db5dymcw","1366","768","de","er05en16","null","","","","learningBlock2","","","","<div style=""font-size:60px;""> </div>","null","FL","learning/Slide82.JPG","That was a bim.","",""
"","image-keyboard-response","254","1289171","0.0-8.0-0.2","FL","75db5dymcw","1366","768","de","er05en16","null","","","","","","","","learning/Slide83.JPG","null","","","","",""
"","html-keyboard-response","255","1290322","0.0-8.0-1.2","FL","75db5dymcw","1366","768","de","er05en16","null","","","","learningBlock2","","","","That was a wug.","null","","","","",""
"","html-keyboard-response","256","1291324","0.0-8.0-2.2","FL","75db5dymcw","1366","768","de","er05en16","null","","","","learningBlock2","","","","<div style=""font-size:60px;""> </div>","null","FL","learning/Slide83.JPG","That was a wug.","",""
"","image-keyboard-response","257","1291500","0.0-8.0-0.3","FL","75db5dymcw","1366","768","de","er05en16","null","","","","","","","","learning/Slide84.JPG","null","","","","",""
"","html-keyboard-response","258","1292651","0.0-8.0-1.3","FL","75db5dymcw","1366","768","de","er05en16","null","","","","learningBlock2","","","","That was a dep.","null","","","","",""
"","html-keyboard-response","259","1293652","0.0-8.0-2.3","FL","75db5dymcw","1366","768","de","er05en16","null","","","","learningBlock2","","","","<div style=""font-size:60px;""> </div>","null","FL","learning/Slide84.JPG","That was a dep.","",""
"","image-keyboard-response","260","1293828","0.0-8.0-0.4","FL","75db5dymcw","1366","768","de","er05en16","null","","","","","","","","learning/Slide85.JPG","null","","","","",""
"","html-keyboard-response","261","1294979","0.0-8.0-1.4","FL","75db5dymcw","1366","768","de","er05en16","null","","","","learningBlock2","","","","That was a bim.","null","","","","",""
"","html-keyboard-response","262","1295981","0.0-8.0-2.4","FL","75db5dymcw","1366","768","de","er05en16","null","","","","learningBlock2","","","","<div style=""font-size:60px;""> </div>","null","FL","learning/Slide85.JPG","That was a bim.","",""
"","image-keyboard-response","263","1296157","0.0-8.0-0.5","FL","75db5dymcw","1366","768","de","er05en16","null","","","","","","","","learning/Slide86.JPG","null","","","","",""
"","html-keyboard-response","264","1297308","0.0-8.0-1.5","FL","75db5dymcw","1366","768","de","er05en16","null","","","","learningBlock2","","","","That was a tob.","null","","","","",""
"","html-keyboard-response","265","1298310","0.0-8.0-2.5","FL","75db5dymcw","1366","768","de","er05en16","null","","","","learningBlock2","","","","<div style=""font-size:60px;""> </div>","null","FL","learning/Slide86.JPG","That was a tob.","",""
"","image-keyboard-response","266","1298486","0.0-8.0-0.6","FL","75db5dymcw","1366","768","de","er05en16","null","","","","","","","","learning/Slide87.JPG","null","","","","",""
"","html-keyboard-response","267","1299637","0.0-8.0-1.6","FL","75db5dymcw","1366","768","de","er05en16","null","","","","learningBlock2","","","","That was a wug.","null","","","","",""
"","html-keyboard-response","268","1300638","0.0-8.0-2.6","FL","75db5dymcw","1366","768","de","er05en16","null","","","","learningBlock2","","","","<div style=""font-size:60px;""> </div>","null","FL","learning/Slide87.JPG","That was a wug.","",""
"","image-keyboard-response","269","1300814","0.0-8.0-0.7","FL","75db5dymcw","1366","768","de","er05en16","null","","","","","","","","learning/Slide88.JPG","null","","","","",""
"","html-keyboard-response","270","1301965","0.0-8.0-1.7","FL","75db5dymcw","1366","768","de","er05en16","null","","","","learningBlock2","","","","That was a tob.","null","","","","",""
"","html-keyboard-response","271","1302966","0.0-8.0-2.7","FL","75db5dymcw","1366","768","de","er05en16","null","","","","learningBlock2","","","","<div style=""font-size:60px;""> </div>","null","FL","learning/Slide88.JPG","That was a tob.","",""
"","image-keyboard-response","272","1303142","0.0-8.0-0.8","FL","75db5dymcw","1366","768","de","er05en16","null","","","","","","","","learning/Slide89.JPG","null","","","","",""
"","html-keyboard-response","273","1304293","0.0-8.0-1.8","FL","75db5dymcw","1366","768","de","er05en16","null","","","","learningBlock2","","","","That was a bim.","null","","","","",""
"","html-keyboard-response","274","1305294","0.0-8.0-2.8","FL","75db5dymcw","1366","768","de","er05en16","null","","","","learningBlock2","","","","<div style=""font-size:60px;""> </div>","null","FL","learning/Slide89.JPG","That was a bim.","",""
"","image-keyboard-response","275","1305471","0.0-8.0-0.9","FL","75db5dymcw","1366","768","de","er05en16","null","","","","","","","","learning/Slide90.JPG","null","","","","",""
"","html-keyboard-response","276","1306622","0.0-8.0-1.9","FL","75db5dymcw","1366","768","de","er05en16","null","","","","learningBlock2","","","","That was a dep.","null","","","","",""
"","html-keyboard-response","277","1307623","0.0-8.0-2.9","FL","75db5dymcw","1366","768","de","er05en16","null","","","","learningBlock2","","","","<div style=""font-size:60px;""> </div>","null","FL","learning/Slide90.JPG","That was a dep.","",""
"","image-keyboard-response","278","1307799","0.0-8.0-0.10","FL","75db5dymcw","1366","768","de","er05en16","null","","","","","","","","learning/Slide91.JPG","null","","","","",""
"","html-keyboard-response","279","1308950","0.0-8.0-1.10","FL","75db5dymcw","1366","768","de","er05en16","null","","","","learningBlock2","","","","That was a wug.","null","","","","",""
"","html-keyboard-response","280","1309951","0.0-8.0-2.10","FL","75db5dymcw","1366","768","de","er05en16","null","","","","learningBlock2","","","","<div style=""font-size:60px;""> </div>","null","FL","learning/Slide91.JPG","That was a wug.","",""
"","image-keyboard-response","281","1310128","0.0-8.0-0.11","FL","75db5dymcw","1366","768","de","er05en16","null","","","","","","","","learning/Slide92.JPG","null","","","","",""
"","html-keyboard-response","282","1311279","0.0-8.0-1.11","FL","75db5dymcw","1366","768","de","er05en16","null","","","","learningBlock2","","","","That was a tob.","null","","","","",""
"","html-keyboard-response","283","1312280","0.0-8.0-2.11","FL","75db5dymcw","1366","768","de","er05en16","null","","","","learningBlock2","","","","<div style=""font-size:60px;""> </div>","null","FL","learning/Slide92.JPG","That was a tob.","",""
"","image-keyboard-response","284","1312456","0.0-8.0-0.12","FL","75db5dymcw","1366","768","de","er05en16","null","","","","","","","","learning/Slide93.JPG","null","","","","",""
"","html-keyboard-response","285","1313607","0.0-8.0-1.12","FL","75db5dymcw","1366","768","de","er05en16","null","","","","learningBlock2","","","","That was a bim.","null","","","","",""
"","html-keyboard-response","286","1314608","0.0-8.0-2.12","FL","75db5dymcw","1366","768","de","er05en16","null","","","","learningBlock2","","","","<div style=""font-size:60px;""> </div>","null","FL","learning/Slide93.JPG","That was a bim.","",""
"","image-keyboard-response","287","1314784","0.0-8.0-0.13","FL","75db5dymcw","1366","768","de","er05en16","null","","","","","","","","learning/Slide94.JPG","null","","","","",""
"","html-keyboard-response","288","1315935","0.0-8.0-1.13","FL","75db5dymcw","1366","768","de","er05en16","null","","","","learningBlock2","","","","That was a tob.","null","","","","",""
"","html-keyboard-response","289","1316936","0.0-8.0-2.13","FL","75db5dymcw","1366","768","de","er05en16","null","","","","learningBlock2","","","","<div style=""font-size:60px;""> </div>","null","FL","learning/Slide94.JPG","That was a tob.","",""
"","image-keyboard-response","290","1317113","0.0-8.0-0.14","FL","75db5dymcw","1366","768","de","er05en16","null","","","","","","","","learning/Slide95.JPG","null","","","","",""
"","html-keyboard-response","291","1318263","0.0-8.0-1.14","FL","75db5dymcw","1366","768","de","er05en16","null","","","","learningBlock2","","","","That was a wug.","null","","","","",""
"","html-keyboard-response","292","1319265","0.0-8.0-2.14","FL","75db5dymcw","1366","768","de","er05en16","null","","","","learningBlock2","","","","<div style=""font-size:60px;""> </div>","null","FL","learning/Slide95.JPG","That was a wug.","",""
"","image-keyboard-response","293","1319441","0.0-8.0-0.15","FL","75db5dymcw","1366","768","de","er05en16","null","","","","","","","","learning/Slide96.JPG","null","","","","",""
"","html-keyboard-response","294","1320592","0.0-8.0-1.15","FL","75db5dymcw","1366","768","de","er05en16","null","","","","learningBlock2","","","","That was a tob.","null","","","","",""
"","html-keyboard-response","295","1321593","0.0-8.0-2.15","FL","75db5dymcw","1366","768","de","er05en16","null","","","","learningBlock2","","","","<div style=""font-size:60px;""> </div>","null","FL","learning/Slide96.JPG","That was a tob.","",""
"","image-keyboard-response","296","1321769","0.0-8.0-0.16","FL","75db5dymcw","1366","768","de","er05en16","null","","","","","","","","learning/Slide97.JPG","null","","","","",""
"","html-keyboard-response","297","1322920","0.0-8.0-1.16","FL","75db5dymcw","1366","768","de","er05en16","null","","","","learningBlock2","","","","That was a dep.","null","","","","",""
"","html-keyboard-response","298","1323921","0.0-8.0-2.16","FL","75db5dymcw","1366","768","de","er05en16","null","","","","learningBlock2","","","","<div style=""font-size:60px;""> </div>","null","FL","learning/Slide97.JPG","That was a dep.","",""
"","image-keyboard-response","299","1324097","0.0-8.0-0.17","FL","75db5dymcw","1366","768","de","er05en16","null","","","","","","","","learning/Slide98.JPG","null","","","","",""
"","html-keyboard-response","300","1325247","0.0-8.0-1.17","FL","75db5dymcw","1366","768","de","er05en16","null","","","","learningBlock2","","","","That was a bim.","null","","","","",""
"","html-keyboard-response","301","1326248","0.0-8.0-2.17","FL","75db5dymcw","1366","768","de","er05en16","null","","","","learningBlock2","","","","<div style=""font-size:60px;""> </div>","null","FL","learning/Slide98.JPG","That was a bim.","",""
"","image-keyboard-response","302","1326425","0.0-8.0-0.18","FL","75db5dymcw","1366","768","de","er05en16","null","","","","","","","","learning/Slide99.JPG","null","","","","",""
"","html-keyboard-response","303","1327576","0.0-8.0-1.18","FL","75db5dymcw","1366","768","de","er05en16","null","","","","learningBlock2","","","","That was a dep.","null","","","","",""
"","html-keyboard-response","304","1328577","0.0-8.0-2.18","FL","75db5dymcw","1366","768","de","er05en16","null","","","","learningBlock2","","","","<div style=""font-size:60px;""> </div>","null","FL","learning/Slide99.JPG","That was a dep.","",""
"","image-keyboard-response","305","1328754","0.0-8.0-0.19","FL","75db5dymcw","1366","768","de","er05en16","null","","","","","","","","learning/Slide100.JPG","null","","","","",""
"","html-keyboard-response","306","1329905","0.0-8.0-1.19","FL","75db5dymcw","1366","768","de","er05en16","null","","","","learningBlock2","","","","That was a bim.","null","","","","",""
"","html-keyboard-response","307","1330906","0.0-8.0-2.19","FL","75db5dymcw","1366","768","de","er05en16","null","","","","learningBlock2","","","","<div style=""font-size:60px;""> </div>","null","FL","learning/Slide100.JPG","That was a bim.","",""
"","image-keyboard-response","308","1331082","0.0-8.0-0.20","FL","75db5dymcw","1366","768","de","er05en16","null","","","","","","","","learning/Slide101.JPG","null","","","","",""
"","html-keyboard-response","309","1332233","0.0-8.0-1.20","FL","75db5dymcw","1366","768","de","er05en16","null","","","","learningBlock2","","","","That was a tob.","null","","","","",""
"","html-keyboard-response","310","1333234","0.0-8.0-2.20","FL","75db5dymcw","1366","768","de","er05en16","null","","","","learningBlock2","","","","<div style=""font-size:60px;""> </div>","null","FL","learning/Slide101.JPG","That was a tob.","",""
"","image-keyboard-response","311","1333411","0.0-8.0-0.21","FL","75db5dymcw","1366","768","de","er05en16","null","","","","","","","","learning/Slide102.JPG","null","","","","",""
"","html-keyboard-response","312","1334562","0.0-8.0-1.21","FL","75db5dymcw","1366","768","de","er05en16","null","","","","learningBlock2","","","","That was a bim.","null","","","","",""
"","html-keyboard-response","313","1335563","0.0-8.0-2.21","FL","75db5dymcw","1366","768","de","er05en16","null","","","","learningBlock2","","","","<div style=""font-size:60px;""> </div>","null","FL","learning/Slide102.JPG","That was a bim.","",""
"","image-keyboard-response","314","1335740","0.0-8.0-0.22","FL","75db5dymcw","1366","768","de","er05en16","null","","","","","","","","learning/Slide103.JPG","null","","","","",""
"","html-keyboard-response","315","1336891","0.0-8.0-1.22","FL","75db5dymcw","1366","768","de","er05en16","null","","","","learningBlock2","","","","That was a dep.","null","","","","",""
"","html-keyboard-response","316","1337892","0.0-8.0-2.22","FL","75db5dymcw","1366","768","de","er05en16","null","","","","learningBlock2","","","","<div style=""font-size:60px;""> </div>","null","FL","learning/Slide103.JPG","That was a dep.","",""
"","image-keyboard-response","317","1338068","0.0-8.0-0.23","FL","75db5dymcw","1366","768","de","er05en16","null","","","","","","","","learning/Slide104.JPG","null","","","","",""
"","html-keyboard-response","318","1339219","0.0-8.0-1.23","FL","75db5dymcw","1366","768","de","er05en16","null","","","","learningBlock2","","","","That was a tob.","null","","","","",""
"","html-keyboard-response","319","1340220","0.0-8.0-2.23","FL","75db5dymcw","1366","768","de","er05en16","null","","","","learningBlock2","","","","<div style=""font-size:60px;""> </div>","null","FL","learning/Slide104.JPG","That was a tob.","",""
"","image-keyboard-response","320","1340397","0.0-8.0-0.24","FL","75db5dymcw","1366","768","de","er05en16","null","","","","","","","","learning/Slide105.JPG","null","","","","",""
"","html-keyboard-response","321","1341548","0.0-8.0-1.24","FL","75db5dymcw","1366","768","de","er05en16","null","","","","learningBlock2","","","","That was a dep.","null","","","","",""
"","html-keyboard-response","322","1342549","0.0-8.0-2.24","FL","75db5dymcw","1366","768","de","er05en16","null","","","","learningBlock2","","","","<div style=""font-size:60px;""> </div>","null","FL","learning/Slide105.JPG","That was a dep.","",""
"","image-keyboard-response","323","1342725","0.0-8.0-0.25","FL","75db5dymcw","1366","768","de","er05en16","null","","","","","","","","learning/Slide106.JPG","null","","","","",""
"","html-keyboard-response","324","1343876","0.0-8.0-1.25","FL","75db5dymcw","1366","768","de","er05en16","null","","","","learningBlock2","","","","That was a wug.","null","","","","",""
"","html-keyboard-response","325","1344877","0.0-8.0-2.25","FL","75db5dymcw","1366","768","de","er05en16","null","","","","learningBlock2","","","","<div style=""font-size:60px;""> </div>","null","FL","learning/Slide106.JPG","That was a wug.","",""
"","image-keyboard-response","326","1345053","0.0-8.0-0.26","FL","75db5dymcw","1366","768","de","er05en16","null","","","","","","","","learning/Slide107.JPG","null","","","","",""
"","html-keyboard-response","327","1346205","0.0-8.0-1.26","FL","75db5dymcw","1366","768","de","er05en16","null","","","","learningBlock2","","","","That was a bim.","null","","","","",""
"","html-keyboard-response","328","1347206","0.0-8.0-2.26","FL","75db5dymcw","1366","768","de","er05en16","null","","","","learningBlock2","","","","<div style=""font-size:60px;""> </div>","null","FL","learning/Slide107.JPG","That was a bim.","",""
"","image-keyboard-response","329","1347382","0.0-8.0-0.27","FL","75db5dymcw","1366","768","de","er05en16","null","","","","","","","","learning/Slide108.JPG","null","","","","",""
"","html-keyboard-response","330","1348533","0.0-8.0-1.27","FL","75db5dymcw","1366","768","de","er05en16","null","","","","learningBlock2","","","","That was a dep.","null","","","","",""
"","html-keyboard-response","331","1349535","0.0-8.0-2.27","FL","75db5dymcw","1366","768","de","er05en16","null","","","","learningBlock2","","","","<div style=""font-size:60px;""> </div>","null","FL","learning/Slide108.JPG","That was a dep.","",""
"","image-keyboard-response","332","1349711","0.0-8.0-0.28","FL","75db5dymcw","1366","768","de","er05en16","null","","","","","","","","learning/Slide109.JPG","null","","","","",""
"","html-keyboard-response","333","1350862","0.0-8.0-1.28","FL","75db5dymcw","1366","768","de","er05en16","null","","","","learningBlock2","","","","That was a wug.","null","","","","",""
"","html-keyboard-response","334","1351864","0.0-8.0-2.28","FL","75db5dymcw","1366","768","de","er05en16","null","","","","learningBlock2","","","","<div style=""font-size:60px;""> </div>","null","FL","learning/Slide109.JPG","That was a wug.","",""
"","image-keyboard-response","335","1352040","0.0-8.0-0.29","FL","75db5dymcw","1366","768","de","er05en16","null","","","","","","","","learning/Slide110.JPG","null","","","","",""
"","html-keyboard-response","336","1353191","0.0-8.0-1.29","FL","75db5dymcw","1366","768","de","er05en16","null","","","","learningBlock2","","","","That was a bim.","null","","","","",""
"","html-keyboard-response","337","1354192","0.0-8.0-2.29","FL","75db5dymcw","1366","768","de","er05en16","null","","","","learningBlock2","","","","<div style=""font-size:60px;""> </div>","null","FL","learning/Slide110.JPG","That was a bim.","",""
"","image-keyboard-response","338","1354369","0.0-8.0-0.30","FL","75db5dymcw","1366","768","de","er05en16","null","","","","","","","","learning/Slide111.JPG","null","","","","",""
"","html-keyboard-response","339","1355519","0.0-8.0-1.30","FL","75db5dymcw","1366","768","de","er05en16","null","","","","learningBlock2","","","","That was a tob.","null","","","","",""
"","html-keyboard-response","340","1356521","0.0-8.0-2.30","FL","75db5dymcw","1366","768","de","er05en16","null","","","","learningBlock2","","","","<div style=""font-size:60px;""> </div>","null","FL","learning/Slide111.JPG","That was a tob.","",""
"","image-keyboard-response","341","1356697","0.0-8.0-0.31","FL","75db5dymcw","1366","768","de","er05en16","null","","","","","","","","learning/Slide112.JPG","null","","","","",""
"","html-keyboard-response","342","1357848","0.0-8.0-1.31","FL","75db5dymcw","1366","768","de","er05en16","null","","","","learningBlock2","","","","That was a wug.","null","","","","",""
"","html-keyboard-response","343","1358849","0.0-8.0-2.31","FL","75db5dymcw","1366","768","de","er05en16","null","","","","learningBlock2","","","","<div style=""font-size:60px;""> </div>","null","FL","learning/Slide112.JPG","That was a wug.","",""
"","image-keyboard-response","344","1359025","0.0-8.0-0.32","FL","75db5dymcw","1366","768","de","er05en16","null","","","","","","","","learning/Slide113.JPG","null","","","","",""
"","html-keyboard-response","345","1360176","0.0-8.0-1.32","FL","75db5dymcw","1366","768","de","er05en16","null","","","","learningBlock2","","","","That was a tob.","null","","","","",""
"","html-keyboard-response","346","1361178","0.0-8.0-2.32","FL","75db5dymcw","1366","768","de","er05en16","null","","","","learningBlock2","","","","<div style=""font-size:60px;""> </div>","null","FL","learning/Slide113.JPG","That was a tob.","",""
"","image-keyboard-response","347","1361355","0.0-8.0-0.33","FL","75db5dymcw","1366","768","de","er05en16","null","","","","","","","","learning/Slide114.JPG","null","","","","",""
"","html-keyboard-response","348","1362506","0.0-8.0-1.33","FL","75db5dymcw","1366","768","de","er05en16","null","","","","learningBlock2","","","","That was a wug.","null","","","","",""
"","html-keyboard-response","349","1363508","0.0-8.0-2.33","FL","75db5dymcw","1366","768","de","er05en16","null","","","","learningBlock2","","","","<div style=""font-size:60px;""> </div>","null","FL","learning/Slide114.JPG","That was a wug.","",""
"","image-keyboard-response","350","1363684","0.0-8.0-0.34","FL","75db5dymcw","1366","768","de","er05en16","null","","","","","","","","learning/Slide115.JPG","null","","","","",""
"","html-keyboard-response","351","1364835","0.0-8.0-1.34","FL","75db5dymcw","1366","768","de","er05en16","null","","","","learningBlock2","","","","That was a bim.","null","","","","",""
"","html-keyboard-response","352","1365836","0.0-8.0-2.34","FL","75db5dymcw","1366","768","de","er05en16","null","","","","learningBlock2","","","","<div style=""font-size:60px;""> </div>","null","FL","learning/Slide115.JPG","That was a bim.","",""
"","image-keyboard-response","353","1366013","0.0-8.0-0.35","FL","75db5dymcw","1366","768","de","er05en16","null","","","","","","","","learning/Slide116.JPG","null","","","","",""
"","html-keyboard-response","354","1367164","0.0-8.0-1.35","FL","75db5dymcw","1366","768","de","er05en16","null","","","","learningBlock2","","","","That was a dep.","null","","","","",""
"","html-keyboard-response","355","1368165","0.0-8.0-2.35","FL","75db5dymcw","1366","768","de","er05en16","null","","","","learningBlock2","","","","<div style=""font-size:60px;""> </div>","null","FL","learning/Slide116.JPG","That was a dep.","",""
"","image-keyboard-response","356","1368342","0.0-8.0-0.36","FL","75db5dymcw","1366","768","de","er05en16","null","","","","","","","","learning/Slide117.JPG","null","","","","",""
"","html-keyboard-response","357","1369493","0.0-8.0-1.36","FL","75db5dymcw","1366","768","de","er05en16","null","","","","learningBlock2","","","","That was a tob.","null","","","","",""
"","html-keyboard-response","358","1370494","0.0-8.0-2.36","FL","75db5dymcw","1366","768","de","er05en16","null","","","","learningBlock2","","","","<div style=""font-size:60px;""> </div>","null","FL","learning/Slide117.JPG","That was a tob.","",""
"","image-keyboard-response","359","1370670","0.0-8.0-0.37","FL","75db5dymcw","1366","768","de","er05en16","null","","","","","","","","learning/Slide118.JPG","null","","","","",""
"","html-keyboard-response","360","1371821","0.0-8.0-1.37","FL","75db5dymcw","1366","768","de","er05en16","null","","","","learningBlock2","","","","That was a dep.","null","","","","",""
"","html-keyboard-response","361","1372823","0.0-8.0-2.37","FL","75db5dymcw","1366","768","de","er05en16","null","","","","learningBlock2","","","","<div style=""font-size:60px;""> </div>","null","FL","learning/Slide118.JPG","That was a dep.","",""
"","image-keyboard-response","362","1372999","0.0-8.0-0.38","FL","75db5dymcw","1366","768","de","er05en16","null","","","","","","","","learning/Slide119.JPG","null","","","","",""
"","html-keyboard-response","363","1374150","0.0-8.0-1.38","FL","75db5dymcw","1366","768","de","er05en16","null","","","","learningBlock2","","","","That was a wug.","null","","","","",""
"","html-keyboard-response","364","1375151","0.0-8.0-2.38","FL","75db5dymcw","1366","768","de","er05en16","null","","","","learningBlock2","","","","<div style=""font-size:60px;""> </div>","null","FL","learning/Slide119.JPG","That was a wug.","",""
"","image-keyboard-response","365","1375327","0.0-8.0-0.39","FL","75db5dymcw","1366","768","de","er05en16","null","","","","","","","","learning/Slide120.JPG","null","","","","",""
"","html-keyboard-response","366","1376478","0.0-8.0-1.39","FL","75db5dymcw","1366","768","de","er05en16","null","","","","learningBlock2","","","","That was a dep.","null","","","","",""
"","html-keyboard-response","367","1377479","0.0-8.0-2.39","FL","75db5dymcw","1366","768","de","er05en16","null","","","","learningBlock2","","","","<div style=""font-size:60px;""> </div>","null","FL","learning/Slide120.JPG","That was a dep.","",""
"","image-keyboard-response","368","1377655","0.0-8.0-0.40","FL","75db5dymcw","1366","768","de","er05en16","null","","","","","","","","learning/Slide121.JPG","null","","","","",""
"","html-keyboard-response","369","1378807","0.0-8.0-1.40","FL","75db5dymcw","1366","768","de","er05en16","null","","","","learningBlock2","","","","That was a bim.","null","","","","",""
"","html-keyboard-response","370","1379808","0.0-8.0-2.40","FL","75db5dymcw","1366","768","de","er05en16","null","","","","learningBlock2","","","","<div style=""font-size:60px;""> </div>","null","FL","learning/Slide121.JPG","That was a bim.","",""
"","image-keyboard-response","371","1379984","0.0-8.0-0.41","FL","75db5dymcw","1366","768","de","er05en16","null","","","","","","","","learning/Slide122.JPG","null","","","","",""
"","html-keyboard-response","372","1381135","0.0-8.0-1.41","FL","75db5dymcw","1366","768","de","er05en16","null","","","","learningBlock2","","","","That was a wug.","null","","","","",""
"","html-keyboard-response","373","1382136","0.0-8.0-2.41","FL","75db5dymcw","1366","768","de","er05en16","null","","","","learningBlock2","","","","<div style=""font-size:60px;""> </div>","null","FL","learning/Slide122.JPG","That was a wug.","",""
"","image-keyboard-response","374","1382312","0.0-8.0-0.42","FL","75db5dymcw","1366","768","de","er05en16","null","","","","","","","","learning/Slide123.JPG","null","","","","",""
"","html-keyboard-response","375","1383463","0.0-8.0-1.42","FL","75db5dymcw","1366","768","de","er05en16","null","","","","learningBlock2","","","","That was a bim.","null","","","","",""
"","html-keyboard-response","376","1384465","0.0-8.0-2.42","FL","75db5dymcw","1366","768","de","er05en16","null","","","","learningBlock2","","","","<div style=""font-size:60px;""> </div>","null","FL","learning/Slide123.JPG","That was a bim.","",""
"","image-keyboard-response","377","1384640","0.0-8.0-0.43","FL","75db5dymcw","1366","768","de","er05en16","null","","","","","","","","learning/Slide124.JPG","null","","","","",""
"","html-keyboard-response","378","1385791","0.0-8.0-1.43","FL","75db5dymcw","1366","768","de","er05en16","null","","","","learningBlock2","","","","That was a tob.","null","","","","",""
"","html-keyboard-response","379","1386792","0.0-8.0-2.43","FL","75db5dymcw","1366","768","de","er05en16","null","","","","learningBlock2","","","","<div style=""font-size:60px;""> </div>","null","FL","learning/Slide124.JPG","That was a tob.","",""
"","image-keyboard-response","380","1386969","0.0-8.0-0.44","FL","75db5dymcw","1366","768","de","er05en16","null","","","","","","","","learning/Slide125.JPG","null","","","","",""
"","html-keyboard-response","381","1388120","0.0-8.0-1.44","FL","75db5dymcw","1366","768","de","er05en16","null","","","","learningBlock2","","","","That was a bim.","null","","","","",""
"","html-keyboard-response","382","1389121","0.0-8.0-2.44","FL","75db5dymcw","1366","768","de","er05en16","null","","","","learningBlock2","","","","<div style=""font-size:60px;""> </div>","null","FL","learning/Slide125.JPG","That was a bim.","",""
"","image-keyboard-response","383","1389297","0.0-8.0-0.45","FL","75db5dymcw","1366","768","de","er05en16","null","","","","","","","","learning/Slide126.JPG","null","","","","",""
"","html-keyboard-response","384","1390448","0.0-8.0-1.45","FL","75db5dymcw","1366","768","de","er05en16","null","","","","learningBlock2","","","","That was a tob.","null","","","","",""
"","html-keyboard-response","385","1391450","0.0-8.0-2.45","FL","75db5dymcw","1366","768","de","er05en16","null","","","","learningBlock2","","","","<div style=""font-size:60px;""> </div>","null","FL","learning/Slide126.JPG","That was a tob.","",""
"","image-keyboard-response","386","1391626","0.0-8.0-0.46","FL","75db5dymcw","1366","768","de","er05en16","null","","","","","","","","learning/Slide127.JPG","null","","","","",""
"","html-keyboard-response","387","1392777","0.0-8.0-1.46","FL","75db5dymcw","1366","768","de","er05en16","null","","","","learningBlock2","","","","That was a dep.","null","","","","",""
"","html-keyboard-response","388","1393778","0.0-8.0-2.46","FL","75db5dymcw","1366","768","de","er05en16","null","","","","learningBlock2","","","","<div style=""font-size:60px;""> </div>","null","FL","learning/Slide127.JPG","That was a dep.","",""
"","image-keyboard-response","389","1393954","0.0-8.0-0.47","FL","75db5dymcw","1366","768","de","er05en16","null","","","","","","","","learning/Slide128.JPG","null","","","","",""
"","html-keyboard-response","390","1395105","0.0-8.0-1.47","FL","75db5dymcw","1366","768","de","er05en16","null","","","","learningBlock2","","","","That was a wug.","null","","","","",""
"","html-keyboard-response","391","1396107","0.0-8.0-2.47","FL","75db5dymcw","1366","768","de","er05en16","null","","","","learningBlock2","","","","<div style=""font-size:60px;""> </div>","null","FL","learning/Slide128.JPG","That was a wug.","",""
"","image-keyboard-response","392","1396283","0.0-8.0-0.48","FL","75db5dymcw","1366","768","de","er05en16","null","","","","","","","","learning/Slide129.JPG","null","","","","",""
"","html-keyboard-response","393","1397434","0.0-8.0-1.48","FL","75db5dymcw","1366","768","de","er05en16","null","","","","learningBlock2","","","","That was a tob.","null","","","","",""
"","html-keyboard-response","394","1398435","0.0-8.0-2.48","FL","75db5dymcw","1366","768","de","er05en16","null","","","","learningBlock2","","","","<div style=""font-size:60px;""> </div>","null","FL","learning/Slide129.JPG","That was a tob.","",""
"","image-keyboard-response","395","1398611","0.0-8.0-0.49","FL","75db5dymcw","1366","768","de","er05en16","null","","","","","","","","learning/Slide130.JPG","null","","","","",""
"","html-keyboard-response","396","1399762","0.0-8.0-1.49","FL","75db5dymcw","1366","768","de","er05en16","null","","","","learningBlock2","","","","That was a wug.","null","","","","",""
"","html-keyboard-response","397","1400763","0.0-8.0-2.49","FL","75db5dymcw","1366","768","de","er05en16","null","","","","learningBlock2","","","","<div style=""font-size:60px;""> </div>","null","FL","learning/Slide130.JPG","That was a wug.","",""
"","image-keyboard-response","398","1400940","0.0-8.0-0.50","FL","75db5dymcw","1366","768","de","er05en16","null","","","","","","","","learning/Slide131.JPG","null","","","","",""
"","html-keyboard-response","399","1402091","0.0-8.0-1.50","FL","75db5dymcw","1366","768","de","er05en16","null","","","","learningBlock2","","","","That was a bim.","null","","","","",""
"","html-keyboard-response","400","1403092","0.0-8.0-2.50","FL","75db5dymcw","1366","768","de","er05en16","null","","","","learningBlock2","","","","<div style=""font-size:60px;""> </div>","null","FL","learning/Slide131.JPG","That was a bim.","",""
"","image-keyboard-response","401","1403268","0.0-8.0-0.51","FL","75db5dymcw","1366","768","de","er05en16","null","","","","","","","","learning/Slide132.JPG","null","","","","",""
"","html-keyboard-response","402","1404420","0.0-8.0-1.51","FL","75db5dymcw","1366","768","de","er05en16","null","","","","learningBlock2","","","","That was a dep.","null","","","","",""
"","html-keyboard-response","403","1405421","0.0-8.0-2.51","FL","75db5dymcw","1366","768","de","er05en16","null","","","","learningBlock2","","","","<div style=""font-size:60px;""> </div>","null","FL","learning/Slide132.JPG","That was a dep.","",""
"","image-keyboard-response","404","1405600","0.0-8.0-0.52","FL","75db5dymcw","1366","768","de","er05en16","null","","","","","","","","learning/Slide133.JPG","null","","","","",""
"","html-keyboard-response","405","1406751","0.0-8.0-1.52","FL","75db5dymcw","1366","768","de","er05en16","null","","","","learningBlock2","","","","That was a tob.","null","","","","",""
"","html-keyboard-response","406","1407753","0.0-8.0-2.52","FL","75db5dymcw","1366","768","de","er05en16","null","","","","learningBlock2","","","","<div style=""font-size:60px;""> </div>","null","FL","learning/Slide133.JPG","That was a tob.","",""
"","image-keyboard-response","407","1407929","0.0-8.0-0.53","FL","75db5dymcw","1366","768","de","er05en16","null","","","","","","","","learning/Slide134.JPG","null","","","","",""
"","html-keyboard-response","408","1409080","0.0-8.0-1.53","FL","75db5dymcw","1366","768","de","er05en16","null","","","","learningBlock2","","","","That was a dep.","null","","","","",""
"","html-keyboard-response","409","1410081","0.0-8.0-2.53","FL","75db5dymcw","1366","768","de","er05en16","null","","","","learningBlock2","","","","<div style=""font-size:60px;""> </div>","null","FL","learning/Slide134.JPG","That was a dep.","",""
"","image-keyboard-response","410","1410257","0.0-8.0-0.54","FL","75db5dymcw","1366","768","de","er05en16","null","","","","","","","","learning/Slide135.JPG","null","","","","",""
"","html-keyboard-response","411","1411408","0.0-8.0-1.54","FL","75db5dymcw","1366","768","de","er05en16","null","","","","learningBlock2","","","","That was a tob.","null","","","","",""
"","html-keyboard-response","412","1412410","0.0-8.0-2.54","FL","75db5dymcw","1366","768","de","er05en16","null","","","","learningBlock2","","","","<div style=""font-size:60px;""> </div>","null","FL","learning/Slide135.JPG","That was a tob.","",""
"","image-keyboard-response","413","1412586","0.0-8.0-0.55","FL","75db5dymcw","1366","768","de","er05en16","null","","","","","","","","learning/Slide136.JPG","null","","","","",""
"","html-keyboard-response","414","1413737","0.0-8.0-1.55","FL","75db5dymcw","1366","768","de","er05en16","null","","","","learningBlock2","","","","That was a wug.","null","","","","",""
"","html-keyboard-response","415","1414738","0.0-8.0-2.55","FL","75db5dymcw","1366","768","de","er05en16","null","","","","learningBlock2","","","","<div style=""font-size:60px;""> </div>","null","FL","learning/Slide136.JPG","That was a wug.","",""
"","image-keyboard-response","416","1414914","0.0-8.0-0.56","FL","75db5dymcw","1366","768","de","er05en16","null","","","","","","","","learning/Slide137.JPG","null","","","","",""
"","html-keyboard-response","417","1416066","0.0-8.0-1.56","FL","75db5dymcw","1366","768","de","er05en16","null","","","","learningBlock2","","","","That was a tob.","null","","","","",""
"","html-keyboard-response","418","1417067","0.0-8.0-2.56","FL","75db5dymcw","1366","768","de","er05en16","null","","","","learningBlock2","","","","<div style=""font-size:60px;""> </div>","null","FL","learning/Slide137.JPG","That was a tob.","",""
"","image-keyboard-response","419","1417243","0.0-8.0-0.57","FL","75db5dymcw","1366","768","de","er05en16","null","","","","","","","","learning/Slide138.JPG","null","","","","",""
"","html-keyboard-response","420","1418394","0.0-8.0-1.57","FL","75db5dymcw","1366","768","de","er05en16","null","","","","learningBlock2","","","","That was a bim.","null","","","","",""
"","html-keyboard-response","421","1419395","0.0-8.0-2.57","FL","75db5dymcw","1366","768","de","er05en16","null","","","","learningBlock2","","","","<div style=""font-size:60px;""> </div>","null","FL","learning/Slide138.JPG","That was a bim.","",""
"","image-keyboard-response","422","1419571","0.0-8.0-0.58","FL","75db5dymcw","1366","768","de","er05en16","null","","","","","","","","learning/Slide139.JPG","null","","","","",""
"","html-keyboard-response","423","1420722","0.0-8.0-1.58","FL","75db5dymcw","1366","768","de","er05en16","null","","","","learningBlock2","","","","That was a wug.","null","","","","",""
"","html-keyboard-response","424","1421724","0.0-8.0-2.58","FL","75db5dymcw","1366","768","de","er05en16","null","","","","learningBlock2","","","","<div style=""font-size:60px;""> </div>","null","FL","learning/Slide139.JPG","That was a wug.","",""
"","image-keyboard-response","425","1421900","0.0-8.0-0.59","FL","75db5dymcw","1366","768","de","er05en16","null","","","","","","","","learning/Slide140.JPG","null","","","","",""
"","html-keyboard-response","426","1423051","0.0-8.0-1.59","FL","75db5dymcw","1366","768","de","er05en16","null","","","","learningBlock2","","","","That was a dep.","null","","","","",""
"","html-keyboard-response","427","1424053","0.0-8.0-2.59","FL","75db5dymcw","1366","768","de","er05en16","null","","","","learningBlock2","","","","<div style=""font-size:60px;""> </div>","null","FL","learning/Slide140.JPG","That was a dep.","",""
"","image-keyboard-response","428","1424229","0.0-8.0-0.60","FL","75db5dymcw","1366","768","de","er05en16","null","","","","","","","","learning/Slide141.JPG","null","","","","",""
"","html-keyboard-response","429","1425380","0.0-8.0-1.60","FL","75db5dymcw","1366","768","de","er05en16","null","","","","learningBlock2","","","","That was a tob.","null","","","","",""
"","html-keyboard-response","430","1426381","0.0-8.0-2.60","FL","75db5dymcw","1366","768","de","er05en16","null","","","","learningBlock2","","","","<div style=""font-size:60px;""> </div>","null","FL","learning/Slide141.JPG","That was a tob.","",""
"","image-keyboard-response","431","1426558","0.0-8.0-0.61","FL","75db5dymcw","1366","768","de","er05en16","null","","","","","","","","learning/Slide142.JPG","null","","","","",""
"","html-keyboard-response","432","1427709","0.0-8.0-1.61","FL","75db5dymcw","1366","768","de","er05en16","null","","","","learningBlock2","","","","That was a wug.","null","","","","",""
"","html-keyboard-response","433","1428710","0.0-8.0-2.61","FL","75db5dymcw","1366","768","de","er05en16","null","","","","learningBlock2","","","","<div style=""font-size:60px;""> </div>","null","FL","learning/Slide142.JPG","That was a wug.","",""
"","image-keyboard-response","434","1428886","0.0-8.0-0.62","FL","75db5dymcw","1366","768","de","er05en16","null","","","","","","","","learning/Slide143.JPG","null","","","","",""
"","html-keyboard-response","435","1430037","0.0-8.0-1.62","FL","75db5dymcw","1366","768","de","er05en16","null","","","","learningBlock2","","","","That was a bim.","null","","","","",""
"","html-keyboard-response","436","1431039","0.0-8.0-2.62","FL","75db5dymcw","1366","768","de","er05en16","null","","","","learningBlock2","","","","<div style=""font-size:60px;""> </div>","null","FL","learning/Slide143.JPG","That was a bim.","",""
"","image-keyboard-response","437","1431215","0.0-8.0-0.63","FL","75db5dymcw","1366","768","de","er05en16","null","","","","","","","","learning/Slide144.JPG","null","","","","",""
"","html-keyboard-response","438","1432366","0.0-8.0-1.63","FL","75db5dymcw","1366","768","de","er05en16","null","","","","learningBlock2","","","","That was a dep.","null","","","","",""
"","html-keyboard-response","439","1433367","0.0-8.0-2.63","FL","75db5dymcw","1366","768","de","er05en16","null","","","","learningBlock2","","","","<div style=""font-size:60px;""> </div>","null","FL","learning/Slide144.JPG","That was a dep.","",""
"","image-keyboard-response","440","1433544","0.0-8.0-0.64","FL","75db5dymcw","1366","768","de","er05en16","null","","","","","","","","learning/Slide145.JPG","null","","","","",""
"","html-keyboard-response","441","1434695","0.0-8.0-1.64","FL","75db5dymcw","1366","768","de","er05en16","null","","","","learningBlock2","","","","That was a bim.","null","","","","",""
"","html-keyboard-response","442","1435696","0.0-8.0-2.64","FL","75db5dymcw","1366","768","de","er05en16","null","","","","learningBlock2","","","","<div style=""font-size:60px;""> </div>","null","FL","learning/Slide145.JPG","That was a bim.","",""
"","image-keyboard-response","443","1435873","0.0-8.0-0.65","FL","75db5dymcw","1366","768","de","er05en16","null","","","","","","","","learning/Slide146.JPG","null","","","","",""
"","html-keyboard-response","444","1437024","0.0-8.0-1.65","FL","75db5dymcw","1366","768","de","er05en16","null","","","","learningBlock2","","","","That was a tob.","null","","","","",""
"","html-keyboard-response","445","1438025","0.0-8.0-2.65","FL","75db5dymcw","1366","768","de","er05en16","null","","","","learningBlock2","","","","<div style=""font-size:60px;""> </div>","null","FL","learning/Slide146.JPG","That was a tob.","",""
"","image-keyboard-response","446","1438201","0.0-8.0-0.66","FL","75db5dymcw","1366","768","de","er05en16","null","","","","","","","","learning/Slide147.JPG","null","","","","",""
"","html-keyboard-response","447","1439353","0.0-8.0-1.66","FL","75db5dymcw","1366","768","de","er05en16","null","","","","learningBlock2","","","","That was a wug.","null","","","","",""
"","html-keyboard-response","448","1440354","0.0-8.0-2.66","FL","75db5dymcw","1366","768","de","er05en16","null","","","","learningBlock2","","","","<div style=""font-size:60px;""> </div>","null","FL","learning/Slide147.JPG","That was a wug.","",""
"","image-keyboard-response","449","1440530","0.0-8.0-0.67","FL","75db5dymcw","1366","768","de","er05en16","null","","","","","","","","learning/Slide148.JPG","null","","","","",""
"","html-keyboard-response","450","1441681","0.0-8.0-1.67","FL","75db5dymcw","1366","768","de","er05en16","null","","","","learningBlock2","","","","That was a bim.","null","","","","",""
"","html-keyboard-response","451","1442682","0.0-8.0-2.67","FL","75db5dymcw","1366","768","de","er05en16","null","","","","learningBlock2","","","","<div style=""font-size:60px;""> </div>","null","FL","learning/Slide148.JPG","That was a bim.","",""
"","image-keyboard-response","452","1442858","0.0-8.0-0.68","FL","75db5dymcw","1366","768","de","er05en16","null","","","","","","","","learning/Slide149.JPG","null","","","","",""
"","html-keyboard-response","453","1444009","0.0-8.0-1.68","FL","75db5dymcw","1366","768","de","er05en16","null","","","","learningBlock2","","","","That was a dep.","null","","","","",""
"","html-keyboard-response","454","1445010","0.0-8.0-2.68","FL","75db5dymcw","1366","768","de","er05en16","null","","","","learningBlock2","","","","<div style=""font-size:60px;""> </div>","null","FL","learning/Slide149.JPG","That was a dep.","",""
"","image-keyboard-response","455","1445187","0.0-8.0-0.69","FL","75db5dymcw","1366","768","de","er05en16","null","","","","","","","","learning/Slide150.JPG","null","","","","",""
"","html-keyboard-response","456","1446338","0.0-8.0-1.69","FL","75db5dymcw","1366","768","de","er05en16","null","","","","learningBlock2","","","","That was a wug.","null","","","","",""
"","html-keyboard-response","457","1447339","0.0-8.0-2.69","FL","75db5dymcw","1366","768","de","er05en16","null","","","","learningBlock2","","","","<div style=""font-size:60px;""> </div>","null","FL","learning/Slide150.JPG","That was a wug.","",""
"","image-keyboard-response","458","1447515","0.0-8.0-0.70","FL","75db5dymcw","1366","768","de","er05en16","null","","","","","","","","learning/Slide151.JPG","null","","","","",""
"","html-keyboard-response","459","1448665","0.0-8.0-1.70","FL","75db5dymcw","1366","768","de","er05en16","null","","","","learningBlock2","","","","That was a dep.","null","","","","",""
"","html-keyboard-response","460","1449667","0.0-8.0-2.70","FL","75db5dymcw","1366","768","de","er05en16","null","","","","learningBlock2","","","","<div style=""font-size:60px;""> </div>","null","FL","learning/Slide151.JPG","That was a dep.","",""
"","image-keyboard-response","461","1449843","0.0-8.0-0.71","FL","75db5dymcw","1366","768","de","er05en16","null","","","","","","","","learning/Slide152.JPG","null","","","","",""
"","html-keyboard-response","462","1450994","0.0-8.0-1.71","FL","75db5dymcw","1366","768","de","er05en16","null","","","","learningBlock2","","","","That was a wug.","null","","","","",""
"","html-keyboard-response","463","1451995","0.0-8.0-2.71","FL","75db5dymcw","1366","768","de","er05en16","null","","","","learningBlock2","","","","<div style=""font-size:60px;""> </div>","null","FL","learning/Slide152.JPG","That was a wug.","",""
"","image-keyboard-response","464","1452171","0.0-8.0-0.72","FL","75db5dymcw","1366","768","de","er05en16","null","","","","","","","","learning/Slide153.JPG","null","","","","",""
"","html-keyboard-response","465","1453322","0.0-8.0-1.72","FL","75db5dymcw","1366","768","de","er05en16","null","","","","learningBlock2","","","","That was a bim.","null","","","","",""
"","html-keyboard-response","466","1454324","0.0-8.0-2.72","FL","75db5dymcw","1366","768","de","er05en16","null","","","","learningBlock2","","","","<div style=""font-size:60px;""> </div>","null","FL","learning/Slide153.JPG","That was a bim.","",""
"","image-keyboard-response","467","1454500","0.0-8.0-0.73","FL","75db5dymcw","1366","768","de","er05en16","null","","","","","","","","learning/Slide154.JPG","null","","","","",""
"","html-keyboard-response","468","1455651","0.0-8.0-1.73","FL","75db5dymcw","1366","768","de","er05en16","null","","","","learningBlock2","","","","That was a tob.","null","","","","",""
"","html-keyboard-response","469","1456652","0.0-8.0-2.73","FL","75db5dymcw","1366","768","de","er05en16","null","","","","learningBlock2","","","","<div style=""font-size:60px;""> </div>","null","FL","learning/Slide154.JPG","That was a tob.","",""
"","image-keyboard-response","470","1456829","0.0-8.0-0.74","FL","75db5dymcw","1366","768","de","er05en16","null","","","","","","","","learning/Slide155.JPG","null","","","","",""
"","html-keyboard-response","471","1457980","0.0-8.0-1.74","FL","75db5dymcw","1366","768","de","er05en16","null","","","","learningBlock2","","","","That was a dep.","null","","","","",""
"","html-keyboard-response","472","1458981","0.0-8.0-2.74","FL","75db5dymcw","1366","768","de","er05en16","null","","","","learningBlock2","","","","<div style=""font-size:60px;""> </div>","null","FL","learning/Slide155.JPG","That was a dep.","",""
"","image-keyboard-response","473","1459157","0.0-8.0-0.75","FL","75db5dymcw","1366","768","de","er05en16","null","","","","","","","","learning/Slide156.JPG","null","","","","",""
"","html-keyboard-response","474","1460309","0.0-8.0-1.75","FL","75db5dymcw","1366","768","de","er05en16","null","","","","learningBlock2","","","","That was a bim.","null","","","","",""
"","html-keyboard-response","475","1461310","0.0-8.0-2.75","FL","75db5dymcw","1366","768","de","er05en16","null","","","","learningBlock2","","","","<div style=""font-size:60px;""> </div>","null","FL","learning/Slide156.JPG","That was a bim.","",""
"","image-keyboard-response","476","1461486","0.0-8.0-0.76","FL","75db5dymcw","1366","768","de","er05en16","null","","","","","","","","learning/Slide157.JPG","null","","","","",""
"","html-keyboard-response","477","1462637","0.0-8.0-1.76","FL","75db5dymcw","1366","768","de","er05en16","null","","","","learningBlock2","","","","That was a dep.","null","","","","",""
"","html-keyboard-response","478","1463639","0.0-8.0-2.76","FL","75db5dymcw","1366","768","de","er05en16","null","","","","learningBlock2","","","","<div style=""font-size:60px;""> </div>","null","FL","learning/Slide157.JPG","That was a dep.","",""
"","image-keyboard-response","479","1463816","0.0-8.0-0.77","FL","75db5dymcw","1366","768","de","er05en16","null","","","","","","","","learning/Slide158.JPG","null","","","","",""
"","html-keyboard-response","480","1464967","0.0-8.0-1.77","FL","75db5dymcw","1366","768","de","er05en16","null","","","","learningBlock2","","","","That was a tob.","null","","","","",""
"","html-keyboard-response","481","1465968","0.0-8.0-2.77","FL","75db5dymcw","1366","768","de","er05en16","null","","","","learningBlock2","","","","<div style=""font-size:60px;""> </div>","null","FL","learning/Slide158.JPG","That was a tob.","",""
"","image-keyboard-response","482","1466144","0.0-8.0-0.78","FL","75db5dymcw","1366","768","de","er05en16","null","","","","","","","","learning/Slide159.JPG","null","","","","",""
"","html-keyboard-response","483","1467295","0.0-8.0-1.78","FL","75db5dymcw","1366","768","de","er05en16","null","","","","learningBlock2","","","","That was a dep.","null","","","","",""
"","html-keyboard-response","484","1468296","0.0-8.0-2.78","FL","75db5dymcw","1366","768","de","er05en16","null","","","","learningBlock2","","","","<div style=""font-size:60px;""> </div>","null","FL","learning/Slide159.JPG","That was a dep.","",""
"","image-keyboard-response","485","1468473","0.0-8.0-0.79","FL","75db5dymcw","1366","768","de","er05en16","null","","","","","","","","learning/Slide160.JPG","null","","","","",""
