"success","trial_type","trial_index","time_elapsed","internal_node_id","condition","subject","screen_width","screen_height","language","codeword","rt","responses","url","view_history","test_part","final_height_px","final_width_px","scale_factor","stimulus","key_press","learningType","presentedImage","presentedLabel","button_pressed","response"
"true","fullscreen","0","5645","0.0-0.0","LF","nlsem5jp13","1920","1080","de","pf06nd18","","","","","","","","","","","","","","",""
"","survey-html-form","1","15030","0.0-1.0","LF","nlsem5jp13","1920","1080","de","pf06nd18","9378.709999960847","{""language"":""de""}","","","","","","","","","","","","",""
"","external-html","2","65599","0.0-2.0-0.0","LF","nlsem5jp13","1920","1080","de","pf06nd18","50429.15500001982","","text/information.html","","","","","","","","","","","",""
"","external-html","3","137557","0.0-2.0-1.0","LF","nlsem5jp13","1920","1080","de","pf06nd18","71801.50500009768","","text/consent.html","","","","","","","","","","","",""
"","survey-html-form","4","218987","0.0-2.0-2.0","LF","nlsem5jp13","1920","1080","de","pf06nd18","81417.95999999158","{""codeword_enter"":""pf06nd18""}","","","","","","","","","","","","",""
"","instructions","5","241262","0.0-4.0","LF","nlsem5jp13","1920","1080","de","pf06nd18","NA","","","[{""page_index"":0,""viewing_time"":4178.2550000352785},{""page_index"":1,""viewing_time"":16587.984999991022}]","instructions","","","","","","","","","",""
"","resize","6","320322","0.0-5.0","LF","nlsem5jp13","1920","1080","de","pf06nd18","","","","","","","476","3.022222222222222","","","","","","",""
"","html-keyboard-response","7","321329","0.0-6.0-0.0","LF","nlsem5jp13","1920","1080","de","pf06nd18","null","","","","learningBlock1","","","","This is a tob:","null","","","","",""
"","image-keyboard-response","8","321662","0.0-6.0-1.0","LF","nlsem5jp13","1920","1080","de","pf06nd18","null","","","","","","","","learning/Slide1.JPG","null","","","","",""
"","html-keyboard-response","9","322673","0.0-6.0-2.0","LF","nlsem5jp13","1920","1080","de","pf06nd18","null","","","","learningBlock1","","","","<div style=""font-size:60px;""> </div>","null","LF","learning/Slide1.JPG","This is a tob:","",""
"","html-keyboard-response","10","323677","0.0-6.0-0.1","LF","nlsem5jp13","1920","1080","de","pf06nd18","null","","","","learningBlock1","","","","This is a wug:","null","","","","",""
"","image-keyboard-response","11","324007","0.0-6.0-1.1","LF","nlsem5jp13","1920","1080","de","pf06nd18","null","","","","","","","","learning/Slide2.JPG","null","","","","",""
"","html-keyboard-response","12","325017","0.0-6.0-2.1","LF","nlsem5jp13","1920","1080","de","pf06nd18","null","","","","learningBlock1","","","","<div style=""font-size:60px;""> </div>","null","LF","learning/Slide2.JPG","This is a wug:","",""
"","html-keyboard-response","13","326026","0.0-6.0-0.2","LF","nlsem5jp13","1920","1080","de","pf06nd18","null","","","","learningBlock1","","","","This is a bim:","null","","","","",""
"","image-keyboard-response","14","326365","0.0-6.0-1.2","LF","nlsem5jp13","1920","1080","de","pf06nd18","null","","","","","","","","learning/Slide3.JPG","null","","","","",""
"","html-keyboard-response","15","327377","0.0-6.0-2.2","LF","nlsem5jp13","1920","1080","de","pf06nd18","null","","","","learningBlock1","","","","<div style=""font-size:60px;""> </div>","null","LF","learning/Slide3.JPG","This is a bim:","",""
"","html-keyboard-response","16","328386","0.0-6.0-0.3","LF","nlsem5jp13","1920","1080","de","pf06nd18","null","","","","learningBlock1","","","","This is a dep:","null","","","","",""
"","image-keyboard-response","17","328732","0.0-6.0-1.3","LF","nlsem5jp13","1920","1080","de","pf06nd18","null","","","","","","","","learning/Slide4.JPG","null","","","","",""
"","html-keyboard-response","18","329736","0.0-6.0-2.3","LF","nlsem5jp13","1920","1080","de","pf06nd18","null","","","","learningBlock1","","","","<div style=""font-size:60px;""> </div>","null","LF","learning/Slide4.JPG","This is a dep:","",""
"","html-keyboard-response","19","330747","0.0-6.0-0.4","LF","nlsem5jp13","1920","1080","de","pf06nd18","null","","","","learningBlock1","","","","This is a wug:","null","","","","",""
"","image-keyboard-response","20","331082","0.0-6.0-1.4","LF","nlsem5jp13","1920","1080","de","pf06nd18","null","","","","","","","","learning/Slide5.JPG","null","","","","",""
"","html-keyboard-response","21","332093","0.0-6.0-2.4","LF","nlsem5jp13","1920","1080","de","pf06nd18","null","","","","learningBlock1","","","","<div style=""font-size:60px;""> </div>","null","LF","learning/Slide5.JPG","This is a wug:","",""
"","html-keyboard-response","22","333096","0.0-6.0-0.5","LF","nlsem5jp13","1920","1080","de","pf06nd18","null","","","","learningBlock1","","","","This is a dep:","null","","","","",""
"","image-keyboard-response","23","333432","0.0-6.0-1.5","LF","nlsem5jp13","1920","1080","de","pf06nd18","null","","","","","","","","learning/Slide6.JPG","null","","","","",""
"","html-keyboard-response","24","334435","0.0-6.0-2.5","LF","nlsem5jp13","1920","1080","de","pf06nd18","null","","","","learningBlock1","","","","<div style=""font-size:60px;""> </div>","null","LF","learning/Slide6.JPG","This is a dep:","",""
"","html-keyboard-response","25","335437","0.0-6.0-0.6","LF","nlsem5jp13","1920","1080","de","pf06nd18","null","","","","learningBlock1","","","","This is a wug:","null","","","","",""
"","image-keyboard-response","26","335780","0.0-6.0-1.6","LF","nlsem5jp13","1920","1080","de","pf06nd18","null","","","","","","","","learning/Slide7.JPG","null","","","","",""
"","html-keyboard-response","27","336789","0.0-6.0-2.6","LF","nlsem5jp13","1920","1080","de","pf06nd18","null","","","","learningBlock1","","","","<div style=""font-size:60px;""> </div>","null","LF","learning/Slide7.JPG","This is a wug:","",""
"","html-keyboard-response","28","337791","0.0-6.0-0.7","LF","nlsem5jp13","1920","1080","de","pf06nd18","null","","","","learningBlock1","","","","This is a bim:","null","","","","",""
"","image-keyboard-response","29","338122","0.0-6.0-1.7","LF","nlsem5jp13","1920","1080","de","pf06nd18","null","","","","","","","","learning/Slide8.JPG","null","","","","",""
"","html-keyboard-response","30","339127","0.0-6.0-2.7","LF","nlsem5jp13","1920","1080","de","pf06nd18","null","","","","learningBlock1","","","","<div style=""font-size:60px;""> </div>","null","LF","learning/Slide8.JPG","This is a bim:","",""
"","html-keyboard-response","31","340137","0.0-6.0-0.8","LF","nlsem5jp13","1920","1080","de","pf06nd18","null","","","","learningBlock1","","","","This is a wug:","null","","","","",""
"","image-keyboard-response","32","340474","0.0-6.0-1.8","LF","nlsem5jp13","1920","1080","de","pf06nd18","null","","","","","","","","learning/Slide9.JPG","null","","","","",""
"","html-keyboard-response","33","341482","0.0-6.0-2.8","LF","nlsem5jp13","1920","1080","de","pf06nd18","null","","","","learningBlock1","","","","<div style=""font-size:60px;""> </div>","null","LF","learning/Slide9.JPG","This is a wug:","",""
"","html-keyboard-response","34","342487","0.0-6.0-0.9","LF","nlsem5jp13","1920","1080","de","pf06nd18","null","","","","learningBlock1","","","","This is a dep:","null","","","","",""
"","image-keyboard-response","35","342826","0.0-6.0-1.9","LF","nlsem5jp13","1920","1080","de","pf06nd18","null","","","","","","","","learning/Slide10.JPG","null","","","","",""
"","html-keyboard-response","36","343836","0.0-6.0-2.9","LF","nlsem5jp13","1920","1080","de","pf06nd18","null","","","","learningBlock1","","","","<div style=""font-size:60px;""> </div>","null","LF","learning/Slide10.JPG","This is a dep:","",""
"","html-keyboard-response","37","344843","0.0-6.0-0.10","LF","nlsem5jp13","1920","1080","de","pf06nd18","null","","","","learningBlock1","","","","This is a tob:","null","","","","",""
"","image-keyboard-response","38","345176","0.0-6.0-1.10","LF","nlsem5jp13","1920","1080","de","pf06nd18","null","","","","","","","","learning/Slide11.JPG","null","","","","",""
"","html-keyboard-response","39","346184","0.0-6.0-2.10","LF","nlsem5jp13","1920","1080","de","pf06nd18","null","","","","learningBlock1","","","","<div style=""font-size:60px;""> </div>","null","LF","learning/Slide11.JPG","This is a tob:","",""
"","html-keyboard-response","40","347188","0.0-6.0-0.11","LF","nlsem5jp13","1920","1080","de","pf06nd18","null","","","","learningBlock1","","","","This is a dep:","null","","","","",""
"","image-keyboard-response","41","347532","0.0-6.0-1.11","LF","nlsem5jp13","1920","1080","de","pf06nd18","null","","","","","","","","learning/Slide12.JPG","null","","","","",""
"","html-keyboard-response","42","348542","0.0-6.0-2.11","LF","nlsem5jp13","1920","1080","de","pf06nd18","null","","","","learningBlock1","","","","<div style=""font-size:60px;""> </div>","null","LF","learning/Slide12.JPG","This is a dep:","",""
"","html-keyboard-response","43","349548","0.0-6.0-0.12","LF","nlsem5jp13","1920","1080","de","pf06nd18","null","","","","learningBlock1","","","","This is a bim:","null","","","","",""
"","image-keyboard-response","44","349883","0.0-6.0-1.12","LF","nlsem5jp13","1920","1080","de","pf06nd18","null","","","","","","","","learning/Slide13.JPG","null","","","","",""
"","html-keyboard-response","45","350886","0.0-6.0-2.12","LF","nlsem5jp13","1920","1080","de","pf06nd18","null","","","","learningBlock1","","","","<div style=""font-size:60px;""> </div>","null","LF","learning/Slide13.JPG","This is a bim:","",""
"","html-keyboard-response","46","351893","0.0-6.0-0.13","LF","nlsem5jp13","1920","1080","de","pf06nd18","null","","","","learningBlock1","","","","This is a wug:","null","","","","",""
"","image-keyboard-response","47","352224","0.0-6.0-1.13","LF","nlsem5jp13","1920","1080","de","pf06nd18","null","","","","","","","","learning/Slide14.JPG","null","","","","",""
"","html-keyboard-response","48","353226","0.0-6.0-2.13","LF","nlsem5jp13","1920","1080","de","pf06nd18","null","","","","learningBlock1","","","","<div style=""font-size:60px;""> </div>","null","LF","learning/Slide14.JPG","This is a wug:","",""
"","html-keyboard-response","49","354232","0.0-6.0-0.14","LF","nlsem5jp13","1920","1080","de","pf06nd18","null","","","","learningBlock1","","","","This is a tob:","null","","","","",""
"","image-keyboard-response","50","354575","0.0-6.0-1.14","LF","nlsem5jp13","1920","1080","de","pf06nd18","null","","","","","","","","learning/Slide15.JPG","null","","","","",""
"","html-keyboard-response","51","355580","0.0-6.0-2.14","LF","nlsem5jp13","1920","1080","de","pf06nd18","null","","","","learningBlock1","","","","<div style=""font-size:60px;""> </div>","null","LF","learning/Slide15.JPG","This is a tob:","",""
"","html-keyboard-response","52","356582","0.0-6.0-0.15","LF","nlsem5jp13","1920","1080","de","pf06nd18","null","","","","learningBlock1","","","","This is a dep:","null","","","","",""
"","image-keyboard-response","53","356927","0.0-6.0-1.15","LF","nlsem5jp13","1920","1080","de","pf06nd18","null","","","","","","","","learning/Slide16.JPG","null","","","","",""
"","html-keyboard-response","54","357933","0.0-6.0-2.15","LF","nlsem5jp13","1920","1080","de","pf06nd18","null","","","","learningBlock1","","","","<div style=""font-size:60px;""> </div>","null","LF","learning/Slide16.JPG","This is a dep:","",""
"","html-keyboard-response","55","358935","0.0-6.0-0.16","LF","nlsem5jp13","1920","1080","de","pf06nd18","null","","","","learningBlock1","","","","This is a bim:","null","","","","",""
"","image-keyboard-response","56","359276","0.0-6.0-1.16","LF","nlsem5jp13","1920","1080","de","pf06nd18","null","","","","","","","","learning/Slide17.JPG","null","","","","",""
"","html-keyboard-response","57","360282","0.0-6.0-2.16","LF","nlsem5jp13","1920","1080","de","pf06nd18","null","","","","learningBlock1","","","","<div style=""font-size:60px;""> </div>","null","LF","learning/Slide17.JPG","This is a bim:","",""
"","html-keyboard-response","58","361287","0.0-6.0-0.17","LF","nlsem5jp13","1920","1080","de","pf06nd18","null","","","","learningBlock1","","","","This is a tob:","null","","","","",""
"","image-keyboard-response","59","361625","0.0-6.0-1.17","LF","nlsem5jp13","1920","1080","de","pf06nd18","null","","","","","","","","learning/Slide18.JPG","null","","","","",""
"","html-keyboard-response","60","362634","0.0-6.0-2.17","LF","nlsem5jp13","1920","1080","de","pf06nd18","null","","","","learningBlock1","","","","<div style=""font-size:60px;""> </div>","null","LF","learning/Slide18.JPG","This is a tob:","",""
"","html-keyboard-response","61","363637","0.0-6.0-0.18","LF","nlsem5jp13","1920","1080","de","pf06nd18","null","","","","learningBlock1","","","","This is a wug:","null","","","","",""
"","image-keyboard-response","62","363974","0.0-6.0-1.18","LF","nlsem5jp13","1920","1080","de","pf06nd18","null","","","","","","","","learning/Slide19.JPG","null","","","","",""
"","html-keyboard-response","63","364984","0.0-6.0-2.18","LF","nlsem5jp13","1920","1080","de","pf06nd18","null","","","","learningBlock1","","","","<div style=""font-size:60px;""> </div>","null","LF","learning/Slide19.JPG","This is a wug:","",""
"","html-keyboard-response","64","365992","0.0-6.0-0.19","LF","nlsem5jp13","1920","1080","de","pf06nd18","null","","","","learningBlock1","","","","This is a bim:","null","","","","",""
"","image-keyboard-response","65","366326","0.0-6.0-1.19","LF","nlsem5jp13","1920","1080","de","pf06nd18","null","","","","","","","","learning/Slide20.JPG","null","","","","",""
"","html-keyboard-response","66","367337","0.0-6.0-2.19","LF","nlsem5jp13","1920","1080","de","pf06nd18","null","","","","learningBlock1","","","","<div style=""font-size:60px;""> </div>","null","LF","learning/Slide20.JPG","This is a bim:","",""
"","html-keyboard-response","67","368348","0.0-6.0-0.20","LF","nlsem5jp13","1920","1080","de","pf06nd18","null","","","","learningBlock1","","","","This is a dep:","null","","","","",""
"","image-keyboard-response","68","368685","0.0-6.0-1.20","LF","nlsem5jp13","1920","1080","de","pf06nd18","null","","","","","","","","learning/Slide21.JPG","null","","","","",""
"","html-keyboard-response","69","369698","0.0-6.0-2.20","LF","nlsem5jp13","1920","1080","de","pf06nd18","null","","","","learningBlock1","","","","<div style=""font-size:60px;""> </div>","null","LF","learning/Slide21.JPG","This is a dep:","",""
"","html-keyboard-response","70","370704","0.0-6.0-0.21","LF","nlsem5jp13","1920","1080","de","pf06nd18","null","","","","learningBlock1","","","","This is a bim:","null","","","","",""
"","image-keyboard-response","71","371037","0.0-6.0-1.21","LF","nlsem5jp13","1920","1080","de","pf06nd18","null","","","","","","","","learning/Slide22.JPG","null","","","","",""
"","html-keyboard-response","72","372047","0.0-6.0-2.21","LF","nlsem5jp13","1920","1080","de","pf06nd18","null","","","","learningBlock1","","","","<div style=""font-size:60px;""> </div>","null","LF","learning/Slide22.JPG","This is a bim:","",""
"","html-keyboard-response","73","373056","0.0-6.0-0.22","LF","nlsem5jp13","1920","1080","de","pf06nd18","null","","","","learningBlock1","","","","This is a tob:","null","","","","",""
"","image-keyboard-response","74","373391","0.0-6.0-1.22","LF","nlsem5jp13","1920","1080","de","pf06nd18","null","","","","","","","","learning/Slide23.JPG","null","","","","",""
"","html-keyboard-response","75","374403","0.0-6.0-2.22","LF","nlsem5jp13","1920","1080","de","pf06nd18","null","","","","learningBlock1","","","","<div style=""font-size:60px;""> </div>","null","LF","learning/Slide23.JPG","This is a tob:","",""
"","html-keyboard-response","76","375406","0.0-6.0-0.23","LF","nlsem5jp13","1920","1080","de","pf06nd18","null","","","","learningBlock1","","","","This is a wug:","null","","","","",""
"","image-keyboard-response","77","375749","0.0-6.0-1.23","LF","nlsem5jp13","1920","1080","de","pf06nd18","null","","","","","","","","learning/Slide24.JPG","null","","","","",""
"","html-keyboard-response","78","376760","0.0-6.0-2.23","LF","nlsem5jp13","1920","1080","de","pf06nd18","null","","","","learningBlock1","","","","<div style=""font-size:60px;""> </div>","null","LF","learning/Slide24.JPG","This is a wug:","",""
"","html-keyboard-response","79","377766","0.0-6.0-0.24","LF","nlsem5jp13","1920","1080","de","pf06nd18","null","","","","learningBlock1","","","","This is a dep:","null","","","","",""
"","image-keyboard-response","80","378106","0.0-6.0-1.24","LF","nlsem5jp13","1920","1080","de","pf06nd18","null","","","","","","","","learning/Slide25.JPG","null","","","","",""
"","html-keyboard-response","81","379117","0.0-6.0-2.24","LF","nlsem5jp13","1920","1080","de","pf06nd18","null","","","","learningBlock1","","","","<div style=""font-size:60px;""> </div>","null","LF","learning/Slide25.JPG","This is a dep:","",""
"","html-keyboard-response","82","380124","0.0-6.0-0.25","LF","nlsem5jp13","1920","1080","de","pf06nd18","null","","","","learningBlock1","","","","This is a wug:","null","","","","",""
"","image-keyboard-response","83","380457","0.0-6.0-1.25","LF","nlsem5jp13","1920","1080","de","pf06nd18","null","","","","","","","","learning/Slide26.JPG","null","","","","",""
"","html-keyboard-response","84","381467","0.0-6.0-2.25","LF","nlsem5jp13","1920","1080","de","pf06nd18","null","","","","learningBlock1","","","","<div style=""font-size:60px;""> </div>","null","LF","learning/Slide26.JPG","This is a wug:","",""
"","html-keyboard-response","85","382475","0.0-6.0-0.26","LF","nlsem5jp13","1920","1080","de","pf06nd18","null","","","","learningBlock1","","","","This is a bim:","null","","","","",""
"","image-keyboard-response","86","382819","0.0-6.0-1.26","LF","nlsem5jp13","1920","1080","de","pf06nd18","null","","","","","","","","learning/Slide27.JPG","null","","","","",""
"","html-keyboard-response","87","383828","0.0-6.0-2.26","LF","nlsem5jp13","1920","1080","de","pf06nd18","null","","","","learningBlock1","","","","<div style=""font-size:60px;""> </div>","null","LF","learning/Slide27.JPG","This is a bim:","",""
"","html-keyboard-response","88","384837","0.0-6.0-0.27","LF","nlsem5jp13","1920","1080","de","pf06nd18","null","","","","learningBlock1","","","","This is a dep:","null","","","","",""
"","image-keyboard-response","89","385175","0.0-6.0-1.27","LF","nlsem5jp13","1920","1080","de","pf06nd18","null","","","","","","","","learning/Slide28.JPG","null","","","","",""
"","html-keyboard-response","90","386182","0.0-6.0-2.27","LF","nlsem5jp13","1920","1080","de","pf06nd18","null","","","","learningBlock1","","","","<div style=""font-size:60px;""> </div>","null","LF","learning/Slide28.JPG","This is a dep:","",""
"","html-keyboard-response","91","387192","0.0-6.0-0.28","LF","nlsem5jp13","1920","1080","de","pf06nd18","null","","","","learningBlock1","","","","This is a tob:","null","","","","",""
"","image-keyboard-response","92","387535","0.0-6.0-1.28","LF","nlsem5jp13","1920","1080","de","pf06nd18","null","","","","","","","","learning/Slide29.JPG","null","","","","",""
"","html-keyboard-response","93","388546","0.0-6.0-2.28","LF","nlsem5jp13","1920","1080","de","pf06nd18","null","","","","learningBlock1","","","","<div style=""font-size:60px;""> </div>","null","LF","learning/Slide29.JPG","This is a tob:","",""
"","html-keyboard-response","94","389552","0.0-6.0-0.29","LF","nlsem5jp13","1920","1080","de","pf06nd18","null","","","","learningBlock1","","","","This is a dep:","null","","","","",""
"","image-keyboard-response","95","389884","0.0-6.0-1.29","LF","nlsem5jp13","1920","1080","de","pf06nd18","null","","","","","","","","learning/Slide30.JPG","null","","","","",""
"","html-keyboard-response","96","390895","0.0-6.0-2.29","LF","nlsem5jp13","1920","1080","de","pf06nd18","null","","","","learningBlock1","","","","<div style=""font-size:60px;""> </div>","null","LF","learning/Slide30.JPG","This is a dep:","",""
"","html-keyboard-response","97","391900","0.0-6.0-0.30","LF","nlsem5jp13","1920","1080","de","pf06nd18","null","","","","learningBlock1","","","","This is a wug:","null","","","","",""
"","image-keyboard-response","98","392240","0.0-6.0-1.30","LF","nlsem5jp13","1920","1080","de","pf06nd18","null","","","","","","","","learning/Slide31.JPG","null","","","","",""
"","html-keyboard-response","99","393248","0.0-6.0-2.30","LF","nlsem5jp13","1920","1080","de","pf06nd18","null","","","","learningBlock1","","","","<div style=""font-size:60px;""> </div>","null","LF","learning/Slide31.JPG","This is a wug:","",""
"","html-keyboard-response","100","394257","0.0-6.0-0.31","LF","nlsem5jp13","1920","1080","de","pf06nd18","null","","","","learningBlock1","","","","This is a tob:","null","","","","",""
"","image-keyboard-response","101","394603","0.0-6.0-1.31","LF","nlsem5jp13","1920","1080","de","pf06nd18","null","","","","","","","","learning/Slide32.JPG","null","","","","",""
"","html-keyboard-response","102","395606","0.0-6.0-2.31","LF","nlsem5jp13","1920","1080","de","pf06nd18","null","","","","learningBlock1","","","","<div style=""font-size:60px;""> </div>","null","LF","learning/Slide32.JPG","This is a tob:","",""
"","html-keyboard-response","103","396612","0.0-6.0-0.32","LF","nlsem5jp13","1920","1080","de","pf06nd18","null","","","","learningBlock1","","","","This is a bim:","null","","","","",""
"","image-keyboard-response","104","396945","0.0-6.0-1.32","LF","nlsem5jp13","1920","1080","de","pf06nd18","null","","","","","","","","learning/Slide33.JPG","null","","","","",""
"","html-keyboard-response","105","397959","0.0-6.0-2.32","LF","nlsem5jp13","1920","1080","de","pf06nd18","null","","","","learningBlock1","","","","<div style=""font-size:60px;""> </div>","null","LF","learning/Slide33.JPG","This is a bim:","",""
"","html-keyboard-response","106","398967","0.0-6.0-0.33","LF","nlsem5jp13","1920","1080","de","pf06nd18","null","","","","learningBlock1","","","","This is a tob:","null","","","","",""
"","image-keyboard-response","107","399306","0.0-6.0-1.33","LF","nlsem5jp13","1920","1080","de","pf06nd18","null","","","","","","","","learning/Slide34.JPG","null","","","","",""
"","html-keyboard-response","108","400316","0.0-6.0-2.33","LF","nlsem5jp13","1920","1080","de","pf06nd18","null","","","","learningBlock1","","","","<div style=""font-size:60px;""> </div>","null","LF","learning/Slide34.JPG","This is a tob:","",""
"","html-keyboard-response","109","401326","0.0-6.0-0.34","LF","nlsem5jp13","1920","1080","de","pf06nd18","null","","","","learningBlock1","","","","This is a bim:","null","","","","",""
"","image-keyboard-response","110","401657","0.0-6.0-1.34","LF","nlsem5jp13","1920","1080","de","pf06nd18","null","","","","","","","","learning/Slide35.JPG","null","","","","",""
"","html-keyboard-response","111","402669","0.0-6.0-2.34","LF","nlsem5jp13","1920","1080","de","pf06nd18","null","","","","learningBlock1","","","","<div style=""font-size:60px;""> </div>","null","LF","learning/Slide35.JPG","This is a bim:","",""
"","html-keyboard-response","112","403678","0.0-6.0-0.35","LF","nlsem5jp13","1920","1080","de","pf06nd18","null","","","","learningBlock1","","","","This is a dep:","null","","","","",""
"","image-keyboard-response","113","404018","0.0-6.0-1.35","LF","nlsem5jp13","1920","1080","de","pf06nd18","null","","","","","","","","learning/Slide36.JPG","null","","","","",""
"","html-keyboard-response","114","405025","0.0-6.0-2.35","LF","nlsem5jp13","1920","1080","de","pf06nd18","null","","","","learningBlock1","","","","<div style=""font-size:60px;""> </div>","null","LF","learning/Slide36.JPG","This is a dep:","",""
"","html-keyboard-response","115","406033","0.0-6.0-0.36","LF","nlsem5jp13","1920","1080","de","pf06nd18","null","","","","learningBlock1","","","","This is a tob:","null","","","","",""
"","image-keyboard-response","116","406361","0.0-6.0-1.36","LF","nlsem5jp13","1920","1080","de","pf06nd18","null","","","","","","","","learning/Slide37.JPG","null","","","","",""
"","html-keyboard-response","117","407367","0.0-6.0-2.36","LF","nlsem5jp13","1920","1080","de","pf06nd18","null","","","","learningBlock1","","","","<div style=""font-size:60px;""> </div>","null","LF","learning/Slide37.JPG","This is a tob:","",""
"","html-keyboard-response","118","408378","0.0-6.0-0.37","LF","nlsem5jp13","1920","1080","de","pf06nd18","null","","","","learningBlock1","","","","This is a wug:","null","","","","",""
"","image-keyboard-response","119","408715","0.0-6.0-1.37","LF","nlsem5jp13","1920","1080","de","pf06nd18","null","","","","","","","","learning/Slide38.JPG","null","","","","",""
"","html-keyboard-response","120","409721","0.0-6.0-2.37","LF","nlsem5jp13","1920","1080","de","pf06nd18","null","","","","learningBlock1","","","","<div style=""font-size:60px;""> </div>","null","LF","learning/Slide38.JPG","This is a wug:","",""
"","html-keyboard-response","121","410727","0.0-6.0-0.38","LF","nlsem5jp13","1920","1080","de","pf06nd18","null","","","","learningBlock1","","","","This is a bim:","null","","","","",""
"","image-keyboard-response","122","411059","0.0-6.0-1.38","LF","nlsem5jp13","1920","1080","de","pf06nd18","null","","","","","","","","learning/Slide39.JPG","null","","","","",""
"","html-keyboard-response","123","412067","0.0-6.0-2.38","LF","nlsem5jp13","1920","1080","de","pf06nd18","null","","","","learningBlock1","","","","<div style=""font-size:60px;""> </div>","null","LF","learning/Slide39.JPG","This is a bim:","",""
"","html-keyboard-response","124","413076","0.0-6.0-0.39","LF","nlsem5jp13","1920","1080","de","pf06nd18","null","","","","learningBlock1","","","","This is a tob:","null","","","","",""
"","image-keyboard-response","125","413420","0.0-6.0-1.39","LF","nlsem5jp13","1920","1080","de","pf06nd18","null","","","","","","","","learning/Slide40.JPG","null","","","","",""
"","html-keyboard-response","126","414430","0.0-6.0-2.39","LF","nlsem5jp13","1920","1080","de","pf06nd18","null","","","","learningBlock1","","","","<div style=""font-size:60px;""> </div>","null","LF","learning/Slide40.JPG","This is a tob:","",""
"","html-keyboard-response","127","415432","0.0-6.0-0.40","LF","nlsem5jp13","1920","1080","de","pf06nd18","null","","","","learningBlock1","","","","This is a bim:","null","","","","",""
"","image-keyboard-response","128","415777","0.0-6.0-1.40","LF","nlsem5jp13","1920","1080","de","pf06nd18","null","","","","","","","","learning/Slide41.JPG","null","","","","",""
"","html-keyboard-response","129","416779","0.0-6.0-2.40","LF","nlsem5jp13","1920","1080","de","pf06nd18","null","","","","learningBlock1","","","","<div style=""font-size:60px;""> </div>","null","LF","learning/Slide41.JPG","This is a bim:","",""
"","html-keyboard-response","130","417786","0.0-6.0-0.41","LF","nlsem5jp13","1920","1080","de","pf06nd18","null","","","","learningBlock1","","","","This is a dep:","null","","","","",""
"","image-keyboard-response","131","418123","0.0-6.0-1.41","LF","nlsem5jp13","1920","1080","de","pf06nd18","null","","","","","","","","learning/Slide42.JPG","null","","","","",""
"","html-keyboard-response","132","419126","0.0-6.0-2.41","LF","nlsem5jp13","1920","1080","de","pf06nd18","null","","","","learningBlock1","","","","<div style=""font-size:60px;""> </div>","null","LF","learning/Slide42.JPG","This is a dep:","",""
"","html-keyboard-response","133","420132","0.0-6.0-0.42","LF","nlsem5jp13","1920","1080","de","pf06nd18","null","","","","learningBlock1","","","","This is a wug:","null","","","","",""
"","image-keyboard-response","134","420467","0.0-6.0-1.42","LF","nlsem5jp13","1920","1080","de","pf06nd18","null","","","","","","","","learning/Slide43.JPG","null","","","","",""
"","html-keyboard-response","135","421476","0.0-6.0-2.42","LF","nlsem5jp13","1920","1080","de","pf06nd18","null","","","","learningBlock1","","","","<div style=""font-size:60px;""> </div>","null","LF","learning/Slide43.JPG","This is a wug:","",""
"","html-keyboard-response","136","422486","0.0-6.0-0.43","LF","nlsem5jp13","1920","1080","de","pf06nd18","null","","","","learningBlock1","","","","This is a bim:","null","","","","",""
"","image-keyboard-response","137","422826","0.0-6.0-1.43","LF","nlsem5jp13","1920","1080","de","pf06nd18","null","","","","","","","","learning/Slide44.JPG","null","","","","",""
"","html-keyboard-response","138","423832","0.0-6.0-2.43","LF","nlsem5jp13","1920","1080","de","pf06nd18","null","","","","learningBlock1","","","","<div style=""font-size:60px;""> </div>","null","LF","learning/Slide44.JPG","This is a bim:","",""
"","html-keyboard-response","139","424839","0.0-6.0-0.44","LF","nlsem5jp13","1920","1080","de","pf06nd18","null","","","","learningBlock1","","","","This is a wug:","null","","","","",""
"","image-keyboard-response","140","425177","0.0-6.0-1.44","LF","nlsem5jp13","1920","1080","de","pf06nd18","null","","","","","","","","learning/Slide45.JPG","null","","","","",""
"","html-keyboard-response","141","426182","0.0-6.0-2.44","LF","nlsem5jp13","1920","1080","de","pf06nd18","null","","","","learningBlock1","","","","<div style=""font-size:60px;""> </div>","null","LF","learning/Slide45.JPG","This is a wug:","",""
"","html-keyboard-response","142","427188","0.0-6.0-0.45","LF","nlsem5jp13","1920","1080","de","pf06nd18","null","","","","learningBlock1","","","","This is a dep:","null","","","","",""
"","image-keyboard-response","143","427529","0.0-6.0-1.45","LF","nlsem5jp13","1920","1080","de","pf06nd18","null","","","","","","","","learning/Slide46.JPG","null","","","","",""
"","html-keyboard-response","144","428534","0.0-6.0-2.45","LF","nlsem5jp13","1920","1080","de","pf06nd18","null","","","","learningBlock1","","","","<div style=""font-size:60px;""> </div>","null","LF","learning/Slide46.JPG","This is a dep:","",""
"","html-keyboard-response","145","429537","0.0-6.0-0.46","LF","nlsem5jp13","1920","1080","de","pf06nd18","null","","","","learningBlock1","","","","This is a tob:","null","","","","",""
"","image-keyboard-response","146","429876","0.0-6.0-1.46","LF","nlsem5jp13","1920","1080","de","pf06nd18","null","","","","","","","","learning/Slide47.JPG","null","","","","",""
"","html-keyboard-response","147","430886","0.0-6.0-2.46","LF","nlsem5jp13","1920","1080","de","pf06nd18","null","","","","learningBlock1","","","","<div style=""font-size:60px;""> </div>","null","LF","learning/Slide47.JPG","This is a tob:","",""
"","html-keyboard-response","148","431894","0.0-6.0-0.47","LF","nlsem5jp13","1920","1080","de","pf06nd18","null","","","","learningBlock1","","","","This is a bim:","null","","","","",""
"","image-keyboard-response","149","432229","0.0-6.0-1.47","LF","nlsem5jp13","1920","1080","de","pf06nd18","null","","","","","","","","learning/Slide48.JPG","null","","","","",""
"","html-keyboard-response","150","433238","0.0-6.0-2.47","LF","nlsem5jp13","1920","1080","de","pf06nd18","null","","","","learningBlock1","","","","<div style=""font-size:60px;""> </div>","null","LF","learning/Slide48.JPG","This is a bim:","",""
"","html-keyboard-response","151","434249","0.0-6.0-0.48","LF","nlsem5jp13","1920","1080","de","pf06nd18","null","","","","learningBlock1","","","","This is a dep:","null","","","","",""
"","image-keyboard-response","152","434581","0.0-6.0-1.48","LF","nlsem5jp13","1920","1080","de","pf06nd18","null","","","","","","","","learning/Slide49.JPG","null","","","","",""
"","html-keyboard-response","153","435590","0.0-6.0-2.48","LF","nlsem5jp13","1920","1080","de","pf06nd18","null","","","","learningBlock1","","","","<div style=""font-size:60px;""> </div>","null","LF","learning/Slide49.JPG","This is a dep:","",""
"","html-keyboard-response","154","436599","0.0-6.0-0.49","LF","nlsem5jp13","1920","1080","de","pf06nd18","null","","","","learningBlock1","","","","This is a tob:","null","","","","",""
"","image-keyboard-response","155","436931","0.0-6.0-1.49","LF","nlsem5jp13","1920","1080","de","pf06nd18","null","","","","","","","","learning/Slide50.JPG","null","","","","",""
"","html-keyboard-response","156","437939","0.0-6.0-2.49","LF","nlsem5jp13","1920","1080","de","pf06nd18","null","","","","learningBlock1","","","","<div style=""font-size:60px;""> </div>","null","LF","learning/Slide50.JPG","This is a tob:","",""
"","html-keyboard-response","157","438942","0.0-6.0-0.50","LF","nlsem5jp13","1920","1080","de","pf06nd18","null","","","","learningBlock1","","","","This is a bim:","null","","","","",""
"","image-keyboard-response","158","439285","0.0-6.0-1.50","LF","nlsem5jp13","1920","1080","de","pf06nd18","null","","","","","","","","learning/Slide51.JPG","null","","","","",""
"","html-keyboard-response","159","440290","0.0-6.0-2.50","LF","nlsem5jp13","1920","1080","de","pf06nd18","null","","","","learningBlock1","","","","<div style=""font-size:60px;""> </div>","null","LF","learning/Slide51.JPG","This is a bim:","",""
"","html-keyboard-response","160","441296","0.0-6.0-0.51","LF","nlsem5jp13","1920","1080","de","pf06nd18","null","","","","learningBlock1","","","","This is a wug:","null","","","","",""
"","image-keyboard-response","161","441636","0.0-6.0-1.51","LF","nlsem5jp13","1920","1080","de","pf06nd18","null","","","","","","","","learning/Slide52.JPG","null","","","","",""
"","html-keyboard-response","162","442646","0.0-6.0-2.51","LF","nlsem5jp13","1920","1080","de","pf06nd18","null","","","","learningBlock1","","","","<div style=""font-size:60px;""> </div>","null","LF","learning/Slide52.JPG","This is a wug:","",""
"","html-keyboard-response","163","443655","0.0-6.0-0.52","LF","nlsem5jp13","1920","1080","de","pf06nd18","null","","","","learningBlock1","","","","This is a tob:","null","","","","",""
"","image-keyboard-response","164","443989","0.0-6.0-1.52","LF","nlsem5jp13","1920","1080","de","pf06nd18","null","","","","","","","","learning/Slide53.JPG","null","","","","",""
"","html-keyboard-response","165","444993","0.0-6.0-2.52","LF","nlsem5jp13","1920","1080","de","pf06nd18","null","","","","learningBlock1","","","","<div style=""font-size:60px;""> </div>","null","LF","learning/Slide53.JPG","This is a tob:","",""
"","html-keyboard-response","166","446001","0.0-6.0-0.53","LF","nlsem5jp13","1920","1080","de","pf06nd18","null","","","","learningBlock1","","","","This is a dep:","null","","","","",""
"","image-keyboard-response","167","446345","0.0-6.0-1.53","LF","nlsem5jp13","1920","1080","de","pf06nd18","null","","","","","","","","learning/Slide54.JPG","null","","","","",""
"","html-keyboard-response","168","447351","0.0-6.0-2.53","LF","nlsem5jp13","1920","1080","de","pf06nd18","null","","","","learningBlock1","","","","<div style=""font-size:60px;""> </div>","null","LF","learning/Slide54.JPG","This is a dep:","",""
"","html-keyboard-response","169","448356","0.0-6.0-0.54","LF","nlsem5jp13","1920","1080","de","pf06nd18","null","","","","learningBlock1","","","","This is a bim:","null","","","","",""
"","image-keyboard-response","170","448691","0.0-6.0-1.54","LF","nlsem5jp13","1920","1080","de","pf06nd18","null","","","","","","","","learning/Slide55.JPG","null","","","","",""
"","html-keyboard-response","171","449698","0.0-6.0-2.54","LF","nlsem5jp13","1920","1080","de","pf06nd18","null","","","","learningBlock1","","","","<div style=""font-size:60px;""> </div>","null","LF","learning/Slide55.JPG","This is a bim:","",""
"","html-keyboard-response","172","450700","0.0-6.0-0.55","LF","nlsem5jp13","1920","1080","de","pf06nd18","null","","","","learningBlock1","","","","This is a tob:","null","","","","",""
"","image-keyboard-response","173","451031","0.0-6.0-1.55","LF","nlsem5jp13","1920","1080","de","pf06nd18","null","","","","","","","","learning/Slide56.JPG","null","","","","",""
"","html-keyboard-response","174","452037","0.0-6.0-2.55","LF","nlsem5jp13","1920","1080","de","pf06nd18","null","","","","learningBlock1","","","","<div style=""font-size:60px;""> </div>","null","LF","learning/Slide56.JPG","This is a tob:","",""
"","html-keyboard-response","175","453040","0.0-6.0-0.56","LF","nlsem5jp13","1920","1080","de","pf06nd18","null","","","","learningBlock1","","","","This is a dep:","null","","","","",""
"","image-keyboard-response","176","453380","0.0-6.0-1.56","LF","nlsem5jp13","1920","1080","de","pf06nd18","null","","","","","","","","learning/Slide57.JPG","null","","","","",""
"","html-keyboard-response","177","454387","0.0-6.0-2.56","LF","nlsem5jp13","1920","1080","de","pf06nd18","null","","","","learningBlock1","","","","<div style=""font-size:60px;""> </div>","null","LF","learning/Slide57.JPG","This is a dep:","",""
"","html-keyboard-response","178","455391","0.0-6.0-0.57","LF","nlsem5jp13","1920","1080","de","pf06nd18","null","","","","learningBlock1","","","","This is a wug:","null","","","","",""
"","image-keyboard-response","179","455720","0.0-6.0-1.57","LF","nlsem5jp13","1920","1080","de","pf06nd18","null","","","","","","","","learning/Slide58.JPG","null","","","","",""
"","html-keyboard-response","180","456726","0.0-6.0-2.57","LF","nlsem5jp13","1920","1080","de","pf06nd18","null","","","","learningBlock1","","","","<div style=""font-size:60px;""> </div>","null","LF","learning/Slide58.JPG","This is a wug:","",""
"","html-keyboard-response","181","457737","0.0-6.0-0.58","LF","nlsem5jp13","1920","1080","de","pf06nd18","null","","","","learningBlock1","","","","This is a dep:","null","","","","",""
"","image-keyboard-response","182","458072","0.0-6.0-1.58","LF","nlsem5jp13","1920","1080","de","pf06nd18","null","","","","","","","","learning/Slide59.JPG","null","","","","",""
"","html-keyboard-response","183","459080","0.0-6.0-2.58","LF","nlsem5jp13","1920","1080","de","pf06nd18","null","","","","learningBlock1","","","","<div style=""font-size:60px;""> </div>","null","LF","learning/Slide59.JPG","This is a dep:","",""
"","html-keyboard-response","184","460086","0.0-6.0-0.59","LF","nlsem5jp13","1920","1080","de","pf06nd18","null","","","","learningBlock1","","","","This is a wug:","null","","","","",""
"","image-keyboard-response","185","460426","0.0-6.0-1.59","LF","nlsem5jp13","1920","1080","de","pf06nd18","null","","","","","","","","learning/Slide60.JPG","null","","","","",""
"","html-keyboard-response","186","461430","0.0-6.0-2.59","LF","nlsem5jp13","1920","1080","de","pf06nd18","null","","","","learningBlock1","","","","<div style=""font-size:60px;""> </div>","null","LF","learning/Slide60.JPG","This is a wug:","",""
"","html-keyboard-response","187","462435","0.0-6.0-0.60","LF","nlsem5jp13","1920","1080","de","pf06nd18","null","","","","learningBlock1","","","","This is a bim:","null","","","","",""
"","image-keyboard-response","188","462777","0.0-6.0-1.60","LF","nlsem5jp13","1920","1080","de","pf06nd18","null","","","","","","","","learning/Slide61.JPG","null","","","","",""
"","html-keyboard-response","189","463780","0.0-6.0-2.60","LF","nlsem5jp13","1920","1080","de","pf06nd18","null","","","","learningBlock1","","","","<div style=""font-size:60px;""> </div>","null","LF","learning/Slide61.JPG","This is a bim:","",""
"","html-keyboard-response","190","464788","0.0-6.0-0.61","LF","nlsem5jp13","1920","1080","de","pf06nd18","null","","","","learningBlock1","","","","This is a dep:","null","","","","",""
"","image-keyboard-response","191","465126","0.0-6.0-1.61","LF","nlsem5jp13","1920","1080","de","pf06nd18","null","","","","","","","","learning/Slide62.JPG","null","","","","",""
"","html-keyboard-response","192","466131","0.0-6.0-2.61","LF","nlsem5jp13","1920","1080","de","pf06nd18","null","","","","learningBlock1","","","","<div style=""font-size:60px;""> </div>","null","LF","learning/Slide62.JPG","This is a dep:","",""
"","html-keyboard-response","193","467133","0.0-6.0-0.62","LF","nlsem5jp13","1920","1080","de","pf06nd18","null","","","","learningBlock1","","","","This is a bim:","null","","","","",""
"","image-keyboard-response","194","467465","0.0-6.0-1.62","LF","nlsem5jp13","1920","1080","de","pf06nd18","null","","","","","","","","learning/Slide63.JPG","null","","","","",""
"","html-keyboard-response","195","468474","0.0-6.0-2.62","LF","nlsem5jp13","1920","1080","de","pf06nd18","null","","","","learningBlock1","","","","<div style=""font-size:60px;""> </div>","null","LF","learning/Slide63.JPG","This is a bim:","",""
"","html-keyboard-response","196","469484","0.0-6.0-0.63","LF","nlsem5jp13","1920","1080","de","pf06nd18","null","","","","learningBlock1","","","","This is a tob:","null","","","","",""
"","image-keyboard-response","197","469821","0.0-6.0-1.63","LF","nlsem5jp13","1920","1080","de","pf06nd18","null","","","","","","","","learning/Slide64.JPG","null","","","","",""
"","html-keyboard-response","198","470832","0.0-6.0-2.63","LF","nlsem5jp13","1920","1080","de","pf06nd18","null","","","","learningBlock1","","","","<div style=""font-size:60px;""> </div>","null","LF","learning/Slide64.JPG","This is a tob:","",""
"","html-keyboard-response","199","471840","0.0-6.0-0.64","LF","nlsem5jp13","1920","1080","de","pf06nd18","null","","","","learningBlock1","","","","This is a wug:","null","","","","",""
"","image-keyboard-response","200","472174","0.0-6.0-1.64","LF","nlsem5jp13","1920","1080","de","pf06nd18","null","","","","","","","","learning/Slide65.JPG","null","","","","",""
"","html-keyboard-response","201","473186","0.0-6.0-2.64","LF","nlsem5jp13","1920","1080","de","pf06nd18","null","","","","learningBlock1","","","","<div style=""font-size:60px;""> </div>","null","LF","learning/Slide65.JPG","This is a wug:","",""
"","html-keyboard-response","202","474189","0.0-6.0-0.65","LF","nlsem5jp13","1920","1080","de","pf06nd18","null","","","","learningBlock1","","","","This is a dep:","null","","","","",""
"","image-keyboard-response","203","474529","0.0-6.0-1.65","LF","nlsem5jp13","1920","1080","de","pf06nd18","null","","","","","","","","learning/Slide66.JPG","null","","","","",""
"","html-keyboard-response","204","475538","0.0-6.0-2.65","LF","nlsem5jp13","1920","1080","de","pf06nd18","null","","","","learningBlock1","","","","<div style=""font-size:60px;""> </div>","null","LF","learning/Slide66.JPG","This is a dep:","",""
"","html-keyboard-response","205","476545","0.0-6.0-0.66","LF","nlsem5jp13","1920","1080","de","pf06nd18","null","","","","learningBlock1","","","","This is a tob:","null","","","","",""
"","image-keyboard-response","206","476881","0.0-6.0-1.66","LF","nlsem5jp13","1920","1080","de","pf06nd18","null","","","","","","","","learning/Slide67.JPG","null","","","","",""
"","html-keyboard-response","207","477891","0.0-6.0-2.66","LF","nlsem5jp13","1920","1080","de","pf06nd18","null","","","","learningBlock1","","","","<div style=""font-size:60px;""> </div>","null","LF","learning/Slide67.JPG","This is a tob:","",""
"","html-keyboard-response","208","478896","0.0-6.0-0.67","LF","nlsem5jp13","1920","1080","de","pf06nd18","null","","","","learningBlock1","","","","This is a wug:","null","","","","",""
"","image-keyboard-response","209","479231","0.0-6.0-1.67","LF","nlsem5jp13","1920","1080","de","pf06nd18","null","","","","","","","","learning/Slide68.JPG","null","","","","",""
"","html-keyboard-response","210","480241","0.0-6.0-2.67","LF","nlsem5jp13","1920","1080","de","pf06nd18","null","","","","learningBlock1","","","","<div style=""font-size:60px;""> </div>","null","LF","learning/Slide68.JPG","This is a wug:","",""
"","html-keyboard-response","211","481247","0.0-6.0-0.68","LF","nlsem5jp13","1920","1080","de","pf06nd18","null","","","","learningBlock1","","","","This is a tob:","null","","","","",""
"","image-keyboard-response","212","481581","0.0-6.0-1.68","LF","nlsem5jp13","1920","1080","de","pf06nd18","null","","","","","","","","learning/Slide69.JPG","null","","","","",""
"","html-keyboard-response","213","482593","0.0-6.0-2.68","LF","nlsem5jp13","1920","1080","de","pf06nd18","null","","","","learningBlock1","","","","<div style=""font-size:60px;""> </div>","null","LF","learning/Slide69.JPG","This is a tob:","",""
"","html-keyboard-response","214","483603","0.0-6.0-0.69","LF","nlsem5jp13","1920","1080","de","pf06nd18","null","","","","learningBlock1","","","","This is a dep:","null","","","","",""
"","image-keyboard-response","215","483944","0.0-6.0-1.69","LF","nlsem5jp13","1920","1080","de","pf06nd18","null","","","","","","","","learning/Slide70.JPG","null","","","","",""
"","html-keyboard-response","216","484947","0.0-6.0-2.69","LF","nlsem5jp13","1920","1080","de","pf06nd18","null","","","","learningBlock1","","","","<div style=""font-size:60px;""> </div>","null","LF","learning/Slide70.JPG","This is a dep:","",""
"","html-keyboard-response","217","485949","0.0-6.0-0.70","LF","nlsem5jp13","1920","1080","de","pf06nd18","null","","","","learningBlock1","","","","This is a wug:","null","","","","",""
"","image-keyboard-response","218","486280","0.0-6.0-1.70","LF","nlsem5jp13","1920","1080","de","pf06nd18","null","","","","","","","","learning/Slide71.JPG","null","","","","",""
"","html-keyboard-response","219","487283","0.0-6.0-2.70","LF","nlsem5jp13","1920","1080","de","pf06nd18","null","","","","learningBlock1","","","","<div style=""font-size:60px;""> </div>","null","LF","learning/Slide71.JPG","This is a wug:","",""
"","html-keyboard-response","220","488290","0.0-6.0-0.71","LF","nlsem5jp13","1920","1080","de","pf06nd18","null","","","","learningBlock1","","","","This is a bim:","null","","","","",""
"","image-keyboard-response","221","488631","0.0-6.0-1.71","LF","nlsem5jp13","1920","1080","de","pf06nd18","null","","","","","","","","learning/Slide72.JPG","null","","","","",""
"","html-keyboard-response","222","489638","0.0-6.0-2.71","LF","nlsem5jp13","1920","1080","de","pf06nd18","null","","","","learningBlock1","","","","<div style=""font-size:60px;""> </div>","null","LF","learning/Slide72.JPG","This is a bim:","",""
"","html-keyboard-response","223","490648","0.0-6.0-0.72","LF","nlsem5jp13","1920","1080","de","pf06nd18","null","","","","learningBlock1","","","","This is a wug:","null","","","","",""
"","image-keyboard-response","224","490986","0.0-6.0-1.72","LF","nlsem5jp13","1920","1080","de","pf06nd18","null","","","","","","","","learning/Slide73.JPG","null","","","","",""
"","html-keyboard-response","225","491997","0.0-6.0-2.72","LF","nlsem5jp13","1920","1080","de","pf06nd18","null","","","","learningBlock1","","","","<div style=""font-size:60px;""> </div>","null","LF","learning/Slide73.JPG","This is a wug:","",""
"","html-keyboard-response","226","493002","0.0-6.0-0.73","LF","nlsem5jp13","1920","1080","de","pf06nd18","null","","","","learningBlock1","","","","This is a dep:","null","","","","",""
"","image-keyboard-response","227","493340","0.0-6.0-1.73","LF","nlsem5jp13","1920","1080","de","pf06nd18","null","","","","","","","","learning/Slide74.JPG","null","","","","",""
"","html-keyboard-response","228","494346","0.0-6.0-2.73","LF","nlsem5jp13","1920","1080","de","pf06nd18","null","","","","learningBlock1","","","","<div style=""font-size:60px;""> </div>","null","LF","learning/Slide74.JPG","This is a dep:","",""
"","html-keyboard-response","229","495351","0.0-6.0-0.74","LF","nlsem5jp13","1920","1080","de","pf06nd18","null","","","","learningBlock1","","","","This is a tob:","null","","","","",""
"","image-keyboard-response","230","495690","0.0-6.0-1.74","LF","nlsem5jp13","1920","1080","de","pf06nd18","null","","","","","","","","learning/Slide75.JPG","null","","","","",""
"","html-keyboard-response","231","496696","0.0-6.0-2.74","LF","nlsem5jp13","1920","1080","de","pf06nd18","null","","","","learningBlock1","","","","<div style=""font-size:60px;""> </div>","null","LF","learning/Slide75.JPG","This is a tob:","",""
"","html-keyboard-response","232","497707","0.0-6.0-0.75","LF","nlsem5jp13","1920","1080","de","pf06nd18","null","","","","learningBlock1","","","","This is a bim:","null","","","","",""
"","image-keyboard-response","233","498045","0.0-6.0-1.75","LF","nlsem5jp13","1920","1080","de","pf06nd18","null","","","","","","","","learning/Slide76.JPG","null","","","","",""
"","html-keyboard-response","234","499057","0.0-6.0-2.75","LF","nlsem5jp13","1920","1080","de","pf06nd18","null","","","","learningBlock1","","","","<div style=""font-size:60px;""> </div>","null","LF","learning/Slide76.JPG","This is a bim:","",""
"","html-keyboard-response","235","500059","0.0-6.0-0.76","LF","nlsem5jp13","1920","1080","de","pf06nd18","null","","","","learningBlock1","","","","This is a tob:","null","","","","",""
"","image-keyboard-response","236","500397","0.0-6.0-1.76","LF","nlsem5jp13","1920","1080","de","pf06nd18","null","","","","","","","","learning/Slide77.JPG","null","","","","",""
"","html-keyboard-response","237","501400","0.0-6.0-2.76","LF","nlsem5jp13","1920","1080","de","pf06nd18","null","","","","learningBlock1","","","","<div style=""font-size:60px;""> </div>","null","LF","learning/Slide77.JPG","This is a tob:","",""
"","html-keyboard-response","238","502411","0.0-6.0-0.77","LF","nlsem5jp13","1920","1080","de","pf06nd18","null","","","","learningBlock1","","","","This is a wug:","null","","","","",""
"","image-keyboard-response","239","502755","0.0-6.0-1.77","LF","nlsem5jp13","1920","1080","de","pf06nd18","null","","","","","","","","learning/Slide78.JPG","null","","","","",""
"","html-keyboard-response","240","503761","0.0-6.0-2.77","LF","nlsem5jp13","1920","1080","de","pf06nd18","null","","","","learningBlock1","","","","<div style=""font-size:60px;""> </div>","null","LF","learning/Slide78.JPG","This is a wug:","",""
"","html-keyboard-response","241","504772","0.0-6.0-0.78","LF","nlsem5jp13","1920","1080","de","pf06nd18","null","","","","learningBlock1","","","","This is a bim:","null","","","","",""
"","image-keyboard-response","242","505112","0.0-6.0-1.78","LF","nlsem5jp13","1920","1080","de","pf06nd18","null","","","","","","","","learning/Slide79.JPG","null","","","","",""
"","html-keyboard-response","243","506118","0.0-6.0-2.78","LF","nlsem5jp13","1920","1080","de","pf06nd18","null","","","","learningBlock1","","","","<div style=""font-size:60px;""> </div>","null","LF","learning/Slide79.JPG","This is a bim:","",""
"","html-keyboard-response","244","507121","0.0-6.0-0.79","LF","nlsem5jp13","1920","1080","de","pf06nd18","null","","","","learningBlock1","","","","This is a tob:","null","","","","",""
"","image-keyboard-response","245","507462","0.0-6.0-1.79","LF","nlsem5jp13","1920","1080","de","pf06nd18","null","","","","","","","","learning/Slide80.JPG","null","","","","",""
"","html-keyboard-response","246","508465","0.0-6.0-2.79","LF","nlsem5jp13","1920","1080","de","pf06nd18","null","","","","learningBlock1","","","","<div style=""font-size:60px;""> </div>","null","LF","learning/Slide80.JPG","This is a tob:","",""
"","instructions","247","511742","0.0-7.0","LF","nlsem5jp13","1920","1080","de","pf06nd18","NA","","","[{""page_index"":0,""viewing_time"":3275.7500000298023}]","instructions","","","","","","","","","",""
"","html-keyboard-response","248","512747","0.0-8.0-0.0","LF","nlsem5jp13","1920","1080","de","pf06nd18","null","","","","learningBlock2","","","","This is a wug:","null","","","","",""
"","image-keyboard-response","249","513093","0.0-8.0-1.0","LF","nlsem5jp13","1920","1080","de","pf06nd18","null","","","","","","","","learning/Slide81.JPG","null","","","","",""
"","html-keyboard-response","250","514097","0.0-8.0-2.0","LF","nlsem5jp13","1920","1080","de","pf06nd18","null","","","","learningBlock2","","","","<div style=""font-size:60px;""> </div>","null","LF","learning/Slide81.JPG","This is a wug:","",""
"","html-keyboard-response","251","515101","0.0-8.0-0.1","LF","nlsem5jp13","1920","1080","de","pf06nd18","null","","","","learningBlock2","","","","This is a bim:","null","","","","",""
"","image-keyboard-response","252","515432","0.0-8.0-1.1","LF","nlsem5jp13","1920","1080","de","pf06nd18","null","","","","","","","","learning/Slide82.JPG","null","","","","",""
"","html-keyboard-response","253","516436","0.0-8.0-2.1","LF","nlsem5jp13","1920","1080","de","pf06nd18","null","","","","learningBlock2","","","","<div style=""font-size:60px;""> </div>","null","LF","learning/Slide82.JPG","This is a bim:","",""
"","html-keyboard-response","254","517443","0.0-8.0-0.2","LF","nlsem5jp13","1920","1080","de","pf06nd18","null","","","","learningBlock2","","","","This is a wug:","null","","","","",""
"","image-keyboard-response","255","517771","0.0-8.0-1.2","LF","nlsem5jp13","1920","1080","de","pf06nd18","null","","","","","","","","learning/Slide83.JPG","null","","","","",""
"","html-keyboard-response","256","518777","0.0-8.0-2.2","LF","nlsem5jp13","1920","1080","de","pf06nd18","null","","","","learningBlock2","","","","<div style=""font-size:60px;""> </div>","null","LF","learning/Slide83.JPG","This is a wug:","",""
"","html-keyboard-response","257","519783","0.0-8.0-0.3","LF","nlsem5jp13","1920","1080","de","pf06nd18","null","","","","learningBlock2","","","","This is a dep:","null","","","","",""
"","image-keyboard-response","258","520123","0.0-8.0-1.3","LF","nlsem5jp13","1920","1080","de","pf06nd18","null","","","","","","","","learning/Slide84.JPG","null","","","","",""
"","html-keyboard-response","259","521131","0.0-8.0-2.3","LF","nlsem5jp13","1920","1080","de","pf06nd18","null","","","","learningBlock2","","","","<div style=""font-size:60px;""> </div>","null","LF","learning/Slide84.JPG","This is a dep:","",""
"","html-keyboard-response","260","522142","0.0-8.0-0.4","LF","nlsem5jp13","1920","1080","de","pf06nd18","null","","","","learningBlock2","","","","This is a bim:","null","","","","",""
"","image-keyboard-response","261","522484","0.0-8.0-1.4","LF","nlsem5jp13","1920","1080","de","pf06nd18","null","","","","","","","","learning/Slide85.JPG","null","","","","",""
"","html-keyboard-response","262","523492","0.0-8.0-2.4","LF","nlsem5jp13","1920","1080","de","pf06nd18","null","","","","learningBlock2","","","","<div style=""font-size:60px;""> </div>","null","LF","learning/Slide85.JPG","This is a bim:","",""
"","html-keyboard-response","263","524499","0.0-8.0-0.5","LF","nlsem5jp13","1920","1080","de","pf06nd18","null","","","","learningBlock2","","","","This is a tob:","null","","","","",""
"","image-keyboard-response","264","524831","0.0-8.0-1.5","LF","nlsem5jp13","1920","1080","de","pf06nd18","null","","","","","","","","learning/Slide86.JPG","null","","","","",""
"","html-keyboard-response","265","525836","0.0-8.0-2.5","LF","nlsem5jp13","1920","1080","de","pf06nd18","null","","","","learningBlock2","","","","<div style=""font-size:60px;""> </div>","null","LF","learning/Slide86.JPG","This is a tob:","",""
"","html-keyboard-response","266","526847","0.0-8.0-0.6","LF","nlsem5jp13","1920","1080","de","pf06nd18","null","","","","learningBlock2","","","","This is a wug:","null","","","","",""
"","image-keyboard-response","267","527182","0.0-8.0-1.6","LF","nlsem5jp13","1920","1080","de","pf06nd18","null","","","","","","","","learning/Slide87.JPG","null","","","","",""
"","html-keyboard-response","268","528185","0.0-8.0-2.6","LF","nlsem5jp13","1920","1080","de","pf06nd18","null","","","","learningBlock2","","","","<div style=""font-size:60px;""> </div>","null","LF","learning/Slide87.JPG","This is a wug:","",""
"","html-keyboard-response","269","529190","0.0-8.0-0.7","LF","nlsem5jp13","1920","1080","de","pf06nd18","null","","","","learningBlock2","","","","This is a tob:","null","","","","",""
"","image-keyboard-response","270","529525","0.0-8.0-1.7","LF","nlsem5jp13","1920","1080","de","pf06nd18","null","","","","","","","","learning/Slide88.JPG","null","","","","",""
"","html-keyboard-response","271","530537","0.0-8.0-2.7","LF","nlsem5jp13","1920","1080","de","pf06nd18","null","","","","learningBlock2","","","","<div style=""font-size:60px;""> </div>","null","LF","learning/Slide88.JPG","This is a tob:","",""
"","html-keyboard-response","272","531539","0.0-8.0-0.8","LF","nlsem5jp13","1920","1080","de","pf06nd18","null","","","","learningBlock2","","","","This is a bim:","null","","","","",""
"","image-keyboard-response","273","531872","0.0-8.0-1.8","LF","nlsem5jp13","1920","1080","de","pf06nd18","null","","","","","","","","learning/Slide89.JPG","null","","","","",""
"","html-keyboard-response","274","532880","0.0-8.0-2.8","LF","nlsem5jp13","1920","1080","de","pf06nd18","null","","","","learningBlock2","","","","<div style=""font-size:60px;""> </div>","null","LF","learning/Slide89.JPG","This is a bim:","",""
"","html-keyboard-response","275","533890","0.0-8.0-0.9","LF","nlsem5jp13","1920","1080","de","pf06nd18","null","","","","learningBlock2","","","","This is a dep:","null","","","","",""
"","image-keyboard-response","276","534233","0.0-8.0-1.9","LF","nlsem5jp13","1920","1080","de","pf06nd18","null","","","","","","","","learning/Slide90.JPG","null","","","","",""
"","html-keyboard-response","277","535239","0.0-8.0-2.9","LF","nlsem5jp13","1920","1080","de","pf06nd18","null","","","","learningBlock2","","","","<div style=""font-size:60px;""> </div>","null","LF","learning/Slide90.JPG","This is a dep:","",""
"","html-keyboard-response","278","536246","0.0-8.0-0.10","LF","nlsem5jp13","1920","1080","de","pf06nd18","null","","","","learningBlock2","","","","This is a wug:","null","","","","",""
"","image-keyboard-response","279","536580","0.0-8.0-1.10","LF","nlsem5jp13","1920","1080","de","pf06nd18","null","","","","","","","","learning/Slide91.JPG","null","","","","",""
"","html-keyboard-response","280","537585","0.0-8.0-2.10","LF","nlsem5jp13","1920","1080","de","pf06nd18","null","","","","learningBlock2","","","","<div style=""font-size:60px;""> </div>","null","LF","learning/Slide91.JPG","This is a wug:","",""
"","html-keyboard-response","281","538591","0.0-8.0-0.11","LF","nlsem5jp13","1920","1080","de","pf06nd18","null","","","","learningBlock2","","","","This is a tob:","null","","","","",""
"","image-keyboard-response","282","538933","0.0-8.0-1.11","LF","nlsem5jp13","1920","1080","de","pf06nd18","null","","","","","","","","learning/Slide92.JPG","null","","","","",""
"","html-keyboard-response","283","539944","0.0-8.0-2.11","LF","nlsem5jp13","1920","1080","de","pf06nd18","null","","","","learningBlock2","","","","<div style=""font-size:60px;""> </div>","null","LF","learning/Slide92.JPG","This is a tob:","",""
"","html-keyboard-response","284","540954","0.0-8.0-0.12","LF","nlsem5jp13","1920","1080","de","pf06nd18","null","","","","learningBlock2","","","","This is a bim:","null","","","","",""
"","image-keyboard-response","285","541283","0.0-8.0-1.12","LF","nlsem5jp13","1920","1080","de","pf06nd18","null","","","","","","","","learning/Slide93.JPG","null","","","","",""
"","html-keyboard-response","286","542287","0.0-8.0-2.12","LF","nlsem5jp13","1920","1080","de","pf06nd18","null","","","","learningBlock2","","","","<div style=""font-size:60px;""> </div>","null","LF","learning/Slide93.JPG","This is a bim:","",""
"","html-keyboard-response","287","543294","0.0-8.0-0.13","LF","nlsem5jp13","1920","1080","de","pf06nd18","null","","","","learningBlock2","","","","This is a tob:","null","","","","",""
"","image-keyboard-response","288","543630","0.0-8.0-1.13","LF","nlsem5jp13","1920","1080","de","pf06nd18","null","","","","","","","","learning/Slide94.JPG","null","","","","",""
"","html-keyboard-response","289","544633","0.0-8.0-2.13","LF","nlsem5jp13","1920","1080","de","pf06nd18","null","","","","learningBlock2","","","","<div style=""font-size:60px;""> </div>","null","LF","learning/Slide94.JPG","This is a tob:","",""
"","html-keyboard-response","290","545637","0.0-8.0-0.14","LF","nlsem5jp13","1920","1080","de","pf06nd18","null","","","","learningBlock2","","","","This is a wug:","null","","","","",""
"","image-keyboard-response","291","545973","0.0-8.0-1.14","LF","nlsem5jp13","1920","1080","de","pf06nd18","null","","","","","","","","learning/Slide95.JPG","null","","","","",""
"","html-keyboard-response","292","546978","0.0-8.0-2.14","LF","nlsem5jp13","1920","1080","de","pf06nd18","null","","","","learningBlock2","","","","<div style=""font-size:60px;""> </div>","null","LF","learning/Slide95.JPG","This is a wug:","",""
"","html-keyboard-response","293","547990","0.0-8.0-0.15","LF","nlsem5jp13","1920","1080","de","pf06nd18","null","","","","learningBlock2","","","","This is a tob:","null","","","","",""
"","image-keyboard-response","294","548327","0.0-8.0-1.15","LF","nlsem5jp13","1920","1080","de","pf06nd18","null","","","","","","","","learning/Slide96.JPG","null","","","","",""
"","html-keyboard-response","295","549333","0.0-8.0-2.15","LF","nlsem5jp13","1920","1080","de","pf06nd18","null","","","","learningBlock2","","","","<div style=""font-size:60px;""> </div>","null","LF","learning/Slide96.JPG","This is a tob:","",""
"","html-keyboard-response","296","550336","0.0-8.0-0.16","LF","nlsem5jp13","1920","1080","de","pf06nd18","null","","","","learningBlock2","","","","This is a dep:","null","","","","",""
"","image-keyboard-response","297","550664","0.0-8.0-1.16","LF","nlsem5jp13","1920","1080","de","pf06nd18","null","","","","","","","","learning/Slide97.JPG","null","","","","",""
"","html-keyboard-response","298","551667","0.0-8.0-2.16","LF","nlsem5jp13","1920","1080","de","pf06nd18","null","","","","learningBlock2","","","","<div style=""font-size:60px;""> </div>","null","LF","learning/Slide97.JPG","This is a dep:","",""
"","html-keyboard-response","299","552676","0.0-8.0-0.17","LF","nlsem5jp13","1920","1080","de","pf06nd18","null","","","","learningBlock2","","","","This is a bim:","null","","","","",""
"","image-keyboard-response","300","553018","0.0-8.0-1.17","LF","nlsem5jp13","1920","1080","de","pf06nd18","null","","","","","","","","learning/Slide98.JPG","null","","","","",""
"","html-keyboard-response","301","554024","0.0-8.0-2.17","LF","nlsem5jp13","1920","1080","de","pf06nd18","null","","","","learningBlock2","","","","<div style=""font-size:60px;""> </div>","null","LF","learning/Slide98.JPG","This is a bim:","",""
"","html-keyboard-response","302","555032","0.0-8.0-0.18","LF","nlsem5jp13","1920","1080","de","pf06nd18","null","","","","learningBlock2","","","","This is a dep:","null","","","","",""
"","image-keyboard-response","303","555366","0.0-8.0-1.18","LF","nlsem5jp13","1920","1080","de","pf06nd18","null","","","","","","","","learning/Slide99.JPG","null","","","","",""
"","html-keyboard-response","304","556370","0.0-8.0-2.18","LF","nlsem5jp13","1920","1080","de","pf06nd18","null","","","","learningBlock2","","","","<div style=""font-size:60px;""> </div>","null","LF","learning/Slide99.JPG","This is a dep:","",""
"","html-keyboard-response","305","557373","0.0-8.0-0.19","LF","nlsem5jp13","1920","1080","de","pf06nd18","null","","","","learningBlock2","","","","This is a bim:","null","","","","",""
"","image-keyboard-response","306","557716","0.0-8.0-1.19","LF","nlsem5jp13","1920","1080","de","pf06nd18","null","","","","","","","","learning/Slide100.JPG","null","","","","",""
"","html-keyboard-response","307","558723","0.0-8.0-2.19","LF","nlsem5jp13","1920","1080","de","pf06nd18","null","","","","learningBlock2","","","","<div style=""font-size:60px;""> </div>","null","LF","learning/Slide100.JPG","This is a bim:","",""
"","html-keyboard-response","308","559730","0.0-8.0-0.20","LF","nlsem5jp13","1920","1080","de","pf06nd18","null","","","","learningBlock2","","","","This is a tob:","null","","","","",""
"","image-keyboard-response","309","560065","0.0-8.0-1.20","LF","nlsem5jp13","1920","1080","de","pf06nd18","null","","","","","","","","learning/Slide101.JPG","null","","","","",""
"","html-keyboard-response","310","561069","0.0-8.0-2.20","LF","nlsem5jp13","1920","1080","de","pf06nd18","null","","","","learningBlock2","","","","<div style=""font-size:60px;""> </div>","null","LF","learning/Slide101.JPG","This is a tob:","",""
"","html-keyboard-response","311","562076","0.0-8.0-0.21","LF","nlsem5jp13","1920","1080","de","pf06nd18","null","","","","learningBlock2","","","","This is a bim:","null","","","","",""
"","image-keyboard-response","312","562415","0.0-8.0-1.21","LF","nlsem5jp13","1920","1080","de","pf06nd18","null","","","","","","","","learning/Slide102.JPG","null","","","","",""
"","html-keyboard-response","313","563423","0.0-8.0-2.21","LF","nlsem5jp13","1920","1080","de","pf06nd18","null","","","","learningBlock2","","","","<div style=""font-size:60px;""> </div>","null","LF","learning/Slide102.JPG","This is a bim:","",""
"","html-keyboard-response","314","564433","0.0-8.0-0.22","LF","nlsem5jp13","1920","1080","de","pf06nd18","null","","","","learningBlock2","","","","This is a dep:","null","","","","",""
"","image-keyboard-response","315","564777","0.0-8.0-1.22","LF","nlsem5jp13","1920","1080","de","pf06nd18","null","","","","","","","","learning/Slide103.JPG","null","","","","",""
"","html-keyboard-response","316","565786","0.0-8.0-2.22","LF","nlsem5jp13","1920","1080","de","pf06nd18","null","","","","learningBlock2","","","","<div style=""font-size:60px;""> </div>","null","LF","learning/Slide103.JPG","This is a dep:","",""
"","html-keyboard-response","317","566789","0.0-8.0-0.23","LF","nlsem5jp13","1920","1080","de","pf06nd18","null","","","","learningBlock2","","","","This is a tob:","null","","","","",""
"","image-keyboard-response","318","567127","0.0-8.0-1.23","LF","nlsem5jp13","1920","1080","de","pf06nd18","null","","","","","","","","learning/Slide104.JPG","null","","","","",""
"","html-keyboard-response","319","568137","0.0-8.0-2.23","LF","nlsem5jp13","1920","1080","de","pf06nd18","null","","","","learningBlock2","","","","<div style=""font-size:60px;""> </div>","null","LF","learning/Slide104.JPG","This is a tob:","",""
"","html-keyboard-response","320","569146","0.0-8.0-0.24","LF","nlsem5jp13","1920","1080","de","pf06nd18","null","","","","learningBlock2","","","","This is a dep:","null","","","","",""
"","image-keyboard-response","321","569484","0.0-8.0-1.24","LF","nlsem5jp13","1920","1080","de","pf06nd18","null","","","","","","","","learning/Slide105.JPG","null","","","","",""
"","html-keyboard-response","322","570495","0.0-8.0-2.24","LF","nlsem5jp13","1920","1080","de","pf06nd18","null","","","","learningBlock2","","","","<div style=""font-size:60px;""> </div>","null","LF","learning/Slide105.JPG","This is a dep:","",""
"","html-keyboard-response","323","571502","0.0-8.0-0.25","LF","nlsem5jp13","1920","1080","de","pf06nd18","null","","","","learningBlock2","","","","This is a wug:","null","","","","",""
"","image-keyboard-response","324","571842","0.0-8.0-1.25","LF","nlsem5jp13","1920","1080","de","pf06nd18","null","","","","","","","","learning/Slide106.JPG","null","","","","",""
"","html-keyboard-response","325","572846","0.0-8.0-2.25","LF","nlsem5jp13","1920","1080","de","pf06nd18","null","","","","learningBlock2","","","","<div style=""font-size:60px;""> </div>","null","LF","learning/Slide106.JPG","This is a wug:","",""
"","html-keyboard-response","326","573852","0.0-8.0-0.26","LF","nlsem5jp13","1920","1080","de","pf06nd18","null","","","","learningBlock2","","","","This is a bim:","null","","","","",""
"","image-keyboard-response","327","574193","0.0-8.0-1.26","LF","nlsem5jp13","1920","1080","de","pf06nd18","null","","","","","","","","learning/Slide107.JPG","null","","","","",""
"","html-keyboard-response","328","575195","0.0-8.0-2.26","LF","nlsem5jp13","1920","1080","de","pf06nd18","null","","","","learningBlock2","","","","<div style=""font-size:60px;""> </div>","null","LF","learning/Slide107.JPG","This is a bim:","",""
"","html-keyboard-response","329","576206","0.0-8.0-0.27","LF","nlsem5jp13","1920","1080","de","pf06nd18","null","","","","learningBlock2","","","","This is a dep:","null","","","","",""
"","image-keyboard-response","330","576544","0.0-8.0-1.27","LF","nlsem5jp13","1920","1080","de","pf06nd18","null","","","","","","","","learning/Slide108.JPG","null","","","","",""
"","html-keyboard-response","331","577554","0.0-8.0-2.27","LF","nlsem5jp13","1920","1080","de","pf06nd18","null","","","","learningBlock2","","","","<div style=""font-size:60px;""> </div>","null","LF","learning/Slide108.JPG","This is a dep:","",""
"","html-keyboard-response","332","578556","0.0-8.0-0.28","LF","nlsem5jp13","1920","1080","de","pf06nd18","null","","","","learningBlock2","","","","This is a wug:","null","","","","",""
"","image-keyboard-response","333","578892","0.0-8.0-1.28","LF","nlsem5jp13","1920","1080","de","pf06nd18","null","","","","","","","","learning/Slide109.JPG","null","","","","",""
"","html-keyboard-response","334","579901","0.0-8.0-2.28","LF","nlsem5jp13","1920","1080","de","pf06nd18","null","","","","learningBlock2","","","","<div style=""font-size:60px;""> </div>","null","LF","learning/Slide109.JPG","This is a wug:","",""
"","html-keyboard-response","335","580905","0.0-8.0-0.29","LF","nlsem5jp13","1920","1080","de","pf06nd18","null","","","","learningBlock2","","","","This is a bim:","null","","","","",""
"","image-keyboard-response","336","581235","0.0-8.0-1.29","LF","nlsem5jp13","1920","1080","de","pf06nd18","null","","","","","","","","learning/Slide110.JPG","null","","","","",""
"","html-keyboard-response","337","582247","0.0-8.0-2.29","LF","nlsem5jp13","1920","1080","de","pf06nd18","null","","","","learningBlock2","","","","<div style=""font-size:60px;""> </div>","null","LF","learning/Slide110.JPG","This is a bim:","",""
"","html-keyboard-response","338","583254","0.0-8.0-0.30","LF","nlsem5jp13","1920","1080","de","pf06nd18","null","","","","learningBlock2","","","","This is a tob:","null","","","","",""
"","image-keyboard-response","339","583593","0.0-8.0-1.30","LF","nlsem5jp13","1920","1080","de","pf06nd18","null","","","","","","","","learning/Slide111.JPG","null","","","","",""
"","html-keyboard-response","340","584605","0.0-8.0-2.30","LF","nlsem5jp13","1920","1080","de","pf06nd18","null","","","","learningBlock2","","","","<div style=""font-size:60px;""> </div>","null","LF","learning/Slide111.JPG","This is a tob:","",""
"","html-keyboard-response","341","585615","0.0-8.0-0.31","LF","nlsem5jp13","1920","1080","de","pf06nd18","null","","","","learningBlock2","","","","This is a wug:","null","","","","",""
"","image-keyboard-response","342","585951","0.0-8.0-1.31","LF","nlsem5jp13","1920","1080","de","pf06nd18","null","","","","","","","","learning/Slide112.JPG","null","","","","",""
"","html-keyboard-response","343","586956","0.0-8.0-2.31","LF","nlsem5jp13","1920","1080","de","pf06nd18","null","","","","learningBlock2","","","","<div style=""font-size:60px;""> </div>","null","LF","learning/Slide112.JPG","This is a wug:","",""
"","html-keyboard-response","344","587964","0.0-8.0-0.32","LF","nlsem5jp13","1920","1080","de","pf06nd18","null","","","","learningBlock2","","","","This is a tob:","null","","","","",""
"","image-keyboard-response","345","588313","0.0-8.0-1.32","LF","nlsem5jp13","1920","1080","de","pf06nd18","null","","","","","","","","learning/Slide113.JPG","null","","","","",""
"","html-keyboard-response","346","589315","0.0-8.0-2.32","LF","nlsem5jp13","1920","1080","de","pf06nd18","null","","","","learningBlock2","","","","<div style=""font-size:60px;""> </div>","null","LF","learning/Slide113.JPG","This is a tob:","",""
"","html-keyboard-response","347","590324","0.0-8.0-0.33","LF","nlsem5jp13","1920","1080","de","pf06nd18","null","","","","learningBlock2","","","","This is a wug:","null","","","","",""
"","image-keyboard-response","348","590667","0.0-8.0-1.33","LF","nlsem5jp13","1920","1080","de","pf06nd18","null","","","","","","","","learning/Slide114.JPG","null","","","","",""
"","html-keyboard-response","349","591678","0.0-8.0-2.33","LF","nlsem5jp13","1920","1080","de","pf06nd18","null","","","","learningBlock2","","","","<div style=""font-size:60px;""> </div>","null","LF","learning/Slide114.JPG","This is a wug:","",""
"","html-keyboard-response","350","592687","0.0-8.0-0.34","LF","nlsem5jp13","1920","1080","de","pf06nd18","null","","","","learningBlock2","","","","This is a bim:","null","","","","",""
"","image-keyboard-response","351","593021","0.0-8.0-1.34","LF","nlsem5jp13","1920","1080","de","pf06nd18","null","","","","","","","","learning/Slide115.JPG","null","","","","",""
"","html-keyboard-response","352","594033","0.0-8.0-2.34","LF","nlsem5jp13","1920","1080","de","pf06nd18","null","","","","learningBlock2","","","","<div style=""font-size:60px;""> </div>","null","LF","learning/Slide115.JPG","This is a bim:","",""
"","html-keyboard-response","353","595045","0.0-8.0-0.35","LF","nlsem5jp13","1920","1080","de","pf06nd18","null","","","","learningBlock2","","","","This is a dep:","null","","","","",""
"","image-keyboard-response","354","595386","0.0-8.0-1.35","LF","nlsem5jp13","1920","1080","de","pf06nd18","null","","","","","","","","learning/Slide116.JPG","null","","","","",""
"","html-keyboard-response","355","596395","0.0-8.0-2.35","LF","nlsem5jp13","1920","1080","de","pf06nd18","null","","","","learningBlock2","","","","<div style=""font-size:60px;""> </div>","null","LF","learning/Slide116.JPG","This is a dep:","",""
"","html-keyboard-response","356","597400","0.0-8.0-0.36","LF","nlsem5jp13","1920","1080","de","pf06nd18","null","","","","learningBlock2","","","","This is a tob:","null","","","","",""
"","image-keyboard-response","357","597735","0.0-8.0-1.36","LF","nlsem5jp13","1920","1080","de","pf06nd18","null","","","","","","","","learning/Slide117.JPG","null","","","","",""
"","html-keyboard-response","358","598747","0.0-8.0-2.36","LF","nlsem5jp13","1920","1080","de","pf06nd18","null","","","","learningBlock2","","","","<div style=""font-size:60px;""> </div>","null","LF","learning/Slide117.JPG","This is a tob:","",""
"","html-keyboard-response","359","599751","0.0-8.0-0.37","LF","nlsem5jp13","1920","1080","de","pf06nd18","null","","","","learningBlock2","","","","This is a dep:","null","","","","",""
"","image-keyboard-response","360","600085","0.0-8.0-1.37","LF","nlsem5jp13","1920","1080","de","pf06nd18","null","","","","","","","","learning/Slide118.JPG","null","","","","",""
"","html-keyboard-response","361","601089","0.0-8.0-2.37","LF","nlsem5jp13","1920","1080","de","pf06nd18","null","","","","learningBlock2","","","","<div style=""font-size:60px;""> </div>","null","LF","learning/Slide118.JPG","This is a dep:","",""
"","html-keyboard-response","362","602098","0.0-8.0-0.38","LF","nlsem5jp13","1920","1080","de","pf06nd18","null","","","","learningBlock2","","","","This is a wug:","null","","","","",""
"","image-keyboard-response","363","602434","0.0-8.0-1.38","LF","nlsem5jp13","1920","1080","de","pf06nd18","null","","","","","","","","learning/Slide119.JPG","null","","","","",""
"","html-keyboard-response","364","603446","0.0-8.0-2.38","LF","nlsem5jp13","1920","1080","de","pf06nd18","null","","","","learningBlock2","","","","<div style=""font-size:60px;""> </div>","null","LF","learning/Slide119.JPG","This is a wug:","",""
"","html-keyboard-response","365","604451","0.0-8.0-0.39","LF","nlsem5jp13","1920","1080","de","pf06nd18","null","","","","learningBlock2","","","","This is a dep:","null","","","","",""
"","image-keyboard-response","366","604784","0.0-8.0-1.39","LF","nlsem5jp13","1920","1080","de","pf06nd18","null","","","","","","","","learning/Slide120.JPG","null","","","","",""
"","html-keyboard-response","367","605794","0.0-8.0-2.39","LF","nlsem5jp13","1920","1080","de","pf06nd18","null","","","","learningBlock2","","","","<div style=""font-size:60px;""> </div>","null","LF","learning/Slide120.JPG","This is a dep:","",""
"","html-keyboard-response","368","606804","0.0-8.0-0.40","LF","nlsem5jp13","1920","1080","de","pf06nd18","null","","","","learningBlock2","","","","This is a bim:","null","","","","",""
"","image-keyboard-response","369","607143","0.0-8.0-1.40","LF","nlsem5jp13","1920","1080","de","pf06nd18","null","","","","","","","","learning/Slide121.JPG","null","","","","",""
"","html-keyboard-response","370","608155","0.0-8.0-2.40","LF","nlsem5jp13","1920","1080","de","pf06nd18","null","","","","learningBlock2","","","","<div style=""font-size:60px;""> </div>","null","LF","learning/Slide121.JPG","This is a bim:","",""
"","html-keyboard-response","371","609160","0.0-8.0-0.41","LF","nlsem5jp13","1920","1080","de","pf06nd18","null","","","","learningBlock2","","","","This is a wug:","null","","","","",""
"","image-keyboard-response","372","609493","0.0-8.0-1.41","LF","nlsem5jp13","1920","1080","de","pf06nd18","null","","","","","","","","learning/Slide122.JPG","null","","","","",""
"","html-keyboard-response","373","610504","0.0-8.0-2.41","LF","nlsem5jp13","1920","1080","de","pf06nd18","null","","","","learningBlock2","","","","<div style=""font-size:60px;""> </div>","null","LF","learning/Slide122.JPG","This is a wug:","",""
"","html-keyboard-response","374","611509","0.0-8.0-0.42","LF","nlsem5jp13","1920","1080","de","pf06nd18","null","","","","learningBlock2","","","","This is a bim:","null","","","","",""
"","image-keyboard-response","375","611853","0.0-8.0-1.42","LF","nlsem5jp13","1920","1080","de","pf06nd18","null","","","","","","","","learning/Slide123.JPG","null","","","","",""
"","html-keyboard-response","376","612863","0.0-8.0-2.42","LF","nlsem5jp13","1920","1080","de","pf06nd18","null","","","","learningBlock2","","","","<div style=""font-size:60px;""> </div>","null","LF","learning/Slide123.JPG","This is a bim:","",""
"","html-keyboard-response","377","613873","0.0-8.0-0.43","LF","nlsem5jp13","1920","1080","de","pf06nd18","null","","","","learningBlock2","","","","This is a tob:","null","","","","",""
"","image-keyboard-response","378","614204","0.0-8.0-1.43","LF","nlsem5jp13","1920","1080","de","pf06nd18","null","","","","","","","","learning/Slide124.JPG","null","","","","",""
"","html-keyboard-response","379","615211","0.0-8.0-2.43","LF","nlsem5jp13","1920","1080","de","pf06nd18","null","","","","learningBlock2","","","","<div style=""font-size:60px;""> </div>","null","LF","learning/Slide124.JPG","This is a tob:","",""
"","html-keyboard-response","380","616224","0.0-8.0-0.44","LF","nlsem5jp13","1920","1080","de","pf06nd18","null","","","","learningBlock2","","","","This is a bim:","null","","","","",""
"","image-keyboard-response","381","616553","0.0-8.0-1.44","LF","nlsem5jp13","1920","1080","de","pf06nd18","null","","","","","","","","learning/Slide125.JPG","null","","","","",""
"","html-keyboard-response","382","617559","0.0-8.0-2.44","LF","nlsem5jp13","1920","1080","de","pf06nd18","null","","","","learningBlock2","","","","<div style=""font-size:60px;""> </div>","null","LF","learning/Slide125.JPG","This is a bim:","",""
"","html-keyboard-response","383","618570","0.0-8.0-0.45","LF","nlsem5jp13","1920","1080","de","pf06nd18","null","","","","learningBlock2","","","","This is a tob:","null","","","","",""
"","image-keyboard-response","384","618903","0.0-8.0-1.45","LF","nlsem5jp13","1920","1080","de","pf06nd18","null","","","","","","","","learning/Slide126.JPG","null","","","","",""
"","html-keyboard-response","385","619904","0.0-8.0-2.45","LF","nlsem5jp13","1920","1080","de","pf06nd18","null","","","","learningBlock2","","","","<div style=""font-size:60px;""> </div>","null","LF","learning/Slide126.JPG","This is a tob:","",""
"","html-keyboard-response","386","620906","0.0-8.0-0.46","LF","nlsem5jp13","1920","1080","de","pf06nd18","null","","","","learningBlock2","","","","This is a dep:","null","","","","",""
"","image-keyboard-response","387","621251","0.0-8.0-1.46","LF","nlsem5jp13","1920","1080","de","pf06nd18","null","","","","","","","","learning/Slide127.JPG","null","","","","",""
"","html-keyboard-response","388","622256","0.0-8.0-2.46","LF","nlsem5jp13","1920","1080","de","pf06nd18","null","","","","learningBlock2","","","","<div style=""font-size:60px;""> </div>","null","LF","learning/Slide127.JPG","This is a dep:","",""
"","html-keyboard-response","389","623264","0.0-8.0-0.47","LF","nlsem5jp13","1920","1080","de","pf06nd18","null","","","","learningBlock2","","","","This is a wug:","null","","","","",""
"","image-keyboard-response","390","623602","0.0-8.0-1.47","LF","nlsem5jp13","1920","1080","de","pf06nd18","null","","","","","","","","learning/Slide128.JPG","null","","","","",""
"","html-keyboard-response","391","624611","0.0-8.0-2.47","LF","nlsem5jp13","1920","1080","de","pf06nd18","null","","","","learningBlock2","","","","<div style=""font-size:60px;""> </div>","null","LF","learning/Slide128.JPG","This is a wug:","",""
"","html-keyboard-response","392","625617","0.0-8.0-0.48","LF","nlsem5jp13","1920","1080","de","pf06nd18","null","","","","learningBlock2","","","","This is a tob:","null","","","","",""
"","image-keyboard-response","393","625955","0.0-8.0-1.48","LF","nlsem5jp13","1920","1080","de","pf06nd18","null","","","","","","","","learning/Slide129.JPG","null","","","","",""
"","html-keyboard-response","394","626961","0.0-8.0-2.48","LF","nlsem5jp13","1920","1080","de","pf06nd18","null","","","","learningBlock2","","","","<div style=""font-size:60px;""> </div>","null","LF","learning/Slide129.JPG","This is a tob:","",""
"","html-keyboard-response","395","627966","0.0-8.0-0.49","LF","nlsem5jp13","1920","1080","de","pf06nd18","null","","","","learningBlock2","","","","This is a wug:","null","","","","",""
"","image-keyboard-response","396","628302","0.0-8.0-1.49","LF","nlsem5jp13","1920","1080","de","pf06nd18","null","","","","","","","","learning/Slide130.JPG","null","","","","",""
"","html-keyboard-response","397","629306","0.0-8.0-2.49","LF","nlsem5jp13","1920","1080","de","pf06nd18","null","","","","learningBlock2","","","","<div style=""font-size:60px;""> </div>","null","LF","learning/Slide130.JPG","This is a wug:","",""
"","html-keyboard-response","398","630313","0.0-8.0-0.50","LF","nlsem5jp13","1920","1080","de","pf06nd18","null","","","","learningBlock2","","","","This is a bim:","null","","","","",""
"","image-keyboard-response","399","630646","0.0-8.0-1.50","LF","nlsem5jp13","1920","1080","de","pf06nd18","null","","","","","","","","learning/Slide131.JPG","null","","","","",""
"","html-keyboard-response","400","631657","0.0-8.0-2.50","LF","nlsem5jp13","1920","1080","de","pf06nd18","null","","","","learningBlock2","","","","<div style=""font-size:60px;""> </div>","null","LF","learning/Slide131.JPG","This is a bim:","",""
"","html-keyboard-response","401","632666","0.0-8.0-0.51","LF","nlsem5jp13","1920","1080","de","pf06nd18","null","","","","learningBlock2","","","","This is a dep:","null","","","","",""
"","image-keyboard-response","402","633004","0.0-8.0-1.51","LF","nlsem5jp13","1920","1080","de","pf06nd18","null","","","","","","","","learning/Slide132.JPG","null","","","","",""
"","html-keyboard-response","403","634008","0.0-8.0-2.51","LF","nlsem5jp13","1920","1080","de","pf06nd18","null","","","","learningBlock2","","","","<div style=""font-size:60px;""> </div>","null","LF","learning/Slide132.JPG","This is a dep:","",""
"","html-keyboard-response","404","635017","0.0-8.0-0.52","LF","nlsem5jp13","1920","1080","de","pf06nd18","null","","","","learningBlock2","","","","This is a tob:","null","","","","",""
"","image-keyboard-response","405","635354","0.0-8.0-1.52","LF","nlsem5jp13","1920","1080","de","pf06nd18","null","","","","","","","","learning/Slide133.JPG","null","","","","",""
"","html-keyboard-response","406","636360","0.0-8.0-2.52","LF","nlsem5jp13","1920","1080","de","pf06nd18","null","","","","learningBlock2","","","","<div style=""font-size:60px;""> </div>","null","LF","learning/Slide133.JPG","This is a tob:","",""
"","html-keyboard-response","407","637367","0.0-8.0-0.53","LF","nlsem5jp13","1920","1080","de","pf06nd18","null","","","","learningBlock2","","","","This is a dep:","null","","","","",""
"","image-keyboard-response","408","637711","0.0-8.0-1.53","LF","nlsem5jp13","1920","1080","de","pf06nd18","null","","","","","","","","learning/Slide134.JPG","null","","","","",""
"","html-keyboard-response","409","638718","0.0-8.0-2.53","LF","nlsem5jp13","1920","1080","de","pf06nd18","null","","","","learningBlock2","","","","<div style=""font-size:60px;""> </div>","null","LF","learning/Slide134.JPG","This is a dep:","",""
"","html-keyboard-response","410","639720","0.0-8.0-0.54","LF","nlsem5jp13","1920","1080","de","pf06nd18","null","","","","learningBlock2","","","","This is a tob:","null","","","","",""
"","image-keyboard-response","411","640061","0.0-8.0-1.54","LF","nlsem5jp13","1920","1080","de","pf06nd18","null","","","","","","","","learning/Slide135.JPG","null","","","","",""
"","html-keyboard-response","412","641066","0.0-8.0-2.54","LF","nlsem5jp13","1920","1080","de","pf06nd18","null","","","","learningBlock2","","","","<div style=""font-size:60px;""> </div>","null","LF","learning/Slide135.JPG","This is a tob:","",""
"","html-keyboard-response","413","642076","0.0-8.0-0.55","LF","nlsem5jp13","1920","1080","de","pf06nd18","null","","","","learningBlock2","","","","This is a wug:","null","","","","",""
"","image-keyboard-response","414","642421","0.0-8.0-1.55","LF","nlsem5jp13","1920","1080","de","pf06nd18","null","","","","","","","","learning/Slide136.JPG","null","","","","",""
"","html-keyboard-response","415","643427","0.0-8.0-2.55","LF","nlsem5jp13","1920","1080","de","pf06nd18","null","","","","learningBlock2","","","","<div style=""font-size:60px;""> </div>","null","LF","learning/Slide136.JPG","This is a wug:","",""
"","html-keyboard-response","416","644436","0.0-8.0-0.56","LF","nlsem5jp13","1920","1080","de","pf06nd18","null","","","","learningBlock2","","","","This is a tob:","null","","","","",""
"","image-keyboard-response","417","644771","0.0-8.0-1.56","LF","nlsem5jp13","1920","1080","de","pf06nd18","null","","","","","","","","learning/Slide137.JPG","null","","","","",""
"","html-keyboard-response","418","645775","0.0-8.0-2.56","LF","nlsem5jp13","1920","1080","de","pf06nd18","null","","","","learningBlock2","","","","<div style=""font-size:60px;""> </div>","null","LF","learning/Slide137.JPG","This is a tob:","",""
"","html-keyboard-response","419","646779","0.0-8.0-0.57","LF","nlsem5jp13","1920","1080","de","pf06nd18","null","","","","learningBlock2","","","","This is a bim:","null","","","","",""
"","image-keyboard-response","420","647122","0.0-8.0-1.57","LF","nlsem5jp13","1920","1080","de","pf06nd18","null","","","","","","","","learning/Slide138.JPG","null","","","","",""
"","html-keyboard-response","421","648127","0.0-8.0-2.57","LF","nlsem5jp13","1920","1080","de","pf06nd18","null","","","","learningBlock2","","","","<div style=""font-size:60px;""> </div>","null","LF","learning/Slide138.JPG","This is a bim:","",""
"","html-keyboard-response","422","649133","0.0-8.0-0.58","LF","nlsem5jp13","1920","1080","de","pf06nd18","null","","","","learningBlock2","","","","This is a wug:","null","","","","",""
"","image-keyboard-response","423","649463","0.0-8.0-1.58","LF","nlsem5jp13","1920","1080","de","pf06nd18","null","","","","","","","","learning/Slide139.JPG","null","","","","",""
"","html-keyboard-response","424","650466","0.0-8.0-2.58","LF","nlsem5jp13","1920","1080","de","pf06nd18","null","","","","learningBlock2","","","","<div style=""font-size:60px;""> </div>","null","LF","learning/Slide139.JPG","This is a wug:","",""
"","html-keyboard-response","425","651478","0.0-8.0-0.59","LF","nlsem5jp13","1920","1080","de","pf06nd18","null","","","","learningBlock2","","","","This is a dep:","null","","","","",""
"","image-keyboard-response","426","651823","0.0-8.0-1.59","LF","nlsem5jp13","1920","1080","de","pf06nd18","null","","","","","","","","learning/Slide140.JPG","null","","","","",""
"","html-keyboard-response","427","652826","0.0-8.0-2.59","LF","nlsem5jp13","1920","1080","de","pf06nd18","null","","","","learningBlock2","","","","<div style=""font-size:60px;""> </div>","null","LF","learning/Slide140.JPG","This is a dep:","",""
"","html-keyboard-response","428","653830","0.0-8.0-0.60","LF","nlsem5jp13","1920","1080","de","pf06nd18","null","","","","learningBlock2","","","","This is a tob:","null","","","","",""
"","image-keyboard-response","429","654167","0.0-8.0-1.60","LF","nlsem5jp13","1920","1080","de","pf06nd18","null","","","","","","","","learning/Slide141.JPG","null","","","","",""
"","html-keyboard-response","430","655177","0.0-8.0-2.60","LF","nlsem5jp13","1920","1080","de","pf06nd18","null","","","","learningBlock2","","","","<div style=""font-size:60px;""> </div>","null","LF","learning/Slide141.JPG","This is a tob:","",""
"","html-keyboard-response","431","656186","0.0-8.0-0.61","LF","nlsem5jp13","1920","1080","de","pf06nd18","null","","","","learningBlock2","","","","This is a wug:","null","","","","",""
"","image-keyboard-response","432","656517","0.0-8.0-1.61","LF","nlsem5jp13","1920","1080","de","pf06nd18","null","","","","","","","","learning/Slide142.JPG","null","","","","",""
"","html-keyboard-response","433","657524","0.0-8.0-2.61","LF","nlsem5jp13","1920","1080","de","pf06nd18","null","","","","learningBlock2","","","","<div style=""font-size:60px;""> </div>","null","LF","learning/Slide142.JPG","This is a wug:","",""
"","html-keyboard-response","434","658526","0.0-8.0-0.62","LF","nlsem5jp13","1920","1080","de","pf06nd18","null","","","","learningBlock2","","","","This is a bim:","null","","","","",""
"","image-keyboard-response","435","658865","0.0-8.0-1.62","LF","nlsem5jp13","1920","1080","de","pf06nd18","null","","","","","","","","learning/Slide143.JPG","null","","","","",""
"","html-keyboard-response","436","659872","0.0-8.0-2.62","LF","nlsem5jp13","1920","1080","de","pf06nd18","null","","","","learningBlock2","","","","<div style=""font-size:60px;""> </div>","null","LF","learning/Slide143.JPG","This is a bim:","",""
"","html-keyboard-response","437","660877","0.0-8.0-0.63","LF","nlsem5jp13","1920","1080","de","pf06nd18","null","","","","learningBlock2","","","","This is a dep:","null","","","","",""
"","image-keyboard-response","438","661206","0.0-8.0-1.63","LF","nlsem5jp13","1920","1080","de","pf06nd18","null","","","","","","","","learning/Slide144.JPG","null","","","","",""
"","html-keyboard-response","439","662216","0.0-8.0-2.63","LF","nlsem5jp13","1920","1080","de","pf06nd18","null","","","","learningBlock2","","","","<div style=""font-size:60px;""> </div>","null","LF","learning/Slide144.JPG","This is a dep:","",""
"","html-keyboard-response","440","663222","0.0-8.0-0.64","LF","nlsem5jp13","1920","1080","de","pf06nd18","null","","","","learningBlock2","","","","This is a bim:","null","","","","",""
"","image-keyboard-response","441","663554","0.0-8.0-1.64","LF","nlsem5jp13","1920","1080","de","pf06nd18","null","","","","","","","","learning/Slide145.JPG","null","","","","",""
"","html-keyboard-response","442","664563","0.0-8.0-2.64","LF","nlsem5jp13","1920","1080","de","pf06nd18","null","","","","learningBlock2","","","","<div style=""font-size:60px;""> </div>","null","LF","learning/Slide145.JPG","This is a bim:","",""
"","html-keyboard-response","443","665566","0.0-8.0-0.65","LF","nlsem5jp13","1920","1080","de","pf06nd18","null","","","","learningBlock2","","","","This is a tob:","null","","","","",""
"","image-keyboard-response","444","665904","0.0-8.0-1.65","LF","nlsem5jp13","1920","1080","de","pf06nd18","null","","","","","","","","learning/Slide146.JPG","null","","","","",""
"","html-keyboard-response","445","666912","0.0-8.0-2.65","LF","nlsem5jp13","1920","1080","de","pf06nd18","null","","","","learningBlock2","","","","<div style=""font-size:60px;""> </div>","null","LF","learning/Slide146.JPG","This is a tob:","",""
"","html-keyboard-response","446","667920","0.0-8.0-0.66","LF","nlsem5jp13","1920","1080","de","pf06nd18","null","","","","learningBlock2","","","","This is a wug:","null","","","","",""
"","image-keyboard-response","447","668254","0.0-8.0-1.66","LF","nlsem5jp13","1920","1080","de","pf06nd18","null","","","","","","","","learning/Slide147.JPG","null","","","","",""
"","html-keyboard-response","448","669256","0.0-8.0-2.66","LF","nlsem5jp13","1920","1080","de","pf06nd18","null","","","","learningBlock2","","","","<div style=""font-size:60px;""> </div>","null","LF","learning/Slide147.JPG","This is a wug:","",""
"","html-keyboard-response","449","670257","0.0-8.0-0.67","LF","nlsem5jp13","1920","1080","de","pf06nd18","null","","","","learningBlock2","","","","This is a bim:","null","","","","",""
"","image-keyboard-response","450","670596","0.0-8.0-1.67","LF","nlsem5jp13","1920","1080","de","pf06nd18","null","","","","","","","","learning/Slide148.JPG","null","","","","",""
"","html-keyboard-response","451","671603","0.0-8.0-2.67","LF","nlsem5jp13","1920","1080","de","pf06nd18","null","","","","learningBlock2","","","","<div style=""font-size:60px;""> </div>","null","LF","learning/Slide148.JPG","This is a bim:","",""
"","html-keyboard-response","452","672613","0.0-8.0-0.68","LF","nlsem5jp13","1920","1080","de","pf06nd18","null","","","","learningBlock2","","","","This is a dep:","null","","","","",""
"","image-keyboard-response","453","672955","0.0-8.0-1.68","LF","nlsem5jp13","1920","1080","de","pf06nd18","null","","","","","","","","learning/Slide149.JPG","null","","","","",""
"","html-keyboard-response","454","673966","0.0-8.0-2.68","LF","nlsem5jp13","1920","1080","de","pf06nd18","null","","","","learningBlock2","","","","<div style=""font-size:60px;""> </div>","null","LF","learning/Slide149.JPG","This is a dep:","",""
"","html-keyboard-response","455","674976","0.0-8.0-0.69","LF","nlsem5jp13","1920","1080","de","pf06nd18","null","","","","learningBlock2","","","","This is a wug:","null","","","","",""
"","image-keyboard-response","456","675312","0.0-8.0-1.69","LF","nlsem5jp13","1920","1080","de","pf06nd18","null","","","","","","","","learning/Slide150.JPG","null","","","","",""
"","html-keyboard-response","457","676316","0.0-8.0-2.69","LF","nlsem5jp13","1920","1080","de","pf06nd18","null","","","","learningBlock2","","","","<div style=""font-size:60px;""> </div>","null","LF","learning/Slide150.JPG","This is a wug:","",""
"","html-keyboard-response","458","677332","0.0-8.0-0.70","LF","nlsem5jp13","1920","1080","de","pf06nd18","null","","","","learningBlock2","","","","This is a dep:","null","","","","",""
"","image-keyboard-response","459","677671","0.0-8.0-1.70","LF","nlsem5jp13","1920","1080","de","pf06nd18","null","","","","","","","","learning/Slide151.JPG","null","","","","",""
"","html-keyboard-response","460","678674","0.0-8.0-2.70","LF","nlsem5jp13","1920","1080","de","pf06nd18","null","","","","learningBlock2","","","","<div style=""font-size:60px;""> </div>","null","LF","learning/Slide151.JPG","This is a dep:","",""
"","html-keyboard-response","461","679686","0.0-8.0-0.71","LF","nlsem5jp13","1920","1080","de","pf06nd18","null","","","","learningBlock2","","","","This is a wug:","null","","","","",""
"","image-keyboard-response","462","680028","0.0-8.0-1.71","LF","nlsem5jp13","1920","1080","de","pf06nd18","null","","","","","","","","learning/Slide152.JPG","null","","","","",""
"","html-keyboard-response","463","681037","0.0-8.0-2.71","LF","nlsem5jp13","1920","1080","de","pf06nd18","null","","","","learningBlock2","","","","<div style=""font-size:60px;""> </div>","null","LF","learning/Slide152.JPG","This is a wug:","",""
"","html-keyboard-response","464","682045","0.0-8.0-0.72","LF","nlsem5jp13","1920","1080","de","pf06nd18","null","","","","learningBlock2","","","","This is a bim:","null","","","","",""
"","image-keyboard-response","465","682387","0.0-8.0-1.72","LF","nlsem5jp13","1920","1080","de","pf06nd18","null","","","","","","","","learning/Slide153.JPG","null","","","","",""
"","html-keyboard-response","466","683395","0.0-8.0-2.72","LF","nlsem5jp13","1920","1080","de","pf06nd18","null","","","","learningBlock2","","","","<div style=""font-size:60px;""> </div>","null","LF","learning/Slide153.JPG","This is a bim:","",""
"","html-keyboard-response","467","684398","0.0-8.0-0.73","LF","nlsem5jp13","1920","1080","de","pf06nd18","null","","","","learningBlock2","","","","This is a tob:","null","","","","",""
"","image-keyboard-response","468","684740","0.0-8.0-1.73","LF","nlsem5jp13","1920","1080","de","pf06nd18","null","","","","","","","","learning/Slide154.JPG","null","","","","",""
"","html-keyboard-response","469","685743","0.0-8.0-2.73","LF","nlsem5jp13","1920","1080","de","pf06nd18","null","","","","learningBlock2","","","","<div style=""font-size:60px;""> </div>","null","LF","learning/Slide154.JPG","This is a tob:","",""
"","html-keyboard-response","470","686751","0.0-8.0-0.74","LF","nlsem5jp13","1920","1080","de","pf06nd18","null","","","","learningBlock2","","","","This is a dep:","null","","","","",""
"","image-keyboard-response","471","687096","0.0-8.0-1.74","LF","nlsem5jp13","1920","1080","de","pf06nd18","null","","","","","","","","learning/Slide155.JPG","null","","","","",""
"","html-keyboard-response","472","688102","0.0-8.0-2.74","LF","nlsem5jp13","1920","1080","de","pf06nd18","null","","","","learningBlock2","","","","<div style=""font-size:60px;""> </div>","null","LF","learning/Slide155.JPG","This is a dep:","",""
"","html-keyboard-response","473","689106","0.0-8.0-0.75","LF","nlsem5jp13","1920","1080","de","pf06nd18","null","","","","learningBlock2","","","","This is a bim:","null","","","","",""
"","image-keyboard-response","474","689436","0.0-8.0-1.75","LF","nlsem5jp13","1920","1080","de","pf06nd18","null","","","","","","","","learning/Slide156.JPG","null","","","","",""
"","html-keyboard-response","475","690442","0.0-8.0-2.75","LF","nlsem5jp13","1920","1080","de","pf06nd18","null","","","","learningBlock2","","","","<div style=""font-size:60px;""> </div>","null","LF","learning/Slide156.JPG","This is a bim:","",""
"","html-keyboard-response","476","691452","0.0-8.0-0.76","LF","nlsem5jp13","1920","1080","de","pf06nd18","null","","","","learningBlock2","","","","This is a dep:","null","","","","",""
"","image-keyboard-response","477","691796","0.0-8.0-1.76","LF","nlsem5jp13","1920","1080","de","pf06nd18","null","","","","","","","","learning/Slide157.JPG","null","","","","",""
"","html-keyboard-response","478","692802","0.0-8.0-2.76","LF","nlsem5jp13","1920","1080","de","pf06nd18","null","","","","learningBlock2","","","","<div style=""font-size:60px;""> </div>","null","LF","learning/Slide157.JPG","This is a dep:","",""
"","html-keyboard-response","479","693812","0.0-8.0-0.77","LF","nlsem5jp13","1920","1080","de","pf06nd18","null","","","","learningBlock2","","","","This is a tob:","null","","","","",""
"","image-keyboard-response","480","694153","0.0-8.0-1.77","LF","nlsem5jp13","1920","1080","de","pf06nd18","null","","","","","","","","learning/Slide158.JPG","null","","","","",""
"","html-keyboard-response","481","695157","0.0-8.0-2.77","LF","nlsem5jp13","1920","1080","de","pf06nd18","null","","","","learningBlock2","","","","<div style=""font-size:60px;""> </div>","null","LF","learning/Slide158.JPG","This is a tob:","",""
"","html-keyboard-response","482","696161","0.0-8.0-0.78","LF","nlsem5jp13","1920","1080","de","pf06nd18","null","","","","learningBlock2","","","","This is a dep:","null","","","","",""
"","image-keyboard-response","483","696503","0.0-8.0-1.78","LF","nlsem5jp13","1920","1080","de","pf06nd18","null","","","","","","","","learning/Slide159.JPG","null","","","","",""
"","html-keyboard-response","484","697509","0.0-8.0-2.78","LF","nlsem5jp13","1920","1080","de","pf06nd18","null","","","","learningBlock2","","","","<div style=""font-size:60px;""> </div>","null","LF","learning/Slide159.JPG","This is a dep:","",""
"","html-keyboard-response","485","698513","0.0-8.0-0.79","LF","nlsem5jp13","1920","1080","de","pf06nd18","null","","","","learningBlock2","","","","This is a wug:","null","","","","",""
"","image-keyboard-response","486","698849","0.0-8.0-1.79","LF","nlsem5jp13","1920","1080","de","pf06nd18","null","","","","","","","","learning/Slide160.JPG","null","","","","",""
"","html-keyboard-response","487","699857","0.0-8.0-2.79","LF","nlsem5jp13","1920","1080","de","pf06nd18","null","","","","learningBlock2","","","","<div style=""font-size:60px;""> </div>","null","LF","learning/Slide160.JPG","This is a wug:","",""
