"success","trial_type","trial_index","time_elapsed","internal_node_id","condition","subject","screen_width","screen_height","language","codeword","rt","responses","url","view_history","test_part","final_height_px","final_width_px","scale_factor","stimulus","key_press","learningType","presentedImage","presentedLabel","button_pressed","response"
"true","fullscreen","0","3900","0.0-0.0","LF","fnul5v7u0c","2752","1152","en","ng06rd26","","","","","","","","","","","","","","",""
"","survey-html-form","1","9365","0.0-1.0","LF","fnul5v7u0c","2752","1152","en","ng06rd26","5462.985000000004","{""language"":""en""}","","","","","","","","","","","","",""
"","external-html","2","37199","0.0-3.0-0.0","LF","fnul5v7u0c","2752","1152","en","ng06rd26","27712.08999999999","","text/information_english.html","","","","","","","","","","","",""
"","external-html","3","52014","0.0-3.0-1.0","LF","fnul5v7u0c","2752","1152","en","ng06rd26","14387.375000000022","","text/consent_english.html","","","","","","","","","","","",""
"","survey-html-form","4","147751","0.0-3.0-2.0","LF","fnul5v7u0c","2752","1152","en","ng06rd26","95734.64000000001","{""codeword_enter"":""ng06rd26""}","","","","","","","","","","","","",""
"","instructions","5","183920","0.0-4.0","LF","fnul5v7u0c","2752","1152","en","ng06rd26","NA","","","[{""page_index"":0,""viewing_time"":13000.874999999942},{""page_index"":1,""viewing_time"":21665.73000000007}]","instructions","","","","","","","","","",""
"","resize","6","369876","0.0-5.0","LF","fnul5v7u0c","2752","1152","en","ng06rd26","","","","","","","287","1.8222222222222222","","","","","","",""
"","html-keyboard-response","7","370878","0.0-6.0-0.0","LF","fnul5v7u0c","2752","1152","en","ng06rd26","null","","","","learningBlock1","","","","This is a tob:","null","","","","",""
"","image-keyboard-response","8","371206","0.0-6.0-1.0","LF","fnul5v7u0c","2752","1152","en","ng06rd26","null","","","","","","","","learning/Slide1.JPG","null","","","","",""
"","html-keyboard-response","9","372207","0.0-6.0-2.0","LF","fnul5v7u0c","2752","1152","en","ng06rd26","null","","","","learningBlock1","","","","<div style=""font-size:60px;""> </div>","null","LF","learning/Slide1.JPG","This is a tob:","",""
"","html-keyboard-response","10","373209","0.0-6.0-0.1","LF","fnul5v7u0c","2752","1152","en","ng06rd26","null","","","","learningBlock1","","","","This is a wug:","null","","","","",""
"","image-keyboard-response","11","373537","0.0-6.0-1.1","LF","fnul5v7u0c","2752","1152","en","ng06rd26","null","","","","","","","","learning/Slide2.JPG","null","","","","",""
"","html-keyboard-response","12","374538","0.0-6.0-2.1","LF","fnul5v7u0c","2752","1152","en","ng06rd26","null","","","","learningBlock1","","","","<div style=""font-size:60px;""> </div>","null","LF","learning/Slide2.JPG","This is a wug:","",""
"","html-keyboard-response","13","375540","0.0-6.0-0.2","LF","fnul5v7u0c","2752","1152","en","ng06rd26","null","","","","learningBlock1","","","","This is a bim:","null","","","","",""
"","image-keyboard-response","14","375867","0.0-6.0-1.2","LF","fnul5v7u0c","2752","1152","en","ng06rd26","null","","","","","","","","learning/Slide3.JPG","null","","","","",""
"","html-keyboard-response","15","376868","0.0-6.0-2.2","LF","fnul5v7u0c","2752","1152","en","ng06rd26","null","","","","learningBlock1","","","","<div style=""font-size:60px;""> </div>","null","LF","learning/Slide3.JPG","This is a bim:","",""
"","html-keyboard-response","16","377869","0.0-6.0-0.3","LF","fnul5v7u0c","2752","1152","en","ng06rd26","null","","","","learningBlock1","","","","This is a dep:","null","","","","",""
"","image-keyboard-response","17","378196","0.0-6.0-1.3","LF","fnul5v7u0c","2752","1152","en","ng06rd26","null","","","","","","","","learning/Slide4.JPG","null","","","","",""
"","html-keyboard-response","18","379198","0.0-6.0-2.3","LF","fnul5v7u0c","2752","1152","en","ng06rd26","null","","","","learningBlock1","","","","<div style=""font-size:60px;""> </div>","null","LF","learning/Slide4.JPG","This is a dep:","",""
"","html-keyboard-response","19","380199","0.0-6.0-0.4","LF","fnul5v7u0c","2752","1152","en","ng06rd26","null","","","","learningBlock1","","","","This is a wug:","null","","","","",""
"","image-keyboard-response","20","380526","0.0-6.0-1.4","LF","fnul5v7u0c","2752","1152","en","ng06rd26","null","","","","","","","","learning/Slide5.JPG","null","","","","",""
"","html-keyboard-response","21","381528","0.0-6.0-2.4","LF","fnul5v7u0c","2752","1152","en","ng06rd26","null","","","","learningBlock1","","","","<div style=""font-size:60px;""> </div>","null","LF","learning/Slide5.JPG","This is a wug:","",""
"","html-keyboard-response","22","382530","0.0-6.0-0.5","LF","fnul5v7u0c","2752","1152","en","ng06rd26","null","","","","learningBlock1","","","","This is a dep:","null","","","","",""
"","image-keyboard-response","23","382857","0.0-6.0-1.5","LF","fnul5v7u0c","2752","1152","en","ng06rd26","null","","","","","","","","learning/Slide6.JPG","null","","","","",""
"","html-keyboard-response","24","383858","0.0-6.0-2.5","LF","fnul5v7u0c","2752","1152","en","ng06rd26","null","","","","learningBlock1","","","","<div style=""font-size:60px;""> </div>","null","LF","learning/Slide6.JPG","This is a dep:","",""
"","html-keyboard-response","25","384861","0.0-6.0-0.6","LF","fnul5v7u0c","2752","1152","en","ng06rd26","null","","","","learningBlock1","","","","This is a wug:","null","","","","",""
"","image-keyboard-response","26","385189","0.0-6.0-1.6","LF","fnul5v7u0c","2752","1152","en","ng06rd26","null","","","","","","","","learning/Slide7.JPG","null","","","","",""
"","html-keyboard-response","27","386190","0.0-6.0-2.6","LF","fnul5v7u0c","2752","1152","en","ng06rd26","null","","","","learningBlock1","","","","<div style=""font-size:60px;""> </div>","null","LF","learning/Slide7.JPG","This is a wug:","",""
"","html-keyboard-response","28","387191","0.0-6.0-0.7","LF","fnul5v7u0c","2752","1152","en","ng06rd26","null","","","","learningBlock1","","","","This is a bim:","null","","","","",""
"","image-keyboard-response","29","387518","0.0-6.0-1.7","LF","fnul5v7u0c","2752","1152","en","ng06rd26","null","","","","","","","","learning/Slide8.JPG","null","","","","",""
"","html-keyboard-response","30","388519","0.0-6.0-2.7","LF","fnul5v7u0c","2752","1152","en","ng06rd26","null","","","","learningBlock1","","","","<div style=""font-size:60px;""> </div>","null","LF","learning/Slide8.JPG","This is a bim:","",""
"","html-keyboard-response","31","389521","0.0-6.0-0.8","LF","fnul5v7u0c","2752","1152","en","ng06rd26","null","","","","learningBlock1","","","","This is a wug:","null","","","","",""
"","image-keyboard-response","32","389849","0.0-6.0-1.8","LF","fnul5v7u0c","2752","1152","en","ng06rd26","null","","","","","","","","learning/Slide9.JPG","null","","","","",""
"","html-keyboard-response","33","390850","0.0-6.0-2.8","LF","fnul5v7u0c","2752","1152","en","ng06rd26","null","","","","learningBlock1","","","","<div style=""font-size:60px;""> </div>","null","LF","learning/Slide9.JPG","This is a wug:","",""
"","html-keyboard-response","34","391851","0.0-6.0-0.9","LF","fnul5v7u0c","2752","1152","en","ng06rd26","null","","","","learningBlock1","","","","This is a dep:","null","","","","",""
"","image-keyboard-response","35","392179","0.0-6.0-1.9","LF","fnul5v7u0c","2752","1152","en","ng06rd26","null","","","","","","","","learning/Slide10.JPG","null","","","","",""
"","html-keyboard-response","36","393181","0.0-6.0-2.9","LF","fnul5v7u0c","2752","1152","en","ng06rd26","null","","","","learningBlock1","","","","<div style=""font-size:60px;""> </div>","null","LF","learning/Slide10.JPG","This is a dep:","",""
"","html-keyboard-response","37","394182","0.0-6.0-0.10","LF","fnul5v7u0c","2752","1152","en","ng06rd26","null","","","","learningBlock1","","","","This is a tob:","null","","","","",""
"","image-keyboard-response","38","394509","0.0-6.0-1.10","LF","fnul5v7u0c","2752","1152","en","ng06rd26","null","","","","","","","","learning/Slide11.JPG","null","","","","",""
"","html-keyboard-response","39","395511","0.0-6.0-2.10","LF","fnul5v7u0c","2752","1152","en","ng06rd26","null","","","","learningBlock1","","","","<div style=""font-size:60px;""> </div>","null","LF","learning/Slide11.JPG","This is a tob:","",""
"","html-keyboard-response","40","396512","0.0-6.0-0.11","LF","fnul5v7u0c","2752","1152","en","ng06rd26","null","","","","learningBlock1","","","","This is a dep:","null","","","","",""
"","image-keyboard-response","41","396840","0.0-6.0-1.11","LF","fnul5v7u0c","2752","1152","en","ng06rd26","null","","","","","","","","learning/Slide12.JPG","null","","","","",""
"","html-keyboard-response","42","397842","0.0-6.0-2.11","LF","fnul5v7u0c","2752","1152","en","ng06rd26","null","","","","learningBlock1","","","","<div style=""font-size:60px;""> </div>","null","LF","learning/Slide12.JPG","This is a dep:","",""
"","html-keyboard-response","43","398844","0.0-6.0-0.12","LF","fnul5v7u0c","2752","1152","en","ng06rd26","null","","","","learningBlock1","","","","This is a bim:","null","","","","",""
"","image-keyboard-response","44","399172","0.0-6.0-1.12","LF","fnul5v7u0c","2752","1152","en","ng06rd26","null","","","","","","","","learning/Slide13.JPG","null","","","","",""
"","html-keyboard-response","45","400173","0.0-6.0-2.12","LF","fnul5v7u0c","2752","1152","en","ng06rd26","null","","","","learningBlock1","","","","<div style=""font-size:60px;""> </div>","null","LF","learning/Slide13.JPG","This is a bim:","",""
"","html-keyboard-response","46","401175","0.0-6.0-0.13","LF","fnul5v7u0c","2752","1152","en","ng06rd26","null","","","","learningBlock1","","","","This is a wug:","null","","","","",""
"","image-keyboard-response","47","401504","0.0-6.0-1.13","LF","fnul5v7u0c","2752","1152","en","ng06rd26","null","","","","","","","","learning/Slide14.JPG","null","","","","",""
"","html-keyboard-response","48","402507","0.0-6.0-2.13","LF","fnul5v7u0c","2752","1152","en","ng06rd26","null","","","","learningBlock1","","","","<div style=""font-size:60px;""> </div>","null","LF","learning/Slide14.JPG","This is a wug:","",""
"","html-keyboard-response","49","403508","0.0-6.0-0.14","LF","fnul5v7u0c","2752","1152","en","ng06rd26","null","","","","learningBlock1","","","","This is a tob:","null","","","","",""
"","image-keyboard-response","50","403836","0.0-6.0-1.14","LF","fnul5v7u0c","2752","1152","en","ng06rd26","null","","","","","","","","learning/Slide15.JPG","null","","","","",""
"","html-keyboard-response","51","404838","0.0-6.0-2.14","LF","fnul5v7u0c","2752","1152","en","ng06rd26","null","","","","learningBlock1","","","","<div style=""font-size:60px;""> </div>","null","LF","learning/Slide15.JPG","This is a tob:","",""
"","html-keyboard-response","52","405840","0.0-6.0-0.15","LF","fnul5v7u0c","2752","1152","en","ng06rd26","null","","","","learningBlock1","","","","This is a dep:","null","","","","",""
"","image-keyboard-response","53","406167","0.0-6.0-1.15","LF","fnul5v7u0c","2752","1152","en","ng06rd26","null","","","","","","","","learning/Slide16.JPG","null","","","","",""
"","html-keyboard-response","54","407169","0.0-6.0-2.15","LF","fnul5v7u0c","2752","1152","en","ng06rd26","null","","","","learningBlock1","","","","<div style=""font-size:60px;""> </div>","null","LF","learning/Slide16.JPG","This is a dep:","",""
"","html-keyboard-response","55","408171","0.0-6.0-0.16","LF","fnul5v7u0c","2752","1152","en","ng06rd26","null","","","","learningBlock1","","","","This is a bim:","null","","","","",""
"","image-keyboard-response","56","408500","0.0-6.0-1.16","LF","fnul5v7u0c","2752","1152","en","ng06rd26","null","","","","","","","","learning/Slide17.JPG","null","","","","",""
"","html-keyboard-response","57","409501","0.0-6.0-2.16","LF","fnul5v7u0c","2752","1152","en","ng06rd26","null","","","","learningBlock1","","","","<div style=""font-size:60px;""> </div>","null","LF","learning/Slide17.JPG","This is a bim:","",""
"","html-keyboard-response","58","410502","0.0-6.0-0.17","LF","fnul5v7u0c","2752","1152","en","ng06rd26","null","","","","learningBlock1","","","","This is a tob:","null","","","","",""
"","image-keyboard-response","59","410829","0.0-6.0-1.17","LF","fnul5v7u0c","2752","1152","en","ng06rd26","null","","","","","","","","learning/Slide18.JPG","null","","","","",""
"","html-keyboard-response","60","411830","0.0-6.0-2.17","LF","fnul5v7u0c","2752","1152","en","ng06rd26","null","","","","learningBlock1","","","","<div style=""font-size:60px;""> </div>","null","LF","learning/Slide18.JPG","This is a tob:","",""
"","html-keyboard-response","61","412831","0.0-6.0-0.18","LF","fnul5v7u0c","2752","1152","en","ng06rd26","null","","","","learningBlock1","","","","This is a wug:","null","","","","",""
"","image-keyboard-response","62","413159","0.0-6.0-1.18","LF","fnul5v7u0c","2752","1152","en","ng06rd26","null","","","","","","","","learning/Slide19.JPG","null","","","","",""
"","html-keyboard-response","63","414161","0.0-6.0-2.18","LF","fnul5v7u0c","2752","1152","en","ng06rd26","null","","","","learningBlock1","","","","<div style=""font-size:60px;""> </div>","null","LF","learning/Slide19.JPG","This is a wug:","",""
"","html-keyboard-response","64","415161","0.0-6.0-0.19","LF","fnul5v7u0c","2752","1152","en","ng06rd26","null","","","","learningBlock1","","","","This is a bim:","null","","","","",""
"","image-keyboard-response","65","415489","0.0-6.0-1.19","LF","fnul5v7u0c","2752","1152","en","ng06rd26","null","","","","","","","","learning/Slide20.JPG","null","","","","",""
"","html-keyboard-response","66","416491","0.0-6.0-2.19","LF","fnul5v7u0c","2752","1152","en","ng06rd26","null","","","","learningBlock1","","","","<div style=""font-size:60px;""> </div>","null","LF","learning/Slide20.JPG","This is a bim:","",""
"","html-keyboard-response","67","417493","0.0-6.0-0.20","LF","fnul5v7u0c","2752","1152","en","ng06rd26","null","","","","learningBlock1","","","","This is a dep:","null","","","","",""
"","image-keyboard-response","68","417820","0.0-6.0-1.20","LF","fnul5v7u0c","2752","1152","en","ng06rd26","null","","","","","","","","learning/Slide21.JPG","null","","","","",""
"","html-keyboard-response","69","418824","0.0-6.0-2.20","LF","fnul5v7u0c","2752","1152","en","ng06rd26","null","","","","learningBlock1","","","","<div style=""font-size:60px;""> </div>","null","LF","learning/Slide21.JPG","This is a dep:","",""
"","html-keyboard-response","70","419826","0.0-6.0-0.21","LF","fnul5v7u0c","2752","1152","en","ng06rd26","null","","","","learningBlock1","","","","This is a bim:","null","","","","",""
"","image-keyboard-response","71","420154","0.0-6.0-1.21","LF","fnul5v7u0c","2752","1152","en","ng06rd26","null","","","","","","","","learning/Slide22.JPG","null","","","","",""
"","html-keyboard-response","72","421155","0.0-6.0-2.21","LF","fnul5v7u0c","2752","1152","en","ng06rd26","null","","","","learningBlock1","","","","<div style=""font-size:60px;""> </div>","null","LF","learning/Slide22.JPG","This is a bim:","",""
"","html-keyboard-response","73","422156","0.0-6.0-0.22","LF","fnul5v7u0c","2752","1152","en","ng06rd26","null","","","","learningBlock1","","","","This is a tob:","null","","","","",""
"","image-keyboard-response","74","422483","0.0-6.0-1.22","LF","fnul5v7u0c","2752","1152","en","ng06rd26","null","","","","","","","","learning/Slide23.JPG","null","","","","",""
"","html-keyboard-response","75","423485","0.0-6.0-2.22","LF","fnul5v7u0c","2752","1152","en","ng06rd26","null","","","","learningBlock1","","","","<div style=""font-size:60px;""> </div>","null","LF","learning/Slide23.JPG","This is a tob:","",""
"","html-keyboard-response","76","424486","0.0-6.0-0.23","LF","fnul5v7u0c","2752","1152","en","ng06rd26","null","","","","learningBlock1","","","","This is a wug:","null","","","","",""
"","image-keyboard-response","77","424812","0.0-6.0-1.23","LF","fnul5v7u0c","2752","1152","en","ng06rd26","null","","","","","","","","learning/Slide24.JPG","null","","","","",""
"","html-keyboard-response","78","425814","0.0-6.0-2.23","LF","fnul5v7u0c","2752","1152","en","ng06rd26","null","","","","learningBlock1","","","","<div style=""font-size:60px;""> </div>","null","LF","learning/Slide24.JPG","This is a wug:","",""
"","html-keyboard-response","79","426816","0.0-6.0-0.24","LF","fnul5v7u0c","2752","1152","en","ng06rd26","null","","","","learningBlock1","","","","This is a dep:","null","","","","",""
"","image-keyboard-response","80","427144","0.0-6.0-1.24","LF","fnul5v7u0c","2752","1152","en","ng06rd26","null","","","","","","","","learning/Slide25.JPG","null","","","","",""
"","html-keyboard-response","81","428146","0.0-6.0-2.24","LF","fnul5v7u0c","2752","1152","en","ng06rd26","null","","","","learningBlock1","","","","<div style=""font-size:60px;""> </div>","null","LF","learning/Slide25.JPG","This is a dep:","",""
"","html-keyboard-response","82","429147","0.0-6.0-0.25","LF","fnul5v7u0c","2752","1152","en","ng06rd26","null","","","","learningBlock1","","","","This is a wug:","null","","","","",""
"","image-keyboard-response","83","429474","0.0-6.0-1.25","LF","fnul5v7u0c","2752","1152","en","ng06rd26","null","","","","","","","","learning/Slide26.JPG","null","","","","",""
"","html-keyboard-response","84","430475","0.0-6.0-2.25","LF","fnul5v7u0c","2752","1152","en","ng06rd26","null","","","","learningBlock1","","","","<div style=""font-size:60px;""> </div>","null","LF","learning/Slide26.JPG","This is a wug:","",""
"","html-keyboard-response","85","431477","0.0-6.0-0.26","LF","fnul5v7u0c","2752","1152","en","ng06rd26","null","","","","learningBlock1","","","","This is a bim:","null","","","","",""
"","image-keyboard-response","86","431804","0.0-6.0-1.26","LF","fnul5v7u0c","2752","1152","en","ng06rd26","null","","","","","","","","learning/Slide27.JPG","null","","","","",""
"","html-keyboard-response","87","432805","0.0-6.0-2.26","LF","fnul5v7u0c","2752","1152","en","ng06rd26","null","","","","learningBlock1","","","","<div style=""font-size:60px;""> </div>","null","LF","learning/Slide27.JPG","This is a bim:","",""
"","html-keyboard-response","88","433806","0.0-6.0-0.27","LF","fnul5v7u0c","2752","1152","en","ng06rd26","null","","","","learningBlock1","","","","This is a dep:","null","","","","",""
"","image-keyboard-response","89","434132","0.0-6.0-1.27","LF","fnul5v7u0c","2752","1152","en","ng06rd26","null","","","","","","","","learning/Slide28.JPG","null","","","","",""
"","html-keyboard-response","90","435133","0.0-6.0-2.27","LF","fnul5v7u0c","2752","1152","en","ng06rd26","null","","","","learningBlock1","","","","<div style=""font-size:60px;""> </div>","null","LF","learning/Slide28.JPG","This is a dep:","",""
"","html-keyboard-response","91","436135","0.0-6.0-0.28","LF","fnul5v7u0c","2752","1152","en","ng06rd26","null","","","","learningBlock1","","","","This is a tob:","null","","","","",""
"","image-keyboard-response","92","436461","0.0-6.0-1.28","LF","fnul5v7u0c","2752","1152","en","ng06rd26","null","","","","","","","","learning/Slide29.JPG","null","","","","",""
"","html-keyboard-response","93","437463","0.0-6.0-2.28","LF","fnul5v7u0c","2752","1152","en","ng06rd26","null","","","","learningBlock1","","","","<div style=""font-size:60px;""> </div>","null","LF","learning/Slide29.JPG","This is a tob:","",""
"","html-keyboard-response","94","438464","0.0-6.0-0.29","LF","fnul5v7u0c","2752","1152","en","ng06rd26","null","","","","learningBlock1","","","","This is a dep:","null","","","","",""
"","image-keyboard-response","95","438791","0.0-6.0-1.29","LF","fnul5v7u0c","2752","1152","en","ng06rd26","null","","","","","","","","learning/Slide30.JPG","null","","","","",""
"","html-keyboard-response","96","439793","0.0-6.0-2.29","LF","fnul5v7u0c","2752","1152","en","ng06rd26","null","","","","learningBlock1","","","","<div style=""font-size:60px;""> </div>","null","LF","learning/Slide30.JPG","This is a dep:","",""
"","html-keyboard-response","97","440794","0.0-6.0-0.30","LF","fnul5v7u0c","2752","1152","en","ng06rd26","null","","","","learningBlock1","","","","This is a wug:","null","","","","",""
"","image-keyboard-response","98","441120","0.0-6.0-1.30","LF","fnul5v7u0c","2752","1152","en","ng06rd26","null","","","","","","","","learning/Slide31.JPG","null","","","","",""
"","html-keyboard-response","99","442121","0.0-6.0-2.30","LF","fnul5v7u0c","2752","1152","en","ng06rd26","null","","","","learningBlock1","","","","<div style=""font-size:60px;""> </div>","null","LF","learning/Slide31.JPG","This is a wug:","",""
"","html-keyboard-response","100","443123","0.0-6.0-0.31","LF","fnul5v7u0c","2752","1152","en","ng06rd26","null","","","","learningBlock1","","","","This is a tob:","null","","","","",""
"","image-keyboard-response","101","443451","0.0-6.0-1.31","LF","fnul5v7u0c","2752","1152","en","ng06rd26","null","","","","","","","","learning/Slide32.JPG","null","","","","",""
"","html-keyboard-response","102","444453","0.0-6.0-2.31","LF","fnul5v7u0c","2752","1152","en","ng06rd26","null","","","","learningBlock1","","","","<div style=""font-size:60px;""> </div>","null","LF","learning/Slide32.JPG","This is a tob:","",""
"","html-keyboard-response","103","445455","0.0-6.0-0.32","LF","fnul5v7u0c","2752","1152","en","ng06rd26","null","","","","learningBlock1","","","","This is a bim:","null","","","","",""
"","image-keyboard-response","104","445782","0.0-6.0-1.32","LF","fnul5v7u0c","2752","1152","en","ng06rd26","null","","","","","","","","learning/Slide33.JPG","null","","","","",""
"","html-keyboard-response","105","446783","0.0-6.0-2.32","LF","fnul5v7u0c","2752","1152","en","ng06rd26","null","","","","learningBlock1","","","","<div style=""font-size:60px;""> </div>","null","LF","learning/Slide33.JPG","This is a bim:","",""
"","html-keyboard-response","106","447784","0.0-6.0-0.33","LF","fnul5v7u0c","2752","1152","en","ng06rd26","null","","","","learningBlock1","","","","This is a tob:","null","","","","",""
"","image-keyboard-response","107","448111","0.0-6.0-1.33","LF","fnul5v7u0c","2752","1152","en","ng06rd26","null","","","","","","","","learning/Slide34.JPG","null","","","","",""
"","html-keyboard-response","108","449112","0.0-6.0-2.33","LF","fnul5v7u0c","2752","1152","en","ng06rd26","null","","","","learningBlock1","","","","<div style=""font-size:60px;""> </div>","null","LF","learning/Slide34.JPG","This is a tob:","",""
"","html-keyboard-response","109","450114","0.0-6.0-0.34","LF","fnul5v7u0c","2752","1152","en","ng06rd26","null","","","","learningBlock1","","","","This is a bim:","null","","","","",""
"","image-keyboard-response","110","450441","0.0-6.0-1.34","LF","fnul5v7u0c","2752","1152","en","ng06rd26","null","","","","","","","","learning/Slide35.JPG","null","","","","",""
"","html-keyboard-response","111","451442","0.0-6.0-2.34","LF","fnul5v7u0c","2752","1152","en","ng06rd26","null","","","","learningBlock1","","","","<div style=""font-size:60px;""> </div>","null","LF","learning/Slide35.JPG","This is a bim:","",""
"","html-keyboard-response","112","452443","0.0-6.0-0.35","LF","fnul5v7u0c","2752","1152","en","ng06rd26","null","","","","learningBlock1","","","","This is a dep:","null","","","","",""
"","image-keyboard-response","113","452771","0.0-6.0-1.35","LF","fnul5v7u0c","2752","1152","en","ng06rd26","null","","","","","","","","learning/Slide36.JPG","null","","","","",""
"","html-keyboard-response","114","453774","0.0-6.0-2.35","LF","fnul5v7u0c","2752","1152","en","ng06rd26","null","","","","learningBlock1","","","","<div style=""font-size:60px;""> </div>","null","LF","learning/Slide36.JPG","This is a dep:","",""
"","html-keyboard-response","115","454775","0.0-6.0-0.36","LF","fnul5v7u0c","2752","1152","en","ng06rd26","null","","","","learningBlock1","","","","This is a tob:","null","","","","",""
"","image-keyboard-response","116","455102","0.0-6.0-1.36","LF","fnul5v7u0c","2752","1152","en","ng06rd26","null","","","","","","","","learning/Slide37.JPG","null","","","","",""
"","html-keyboard-response","117","456104","0.0-6.0-2.36","LF","fnul5v7u0c","2752","1152","en","ng06rd26","null","","","","learningBlock1","","","","<div style=""font-size:60px;""> </div>","null","LF","learning/Slide37.JPG","This is a tob:","",""
"","html-keyboard-response","118","457105","0.0-6.0-0.37","LF","fnul5v7u0c","2752","1152","en","ng06rd26","null","","","","learningBlock1","","","","This is a wug:","null","","","","",""
"","image-keyboard-response","119","457432","0.0-6.0-1.37","LF","fnul5v7u0c","2752","1152","en","ng06rd26","null","","","","","","","","learning/Slide38.JPG","null","","","","",""
"","html-keyboard-response","120","458433","0.0-6.0-2.37","LF","fnul5v7u0c","2752","1152","en","ng06rd26","null","","","","learningBlock1","","","","<div style=""font-size:60px;""> </div>","null","LF","learning/Slide38.JPG","This is a wug:","",""
"","html-keyboard-response","121","459434","0.0-6.0-0.38","LF","fnul5v7u0c","2752","1152","en","ng06rd26","null","","","","learningBlock1","","","","This is a bim:","null","","","","",""
"","image-keyboard-response","122","459761","0.0-6.0-1.38","LF","fnul5v7u0c","2752","1152","en","ng06rd26","null","","","","","","","","learning/Slide39.JPG","null","","","","",""
"","html-keyboard-response","123","460762","0.0-6.0-2.38","LF","fnul5v7u0c","2752","1152","en","ng06rd26","null","","","","learningBlock1","","","","<div style=""font-size:60px;""> </div>","null","LF","learning/Slide39.JPG","This is a bim:","",""
"","html-keyboard-response","124","461765","0.0-6.0-0.39","LF","fnul5v7u0c","2752","1152","en","ng06rd26","null","","","","learningBlock1","","","","This is a tob:","null","","","","",""
"","image-keyboard-response","125","462093","0.0-6.0-1.39","LF","fnul5v7u0c","2752","1152","en","ng06rd26","null","","","","","","","","learning/Slide40.JPG","null","","","","",""
"","html-keyboard-response","126","463096","0.0-6.0-2.39","LF","fnul5v7u0c","2752","1152","en","ng06rd26","null","","","","learningBlock1","","","","<div style=""font-size:60px;""> </div>","null","LF","learning/Slide40.JPG","This is a tob:","",""
"","html-keyboard-response","127","464097","0.0-6.0-0.40","LF","fnul5v7u0c","2752","1152","en","ng06rd26","null","","","","learningBlock1","","","","This is a bim:","null","","","","",""
"","image-keyboard-response","128","464424","0.0-6.0-1.40","LF","fnul5v7u0c","2752","1152","en","ng06rd26","null","","","","","","","","learning/Slide41.JPG","null","","","","",""
"","html-keyboard-response","129","465426","0.0-6.0-2.40","LF","fnul5v7u0c","2752","1152","en","ng06rd26","null","","","","learningBlock1","","","","<div style=""font-size:60px;""> </div>","null","LF","learning/Slide41.JPG","This is a bim:","",""
"","html-keyboard-response","130","466427","0.0-6.0-0.41","LF","fnul5v7u0c","2752","1152","en","ng06rd26","null","","","","learningBlock1","","","","This is a dep:","null","","","","",""
"","image-keyboard-response","131","466757","0.0-6.0-1.41","LF","fnul5v7u0c","2752","1152","en","ng06rd26","null","","","","","","","","learning/Slide42.JPG","null","","","","",""
"","html-keyboard-response","132","467760","0.0-6.0-2.41","LF","fnul5v7u0c","2752","1152","en","ng06rd26","null","","","","learningBlock1","","","","<div style=""font-size:60px;""> </div>","null","LF","learning/Slide42.JPG","This is a dep:","",""
"","html-keyboard-response","133","468761","0.0-6.0-0.42","LF","fnul5v7u0c","2752","1152","en","ng06rd26","null","","","","learningBlock1","","","","This is a wug:","null","","","","",""
"","image-keyboard-response","134","469089","0.0-6.0-1.42","LF","fnul5v7u0c","2752","1152","en","ng06rd26","null","","","","","","","","learning/Slide43.JPG","null","","","","",""
"","html-keyboard-response","135","470091","0.0-6.0-2.42","LF","fnul5v7u0c","2752","1152","en","ng06rd26","null","","","","learningBlock1","","","","<div style=""font-size:60px;""> </div>","null","LF","learning/Slide43.JPG","This is a wug:","",""
"","html-keyboard-response","136","471092","0.0-6.0-0.43","LF","fnul5v7u0c","2752","1152","en","ng06rd26","null","","","","learningBlock1","","","","This is a bim:","null","","","","",""
"","image-keyboard-response","137","471420","0.0-6.0-1.43","LF","fnul5v7u0c","2752","1152","en","ng06rd26","null","","","","","","","","learning/Slide44.JPG","null","","","","",""
"","html-keyboard-response","138","472426","0.0-6.0-2.43","LF","fnul5v7u0c","2752","1152","en","ng06rd26","null","","","","learningBlock1","","","","<div style=""font-size:60px;""> </div>","null","LF","learning/Slide44.JPG","This is a bim:","",""
"","html-keyboard-response","139","473427","0.0-6.0-0.44","LF","fnul5v7u0c","2752","1152","en","ng06rd26","null","","","","learningBlock1","","","","This is a wug:","null","","","","",""
"","image-keyboard-response","140","473756","0.0-6.0-1.44","LF","fnul5v7u0c","2752","1152","en","ng06rd26","null","","","","","","","","learning/Slide45.JPG","null","","","","",""
"","html-keyboard-response","141","474758","0.0-6.0-2.44","LF","fnul5v7u0c","2752","1152","en","ng06rd26","null","","","","learningBlock1","","","","<div style=""font-size:60px;""> </div>","null","LF","learning/Slide45.JPG","This is a wug:","",""
"","html-keyboard-response","142","475759","0.0-6.0-0.45","LF","fnul5v7u0c","2752","1152","en","ng06rd26","null","","","","learningBlock1","","","","This is a dep:","null","","","","",""
"","image-keyboard-response","143","476086","0.0-6.0-1.45","LF","fnul5v7u0c","2752","1152","en","ng06rd26","null","","","","","","","","learning/Slide46.JPG","null","","","","",""
"","html-keyboard-response","144","477087","0.0-6.0-2.45","LF","fnul5v7u0c","2752","1152","en","ng06rd26","null","","","","learningBlock1","","","","<div style=""font-size:60px;""> </div>","null","LF","learning/Slide46.JPG","This is a dep:","",""
"","html-keyboard-response","145","478089","0.0-6.0-0.46","LF","fnul5v7u0c","2752","1152","en","ng06rd26","null","","","","learningBlock1","","","","This is a tob:","null","","","","",""
"","image-keyboard-response","146","478418","0.0-6.0-1.46","LF","fnul5v7u0c","2752","1152","en","ng06rd26","null","","","","","","","","learning/Slide47.JPG","null","","","","",""
"","html-keyboard-response","147","479420","0.0-6.0-2.46","LF","fnul5v7u0c","2752","1152","en","ng06rd26","null","","","","learningBlock1","","","","<div style=""font-size:60px;""> </div>","null","LF","learning/Slide47.JPG","This is a tob:","",""
"","html-keyboard-response","148","480422","0.0-6.0-0.47","LF","fnul5v7u0c","2752","1152","en","ng06rd26","null","","","","learningBlock1","","","","This is a bim:","null","","","","",""
"","image-keyboard-response","149","480749","0.0-6.0-1.47","LF","fnul5v7u0c","2752","1152","en","ng06rd26","null","","","","","","","","learning/Slide48.JPG","null","","","","",""
"","html-keyboard-response","150","481751","0.0-6.0-2.47","LF","fnul5v7u0c","2752","1152","en","ng06rd26","null","","","","learningBlock1","","","","<div style=""font-size:60px;""> </div>","null","LF","learning/Slide48.JPG","This is a bim:","",""
"","html-keyboard-response","151","482752","0.0-6.0-0.48","LF","fnul5v7u0c","2752","1152","en","ng06rd26","null","","","","learningBlock1","","","","This is a dep:","null","","","","",""
"","image-keyboard-response","152","483079","0.0-6.0-1.48","LF","fnul5v7u0c","2752","1152","en","ng06rd26","null","","","","","","","","learning/Slide49.JPG","null","","","","",""
"","html-keyboard-response","153","484080","0.0-6.0-2.48","LF","fnul5v7u0c","2752","1152","en","ng06rd26","null","","","","learningBlock1","","","","<div style=""font-size:60px;""> </div>","null","LF","learning/Slide49.JPG","This is a dep:","",""
"","html-keyboard-response","154","485082","0.0-6.0-0.49","LF","fnul5v7u0c","2752","1152","en","ng06rd26","null","","","","learningBlock1","","","","This is a tob:","null","","","","",""
"","image-keyboard-response","155","485408","0.0-6.0-1.49","LF","fnul5v7u0c","2752","1152","en","ng06rd26","null","","","","","","","","learning/Slide50.JPG","null","","","","",""
"","html-keyboard-response","156","486410","0.0-6.0-2.49","LF","fnul5v7u0c","2752","1152","en","ng06rd26","null","","","","learningBlock1","","","","<div style=""font-size:60px;""> </div>","null","LF","learning/Slide50.JPG","This is a tob:","",""
"","html-keyboard-response","157","487412","0.0-6.0-0.50","LF","fnul5v7u0c","2752","1152","en","ng06rd26","null","","","","learningBlock1","","","","This is a bim:","null","","","","",""
"","image-keyboard-response","158","487740","0.0-6.0-1.50","LF","fnul5v7u0c","2752","1152","en","ng06rd26","null","","","","","","","","learning/Slide51.JPG","null","","","","",""
"","html-keyboard-response","159","488741","0.0-6.0-2.50","LF","fnul5v7u0c","2752","1152","en","ng06rd26","null","","","","learningBlock1","","","","<div style=""font-size:60px;""> </div>","null","LF","learning/Slide51.JPG","This is a bim:","",""
"","html-keyboard-response","160","489743","0.0-6.0-0.51","LF","fnul5v7u0c","2752","1152","en","ng06rd26","null","","","","learningBlock1","","","","This is a wug:","null","","","","",""
"","image-keyboard-response","161","490071","0.0-6.0-1.51","LF","fnul5v7u0c","2752","1152","en","ng06rd26","null","","","","","","","","learning/Slide52.JPG","null","","","","",""
"","html-keyboard-response","162","491073","0.0-6.0-2.51","LF","fnul5v7u0c","2752","1152","en","ng06rd26","null","","","","learningBlock1","","","","<div style=""font-size:60px;""> </div>","null","LF","learning/Slide52.JPG","This is a wug:","",""
"","html-keyboard-response","163","492074","0.0-6.0-0.52","LF","fnul5v7u0c","2752","1152","en","ng06rd26","null","","","","learningBlock1","","","","This is a tob:","null","","","","",""
"","image-keyboard-response","164","492401","0.0-6.0-1.52","LF","fnul5v7u0c","2752","1152","en","ng06rd26","null","","","","","","","","learning/Slide53.JPG","null","","","","",""
"","html-keyboard-response","165","493403","0.0-6.0-2.52","LF","fnul5v7u0c","2752","1152","en","ng06rd26","null","","","","learningBlock1","","","","<div style=""font-size:60px;""> </div>","null","LF","learning/Slide53.JPG","This is a tob:","",""
"","html-keyboard-response","166","494404","0.0-6.0-0.53","LF","fnul5v7u0c","2752","1152","en","ng06rd26","null","","","","learningBlock1","","","","This is a dep:","null","","","","",""
"","image-keyboard-response","167","494732","0.0-6.0-1.53","LF","fnul5v7u0c","2752","1152","en","ng06rd26","null","","","","","","","","learning/Slide54.JPG","null","","","","",""
"","html-keyboard-response","168","495733","0.0-6.0-2.53","LF","fnul5v7u0c","2752","1152","en","ng06rd26","null","","","","learningBlock1","","","","<div style=""font-size:60px;""> </div>","null","LF","learning/Slide54.JPG","This is a dep:","",""
"","html-keyboard-response","169","496734","0.0-6.0-0.54","LF","fnul5v7u0c","2752","1152","en","ng06rd26","null","","","","learningBlock1","","","","This is a bim:","null","","","","",""
"","image-keyboard-response","170","497060","0.0-6.0-1.54","LF","fnul5v7u0c","2752","1152","en","ng06rd26","null","","","","","","","","learning/Slide55.JPG","null","","","","",""
"","html-keyboard-response","171","498062","0.0-6.0-2.54","LF","fnul5v7u0c","2752","1152","en","ng06rd26","null","","","","learningBlock1","","","","<div style=""font-size:60px;""> </div>","null","LF","learning/Slide55.JPG","This is a bim:","",""
"","html-keyboard-response","172","499063","0.0-6.0-0.55","LF","fnul5v7u0c","2752","1152","en","ng06rd26","null","","","","learningBlock1","","","","This is a tob:","null","","","","",""
"","image-keyboard-response","173","499390","0.0-6.0-1.55","LF","fnul5v7u0c","2752","1152","en","ng06rd26","null","","","","","","","","learning/Slide56.JPG","null","","","","",""
"","html-keyboard-response","174","500391","0.0-6.0-2.55","LF","fnul5v7u0c","2752","1152","en","ng06rd26","null","","","","learningBlock1","","","","<div style=""font-size:60px;""> </div>","null","LF","learning/Slide56.JPG","This is a tob:","",""
"","html-keyboard-response","175","501392","0.0-6.0-0.56","LF","fnul5v7u0c","2752","1152","en","ng06rd26","null","","","","learningBlock1","","","","This is a dep:","null","","","","",""
"","image-keyboard-response","176","501720","0.0-6.0-1.56","LF","fnul5v7u0c","2752","1152","en","ng06rd26","null","","","","","","","","learning/Slide57.JPG","null","","","","",""
"","html-keyboard-response","177","502722","0.0-6.0-2.56","LF","fnul5v7u0c","2752","1152","en","ng06rd26","null","","","","learningBlock1","","","","<div style=""font-size:60px;""> </div>","null","LF","learning/Slide57.JPG","This is a dep:","",""
"","html-keyboard-response","178","503723","0.0-6.0-0.57","LF","fnul5v7u0c","2752","1152","en","ng06rd26","null","","","","learningBlock1","","","","This is a wug:","null","","","","",""
"","image-keyboard-response","179","504051","0.0-6.0-1.57","LF","fnul5v7u0c","2752","1152","en","ng06rd26","null","","","","","","","","learning/Slide58.JPG","null","","","","",""
"","html-keyboard-response","180","505052","0.0-6.0-2.57","LF","fnul5v7u0c","2752","1152","en","ng06rd26","null","","","","learningBlock1","","","","<div style=""font-size:60px;""> </div>","null","LF","learning/Slide58.JPG","This is a wug:","",""
"","html-keyboard-response","181","506055","0.0-6.0-0.58","LF","fnul5v7u0c","2752","1152","en","ng06rd26","null","","","","learningBlock1","","","","This is a dep:","null","","","","",""
"","image-keyboard-response","182","506382","0.0-6.0-1.58","LF","fnul5v7u0c","2752","1152","en","ng06rd26","null","","","","","","","","learning/Slide59.JPG","null","","","","",""
"","html-keyboard-response","183","507384","0.0-6.0-2.58","LF","fnul5v7u0c","2752","1152","en","ng06rd26","null","","","","learningBlock1","","","","<div style=""font-size:60px;""> </div>","null","LF","learning/Slide59.JPG","This is a dep:","",""
"","html-keyboard-response","184","508396","0.0-6.0-0.59","LF","fnul5v7u0c","2752","1152","en","ng06rd26","null","","","","learningBlock1","","","","This is a wug:","null","","","","",""
"","image-keyboard-response","185","508726","0.0-6.0-1.59","LF","fnul5v7u0c","2752","1152","en","ng06rd26","null","","","","","","","","learning/Slide60.JPG","null","","","","",""
"","html-keyboard-response","186","509727","0.0-6.0-2.59","LF","fnul5v7u0c","2752","1152","en","ng06rd26","null","","","","learningBlock1","","","","<div style=""font-size:60px;""> </div>","null","LF","learning/Slide60.JPG","This is a wug:","",""
"","html-keyboard-response","187","510729","0.0-6.0-0.60","LF","fnul5v7u0c","2752","1152","en","ng06rd26","null","","","","learningBlock1","","","","This is a bim:","null","","","","",""
"","image-keyboard-response","188","511056","0.0-6.0-1.60","LF","fnul5v7u0c","2752","1152","en","ng06rd26","null","","","","","","","","learning/Slide61.JPG","null","","","","",""
"","html-keyboard-response","189","512058","0.0-6.0-2.60","LF","fnul5v7u0c","2752","1152","en","ng06rd26","null","","","","learningBlock1","","","","<div style=""font-size:60px;""> </div>","null","LF","learning/Slide61.JPG","This is a bim:","",""
"","html-keyboard-response","190","513060","0.0-6.0-0.61","LF","fnul5v7u0c","2752","1152","en","ng06rd26","null","","","","learningBlock1","","","","This is a dep:","null","","","","",""
"","image-keyboard-response","191","513387","0.0-6.0-1.61","LF","fnul5v7u0c","2752","1152","en","ng06rd26","null","","","","","","","","learning/Slide62.JPG","null","","","","",""
"","html-keyboard-response","192","514388","0.0-6.0-2.61","LF","fnul5v7u0c","2752","1152","en","ng06rd26","null","","","","learningBlock1","","","","<div style=""font-size:60px;""> </div>","null","LF","learning/Slide62.JPG","This is a dep:","",""
"","html-keyboard-response","193","515390","0.0-6.0-0.62","LF","fnul5v7u0c","2752","1152","en","ng06rd26","null","","","","learningBlock1","","","","This is a bim:","null","","","","",""
"","image-keyboard-response","194","515718","0.0-6.0-1.62","LF","fnul5v7u0c","2752","1152","en","ng06rd26","null","","","","","","","","learning/Slide63.JPG","null","","","","",""
"","html-keyboard-response","195","516723","0.0-6.0-2.62","LF","fnul5v7u0c","2752","1152","en","ng06rd26","null","","","","learningBlock1","","","","<div style=""font-size:60px;""> </div>","null","LF","learning/Slide63.JPG","This is a bim:","",""
"","html-keyboard-response","196","517725","0.0-6.0-0.63","LF","fnul5v7u0c","2752","1152","en","ng06rd26","null","","","","learningBlock1","","","","This is a tob:","null","","","","",""
"","image-keyboard-response","197","518052","0.0-6.0-1.63","LF","fnul5v7u0c","2752","1152","en","ng06rd26","null","","","","","","","","learning/Slide64.JPG","null","","","","",""
"","html-keyboard-response","198","519055","0.0-6.0-2.63","LF","fnul5v7u0c","2752","1152","en","ng06rd26","null","","","","learningBlock1","","","","<div style=""font-size:60px;""> </div>","null","LF","learning/Slide64.JPG","This is a tob:","",""
"","html-keyboard-response","199","520057","0.0-6.0-0.64","LF","fnul5v7u0c","2752","1152","en","ng06rd26","null","","","","learningBlock1","","","","This is a wug:","null","","","","",""
"","image-keyboard-response","200","520384","0.0-6.0-1.64","LF","fnul5v7u0c","2752","1152","en","ng06rd26","null","","","","","","","","learning/Slide65.JPG","null","","","","",""
"","html-keyboard-response","201","521386","0.0-6.0-2.64","LF","fnul5v7u0c","2752","1152","en","ng06rd26","null","","","","learningBlock1","","","","<div style=""font-size:60px;""> </div>","null","LF","learning/Slide65.JPG","This is a wug:","",""
"","html-keyboard-response","202","522387","0.0-6.0-0.65","LF","fnul5v7u0c","2752","1152","en","ng06rd26","null","","","","learningBlock1","","","","This is a dep:","null","","","","",""
"","image-keyboard-response","203","522714","0.0-6.0-1.65","LF","fnul5v7u0c","2752","1152","en","ng06rd26","null","","","","","","","","learning/Slide66.JPG","null","","","","",""
"","html-keyboard-response","204","523715","0.0-6.0-2.65","LF","fnul5v7u0c","2752","1152","en","ng06rd26","null","","","","learningBlock1","","","","<div style=""font-size:60px;""> </div>","null","LF","learning/Slide66.JPG","This is a dep:","",""
"","html-keyboard-response","205","524717","0.0-6.0-0.66","LF","fnul5v7u0c","2752","1152","en","ng06rd26","null","","","","learningBlock1","","","","This is a tob:","null","","","","",""
"","image-keyboard-response","206","525045","0.0-6.0-1.66","LF","fnul5v7u0c","2752","1152","en","ng06rd26","null","","","","","","","","learning/Slide67.JPG","null","","","","",""
"","html-keyboard-response","207","526047","0.0-6.0-2.66","LF","fnul5v7u0c","2752","1152","en","ng06rd26","null","","","","learningBlock1","","","","<div style=""font-size:60px;""> </div>","null","LF","learning/Slide67.JPG","This is a tob:","",""
"","html-keyboard-response","208","527049","0.0-6.0-0.67","LF","fnul5v7u0c","2752","1152","en","ng06rd26","null","","","","learningBlock1","","","","This is a wug:","null","","","","",""
"","image-keyboard-response","209","527380","0.0-6.0-1.67","LF","fnul5v7u0c","2752","1152","en","ng06rd26","null","","","","","","","","learning/Slide68.JPG","null","","","","",""
"","html-keyboard-response","210","528382","0.0-6.0-2.67","LF","fnul5v7u0c","2752","1152","en","ng06rd26","null","","","","learningBlock1","","","","<div style=""font-size:60px;""> </div>","null","LF","learning/Slide68.JPG","This is a wug:","",""
"","html-keyboard-response","211","529384","0.0-6.0-0.68","LF","fnul5v7u0c","2752","1152","en","ng06rd26","null","","","","learningBlock1","","","","This is a tob:","null","","","","",""
"","image-keyboard-response","212","529711","0.0-6.0-1.68","LF","fnul5v7u0c","2752","1152","en","ng06rd26","null","","","","","","","","learning/Slide69.JPG","null","","","","",""
"","html-keyboard-response","213","530712","0.0-6.0-2.68","LF","fnul5v7u0c","2752","1152","en","ng06rd26","null","","","","learningBlock1","","","","<div style=""font-size:60px;""> </div>","null","LF","learning/Slide69.JPG","This is a tob:","",""
"","html-keyboard-response","214","531713","0.0-6.0-0.69","LF","fnul5v7u0c","2752","1152","en","ng06rd26","null","","","","learningBlock1","","","","This is a dep:","null","","","","",""
"","image-keyboard-response","215","532043","0.0-6.0-1.69","LF","fnul5v7u0c","2752","1152","en","ng06rd26","null","","","","","","","","learning/Slide70.JPG","null","","","","",""
"","html-keyboard-response","216","533045","0.0-6.0-2.69","LF","fnul5v7u0c","2752","1152","en","ng06rd26","null","","","","learningBlock1","","","","<div style=""font-size:60px;""> </div>","null","LF","learning/Slide70.JPG","This is a dep:","",""
"","html-keyboard-response","217","534046","0.0-6.0-0.70","LF","fnul5v7u0c","2752","1152","en","ng06rd26","null","","","","learningBlock1","","","","This is a wug:","null","","","","",""
"","image-keyboard-response","218","534374","0.0-6.0-1.70","LF","fnul5v7u0c","2752","1152","en","ng06rd26","null","","","","","","","","learning/Slide71.JPG","null","","","","",""
"","html-keyboard-response","219","535376","0.0-6.0-2.70","LF","fnul5v7u0c","2752","1152","en","ng06rd26","null","","","","learningBlock1","","","","<div style=""font-size:60px;""> </div>","null","LF","learning/Slide71.JPG","This is a wug:","",""
"","html-keyboard-response","220","536377","0.0-6.0-0.71","LF","fnul5v7u0c","2752","1152","en","ng06rd26","null","","","","learningBlock1","","","","This is a bim:","null","","","","",""
"","image-keyboard-response","221","536705","0.0-6.0-1.71","LF","fnul5v7u0c","2752","1152","en","ng06rd26","null","","","","","","","","learning/Slide72.JPG","null","","","","",""
"","html-keyboard-response","222","537707","0.0-6.0-2.71","LF","fnul5v7u0c","2752","1152","en","ng06rd26","null","","","","learningBlock1","","","","<div style=""font-size:60px;""> </div>","null","LF","learning/Slide72.JPG","This is a bim:","",""
"","html-keyboard-response","223","538708","0.0-6.0-0.72","LF","fnul5v7u0c","2752","1152","en","ng06rd26","null","","","","learningBlock1","","","","This is a wug:","null","","","","",""
"","image-keyboard-response","224","539034","0.0-6.0-1.72","LF","fnul5v7u0c","2752","1152","en","ng06rd26","null","","","","","","","","learning/Slide73.JPG","null","","","","",""
"","html-keyboard-response","225","540035","0.0-6.0-2.72","LF","fnul5v7u0c","2752","1152","en","ng06rd26","null","","","","learningBlock1","","","","<div style=""font-size:60px;""> </div>","null","LF","learning/Slide73.JPG","This is a wug:","",""
"","html-keyboard-response","226","541036","0.0-6.0-0.73","LF","fnul5v7u0c","2752","1152","en","ng06rd26","null","","","","learningBlock1","","","","This is a dep:","null","","","","",""
"","image-keyboard-response","227","541364","0.0-6.0-1.73","LF","fnul5v7u0c","2752","1152","en","ng06rd26","null","","","","","","","","learning/Slide74.JPG","null","","","","",""
"","html-keyboard-response","228","542365","0.0-6.0-2.73","LF","fnul5v7u0c","2752","1152","en","ng06rd26","null","","","","learningBlock1","","","","<div style=""font-size:60px;""> </div>","null","LF","learning/Slide74.JPG","This is a dep:","",""
"","html-keyboard-response","229","543367","0.0-6.0-0.74","LF","fnul5v7u0c","2752","1152","en","ng06rd26","null","","","","learningBlock1","","","","This is a tob:","null","","","","",""
"","image-keyboard-response","230","543695","0.0-6.0-1.74","LF","fnul5v7u0c","2752","1152","en","ng06rd26","null","","","","","","","","learning/Slide75.JPG","null","","","","",""
"","html-keyboard-response","231","544697","0.0-6.0-2.74","LF","fnul5v7u0c","2752","1152","en","ng06rd26","null","","","","learningBlock1","","","","<div style=""font-size:60px;""> </div>","null","LF","learning/Slide75.JPG","This is a tob:","",""
"","html-keyboard-response","232","545699","0.0-6.0-0.75","LF","fnul5v7u0c","2752","1152","en","ng06rd26","null","","","","learningBlock1","","","","This is a bim:","null","","","","",""
"","image-keyboard-response","233","546025","0.0-6.0-1.75","LF","fnul5v7u0c","2752","1152","en","ng06rd26","null","","","","","","","","learning/Slide76.JPG","null","","","","",""
"","html-keyboard-response","234","547027","0.0-6.0-2.75","LF","fnul5v7u0c","2752","1152","en","ng06rd26","null","","","","learningBlock1","","","","<div style=""font-size:60px;""> </div>","null","LF","learning/Slide76.JPG","This is a bim:","",""
"","html-keyboard-response","235","548028","0.0-6.0-0.76","LF","fnul5v7u0c","2752","1152","en","ng06rd26","null","","","","learningBlock1","","","","This is a tob:","null","","","","",""
"","image-keyboard-response","236","548356","0.0-6.0-1.76","LF","fnul5v7u0c","2752","1152","en","ng06rd26","null","","","","","","","","learning/Slide77.JPG","null","","","","",""
"","html-keyboard-response","237","549358","0.0-6.0-2.76","LF","fnul5v7u0c","2752","1152","en","ng06rd26","null","","","","learningBlock1","","","","<div style=""font-size:60px;""> </div>","null","LF","learning/Slide77.JPG","This is a tob:","",""
"","html-keyboard-response","238","550359","0.0-6.0-0.77","LF","fnul5v7u0c","2752","1152","en","ng06rd26","null","","","","learningBlock1","","","","This is a wug:","null","","","","",""
"","image-keyboard-response","239","550686","0.0-6.0-1.77","LF","fnul5v7u0c","2752","1152","en","ng06rd26","null","","","","","","","","learning/Slide78.JPG","null","","","","",""
"","html-keyboard-response","240","551688","0.0-6.0-2.77","LF","fnul5v7u0c","2752","1152","en","ng06rd26","null","","","","learningBlock1","","","","<div style=""font-size:60px;""> </div>","null","LF","learning/Slide78.JPG","This is a wug:","",""
"","html-keyboard-response","241","552690","0.0-6.0-0.78","LF","fnul5v7u0c","2752","1152","en","ng06rd26","null","","","","learningBlock1","","","","This is a bim:","null","","","","",""
"","image-keyboard-response","242","553018","0.0-6.0-1.78","LF","fnul5v7u0c","2752","1152","en","ng06rd26","null","","","","","","","","learning/Slide79.JPG","null","","","","",""
"","html-keyboard-response","243","554020","0.0-6.0-2.78","LF","fnul5v7u0c","2752","1152","en","ng06rd26","null","","","","learningBlock1","","","","<div style=""font-size:60px;""> </div>","null","LF","learning/Slide79.JPG","This is a bim:","",""
"","html-keyboard-response","244","555021","0.0-6.0-0.79","LF","fnul5v7u0c","2752","1152","en","ng06rd26","null","","","","learningBlock1","","","","This is a tob:","null","","","","",""
"","image-keyboard-response","245","555349","0.0-6.0-1.79","LF","fnul5v7u0c","2752","1152","en","ng06rd26","null","","","","","","","","learning/Slide80.JPG","null","","","","",""
"","html-keyboard-response","246","556351","0.0-6.0-2.79","LF","fnul5v7u0c","2752","1152","en","ng06rd26","null","","","","learningBlock1","","","","<div style=""font-size:60px;""> </div>","null","LF","learning/Slide80.JPG","This is a tob:","",""
"","instructions","247","575900","0.0-7.0","LF","fnul5v7u0c","2752","1152","en","ng06rd26","NA","","","[{""page_index"":0,""viewing_time"":19548.18000000005}]","instructions","","","","","","","","","",""
"","html-keyboard-response","248","576902","0.0-8.0-0.0","LF","fnul5v7u0c","2752","1152","en","ng06rd26","null","","","","learningBlock2","","","","This is a wug:","null","","","","",""
"","image-keyboard-response","249","577228","0.0-8.0-1.0","LF","fnul5v7u0c","2752","1152","en","ng06rd26","null","","","","","","","","learning/Slide81.JPG","null","","","","",""
"","html-keyboard-response","250","578230","0.0-8.0-2.0","LF","fnul5v7u0c","2752","1152","en","ng06rd26","null","","","","learningBlock2","","","","<div style=""font-size:60px;""> </div>","null","LF","learning/Slide81.JPG","This is a wug:","",""
"","html-keyboard-response","251","579231","0.0-8.0-0.1","LF","fnul5v7u0c","2752","1152","en","ng06rd26","null","","","","learningBlock2","","","","This is a bim:","null","","","","",""
"","image-keyboard-response","252","579559","0.0-8.0-1.1","LF","fnul5v7u0c","2752","1152","en","ng06rd26","null","","","","","","","","learning/Slide82.JPG","null","","","","",""
"","html-keyboard-response","253","580560","0.0-8.0-2.1","LF","fnul5v7u0c","2752","1152","en","ng06rd26","null","","","","learningBlock2","","","","<div style=""font-size:60px;""> </div>","null","LF","learning/Slide82.JPG","This is a bim:","",""
"","html-keyboard-response","254","581562","0.0-8.0-0.2","LF","fnul5v7u0c","2752","1152","en","ng06rd26","null","","","","learningBlock2","","","","This is a wug:","null","","","","",""
"","image-keyboard-response","255","581889","0.0-8.0-1.2","LF","fnul5v7u0c","2752","1152","en","ng06rd26","null","","","","","","","","learning/Slide83.JPG","null","","","","",""
"","html-keyboard-response","256","582890","0.0-8.0-2.2","LF","fnul5v7u0c","2752","1152","en","ng06rd26","null","","","","learningBlock2","","","","<div style=""font-size:60px;""> </div>","null","LF","learning/Slide83.JPG","This is a wug:","",""
"","html-keyboard-response","257","583892","0.0-8.0-0.3","LF","fnul5v7u0c","2752","1152","en","ng06rd26","null","","","","learningBlock2","","","","This is a dep:","null","","","","",""
"","image-keyboard-response","258","584219","0.0-8.0-1.3","LF","fnul5v7u0c","2752","1152","en","ng06rd26","null","","","","","","","","learning/Slide84.JPG","null","","","","",""
"","html-keyboard-response","259","585221","0.0-8.0-2.3","LF","fnul5v7u0c","2752","1152","en","ng06rd26","null","","","","learningBlock2","","","","<div style=""font-size:60px;""> </div>","null","LF","learning/Slide84.JPG","This is a dep:","",""
"","html-keyboard-response","260","586223","0.0-8.0-0.4","LF","fnul5v7u0c","2752","1152","en","ng06rd26","null","","","","learningBlock2","","","","This is a bim:","null","","","","",""
"","image-keyboard-response","261","586550","0.0-8.0-1.4","LF","fnul5v7u0c","2752","1152","en","ng06rd26","null","","","","","","","","learning/Slide85.JPG","null","","","","",""
"","html-keyboard-response","262","587552","0.0-8.0-2.4","LF","fnul5v7u0c","2752","1152","en","ng06rd26","null","","","","learningBlock2","","","","<div style=""font-size:60px;""> </div>","null","LF","learning/Slide85.JPG","This is a bim:","",""
"","html-keyboard-response","263","588553","0.0-8.0-0.5","LF","fnul5v7u0c","2752","1152","en","ng06rd26","null","","","","learningBlock2","","","","This is a tob:","null","","","","",""
"","image-keyboard-response","264","588880","0.0-8.0-1.5","LF","fnul5v7u0c","2752","1152","en","ng06rd26","null","","","","","","","","learning/Slide86.JPG","null","","","","",""
"","html-keyboard-response","265","589882","0.0-8.0-2.5","LF","fnul5v7u0c","2752","1152","en","ng06rd26","null","","","","learningBlock2","","","","<div style=""font-size:60px;""> </div>","null","LF","learning/Slide86.JPG","This is a tob:","",""
"","html-keyboard-response","266","590883","0.0-8.0-0.6","LF","fnul5v7u0c","2752","1152","en","ng06rd26","null","","","","learningBlock2","","","","This is a wug:","null","","","","",""
"","image-keyboard-response","267","591211","0.0-8.0-1.6","LF","fnul5v7u0c","2752","1152","en","ng06rd26","null","","","","","","","","learning/Slide87.JPG","null","","","","",""
"","html-keyboard-response","268","592213","0.0-8.0-2.6","LF","fnul5v7u0c","2752","1152","en","ng06rd26","null","","","","learningBlock2","","","","<div style=""font-size:60px;""> </div>","null","LF","learning/Slide87.JPG","This is a wug:","",""
"","html-keyboard-response","269","593214","0.0-8.0-0.7","LF","fnul5v7u0c","2752","1152","en","ng06rd26","null","","","","learningBlock2","","","","This is a tob:","null","","","","",""
"","image-keyboard-response","270","593542","0.0-8.0-1.7","LF","fnul5v7u0c","2752","1152","en","ng06rd26","null","","","","","","","","learning/Slide88.JPG","null","","","","",""
"","html-keyboard-response","271","594543","0.0-8.0-2.7","LF","fnul5v7u0c","2752","1152","en","ng06rd26","null","","","","learningBlock2","","","","<div style=""font-size:60px;""> </div>","null","LF","learning/Slide88.JPG","This is a tob:","",""
"","html-keyboard-response","272","595546","0.0-8.0-0.8","LF","fnul5v7u0c","2752","1152","en","ng06rd26","null","","","","learningBlock2","","","","This is a bim:","null","","","","",""
"","image-keyboard-response","273","595873","0.0-8.0-1.8","LF","fnul5v7u0c","2752","1152","en","ng06rd26","null","","","","","","","","learning/Slide89.JPG","null","","","","",""
"","html-keyboard-response","274","596874","0.0-8.0-2.8","LF","fnul5v7u0c","2752","1152","en","ng06rd26","null","","","","learningBlock2","","","","<div style=""font-size:60px;""> </div>","null","LF","learning/Slide89.JPG","This is a bim:","",""
"","html-keyboard-response","275","597875","0.0-8.0-0.9","LF","fnul5v7u0c","2752","1152","en","ng06rd26","null","","","","learningBlock2","","","","This is a dep:","null","","","","",""
"","image-keyboard-response","276","598202","0.0-8.0-1.9","LF","fnul5v7u0c","2752","1152","en","ng06rd26","null","","","","","","","","learning/Slide90.JPG","null","","","","",""
"","html-keyboard-response","277","599203","0.0-8.0-2.9","LF","fnul5v7u0c","2752","1152","en","ng06rd26","null","","","","learningBlock2","","","","<div style=""font-size:60px;""> </div>","null","LF","learning/Slide90.JPG","This is a dep:","",""
"","html-keyboard-response","278","600204","0.0-8.0-0.10","LF","fnul5v7u0c","2752","1152","en","ng06rd26","null","","","","learningBlock2","","","","This is a wug:","null","","","","",""
"","image-keyboard-response","279","600531","0.0-8.0-1.10","LF","fnul5v7u0c","2752","1152","en","ng06rd26","null","","","","","","","","learning/Slide91.JPG","null","","","","",""
"","html-keyboard-response","280","601532","0.0-8.0-2.10","LF","fnul5v7u0c","2752","1152","en","ng06rd26","null","","","","learningBlock2","","","","<div style=""font-size:60px;""> </div>","null","LF","learning/Slide91.JPG","This is a wug:","",""
"","html-keyboard-response","281","602534","0.0-8.0-0.11","LF","fnul5v7u0c","2752","1152","en","ng06rd26","null","","","","learningBlock2","","","","This is a tob:","null","","","","",""
"","image-keyboard-response","282","602861","0.0-8.0-1.11","LF","fnul5v7u0c","2752","1152","en","ng06rd26","null","","","","","","","","learning/Slide92.JPG","null","","","","",""
"","html-keyboard-response","283","603863","0.0-8.0-2.11","LF","fnul5v7u0c","2752","1152","en","ng06rd26","null","","","","learningBlock2","","","","<div style=""font-size:60px;""> </div>","null","LF","learning/Slide92.JPG","This is a tob:","",""
"","html-keyboard-response","284","604864","0.0-8.0-0.12","LF","fnul5v7u0c","2752","1152","en","ng06rd26","null","","","","learningBlock2","","","","This is a bim:","null","","","","",""
"","image-keyboard-response","285","605191","0.0-8.0-1.12","LF","fnul5v7u0c","2752","1152","en","ng06rd26","null","","","","","","","","learning/Slide93.JPG","null","","","","",""
"","html-keyboard-response","286","606192","0.0-8.0-2.12","LF","fnul5v7u0c","2752","1152","en","ng06rd26","null","","","","learningBlock2","","","","<div style=""font-size:60px;""> </div>","null","LF","learning/Slide93.JPG","This is a bim:","",""
"","html-keyboard-response","287","607194","0.0-8.0-0.13","LF","fnul5v7u0c","2752","1152","en","ng06rd26","null","","","","learningBlock2","","","","This is a tob:","null","","","","",""
"","image-keyboard-response","288","607521","0.0-8.0-1.13","LF","fnul5v7u0c","2752","1152","en","ng06rd26","null","","","","","","","","learning/Slide94.JPG","null","","","","",""
"","html-keyboard-response","289","608523","0.0-8.0-2.13","LF","fnul5v7u0c","2752","1152","en","ng06rd26","null","","","","learningBlock2","","","","<div style=""font-size:60px;""> </div>","null","LF","learning/Slide94.JPG","This is a tob:","",""
"","html-keyboard-response","290","609524","0.0-8.0-0.14","LF","fnul5v7u0c","2752","1152","en","ng06rd26","null","","","","learningBlock2","","","","This is a wug:","null","","","","",""
"","image-keyboard-response","291","609851","0.0-8.0-1.14","LF","fnul5v7u0c","2752","1152","en","ng06rd26","null","","","","","","","","learning/Slide95.JPG","null","","","","",""
"","html-keyboard-response","292","610852","0.0-8.0-2.14","LF","fnul5v7u0c","2752","1152","en","ng06rd26","null","","","","learningBlock2","","","","<div style=""font-size:60px;""> </div>","null","LF","learning/Slide95.JPG","This is a wug:","",""
"","html-keyboard-response","293","611853","0.0-8.0-0.15","LF","fnul5v7u0c","2752","1152","en","ng06rd26","null","","","","learningBlock2","","","","This is a tob:","null","","","","",""
"","image-keyboard-response","294","612180","0.0-8.0-1.15","LF","fnul5v7u0c","2752","1152","en","ng06rd26","null","","","","","","","","learning/Slide96.JPG","null","","","","",""
"","html-keyboard-response","295","613182","0.0-8.0-2.15","LF","fnul5v7u0c","2752","1152","en","ng06rd26","null","","","","learningBlock2","","","","<div style=""font-size:60px;""> </div>","null","LF","learning/Slide96.JPG","This is a tob:","",""
"","html-keyboard-response","296","614185","0.0-8.0-0.16","LF","fnul5v7u0c","2752","1152","en","ng06rd26","null","","","","learningBlock2","","","","This is a dep:","null","","","","",""
"","image-keyboard-response","297","614512","0.0-8.0-1.16","LF","fnul5v7u0c","2752","1152","en","ng06rd26","null","","","","","","","","learning/Slide97.JPG","null","","","","",""
"","html-keyboard-response","298","615513","0.0-8.0-2.16","LF","fnul5v7u0c","2752","1152","en","ng06rd26","null","","","","learningBlock2","","","","<div style=""font-size:60px;""> </div>","null","LF","learning/Slide97.JPG","This is a dep:","",""
"","html-keyboard-response","299","616516","0.0-8.0-0.17","LF","fnul5v7u0c","2752","1152","en","ng06rd26","null","","","","learningBlock2","","","","This is a bim:","null","","","","",""
"","image-keyboard-response","300","616843","0.0-8.0-1.17","LF","fnul5v7u0c","2752","1152","en","ng06rd26","null","","","","","","","","learning/Slide98.JPG","null","","","","",""
"","html-keyboard-response","301","617844","0.0-8.0-2.17","LF","fnul5v7u0c","2752","1152","en","ng06rd26","null","","","","learningBlock2","","","","<div style=""font-size:60px;""> </div>","null","LF","learning/Slide98.JPG","This is a bim:","",""
"","html-keyboard-response","302","618846","0.0-8.0-0.18","LF","fnul5v7u0c","2752","1152","en","ng06rd26","null","","","","learningBlock2","","","","This is a dep:","null","","","","",""
"","image-keyboard-response","303","619173","0.0-8.0-1.18","LF","fnul5v7u0c","2752","1152","en","ng06rd26","null","","","","","","","","learning/Slide99.JPG","null","","","","",""
"","html-keyboard-response","304","620175","0.0-8.0-2.18","LF","fnul5v7u0c","2752","1152","en","ng06rd26","null","","","","learningBlock2","","","","<div style=""font-size:60px;""> </div>","null","LF","learning/Slide99.JPG","This is a dep:","",""
"","html-keyboard-response","305","621177","0.0-8.0-0.19","LF","fnul5v7u0c","2752","1152","en","ng06rd26","null","","","","learningBlock2","","","","This is a bim:","null","","","","",""
"","image-keyboard-response","306","621504","0.0-8.0-1.19","LF","fnul5v7u0c","2752","1152","en","ng06rd26","null","","","","","","","","learning/Slide100.JPG","null","","","","",""
"","html-keyboard-response","307","622505","0.0-8.0-2.19","LF","fnul5v7u0c","2752","1152","en","ng06rd26","null","","","","learningBlock2","","","","<div style=""font-size:60px;""> </div>","null","LF","learning/Slide100.JPG","This is a bim:","",""
"","html-keyboard-response","308","623507","0.0-8.0-0.20","LF","fnul5v7u0c","2752","1152","en","ng06rd26","null","","","","learningBlock2","","","","This is a tob:","null","","","","",""
"","image-keyboard-response","309","623835","0.0-8.0-1.20","LF","fnul5v7u0c","2752","1152","en","ng06rd26","null","","","","","","","","learning/Slide101.JPG","null","","","","",""
"","html-keyboard-response","310","624837","0.0-8.0-2.20","LF","fnul5v7u0c","2752","1152","en","ng06rd26","null","","","","learningBlock2","","","","<div style=""font-size:60px;""> </div>","null","LF","learning/Slide101.JPG","This is a tob:","",""
"","html-keyboard-response","311","625838","0.0-8.0-0.21","LF","fnul5v7u0c","2752","1152","en","ng06rd26","null","","","","learningBlock2","","","","This is a bim:","null","","","","",""
"","image-keyboard-response","312","626166","0.0-8.0-1.21","LF","fnul5v7u0c","2752","1152","en","ng06rd26","null","","","","","","","","learning/Slide102.JPG","null","","","","",""
"","html-keyboard-response","313","627168","0.0-8.0-2.21","LF","fnul5v7u0c","2752","1152","en","ng06rd26","null","","","","learningBlock2","","","","<div style=""font-size:60px;""> </div>","null","LF","learning/Slide102.JPG","This is a bim:","",""
"","html-keyboard-response","314","628169","0.0-8.0-0.22","LF","fnul5v7u0c","2752","1152","en","ng06rd26","null","","","","learningBlock2","","","","This is a dep:","null","","","","",""
"","image-keyboard-response","315","628496","0.0-8.0-1.22","LF","fnul5v7u0c","2752","1152","en","ng06rd26","null","","","","","","","","learning/Slide103.JPG","null","","","","",""
"","html-keyboard-response","316","629497","0.0-8.0-2.22","LF","fnul5v7u0c","2752","1152","en","ng06rd26","null","","","","learningBlock2","","","","<div style=""font-size:60px;""> </div>","null","LF","learning/Slide103.JPG","This is a dep:","",""
"","html-keyboard-response","317","630498","0.0-8.0-0.23","LF","fnul5v7u0c","2752","1152","en","ng06rd26","null","","","","learningBlock2","","","","This is a tob:","null","","","","",""
"","image-keyboard-response","318","630825","0.0-8.0-1.23","LF","fnul5v7u0c","2752","1152","en","ng06rd26","null","","","","","","","","learning/Slide104.JPG","null","","","","",""
"","html-keyboard-response","319","631827","0.0-8.0-2.23","LF","fnul5v7u0c","2752","1152","en","ng06rd26","null","","","","learningBlock2","","","","<div style=""font-size:60px;""> </div>","null","LF","learning/Slide104.JPG","This is a tob:","",""
"","html-keyboard-response","320","632828","0.0-8.0-0.24","LF","fnul5v7u0c","2752","1152","en","ng06rd26","null","","","","learningBlock2","","","","This is a dep:","null","","","","",""
"","image-keyboard-response","321","633156","0.0-8.0-1.24","LF","fnul5v7u0c","2752","1152","en","ng06rd26","null","","","","","","","","learning/Slide105.JPG","null","","","","",""
"","html-keyboard-response","322","634157","0.0-8.0-2.24","LF","fnul5v7u0c","2752","1152","en","ng06rd26","null","","","","learningBlock2","","","","<div style=""font-size:60px;""> </div>","null","LF","learning/Slide105.JPG","This is a dep:","",""
"","html-keyboard-response","323","635158","0.0-8.0-0.25","LF","fnul5v7u0c","2752","1152","en","ng06rd26","null","","","","learningBlock2","","","","This is a wug:","null","","","","",""
"","image-keyboard-response","324","635485","0.0-8.0-1.25","LF","fnul5v7u0c","2752","1152","en","ng06rd26","null","","","","","","","","learning/Slide106.JPG","null","","","","",""
"","html-keyboard-response","325","636487","0.0-8.0-2.25","LF","fnul5v7u0c","2752","1152","en","ng06rd26","null","","","","learningBlock2","","","","<div style=""font-size:60px;""> </div>","null","LF","learning/Slide106.JPG","This is a wug:","",""
"","html-keyboard-response","326","637488","0.0-8.0-0.26","LF","fnul5v7u0c","2752","1152","en","ng06rd26","null","","","","learningBlock2","","","","This is a bim:","null","","","","",""
"","image-keyboard-response","327","637814","0.0-8.0-1.26","LF","fnul5v7u0c","2752","1152","en","ng06rd26","null","","","","","","","","learning/Slide107.JPG","null","","","","",""
"","html-keyboard-response","328","638818","0.0-8.0-2.26","LF","fnul5v7u0c","2752","1152","en","ng06rd26","null","","","","learningBlock2","","","","<div style=""font-size:60px;""> </div>","null","LF","learning/Slide107.JPG","This is a bim:","",""
"","html-keyboard-response","329","639820","0.0-8.0-0.27","LF","fnul5v7u0c","2752","1152","en","ng06rd26","null","","","","learningBlock2","","","","This is a dep:","null","","","","",""
"","image-keyboard-response","330","640147","0.0-8.0-1.27","LF","fnul5v7u0c","2752","1152","en","ng06rd26","null","","","","","","","","learning/Slide108.JPG","null","","","","",""
"","html-keyboard-response","331","641148","0.0-8.0-2.27","LF","fnul5v7u0c","2752","1152","en","ng06rd26","null","","","","learningBlock2","","","","<div style=""font-size:60px;""> </div>","null","LF","learning/Slide108.JPG","This is a dep:","",""
"","html-keyboard-response","332","642149","0.0-8.0-0.28","LF","fnul5v7u0c","2752","1152","en","ng06rd26","null","","","","learningBlock2","","","","This is a wug:","null","","","","",""
"","image-keyboard-response","333","642477","0.0-8.0-1.28","LF","fnul5v7u0c","2752","1152","en","ng06rd26","null","","","","","","","","learning/Slide109.JPG","null","","","","",""
"","html-keyboard-response","334","643478","0.0-8.0-2.28","LF","fnul5v7u0c","2752","1152","en","ng06rd26","null","","","","learningBlock2","","","","<div style=""font-size:60px;""> </div>","null","LF","learning/Slide109.JPG","This is a wug:","",""
"","html-keyboard-response","335","644480","0.0-8.0-0.29","LF","fnul5v7u0c","2752","1152","en","ng06rd26","null","","","","learningBlock2","","","","This is a bim:","null","","","","",""
"","image-keyboard-response","336","644806","0.0-8.0-1.29","LF","fnul5v7u0c","2752","1152","en","ng06rd26","null","","","","","","","","learning/Slide110.JPG","null","","","","",""
"","html-keyboard-response","337","645808","0.0-8.0-2.29","LF","fnul5v7u0c","2752","1152","en","ng06rd26","null","","","","learningBlock2","","","","<div style=""font-size:60px;""> </div>","null","LF","learning/Slide110.JPG","This is a bim:","",""
"","html-keyboard-response","338","646810","0.0-8.0-0.30","LF","fnul5v7u0c","2752","1152","en","ng06rd26","null","","","","learningBlock2","","","","This is a tob:","null","","","","",""
"","image-keyboard-response","339","647137","0.0-8.0-1.30","LF","fnul5v7u0c","2752","1152","en","ng06rd26","null","","","","","","","","learning/Slide111.JPG","null","","","","",""
"","html-keyboard-response","340","648138","0.0-8.0-2.30","LF","fnul5v7u0c","2752","1152","en","ng06rd26","null","","","","learningBlock2","","","","<div style=""font-size:60px;""> </div>","null","LF","learning/Slide111.JPG","This is a tob:","",""
"","html-keyboard-response","341","649139","0.0-8.0-0.31","LF","fnul5v7u0c","2752","1152","en","ng06rd26","null","","","","learningBlock2","","","","This is a wug:","null","","","","",""
"","image-keyboard-response","342","649466","0.0-8.0-1.31","LF","fnul5v7u0c","2752","1152","en","ng06rd26","null","","","","","","","","learning/Slide112.JPG","null","","","","",""
"","html-keyboard-response","343","650467","0.0-8.0-2.31","LF","fnul5v7u0c","2752","1152","en","ng06rd26","null","","","","learningBlock2","","","","<div style=""font-size:60px;""> </div>","null","LF","learning/Slide112.JPG","This is a wug:","",""
"","html-keyboard-response","344","651468","0.0-8.0-0.32","LF","fnul5v7u0c","2752","1152","en","ng06rd26","null","","","","learningBlock2","","","","This is a tob:","null","","","","",""
"","image-keyboard-response","345","651795","0.0-8.0-1.32","LF","fnul5v7u0c","2752","1152","en","ng06rd26","null","","","","","","","","learning/Slide113.JPG","null","","","","",""
"","html-keyboard-response","346","652797","0.0-8.0-2.32","LF","fnul5v7u0c","2752","1152","en","ng06rd26","null","","","","learningBlock2","","","","<div style=""font-size:60px;""> </div>","null","LF","learning/Slide113.JPG","This is a tob:","",""
"","html-keyboard-response","347","653798","0.0-8.0-0.33","LF","fnul5v7u0c","2752","1152","en","ng06rd26","null","","","","learningBlock2","","","","This is a wug:","null","","","","",""
"","image-keyboard-response","348","654124","0.0-8.0-1.33","LF","fnul5v7u0c","2752","1152","en","ng06rd26","null","","","","","","","","learning/Slide114.JPG","null","","","","",""
"","html-keyboard-response","349","655126","0.0-8.0-2.33","LF","fnul5v7u0c","2752","1152","en","ng06rd26","null","","","","learningBlock2","","","","<div style=""font-size:60px;""> </div>","null","LF","learning/Slide114.JPG","This is a wug:","",""
"","html-keyboard-response","350","656128","0.0-8.0-0.34","LF","fnul5v7u0c","2752","1152","en","ng06rd26","null","","","","learningBlock2","","","","This is a bim:","null","","","","",""
"","image-keyboard-response","351","656456","0.0-8.0-1.34","LF","fnul5v7u0c","2752","1152","en","ng06rd26","null","","","","","","","","learning/Slide115.JPG","null","","","","",""
"","html-keyboard-response","352","657457","0.0-8.0-2.34","LF","fnul5v7u0c","2752","1152","en","ng06rd26","null","","","","learningBlock2","","","","<div style=""font-size:60px;""> </div>","null","LF","learning/Slide115.JPG","This is a bim:","",""
"","html-keyboard-response","353","658459","0.0-8.0-0.35","LF","fnul5v7u0c","2752","1152","en","ng06rd26","null","","","","learningBlock2","","","","This is a dep:","null","","","","",""
"","image-keyboard-response","354","658785","0.0-8.0-1.35","LF","fnul5v7u0c","2752","1152","en","ng06rd26","null","","","","","","","","learning/Slide116.JPG","null","","","","",""
"","html-keyboard-response","355","659787","0.0-8.0-2.35","LF","fnul5v7u0c","2752","1152","en","ng06rd26","null","","","","learningBlock2","","","","<div style=""font-size:60px;""> </div>","null","LF","learning/Slide116.JPG","This is a dep:","",""
"","html-keyboard-response","356","660788","0.0-8.0-0.36","LF","fnul5v7u0c","2752","1152","en","ng06rd26","null","","","","learningBlock2","","","","This is a tob:","null","","","","",""
"","image-keyboard-response","357","661115","0.0-8.0-1.36","LF","fnul5v7u0c","2752","1152","en","ng06rd26","null","","","","","","","","learning/Slide117.JPG","null","","","","",""
"","html-keyboard-response","358","662116","0.0-8.0-2.36","LF","fnul5v7u0c","2752","1152","en","ng06rd26","null","","","","learningBlock2","","","","<div style=""font-size:60px;""> </div>","null","LF","learning/Slide117.JPG","This is a tob:","",""
"","html-keyboard-response","359","663117","0.0-8.0-0.37","LF","fnul5v7u0c","2752","1152","en","ng06rd26","null","","","","learningBlock2","","","","This is a dep:","null","","","","",""
"","image-keyboard-response","360","663445","0.0-8.0-1.37","LF","fnul5v7u0c","2752","1152","en","ng06rd26","null","","","","","","","","learning/Slide118.JPG","null","","","","",""
"","html-keyboard-response","361","664447","0.0-8.0-2.37","LF","fnul5v7u0c","2752","1152","en","ng06rd26","null","","","","learningBlock2","","","","<div style=""font-size:60px;""> </div>","null","LF","learning/Slide118.JPG","This is a dep:","",""
"","html-keyboard-response","362","665449","0.0-8.0-0.38","LF","fnul5v7u0c","2752","1152","en","ng06rd26","null","","","","learningBlock2","","","","This is a wug:","null","","","","",""
"","image-keyboard-response","363","665776","0.0-8.0-1.38","LF","fnul5v7u0c","2752","1152","en","ng06rd26","null","","","","","","","","learning/Slide119.JPG","null","","","","",""
"","html-keyboard-response","364","666777","0.0-8.0-2.38","LF","fnul5v7u0c","2752","1152","en","ng06rd26","null","","","","learningBlock2","","","","<div style=""font-size:60px;""> </div>","null","LF","learning/Slide119.JPG","This is a wug:","",""
"","html-keyboard-response","365","667779","0.0-8.0-0.39","LF","fnul5v7u0c","2752","1152","en","ng06rd26","null","","","","learningBlock2","","","","This is a dep:","null","","","","",""
"","image-keyboard-response","366","668106","0.0-8.0-1.39","LF","fnul5v7u0c","2752","1152","en","ng06rd26","null","","","","","","","","learning/Slide120.JPG","null","","","","",""
"","html-keyboard-response","367","669108","0.0-8.0-2.39","LF","fnul5v7u0c","2752","1152","en","ng06rd26","null","","","","learningBlock2","","","","<div style=""font-size:60px;""> </div>","null","LF","learning/Slide120.JPG","This is a dep:","",""
"","html-keyboard-response","368","670109","0.0-8.0-0.40","LF","fnul5v7u0c","2752","1152","en","ng06rd26","null","","","","learningBlock2","","","","This is a bim:","null","","","","",""
"","image-keyboard-response","369","670435","0.0-8.0-1.40","LF","fnul5v7u0c","2752","1152","en","ng06rd26","null","","","","","","","","learning/Slide121.JPG","null","","","","",""
"","html-keyboard-response","370","671437","0.0-8.0-2.40","LF","fnul5v7u0c","2752","1152","en","ng06rd26","null","","","","learningBlock2","","","","<div style=""font-size:60px;""> </div>","null","LF","learning/Slide121.JPG","This is a bim:","",""
"","html-keyboard-response","371","672439","0.0-8.0-0.41","LF","fnul5v7u0c","2752","1152","en","ng06rd26","null","","","","learningBlock2","","","","This is a wug:","null","","","","",""
"","image-keyboard-response","372","672766","0.0-8.0-1.41","LF","fnul5v7u0c","2752","1152","en","ng06rd26","null","","","","","","","","learning/Slide122.JPG","null","","","","",""
"","html-keyboard-response","373","673767","0.0-8.0-2.41","LF","fnul5v7u0c","2752","1152","en","ng06rd26","null","","","","learningBlock2","","","","<div style=""font-size:60px;""> </div>","null","LF","learning/Slide122.JPG","This is a wug:","",""
"","html-keyboard-response","374","674768","0.0-8.0-0.42","LF","fnul5v7u0c","2752","1152","en","ng06rd26","null","","","","learningBlock2","","","","This is a bim:","null","","","","",""
"","image-keyboard-response","375","675095","0.0-8.0-1.42","LF","fnul5v7u0c","2752","1152","en","ng06rd26","null","","","","","","","","learning/Slide123.JPG","null","","","","",""
"","html-keyboard-response","376","676096","0.0-8.0-2.42","LF","fnul5v7u0c","2752","1152","en","ng06rd26","null","","","","learningBlock2","","","","<div style=""font-size:60px;""> </div>","null","LF","learning/Slide123.JPG","This is a bim:","",""
"","html-keyboard-response","377","677097","0.0-8.0-0.43","LF","fnul5v7u0c","2752","1152","en","ng06rd26","null","","","","learningBlock2","","","","This is a tob:","null","","","","",""
"","image-keyboard-response","378","677423","0.0-8.0-1.43","LF","fnul5v7u0c","2752","1152","en","ng06rd26","null","","","","","","","","learning/Slide124.JPG","null","","","","",""
"","html-keyboard-response","379","678425","0.0-8.0-2.43","LF","fnul5v7u0c","2752","1152","en","ng06rd26","null","","","","learningBlock2","","","","<div style=""font-size:60px;""> </div>","null","LF","learning/Slide124.JPG","This is a tob:","",""
"","html-keyboard-response","380","679427","0.0-8.0-0.44","LF","fnul5v7u0c","2752","1152","en","ng06rd26","null","","","","learningBlock2","","","","This is a bim:","null","","","","",""
"","image-keyboard-response","381","679755","0.0-8.0-1.44","LF","fnul5v7u0c","2752","1152","en","ng06rd26","null","","","","","","","","learning/Slide125.JPG","null","","","","",""
"","html-keyboard-response","382","680757","0.0-8.0-2.44","LF","fnul5v7u0c","2752","1152","en","ng06rd26","null","","","","learningBlock2","","","","<div style=""font-size:60px;""> </div>","null","LF","learning/Slide125.JPG","This is a bim:","",""
"","html-keyboard-response","383","681758","0.0-8.0-0.45","LF","fnul5v7u0c","2752","1152","en","ng06rd26","null","","","","learningBlock2","","","","This is a tob:","null","","","","",""
"","image-keyboard-response","384","682085","0.0-8.0-1.45","LF","fnul5v7u0c","2752","1152","en","ng06rd26","null","","","","","","","","learning/Slide126.JPG","null","","","","",""
"","html-keyboard-response","385","683087","0.0-8.0-2.45","LF","fnul5v7u0c","2752","1152","en","ng06rd26","null","","","","learningBlock2","","","","<div style=""font-size:60px;""> </div>","null","LF","learning/Slide126.JPG","This is a tob:","",""
"","html-keyboard-response","386","684088","0.0-8.0-0.46","LF","fnul5v7u0c","2752","1152","en","ng06rd26","null","","","","learningBlock2","","","","This is a dep:","null","","","","",""
"","image-keyboard-response","387","684415","0.0-8.0-1.46","LF","fnul5v7u0c","2752","1152","en","ng06rd26","null","","","","","","","","learning/Slide127.JPG","null","","","","",""
"","html-keyboard-response","388","685417","0.0-8.0-2.46","LF","fnul5v7u0c","2752","1152","en","ng06rd26","null","","","","learningBlock2","","","","<div style=""font-size:60px;""> </div>","null","LF","learning/Slide127.JPG","This is a dep:","",""
"","html-keyboard-response","389","686418","0.0-8.0-0.47","LF","fnul5v7u0c","2752","1152","en","ng06rd26","null","","","","learningBlock2","","","","This is a wug:","null","","","","",""
"","image-keyboard-response","390","686745","0.0-8.0-1.47","LF","fnul5v7u0c","2752","1152","en","ng06rd26","null","","","","","","","","learning/Slide128.JPG","null","","","","",""
"","html-keyboard-response","391","687747","0.0-8.0-2.47","LF","fnul5v7u0c","2752","1152","en","ng06rd26","null","","","","learningBlock2","","","","<div style=""font-size:60px;""> </div>","null","LF","learning/Slide128.JPG","This is a wug:","",""
"","html-keyboard-response","392","688749","0.0-8.0-0.48","LF","fnul5v7u0c","2752","1152","en","ng06rd26","null","","","","learningBlock2","","","","This is a tob:","null","","","","",""
"","image-keyboard-response","393","689077","0.0-8.0-1.48","LF","fnul5v7u0c","2752","1152","en","ng06rd26","null","","","","","","","","learning/Slide129.JPG","null","","","","",""
"","html-keyboard-response","394","690079","0.0-8.0-2.48","LF","fnul5v7u0c","2752","1152","en","ng06rd26","null","","","","learningBlock2","","","","<div style=""font-size:60px;""> </div>","null","LF","learning/Slide129.JPG","This is a tob:","",""
"","html-keyboard-response","395","691080","0.0-8.0-0.49","LF","fnul5v7u0c","2752","1152","en","ng06rd26","null","","","","learningBlock2","","","","This is a wug:","null","","","","",""
"","image-keyboard-response","396","691408","0.0-8.0-1.49","LF","fnul5v7u0c","2752","1152","en","ng06rd26","null","","","","","","","","learning/Slide130.JPG","null","","","","",""
"","html-keyboard-response","397","692409","0.0-8.0-2.49","LF","fnul5v7u0c","2752","1152","en","ng06rd26","null","","","","learningBlock2","","","","<div style=""font-size:60px;""> </div>","null","LF","learning/Slide130.JPG","This is a wug:","",""
"","html-keyboard-response","398","693413","0.0-8.0-0.50","LF","fnul5v7u0c","2752","1152","en","ng06rd26","null","","","","learningBlock2","","","","This is a bim:","null","","","","",""
"","image-keyboard-response","399","693739","0.0-8.0-1.50","LF","fnul5v7u0c","2752","1152","en","ng06rd26","null","","","","","","","","learning/Slide131.JPG","null","","","","",""
"","html-keyboard-response","400","694740","0.0-8.0-2.50","LF","fnul5v7u0c","2752","1152","en","ng06rd26","null","","","","learningBlock2","","","","<div style=""font-size:60px;""> </div>","null","LF","learning/Slide131.JPG","This is a bim:","",""
"","html-keyboard-response","401","695742","0.0-8.0-0.51","LF","fnul5v7u0c","2752","1152","en","ng06rd26","null","","","","learningBlock2","","","","This is a dep:","null","","","","",""
"","image-keyboard-response","402","696069","0.0-8.0-1.51","LF","fnul5v7u0c","2752","1152","en","ng06rd26","null","","","","","","","","learning/Slide132.JPG","null","","","","",""
"","html-keyboard-response","403","697071","0.0-8.0-2.51","LF","fnul5v7u0c","2752","1152","en","ng06rd26","null","","","","learningBlock2","","","","<div style=""font-size:60px;""> </div>","null","LF","learning/Slide132.JPG","This is a dep:","",""
"","html-keyboard-response","404","698084","0.0-8.0-0.52","LF","fnul5v7u0c","2752","1152","en","ng06rd26","null","","","","learningBlock2","","","","This is a tob:","null","","","","",""
"","image-keyboard-response","405","698415","0.0-8.0-1.52","LF","fnul5v7u0c","2752","1152","en","ng06rd26","null","","","","","","","","learning/Slide133.JPG","null","","","","",""
"","html-keyboard-response","406","699416","0.0-8.0-2.52","LF","fnul5v7u0c","2752","1152","en","ng06rd26","null","","","","learningBlock2","","","","<div style=""font-size:60px;""> </div>","null","LF","learning/Slide133.JPG","This is a tob:","",""
"","html-keyboard-response","407","700417","0.0-8.0-0.53","LF","fnul5v7u0c","2752","1152","en","ng06rd26","null","","","","learningBlock2","","","","This is a dep:","null","","","","",""
"","image-keyboard-response","408","700744","0.0-8.0-1.53","LF","fnul5v7u0c","2752","1152","en","ng06rd26","null","","","","","","","","learning/Slide134.JPG","null","","","","",""
"","html-keyboard-response","409","701745","0.0-8.0-2.53","LF","fnul5v7u0c","2752","1152","en","ng06rd26","null","","","","learningBlock2","","","","<div style=""font-size:60px;""> </div>","null","LF","learning/Slide134.JPG","This is a dep:","",""
"","html-keyboard-response","410","702746","0.0-8.0-0.54","LF","fnul5v7u0c","2752","1152","en","ng06rd26","null","","","","learningBlock2","","","","This is a tob:","null","","","","",""
"","image-keyboard-response","411","703073","0.0-8.0-1.54","LF","fnul5v7u0c","2752","1152","en","ng06rd26","null","","","","","","","","learning/Slide135.JPG","null","","","","",""
"","html-keyboard-response","412","704075","0.0-8.0-2.54","LF","fnul5v7u0c","2752","1152","en","ng06rd26","null","","","","learningBlock2","","","","<div style=""font-size:60px;""> </div>","null","LF","learning/Slide135.JPG","This is a tob:","",""
"","html-keyboard-response","413","705077","0.0-8.0-0.55","LF","fnul5v7u0c","2752","1152","en","ng06rd26","null","","","","learningBlock2","","","","This is a wug:","null","","","","",""
"","image-keyboard-response","414","705405","0.0-8.0-1.55","LF","fnul5v7u0c","2752","1152","en","ng06rd26","null","","","","","","","","learning/Slide136.JPG","null","","","","",""
"","html-keyboard-response","415","706407","0.0-8.0-2.55","LF","fnul5v7u0c","2752","1152","en","ng06rd26","null","","","","learningBlock2","","","","<div style=""font-size:60px;""> </div>","null","LF","learning/Slide136.JPG","This is a wug:","",""
"","html-keyboard-response","416","707408","0.0-8.0-0.56","LF","fnul5v7u0c","2752","1152","en","ng06rd26","null","","","","learningBlock2","","","","This is a tob:","null","","","","",""
"","image-keyboard-response","417","707735","0.0-8.0-1.56","LF","fnul5v7u0c","2752","1152","en","ng06rd26","null","","","","","","","","learning/Slide137.JPG","null","","","","",""
"","html-keyboard-response","418","708736","0.0-8.0-2.56","LF","fnul5v7u0c","2752","1152","en","ng06rd26","null","","","","learningBlock2","","","","<div style=""font-size:60px;""> </div>","null","LF","learning/Slide137.JPG","This is a tob:","",""
"","html-keyboard-response","419","709738","0.0-8.0-0.57","LF","fnul5v7u0c","2752","1152","en","ng06rd26","null","","","","learningBlock2","","","","This is a bim:","null","","","","",""
"","image-keyboard-response","420","710064","0.0-8.0-1.57","LF","fnul5v7u0c","2752","1152","en","ng06rd26","null","","","","","","","","learning/Slide138.JPG","null","","","","",""
"","html-keyboard-response","421","711066","0.0-8.0-2.57","LF","fnul5v7u0c","2752","1152","en","ng06rd26","null","","","","learningBlock2","","","","<div style=""font-size:60px;""> </div>","null","LF","learning/Slide138.JPG","This is a bim:","",""
"","html-keyboard-response","422","712067","0.0-8.0-0.58","LF","fnul5v7u0c","2752","1152","en","ng06rd26","null","","","","learningBlock2","","","","This is a wug:","null","","","","",""
"","image-keyboard-response","423","712393","0.0-8.0-1.58","LF","fnul5v7u0c","2752","1152","en","ng06rd26","null","","","","","","","","learning/Slide139.JPG","null","","","","",""
"","html-keyboard-response","424","713395","0.0-8.0-2.58","LF","fnul5v7u0c","2752","1152","en","ng06rd26","null","","","","learningBlock2","","","","<div style=""font-size:60px;""> </div>","null","LF","learning/Slide139.JPG","This is a wug:","",""
"","html-keyboard-response","425","714396","0.0-8.0-0.59","LF","fnul5v7u0c","2752","1152","en","ng06rd26","null","","","","learningBlock2","","","","This is a dep:","null","","","","",""
"","image-keyboard-response","426","714723","0.0-8.0-1.59","LF","fnul5v7u0c","2752","1152","en","ng06rd26","null","","","","","","","","learning/Slide140.JPG","null","","","","",""
"","html-keyboard-response","427","715724","0.0-8.0-2.59","LF","fnul5v7u0c","2752","1152","en","ng06rd26","null","","","","learningBlock2","","","","<div style=""font-size:60px;""> </div>","null","LF","learning/Slide140.JPG","This is a dep:","",""
"","html-keyboard-response","428","716725","0.0-8.0-0.60","LF","fnul5v7u0c","2752","1152","en","ng06rd26","null","","","","learningBlock2","","","","This is a tob:","null","","","","",""
"","image-keyboard-response","429","717052","0.0-8.0-1.60","LF","fnul5v7u0c","2752","1152","en","ng06rd26","null","","","","","","","","learning/Slide141.JPG","null","","","","",""
"","html-keyboard-response","430","718054","0.0-8.0-2.60","LF","fnul5v7u0c","2752","1152","en","ng06rd26","null","","","","learningBlock2","","","","<div style=""font-size:60px;""> </div>","null","LF","learning/Slide141.JPG","This is a tob:","",""
"","html-keyboard-response","431","719055","0.0-8.0-0.61","LF","fnul5v7u0c","2752","1152","en","ng06rd26","null","","","","learningBlock2","","","","This is a wug:","null","","","","",""
"","image-keyboard-response","432","719383","0.0-8.0-1.61","LF","fnul5v7u0c","2752","1152","en","ng06rd26","null","","","","","","","","learning/Slide142.JPG","null","","","","",""
"","html-keyboard-response","433","720385","0.0-8.0-2.61","LF","fnul5v7u0c","2752","1152","en","ng06rd26","null","","","","learningBlock2","","","","<div style=""font-size:60px;""> </div>","null","LF","learning/Slide142.JPG","This is a wug:","",""
"","html-keyboard-response","434","721387","0.0-8.0-0.62","LF","fnul5v7u0c","2752","1152","en","ng06rd26","null","","","","learningBlock2","","","","This is a bim:","null","","","","",""
"","image-keyboard-response","435","721716","0.0-8.0-1.62","LF","fnul5v7u0c","2752","1152","en","ng06rd26","null","","","","","","","","learning/Slide143.JPG","null","","","","",""
"","html-keyboard-response","436","722718","0.0-8.0-2.62","LF","fnul5v7u0c","2752","1152","en","ng06rd26","null","","","","learningBlock2","","","","<div style=""font-size:60px;""> </div>","null","LF","learning/Slide143.JPG","This is a bim:","",""
"","html-keyboard-response","437","723719","0.0-8.0-0.63","LF","fnul5v7u0c","2752","1152","en","ng06rd26","null","","","","learningBlock2","","","","This is a dep:","null","","","","",""
"","image-keyboard-response","438","724046","0.0-8.0-1.63","LF","fnul5v7u0c","2752","1152","en","ng06rd26","null","","","","","","","","learning/Slide144.JPG","null","","","","",""
"","html-keyboard-response","439","725047","0.0-8.0-2.63","LF","fnul5v7u0c","2752","1152","en","ng06rd26","null","","","","learningBlock2","","","","<div style=""font-size:60px;""> </div>","null","LF","learning/Slide144.JPG","This is a dep:","",""
"","html-keyboard-response","440","726048","0.0-8.0-0.64","LF","fnul5v7u0c","2752","1152","en","ng06rd26","null","","","","learningBlock2","","","","This is a bim:","null","","","","",""
"","image-keyboard-response","441","726376","0.0-8.0-1.64","LF","fnul5v7u0c","2752","1152","en","ng06rd26","null","","","","","","","","learning/Slide145.JPG","null","","","","",""
"","html-keyboard-response","442","727378","0.0-8.0-2.64","LF","fnul5v7u0c","2752","1152","en","ng06rd26","null","","","","learningBlock2","","","","<div style=""font-size:60px;""> </div>","null","LF","learning/Slide145.JPG","This is a bim:","",""
"","html-keyboard-response","443","728379","0.0-8.0-0.65","LF","fnul5v7u0c","2752","1152","en","ng06rd26","null","","","","learningBlock2","","","","This is a tob:","null","","","","",""
"","image-keyboard-response","444","728705","0.0-8.0-1.65","LF","fnul5v7u0c","2752","1152","en","ng06rd26","null","","","","","","","","learning/Slide146.JPG","null","","","","",""
"","html-keyboard-response","445","729707","0.0-8.0-2.65","LF","fnul5v7u0c","2752","1152","en","ng06rd26","null","","","","learningBlock2","","","","<div style=""font-size:60px;""> </div>","null","LF","learning/Slide146.JPG","This is a tob:","",""
"","html-keyboard-response","446","730708","0.0-8.0-0.66","LF","fnul5v7u0c","2752","1152","en","ng06rd26","null","","","","learningBlock2","","","","This is a wug:","null","","","","",""
"","image-keyboard-response","447","731036","0.0-8.0-1.66","LF","fnul5v7u0c","2752","1152","en","ng06rd26","null","","","","","","","","learning/Slide147.JPG","null","","","","",""
"","html-keyboard-response","448","732038","0.0-8.0-2.66","LF","fnul5v7u0c","2752","1152","en","ng06rd26","null","","","","learningBlock2","","","","<div style=""font-size:60px;""> </div>","null","LF","learning/Slide147.JPG","This is a wug:","",""
"","html-keyboard-response","449","733039","0.0-8.0-0.67","LF","fnul5v7u0c","2752","1152","en","ng06rd26","null","","","","learningBlock2","","","","This is a bim:","null","","","","",""
"","image-keyboard-response","450","733366","0.0-8.0-1.67","LF","fnul5v7u0c","2752","1152","en","ng06rd26","null","","","","","","","","learning/Slide148.JPG","null","","","","",""
"","html-keyboard-response","451","734367","0.0-8.0-2.67","LF","fnul5v7u0c","2752","1152","en","ng06rd26","null","","","","learningBlock2","","","","<div style=""font-size:60px;""> </div>","null","LF","learning/Slide148.JPG","This is a bim:","",""
"","html-keyboard-response","452","735369","0.0-8.0-0.68","LF","fnul5v7u0c","2752","1152","en","ng06rd26","null","","","","learningBlock2","","","","This is a dep:","null","","","","",""
"","image-keyboard-response","453","735697","0.0-8.0-1.68","LF","fnul5v7u0c","2752","1152","en","ng06rd26","null","","","","","","","","learning/Slide149.JPG","null","","","","",""
"","html-keyboard-response","454","736699","0.0-8.0-2.68","LF","fnul5v7u0c","2752","1152","en","ng06rd26","null","","","","learningBlock2","","","","<div style=""font-size:60px;""> </div>","null","LF","learning/Slide149.JPG","This is a dep:","",""
"","html-keyboard-response","455","737700","0.0-8.0-0.69","LF","fnul5v7u0c","2752","1152","en","ng06rd26","null","","","","learningBlock2","","","","This is a wug:","null","","","","",""
"","image-keyboard-response","456","738027","0.0-8.0-1.69","LF","fnul5v7u0c","2752","1152","en","ng06rd26","null","","","","","","","","learning/Slide150.JPG","null","","","","",""
"","html-keyboard-response","457","739028","0.0-8.0-2.69","LF","fnul5v7u0c","2752","1152","en","ng06rd26","null","","","","learningBlock2","","","","<div style=""font-size:60px;""> </div>","null","LF","learning/Slide150.JPG","This is a wug:","",""
"","html-keyboard-response","458","740030","0.0-8.0-0.70","LF","fnul5v7u0c","2752","1152","en","ng06rd26","null","","","","learningBlock2","","","","This is a dep:","null","","","","",""
"","image-keyboard-response","459","740357","0.0-8.0-1.70","LF","fnul5v7u0c","2752","1152","en","ng06rd26","null","","","","","","","","learning/Slide151.JPG","null","","","","",""
"","html-keyboard-response","460","741359","0.0-8.0-2.70","LF","fnul5v7u0c","2752","1152","en","ng06rd26","null","","","","learningBlock2","","","","<div style=""font-size:60px;""> </div>","null","LF","learning/Slide151.JPG","This is a dep:","",""
"","html-keyboard-response","461","742360","0.0-8.0-0.71","LF","fnul5v7u0c","2752","1152","en","ng06rd26","null","","","","learningBlock2","","","","This is a wug:","null","","","","",""
"","image-keyboard-response","462","742687","0.0-8.0-1.71","LF","fnul5v7u0c","2752","1152","en","ng06rd26","null","","","","","","","","learning/Slide152.JPG","null","","","","",""
"","html-keyboard-response","463","743688","0.0-8.0-2.71","LF","fnul5v7u0c","2752","1152","en","ng06rd26","null","","","","learningBlock2","","","","<div style=""font-size:60px;""> </div>","null","LF","learning/Slide152.JPG","This is a wug:","",""
"","html-keyboard-response","464","744689","0.0-8.0-0.72","LF","fnul5v7u0c","2752","1152","en","ng06rd26","null","","","","learningBlock2","","","","This is a bim:","null","","","","",""
"","image-keyboard-response","465","745015","0.0-8.0-1.72","LF","fnul5v7u0c","2752","1152","en","ng06rd26","null","","","","","","","","learning/Slide153.JPG","null","","","","",""
"","html-keyboard-response","466","746017","0.0-8.0-2.72","LF","fnul5v7u0c","2752","1152","en","ng06rd26","null","","","","learningBlock2","","","","<div style=""font-size:60px;""> </div>","null","LF","learning/Slide153.JPG","This is a bim:","",""
"","html-keyboard-response","467","747018","0.0-8.0-0.73","LF","fnul5v7u0c","2752","1152","en","ng06rd26","null","","","","learningBlock2","","","","This is a tob:","null","","","","",""
"","image-keyboard-response","468","747344","0.0-8.0-1.73","LF","fnul5v7u0c","2752","1152","en","ng06rd26","null","","","","","","","","learning/Slide154.JPG","null","","","","",""
"","html-keyboard-response","469","748346","0.0-8.0-2.73","LF","fnul5v7u0c","2752","1152","en","ng06rd26","null","","","","learningBlock2","","","","<div style=""font-size:60px;""> </div>","null","LF","learning/Slide154.JPG","This is a tob:","",""
"","html-keyboard-response","470","749347","0.0-8.0-0.74","LF","fnul5v7u0c","2752","1152","en","ng06rd26","null","","","","learningBlock2","","","","This is a dep:","null","","","","",""
"","image-keyboard-response","471","749675","0.0-8.0-1.74","LF","fnul5v7u0c","2752","1152","en","ng06rd26","null","","","","","","","","learning/Slide155.JPG","null","","","","",""
"","html-keyboard-response","472","750676","0.0-8.0-2.74","LF","fnul5v7u0c","2752","1152","en","ng06rd26","null","","","","learningBlock2","","","","<div style=""font-size:60px;""> </div>","null","LF","learning/Slide155.JPG","This is a dep:","",""
"","html-keyboard-response","473","751678","0.0-8.0-0.75","LF","fnul5v7u0c","2752","1152","en","ng06rd26","null","","","","learningBlock2","","","","This is a bim:","null","","","","",""
"","image-keyboard-response","474","752004","0.0-8.0-1.75","LF","fnul5v7u0c","2752","1152","en","ng06rd26","null","","","","","","","","learning/Slide156.JPG","null","","","","",""
"","html-keyboard-response","475","753007","0.0-8.0-2.75","LF","fnul5v7u0c","2752","1152","en","ng06rd26","null","","","","learningBlock2","","","","<div style=""font-size:60px;""> </div>","null","LF","learning/Slide156.JPG","This is a bim:","",""
"","html-keyboard-response","476","754008","0.0-8.0-0.76","LF","fnul5v7u0c","2752","1152","en","ng06rd26","null","","","","learningBlock2","","","","This is a dep:","null","","","","",""
"","image-keyboard-response","477","754334","0.0-8.0-1.76","LF","fnul5v7u0c","2752","1152","en","ng06rd26","null","","","","","","","","learning/Slide157.JPG","null","","","","",""
"","html-keyboard-response","478","755336","0.0-8.0-2.76","LF","fnul5v7u0c","2752","1152","en","ng06rd26","null","","","","learningBlock2","","","","<div style=""font-size:60px;""> </div>","null","LF","learning/Slide157.JPG","This is a dep:","",""
"","html-keyboard-response","479","756337","0.0-8.0-0.77","LF","fnul5v7u0c","2752","1152","en","ng06rd26","null","","","","learningBlock2","","","","This is a tob:","null","","","","",""
"","image-keyboard-response","480","756664","0.0-8.0-1.77","LF","fnul5v7u0c","2752","1152","en","ng06rd26","null","","","","","","","","learning/Slide158.JPG","null","","","","",""
"","html-keyboard-response","481","757665","0.0-8.0-2.77","LF","fnul5v7u0c","2752","1152","en","ng06rd26","null","","","","learningBlock2","","","","<div style=""font-size:60px;""> </div>","null","LF","learning/Slide158.JPG","This is a tob:","",""
"","html-keyboard-response","482","758666","0.0-8.0-0.78","LF","fnul5v7u0c","2752","1152","en","ng06rd26","null","","","","learningBlock2","","","","This is a dep:","null","","","","",""
"","image-keyboard-response","483","758993","0.0-8.0-1.78","LF","fnul5v7u0c","2752","1152","en","ng06rd26","null","","","","","","","","learning/Slide159.JPG","null","","","","",""
"","html-keyboard-response","484","759994","0.0-8.0-2.78","LF","fnul5v7u0c","2752","1152","en","ng06rd26","null","","","","learningBlock2","","","","<div style=""font-size:60px;""> </div>","null","LF","learning/Slide159.JPG","This is a dep:","",""
"","html-keyboard-response","485","760995","0.0-8.0-0.79","LF","fnul5v7u0c","2752","1152","en","ng06rd26","null","","","","learningBlock2","","","","This is a wug:","null","","","","",""
"","image-keyboard-response","486","761322","0.0-8.0-1.79","LF","fnul5v7u0c","2752","1152","en","ng06rd26","null","","","","","","","","learning/Slide160.JPG","null","","","","",""
