"success","trial_type","trial_index","time_elapsed","internal_node_id","condition","subject","screen_width","screen_height","language","codeword","rt","responses","url","view_history","test_part","final_height_px","final_width_px","scale_factor","stimulus","key_press","learningType","presentedImage","presentedLabel","button_pressed","response"
"true","fullscreen","0","4817","0.0-0.0","LF","zgrkqwru88","1440","900","en","as04co18","","","","","","","","","","","","","","",""
"","survey-html-form","1","10976","0.0-1.0","LF","zgrkqwru88","1440","900","en","as04co18","6155.240000050981","{""language"":""en""}","","","","","","","","","","","","",""
"","external-html","2","104555","0.0-3.0-0.0","LF","zgrkqwru88","1440","900","en","as04co18","93512.35999999335","","text/information_english.html","","","","","","","","","","","",""
"","external-html","3","121452","0.0-3.0-1.0","LF","zgrkqwru88","1440","900","en","as04co18","16833.174999977928","","text/consent_english.html","","","","","","","","","","","",""
"","survey-html-form","4","268029","0.0-3.0-2.0","LF","zgrkqwru88","1440","900","en","as04co18","146575.3900000127","{""codeword_enter"":""as04co18""}","","","","","","","","","","","","",""
"","instructions","5","284273","0.0-4.0","LF","zgrkqwru88","1440","900","en","as04co18","NA","","","[{""page_index"":0,""viewing_time"":3564.31500002509},{""page_index"":1,""viewing_time"":11173.729999980424}]","instructions","","","","","","","","","",""
"","resize","6","337625","0.0-5.0","LF","zgrkqwru88","1440","900","en","as04co18","","","","","","","457","2.901587301587302","","","","","","",""
"","html-keyboard-response","7","338628","0.0-6.0-0.0","LF","zgrkqwru88","1440","900","en","as04co18","null","","","","learningBlock1","","","","This is a tob:","null","","","","",""
"","image-keyboard-response","8","338961","0.0-6.0-1.0","LF","zgrkqwru88","1440","900","en","as04co18","null","","","","","","","","learning/Slide1.JPG","null","","","","",""
"","html-keyboard-response","9","339964","0.0-6.0-2.0","LF","zgrkqwru88","1440","900","en","as04co18","null","","","","learningBlock1","","","","<div style=""font-size:60px;""> </div>","null","LF","learning/Slide1.JPG","This is a tob:","",""
"","html-keyboard-response","10","340966","0.0-6.0-0.1","LF","zgrkqwru88","1440","900","en","as04co18","null","","","","learningBlock1","","","","This is a wug:","null","","","","",""
"","image-keyboard-response","11","341299","0.0-6.0-1.1","LF","zgrkqwru88","1440","900","en","as04co18","null","","","","","","","","learning/Slide2.JPG","null","","","","",""
"","html-keyboard-response","12","342303","0.0-6.0-2.1","LF","zgrkqwru88","1440","900","en","as04co18","null","","","","learningBlock1","","","","<div style=""font-size:60px;""> </div>","null","LF","learning/Slide2.JPG","This is a wug:","",""
"","html-keyboard-response","13","343308","0.0-6.0-0.2","LF","zgrkqwru88","1440","900","en","as04co18","null","","","","learningBlock1","","","","This is a bim:","null","","","","",""
"","image-keyboard-response","14","343636","0.0-6.0-1.2","LF","zgrkqwru88","1440","900","en","as04co18","null","","","","","","","","learning/Slide3.JPG","null","","","","",""
"","html-keyboard-response","15","344637","0.0-6.0-2.2","LF","zgrkqwru88","1440","900","en","as04co18","null","","","","learningBlock1","","","","<div style=""font-size:60px;""> </div>","null","LF","learning/Slide3.JPG","This is a bim:","",""
"","html-keyboard-response","16","345640","0.0-6.0-0.3","LF","zgrkqwru88","1440","900","en","as04co18","null","","","","learningBlock1","","","","This is a dep:","null","","","","",""
"","image-keyboard-response","17","345973","0.0-6.0-1.3","LF","zgrkqwru88","1440","900","en","as04co18","null","","","","","","","","learning/Slide4.JPG","null","","","","",""
"","html-keyboard-response","18","346977","0.0-6.0-2.3","LF","zgrkqwru88","1440","900","en","as04co18","null","","","","learningBlock1","","","","<div style=""font-size:60px;""> </div>","null","LF","learning/Slide4.JPG","This is a dep:","",""
"","html-keyboard-response","19","347983","0.0-6.0-0.4","LF","zgrkqwru88","1440","900","en","as04co18","null","","","","learningBlock1","","","","This is a wug:","null","","","","",""
"","image-keyboard-response","20","348316","0.0-6.0-1.4","LF","zgrkqwru88","1440","900","en","as04co18","null","","","","","","","","learning/Slide5.JPG","null","","","","",""
"","html-keyboard-response","21","349317","0.0-6.0-2.4","LF","zgrkqwru88","1440","900","en","as04co18","null","","","","learningBlock1","","","","<div style=""font-size:60px;""> </div>","null","LF","learning/Slide5.JPG","This is a wug:","",""
"","html-keyboard-response","22","350321","0.0-6.0-0.5","LF","zgrkqwru88","1440","900","en","as04co18","null","","","","learningBlock1","","","","This is a dep:","null","","","","",""
"","image-keyboard-response","23","350650","0.0-6.0-1.5","LF","zgrkqwru88","1440","900","en","as04co18","null","","","","","","","","learning/Slide6.JPG","null","","","","",""
"","html-keyboard-response","24","351654","0.0-6.0-2.5","LF","zgrkqwru88","1440","900","en","as04co18","null","","","","learningBlock1","","","","<div style=""font-size:60px;""> </div>","null","LF","learning/Slide6.JPG","This is a dep:","",""
"","html-keyboard-response","25","352660","0.0-6.0-0.6","LF","zgrkqwru88","1440","900","en","as04co18","null","","","","learningBlock1","","","","This is a wug:","null","","","","",""
"","image-keyboard-response","26","352991","0.0-6.0-1.6","LF","zgrkqwru88","1440","900","en","as04co18","null","","","","","","","","learning/Slide7.JPG","null","","","","",""
"","html-keyboard-response","27","353996","0.0-6.0-2.6","LF","zgrkqwru88","1440","900","en","as04co18","null","","","","learningBlock1","","","","<div style=""font-size:60px;""> </div>","null","LF","learning/Slide7.JPG","This is a wug:","",""
"","html-keyboard-response","28","355000","0.0-6.0-0.7","LF","zgrkqwru88","1440","900","en","as04co18","null","","","","learningBlock1","","","","This is a bim:","null","","","","",""
"","image-keyboard-response","29","355333","0.0-6.0-1.7","LF","zgrkqwru88","1440","900","en","as04co18","null","","","","","","","","learning/Slide8.JPG","null","","","","",""
"","html-keyboard-response","30","356338","0.0-6.0-2.7","LF","zgrkqwru88","1440","900","en","as04co18","null","","","","learningBlock1","","","","<div style=""font-size:60px;""> </div>","null","LF","learning/Slide8.JPG","This is a bim:","",""
"","html-keyboard-response","31","357339","0.0-6.0-0.8","LF","zgrkqwru88","1440","900","en","as04co18","null","","","","learningBlock1","","","","This is a wug:","null","","","","",""
"","image-keyboard-response","32","357667","0.0-6.0-1.8","LF","zgrkqwru88","1440","900","en","as04co18","null","","","","","","","","learning/Slide9.JPG","null","","","","",""
"","html-keyboard-response","33","358668","0.0-6.0-2.8","LF","zgrkqwru88","1440","900","en","as04co18","null","","","","learningBlock1","","","","<div style=""font-size:60px;""> </div>","null","LF","learning/Slide9.JPG","This is a wug:","",""
"","html-keyboard-response","34","359672","0.0-6.0-0.9","LF","zgrkqwru88","1440","900","en","as04co18","null","","","","learningBlock1","","","","This is a dep:","null","","","","",""
"","image-keyboard-response","35","360000","0.0-6.0-1.9","LF","zgrkqwru88","1440","900","en","as04co18","null","","","","","","","","learning/Slide10.JPG","null","","","","",""
"","html-keyboard-response","36","361001","0.0-6.0-2.9","LF","zgrkqwru88","1440","900","en","as04co18","null","","","","learningBlock1","","","","<div style=""font-size:60px;""> </div>","null","LF","learning/Slide10.JPG","This is a dep:","",""
"","html-keyboard-response","37","362006","0.0-6.0-0.10","LF","zgrkqwru88","1440","900","en","as04co18","null","","","","learningBlock1","","","","This is a tob:","null","","","","",""
"","image-keyboard-response","38","362334","0.0-6.0-1.10","LF","zgrkqwru88","1440","900","en","as04co18","null","","","","","","","","learning/Slide11.JPG","null","","","","",""
"","html-keyboard-response","39","363336","0.0-6.0-2.10","LF","zgrkqwru88","1440","900","en","as04co18","null","","","","learningBlock1","","","","<div style=""font-size:60px;""> </div>","null","LF","learning/Slide11.JPG","This is a tob:","",""
"","html-keyboard-response","40","364340","0.0-6.0-0.11","LF","zgrkqwru88","1440","900","en","as04co18","null","","","","learningBlock1","","","","This is a dep:","null","","","","",""
"","image-keyboard-response","41","364667","0.0-6.0-1.11","LF","zgrkqwru88","1440","900","en","as04co18","null","","","","","","","","learning/Slide12.JPG","null","","","","",""
"","html-keyboard-response","42","365669","0.0-6.0-2.11","LF","zgrkqwru88","1440","900","en","as04co18","null","","","","learningBlock1","","","","<div style=""font-size:60px;""> </div>","null","LF","learning/Slide12.JPG","This is a dep:","",""
"","html-keyboard-response","43","366671","0.0-6.0-0.12","LF","zgrkqwru88","1440","900","en","as04co18","null","","","","learningBlock1","","","","This is a bim:","null","","","","",""
"","image-keyboard-response","44","367004","0.0-6.0-1.12","LF","zgrkqwru88","1440","900","en","as04co18","null","","","","","","","","learning/Slide13.JPG","null","","","","",""
"","html-keyboard-response","45","368009","0.0-6.0-2.12","LF","zgrkqwru88","1440","900","en","as04co18","null","","","","learningBlock1","","","","<div style=""font-size:60px;""> </div>","null","LF","learning/Slide13.JPG","This is a bim:","",""
"","html-keyboard-response","46","369013","0.0-6.0-0.13","LF","zgrkqwru88","1440","900","en","as04co18","null","","","","learningBlock1","","","","This is a wug:","null","","","","",""
"","image-keyboard-response","47","369344","0.0-6.0-1.13","LF","zgrkqwru88","1440","900","en","as04co18","null","","","","","","","","learning/Slide14.JPG","null","","","","",""
"","html-keyboard-response","48","370347","0.0-6.0-2.13","LF","zgrkqwru88","1440","900","en","as04co18","null","","","","learningBlock1","","","","<div style=""font-size:60px;""> </div>","null","LF","learning/Slide14.JPG","This is a wug:","",""
"","html-keyboard-response","49","371351","0.0-6.0-0.14","LF","zgrkqwru88","1440","900","en","as04co18","null","","","","learningBlock1","","","","This is a tob:","null","","","","",""
"","image-keyboard-response","50","371684","0.0-6.0-1.14","LF","zgrkqwru88","1440","900","en","as04co18","null","","","","","","","","learning/Slide15.JPG","null","","","","",""
"","html-keyboard-response","51","372689","0.0-6.0-2.14","LF","zgrkqwru88","1440","900","en","as04co18","null","","","","learningBlock1","","","","<div style=""font-size:60px;""> </div>","null","LF","learning/Slide15.JPG","This is a tob:","",""
"","html-keyboard-response","52","373692","0.0-6.0-0.15","LF","zgrkqwru88","1440","900","en","as04co18","null","","","","learningBlock1","","","","This is a dep:","null","","","","",""
"","image-keyboard-response","53","374023","0.0-6.0-1.15","LF","zgrkqwru88","1440","900","en","as04co18","null","","","","","","","","learning/Slide16.JPG","null","","","","",""
"","html-keyboard-response","54","375027","0.0-6.0-2.15","LF","zgrkqwru88","1440","900","en","as04co18","null","","","","learningBlock1","","","","<div style=""font-size:60px;""> </div>","null","LF","learning/Slide16.JPG","This is a dep:","",""
"","html-keyboard-response","55","376031","0.0-6.0-0.16","LF","zgrkqwru88","1440","900","en","as04co18","null","","","","learningBlock1","","","","This is a bim:","null","","","","",""
"","image-keyboard-response","56","376362","0.0-6.0-1.16","LF","zgrkqwru88","1440","900","en","as04co18","null","","","","","","","","learning/Slide17.JPG","null","","","","",""
"","html-keyboard-response","57","377368","0.0-6.0-2.16","LF","zgrkqwru88","1440","900","en","as04co18","null","","","","learningBlock1","","","","<div style=""font-size:60px;""> </div>","null","LF","learning/Slide17.JPG","This is a bim:","",""
"","html-keyboard-response","58","378371","0.0-6.0-0.17","LF","zgrkqwru88","1440","900","en","as04co18","null","","","","learningBlock1","","","","This is a tob:","null","","","","",""
"","image-keyboard-response","59","378701","0.0-6.0-1.17","LF","zgrkqwru88","1440","900","en","as04co18","null","","","","","","","","learning/Slide18.JPG","null","","","","",""
"","html-keyboard-response","60","379706","0.0-6.0-2.17","LF","zgrkqwru88","1440","900","en","as04co18","null","","","","learningBlock1","","","","<div style=""font-size:60px;""> </div>","null","LF","learning/Slide18.JPG","This is a tob:","",""
"","html-keyboard-response","61","380710","0.0-6.0-0.18","LF","zgrkqwru88","1440","900","en","as04co18","null","","","","learningBlock1","","","","This is a wug:","null","","","","",""
"","image-keyboard-response","62","381046","0.0-6.0-1.18","LF","zgrkqwru88","1440","900","en","as04co18","null","","","","","","","","learning/Slide19.JPG","null","","","","",""
"","html-keyboard-response","63","382052","0.0-6.0-2.18","LF","zgrkqwru88","1440","900","en","as04co18","null","","","","learningBlock1","","","","<div style=""font-size:60px;""> </div>","null","LF","learning/Slide19.JPG","This is a wug:","",""
"","html-keyboard-response","64","383058","0.0-6.0-0.19","LF","zgrkqwru88","1440","900","en","as04co18","null","","","","learningBlock1","","","","This is a bim:","null","","","","",""
"","image-keyboard-response","65","383389","0.0-6.0-1.19","LF","zgrkqwru88","1440","900","en","as04co18","null","","","","","","","","learning/Slide20.JPG","null","","","","",""
"","html-keyboard-response","66","384395","0.0-6.0-2.19","LF","zgrkqwru88","1440","900","en","as04co18","null","","","","learningBlock1","","","","<div style=""font-size:60px;""> </div>","null","LF","learning/Slide20.JPG","This is a bim:","",""
"","html-keyboard-response","67","385400","0.0-6.0-0.20","LF","zgrkqwru88","1440","900","en","as04co18","null","","","","learningBlock1","","","","This is a dep:","null","","","","",""
"","image-keyboard-response","68","385731","0.0-6.0-1.20","LF","zgrkqwru88","1440","900","en","as04co18","null","","","","","","","","learning/Slide21.JPG","null","","","","",""
"","html-keyboard-response","69","386736","0.0-6.0-2.20","LF","zgrkqwru88","1440","900","en","as04co18","null","","","","learningBlock1","","","","<div style=""font-size:60px;""> </div>","null","LF","learning/Slide21.JPG","This is a dep:","",""
"","html-keyboard-response","70","387740","0.0-6.0-0.21","LF","zgrkqwru88","1440","900","en","as04co18","null","","","","learningBlock1","","","","This is a bim:","null","","","","",""
"","image-keyboard-response","71","388071","0.0-6.0-1.21","LF","zgrkqwru88","1440","900","en","as04co18","null","","","","","","","","learning/Slide22.JPG","null","","","","",""
"","html-keyboard-response","72","389075","0.0-6.0-2.21","LF","zgrkqwru88","1440","900","en","as04co18","null","","","","learningBlock1","","","","<div style=""font-size:60px;""> </div>","null","LF","learning/Slide22.JPG","This is a bim:","",""
"","html-keyboard-response","73","390080","0.0-6.0-0.22","LF","zgrkqwru88","1440","900","en","as04co18","null","","","","learningBlock1","","","","This is a tob:","null","","","","",""
"","image-keyboard-response","74","390416","0.0-6.0-1.22","LF","zgrkqwru88","1440","900","en","as04co18","null","","","","","","","","learning/Slide23.JPG","null","","","","",""
"","html-keyboard-response","75","391420","0.0-6.0-2.22","LF","zgrkqwru88","1440","900","en","as04co18","null","","","","learningBlock1","","","","<div style=""font-size:60px;""> </div>","null","LF","learning/Slide23.JPG","This is a tob:","",""
"","html-keyboard-response","76","392424","0.0-6.0-0.23","LF","zgrkqwru88","1440","900","en","as04co18","null","","","","learningBlock1","","","","This is a wug:","null","","","","",""
"","image-keyboard-response","77","392752","0.0-6.0-1.23","LF","zgrkqwru88","1440","900","en","as04co18","null","","","","","","","","learning/Slide24.JPG","null","","","","",""
"","html-keyboard-response","78","393757","0.0-6.0-2.23","LF","zgrkqwru88","1440","900","en","as04co18","null","","","","learningBlock1","","","","<div style=""font-size:60px;""> </div>","null","LF","learning/Slide24.JPG","This is a wug:","",""
"","html-keyboard-response","79","394758","0.0-6.0-0.24","LF","zgrkqwru88","1440","900","en","as04co18","null","","","","learningBlock1","","","","This is a dep:","null","","","","",""
"","image-keyboard-response","80","395089","0.0-6.0-1.24","LF","zgrkqwru88","1440","900","en","as04co18","null","","","","","","","","learning/Slide25.JPG","null","","","","",""
"","html-keyboard-response","81","396093","0.0-6.0-2.24","LF","zgrkqwru88","1440","900","en","as04co18","null","","","","learningBlock1","","","","<div style=""font-size:60px;""> </div>","null","LF","learning/Slide25.JPG","This is a dep:","",""
"","html-keyboard-response","82","397097","0.0-6.0-0.25","LF","zgrkqwru88","1440","900","en","as04co18","null","","","","learningBlock1","","","","This is a wug:","null","","","","",""
"","image-keyboard-response","83","397428","0.0-6.0-1.25","LF","zgrkqwru88","1440","900","en","as04co18","null","","","","","","","","learning/Slide26.JPG","null","","","","",""
"","html-keyboard-response","84","398433","0.0-6.0-2.25","LF","zgrkqwru88","1440","900","en","as04co18","null","","","","learningBlock1","","","","<div style=""font-size:60px;""> </div>","null","LF","learning/Slide26.JPG","This is a wug:","",""
"","html-keyboard-response","85","399436","0.0-6.0-0.26","LF","zgrkqwru88","1440","900","en","as04co18","null","","","","learningBlock1","","","","This is a bim:","null","","","","",""
"","image-keyboard-response","86","399768","0.0-6.0-1.26","LF","zgrkqwru88","1440","900","en","as04co18","null","","","","","","","","learning/Slide27.JPG","null","","","","",""
"","html-keyboard-response","87","400772","0.0-6.0-2.26","LF","zgrkqwru88","1440","900","en","as04co18","null","","","","learningBlock1","","","","<div style=""font-size:60px;""> </div>","null","LF","learning/Slide27.JPG","This is a bim:","",""
"","html-keyboard-response","88","401774","0.0-6.0-0.27","LF","zgrkqwru88","1440","900","en","as04co18","null","","","","learningBlock1","","","","This is a dep:","null","","","","",""
"","image-keyboard-response","89","402103","0.0-6.0-1.27","LF","zgrkqwru88","1440","900","en","as04co18","null","","","","","","","","learning/Slide28.JPG","null","","","","",""
"","html-keyboard-response","90","403109","0.0-6.0-2.27","LF","zgrkqwru88","1440","900","en","as04co18","null","","","","learningBlock1","","","","<div style=""font-size:60px;""> </div>","null","LF","learning/Slide28.JPG","This is a dep:","",""
"","html-keyboard-response","91","404113","0.0-6.0-0.28","LF","zgrkqwru88","1440","900","en","as04co18","null","","","","learningBlock1","","","","This is a tob:","null","","","","",""
"","image-keyboard-response","92","404446","0.0-6.0-1.28","LF","zgrkqwru88","1440","900","en","as04co18","null","","","","","","","","learning/Slide29.JPG","null","","","","",""
"","html-keyboard-response","93","405448","0.0-6.0-2.28","LF","zgrkqwru88","1440","900","en","as04co18","null","","","","learningBlock1","","","","<div style=""font-size:60px;""> </div>","null","LF","learning/Slide29.JPG","This is a tob:","",""
"","html-keyboard-response","94","406453","0.0-6.0-0.29","LF","zgrkqwru88","1440","900","en","as04co18","null","","","","learningBlock1","","","","This is a dep:","null","","","","",""
"","image-keyboard-response","95","406787","0.0-6.0-1.29","LF","zgrkqwru88","1440","900","en","as04co18","null","","","","","","","","learning/Slide30.JPG","null","","","","",""
"","html-keyboard-response","96","407790","0.0-6.0-2.29","LF","zgrkqwru88","1440","900","en","as04co18","null","","","","learningBlock1","","","","<div style=""font-size:60px;""> </div>","null","LF","learning/Slide30.JPG","This is a dep:","",""
"","html-keyboard-response","97","408794","0.0-6.0-0.30","LF","zgrkqwru88","1440","900","en","as04co18","null","","","","learningBlock1","","","","This is a wug:","null","","","","",""
"","image-keyboard-response","98","409125","0.0-6.0-1.30","LF","zgrkqwru88","1440","900","en","as04co18","null","","","","","","","","learning/Slide31.JPG","null","","","","",""
"","html-keyboard-response","99","410130","0.0-6.0-2.30","LF","zgrkqwru88","1440","900","en","as04co18","null","","","","learningBlock1","","","","<div style=""font-size:60px;""> </div>","null","LF","learning/Slide31.JPG","This is a wug:","",""
"","html-keyboard-response","100","411134","0.0-6.0-0.31","LF","zgrkqwru88","1440","900","en","as04co18","null","","","","learningBlock1","","","","This is a tob:","null","","","","",""
"","image-keyboard-response","101","411465","0.0-6.0-1.31","LF","zgrkqwru88","1440","900","en","as04co18","null","","","","","","","","learning/Slide32.JPG","null","","","","",""
"","html-keyboard-response","102","412470","0.0-6.0-2.31","LF","zgrkqwru88","1440","900","en","as04co18","null","","","","learningBlock1","","","","<div style=""font-size:60px;""> </div>","null","LF","learning/Slide32.JPG","This is a tob:","",""
"","html-keyboard-response","103","413473","0.0-6.0-0.32","LF","zgrkqwru88","1440","900","en","as04co18","null","","","","learningBlock1","","","","This is a bim:","null","","","","",""
"","image-keyboard-response","104","413804","0.0-6.0-1.32","LF","zgrkqwru88","1440","900","en","as04co18","null","","","","","","","","learning/Slide33.JPG","null","","","","",""
"","html-keyboard-response","105","414808","0.0-6.0-2.32","LF","zgrkqwru88","1440","900","en","as04co18","null","","","","learningBlock1","","","","<div style=""font-size:60px;""> </div>","null","LF","learning/Slide33.JPG","This is a bim:","",""
"","html-keyboard-response","106","415813","0.0-6.0-0.33","LF","zgrkqwru88","1440","900","en","as04co18","null","","","","learningBlock1","","","","This is a tob:","null","","","","",""
"","image-keyboard-response","107","416144","0.0-6.0-1.33","LF","zgrkqwru88","1440","900","en","as04co18","null","","","","","","","","learning/Slide34.JPG","null","","","","",""
"","html-keyboard-response","108","417148","0.0-6.0-2.33","LF","zgrkqwru88","1440","900","en","as04co18","null","","","","learningBlock1","","","","<div style=""font-size:60px;""> </div>","null","LF","learning/Slide34.JPG","This is a tob:","",""
"","html-keyboard-response","109","418152","0.0-6.0-0.34","LF","zgrkqwru88","1440","900","en","as04co18","null","","","","learningBlock1","","","","This is a bim:","null","","","","",""
"","image-keyboard-response","110","418483","0.0-6.0-1.34","LF","zgrkqwru88","1440","900","en","as04co18","null","","","","","","","","learning/Slide35.JPG","null","","","","",""
"","html-keyboard-response","111","419487","0.0-6.0-2.34","LF","zgrkqwru88","1440","900","en","as04co18","null","","","","learningBlock1","","","","<div style=""font-size:60px;""> </div>","null","LF","learning/Slide35.JPG","This is a bim:","",""
"","html-keyboard-response","112","420491","0.0-6.0-0.35","LF","zgrkqwru88","1440","900","en","as04co18","null","","","","learningBlock1","","","","This is a dep:","null","","","","",""
"","image-keyboard-response","113","420822","0.0-6.0-1.35","LF","zgrkqwru88","1440","900","en","as04co18","null","","","","","","","","learning/Slide36.JPG","null","","","","",""
"","html-keyboard-response","114","421826","0.0-6.0-2.35","LF","zgrkqwru88","1440","900","en","as04co18","null","","","","learningBlock1","","","","<div style=""font-size:60px;""> </div>","null","LF","learning/Slide36.JPG","This is a dep:","",""
"","html-keyboard-response","115","422831","0.0-6.0-0.36","LF","zgrkqwru88","1440","900","en","as04co18","null","","","","learningBlock1","","","","This is a tob:","null","","","","",""
"","image-keyboard-response","116","423157","0.0-6.0-1.36","LF","zgrkqwru88","1440","900","en","as04co18","null","","","","","","","","learning/Slide37.JPG","null","","","","",""
"","html-keyboard-response","117","424163","0.0-6.0-2.36","LF","zgrkqwru88","1440","900","en","as04co18","null","","","","learningBlock1","","","","<div style=""font-size:60px;""> </div>","null","LF","learning/Slide37.JPG","This is a tob:","",""
"","html-keyboard-response","118","425165","0.0-6.0-0.37","LF","zgrkqwru88","1440","900","en","as04co18","null","","","","learningBlock1","","","","This is a wug:","null","","","","",""
"","image-keyboard-response","119","425495","0.0-6.0-1.37","LF","zgrkqwru88","1440","900","en","as04co18","null","","","","","","","","learning/Slide38.JPG","null","","","","",""
"","html-keyboard-response","120","426500","0.0-6.0-2.37","LF","zgrkqwru88","1440","900","en","as04co18","null","","","","learningBlock1","","","","<div style=""font-size:60px;""> </div>","null","LF","learning/Slide38.JPG","This is a wug:","",""
"","html-keyboard-response","121","427505","0.0-6.0-0.38","LF","zgrkqwru88","1440","900","en","as04co18","null","","","","learningBlock1","","","","This is a bim:","null","","","","",""
"","image-keyboard-response","122","427838","0.0-6.0-1.38","LF","zgrkqwru88","1440","900","en","as04co18","null","","","","","","","","learning/Slide39.JPG","null","","","","",""
"","html-keyboard-response","123","428839","0.0-6.0-2.38","LF","zgrkqwru88","1440","900","en","as04co18","null","","","","learningBlock1","","","","<div style=""font-size:60px;""> </div>","null","LF","learning/Slide39.JPG","This is a bim:","",""
"","html-keyboard-response","124","429843","0.0-6.0-0.39","LF","zgrkqwru88","1440","900","en","as04co18","null","","","","learningBlock1","","","","This is a tob:","null","","","","",""
"","image-keyboard-response","125","430171","0.0-6.0-1.39","LF","zgrkqwru88","1440","900","en","as04co18","null","","","","","","","","learning/Slide40.JPG","null","","","","",""
"","html-keyboard-response","126","431176","0.0-6.0-2.39","LF","zgrkqwru88","1440","900","en","as04co18","null","","","","learningBlock1","","","","<div style=""font-size:60px;""> </div>","null","LF","learning/Slide40.JPG","This is a tob:","",""
"","html-keyboard-response","127","432177","0.0-6.0-0.40","LF","zgrkqwru88","1440","900","en","as04co18","null","","","","learningBlock1","","","","This is a bim:","null","","","","",""
"","image-keyboard-response","128","432505","0.0-6.0-1.40","LF","zgrkqwru88","1440","900","en","as04co18","null","","","","","","","","learning/Slide41.JPG","null","","","","",""
"","html-keyboard-response","129","433506","0.0-6.0-2.40","LF","zgrkqwru88","1440","900","en","as04co18","null","","","","learningBlock1","","","","<div style=""font-size:60px;""> </div>","null","LF","learning/Slide41.JPG","This is a bim:","",""
"","html-keyboard-response","130","434510","0.0-6.0-0.41","LF","zgrkqwru88","1440","900","en","as04co18","null","","","","learningBlock1","","","","This is a dep:","null","","","","",""
"","image-keyboard-response","131","434838","0.0-6.0-1.41","LF","zgrkqwru88","1440","900","en","as04co18","null","","","","","","","","learning/Slide42.JPG","null","","","","",""
"","html-keyboard-response","132","435843","0.0-6.0-2.41","LF","zgrkqwru88","1440","900","en","as04co18","null","","","","learningBlock1","","","","<div style=""font-size:60px;""> </div>","null","LF","learning/Slide42.JPG","This is a dep:","",""
"","html-keyboard-response","133","436849","0.0-6.0-0.42","LF","zgrkqwru88","1440","900","en","as04co18","null","","","","learningBlock1","","","","This is a wug:","null","","","","",""
"","image-keyboard-response","134","437181","0.0-6.0-1.42","LF","zgrkqwru88","1440","900","en","as04co18","null","","","","","","","","learning/Slide43.JPG","null","","","","",""
"","html-keyboard-response","135","438185","0.0-6.0-2.42","LF","zgrkqwru88","1440","900","en","as04co18","null","","","","learningBlock1","","","","<div style=""font-size:60px;""> </div>","null","LF","learning/Slide43.JPG","This is a wug:","",""
"","html-keyboard-response","136","439189","0.0-6.0-0.43","LF","zgrkqwru88","1440","900","en","as04co18","null","","","","learningBlock1","","","","This is a bim:","null","","","","",""
"","image-keyboard-response","137","439519","0.0-6.0-1.43","LF","zgrkqwru88","1440","900","en","as04co18","null","","","","","","","","learning/Slide44.JPG","null","","","","",""
"","html-keyboard-response","138","440522","0.0-6.0-2.43","LF","zgrkqwru88","1440","900","en","as04co18","null","","","","learningBlock1","","","","<div style=""font-size:60px;""> </div>","null","LF","learning/Slide44.JPG","This is a bim:","",""
"","html-keyboard-response","139","441524","0.0-6.0-0.44","LF","zgrkqwru88","1440","900","en","as04co18","null","","","","learningBlock1","","","","This is a wug:","null","","","","",""
"","image-keyboard-response","140","441859","0.0-6.0-1.44","LF","zgrkqwru88","1440","900","en","as04co18","null","","","","","","","","learning/Slide45.JPG","null","","","","",""
"","html-keyboard-response","141","442864","0.0-6.0-2.44","LF","zgrkqwru88","1440","900","en","as04co18","null","","","","learningBlock1","","","","<div style=""font-size:60px;""> </div>","null","LF","learning/Slide45.JPG","This is a wug:","",""
"","html-keyboard-response","142","443868","0.0-6.0-0.45","LF","zgrkqwru88","1440","900","en","as04co18","null","","","","learningBlock1","","","","This is a dep:","null","","","","",""
"","image-keyboard-response","143","444199","0.0-6.0-1.45","LF","zgrkqwru88","1440","900","en","as04co18","null","","","","","","","","learning/Slide46.JPG","null","","","","",""
"","html-keyboard-response","144","445203","0.0-6.0-2.45","LF","zgrkqwru88","1440","900","en","as04co18","null","","","","learningBlock1","","","","<div style=""font-size:60px;""> </div>","null","LF","learning/Slide46.JPG","This is a dep:","",""
"","html-keyboard-response","145","446206","0.0-6.0-0.46","LF","zgrkqwru88","1440","900","en","as04co18","null","","","","learningBlock1","","","","This is a tob:","null","","","","",""
"","image-keyboard-response","146","446538","0.0-6.0-1.46","LF","zgrkqwru88","1440","900","en","as04co18","null","","","","","","","","learning/Slide47.JPG","null","","","","",""
"","html-keyboard-response","147","447539","0.0-6.0-2.46","LF","zgrkqwru88","1440","900","en","as04co18","null","","","","learningBlock1","","","","<div style=""font-size:60px;""> </div>","null","LF","learning/Slide47.JPG","This is a tob:","",""
"","html-keyboard-response","148","448542","0.0-6.0-0.47","LF","zgrkqwru88","1440","900","en","as04co18","null","","","","learningBlock1","","","","This is a bim:","null","","","","",""
"","image-keyboard-response","149","448878","0.0-6.0-1.47","LF","zgrkqwru88","1440","900","en","as04co18","null","","","","","","","","learning/Slide48.JPG","null","","","","",""
"","html-keyboard-response","150","449882","0.0-6.0-2.47","LF","zgrkqwru88","1440","900","en","as04co18","null","","","","learningBlock1","","","","<div style=""font-size:60px;""> </div>","null","LF","learning/Slide48.JPG","This is a bim:","",""
"","html-keyboard-response","151","450886","0.0-6.0-0.48","LF","zgrkqwru88","1440","900","en","as04co18","null","","","","learningBlock1","","","","This is a dep:","null","","","","",""
"","image-keyboard-response","152","451217","0.0-6.0-1.48","LF","zgrkqwru88","1440","900","en","as04co18","null","","","","","","","","learning/Slide49.JPG","null","","","","",""
"","html-keyboard-response","153","452223","0.0-6.0-2.48","LF","zgrkqwru88","1440","900","en","as04co18","null","","","","learningBlock1","","","","<div style=""font-size:60px;""> </div>","null","LF","learning/Slide49.JPG","This is a dep:","",""
"","html-keyboard-response","154","453227","0.0-6.0-0.49","LF","zgrkqwru88","1440","900","en","as04co18","null","","","","learningBlock1","","","","This is a tob:","null","","","","",""
"","image-keyboard-response","155","453562","0.0-6.0-1.49","LF","zgrkqwru88","1440","900","en","as04co18","null","","","","","","","","learning/Slide50.JPG","null","","","","",""
"","html-keyboard-response","156","454567","0.0-6.0-2.49","LF","zgrkqwru88","1440","900","en","as04co18","null","","","","learningBlock1","","","","<div style=""font-size:60px;""> </div>","null","LF","learning/Slide50.JPG","This is a tob:","",""
"","html-keyboard-response","157","455570","0.0-6.0-0.50","LF","zgrkqwru88","1440","900","en","as04co18","null","","","","learningBlock1","","","","This is a bim:","null","","","","",""
"","image-keyboard-response","158","455901","0.0-6.0-1.50","LF","zgrkqwru88","1440","900","en","as04co18","null","","","","","","","","learning/Slide51.JPG","null","","","","",""
"","html-keyboard-response","159","456906","0.0-6.0-2.50","LF","zgrkqwru88","1440","900","en","as04co18","null","","","","learningBlock1","","","","<div style=""font-size:60px;""> </div>","null","LF","learning/Slide51.JPG","This is a bim:","",""
"","html-keyboard-response","160","457910","0.0-6.0-0.51","LF","zgrkqwru88","1440","900","en","as04co18","null","","","","learningBlock1","","","","This is a wug:","null","","","","",""
"","image-keyboard-response","161","458244","0.0-6.0-1.51","LF","zgrkqwru88","1440","900","en","as04co18","null","","","","","","","","learning/Slide52.JPG","null","","","","",""
"","html-keyboard-response","162","459245","0.0-6.0-2.51","LF","zgrkqwru88","1440","900","en","as04co18","null","","","","learningBlock1","","","","<div style=""font-size:60px;""> </div>","null","LF","learning/Slide52.JPG","This is a wug:","",""
"","html-keyboard-response","163","460250","0.0-6.0-0.52","LF","zgrkqwru88","1440","900","en","as04co18","null","","","","learningBlock1","","","","This is a tob:","null","","","","",""
"","image-keyboard-response","164","460581","0.0-6.0-1.52","LF","zgrkqwru88","1440","900","en","as04co18","null","","","","","","","","learning/Slide53.JPG","null","","","","",""
"","html-keyboard-response","165","461587","0.0-6.0-2.52","LF","zgrkqwru88","1440","900","en","as04co18","null","","","","learningBlock1","","","","<div style=""font-size:60px;""> </div>","null","LF","learning/Slide53.JPG","This is a tob:","",""
"","html-keyboard-response","166","462591","0.0-6.0-0.53","LF","zgrkqwru88","1440","900","en","as04co18","null","","","","learningBlock1","","","","This is a dep:","null","","","","",""
"","image-keyboard-response","167","462926","0.0-6.0-1.53","LF","zgrkqwru88","1440","900","en","as04co18","null","","","","","","","","learning/Slide54.JPG","null","","","","",""
"","html-keyboard-response","168","463932","0.0-6.0-2.53","LF","zgrkqwru88","1440","900","en","as04co18","null","","","","learningBlock1","","","","<div style=""font-size:60px;""> </div>","null","LF","learning/Slide54.JPG","This is a dep:","",""
"","html-keyboard-response","169","464934","0.0-6.0-0.54","LF","zgrkqwru88","1440","900","en","as04co18","null","","","","learningBlock1","","","","This is a bim:","null","","","","",""
"","image-keyboard-response","170","465265","0.0-6.0-1.54","LF","zgrkqwru88","1440","900","en","as04co18","null","","","","","","","","learning/Slide55.JPG","null","","","","",""
"","html-keyboard-response","171","466269","0.0-6.0-2.54","LF","zgrkqwru88","1440","900","en","as04co18","null","","","","learningBlock1","","","","<div style=""font-size:60px;""> </div>","null","LF","learning/Slide55.JPG","This is a bim:","",""
"","html-keyboard-response","172","467274","0.0-6.0-0.55","LF","zgrkqwru88","1440","900","en","as04co18","null","","","","learningBlock1","","","","This is a tob:","null","","","","",""
"","image-keyboard-response","173","467607","0.0-6.0-1.55","LF","zgrkqwru88","1440","900","en","as04co18","null","","","","","","","","learning/Slide56.JPG","null","","","","",""
"","html-keyboard-response","174","468612","0.0-6.0-2.55","LF","zgrkqwru88","1440","900","en","as04co18","null","","","","learningBlock1","","","","<div style=""font-size:60px;""> </div>","null","LF","learning/Slide56.JPG","This is a tob:","",""
"","html-keyboard-response","175","469613","0.0-6.0-0.56","LF","zgrkqwru88","1440","900","en","as04co18","null","","","","learningBlock1","","","","This is a dep:","null","","","","",""
"","image-keyboard-response","176","469941","0.0-6.0-1.56","LF","zgrkqwru88","1440","900","en","as04co18","null","","","","","","","","learning/Slide57.JPG","null","","","","",""
"","html-keyboard-response","177","470945","0.0-6.0-2.56","LF","zgrkqwru88","1440","900","en","as04co18","null","","","","learningBlock1","","","","<div style=""font-size:60px;""> </div>","null","LF","learning/Slide57.JPG","This is a dep:","",""
"","html-keyboard-response","178","471947","0.0-6.0-0.57","LF","zgrkqwru88","1440","900","en","as04co18","null","","","","learningBlock1","","","","This is a wug:","null","","","","",""
"","image-keyboard-response","179","472283","0.0-6.0-1.57","LF","zgrkqwru88","1440","900","en","as04co18","null","","","","","","","","learning/Slide58.JPG","null","","","","",""
"","html-keyboard-response","180","473288","0.0-6.0-2.57","LF","zgrkqwru88","1440","900","en","as04co18","null","","","","learningBlock1","","","","<div style=""font-size:60px;""> </div>","null","LF","learning/Slide58.JPG","This is a wug:","",""
"","html-keyboard-response","181","474292","0.0-6.0-0.58","LF","zgrkqwru88","1440","900","en","as04co18","null","","","","learningBlock1","","","","This is a dep:","null","","","","",""
"","image-keyboard-response","182","474622","0.0-6.0-1.58","LF","zgrkqwru88","1440","900","en","as04co18","null","","","","","","","","learning/Slide59.JPG","null","","","","",""
"","html-keyboard-response","183","475624","0.0-6.0-2.58","LF","zgrkqwru88","1440","900","en","as04co18","null","","","","learningBlock1","","","","<div style=""font-size:60px;""> </div>","null","LF","learning/Slide59.JPG","This is a dep:","",""
"","html-keyboard-response","184","476625","0.0-6.0-0.59","LF","zgrkqwru88","1440","900","en","as04co18","null","","","","learningBlock1","","","","This is a wug:","null","","","","",""
"","image-keyboard-response","185","476956","0.0-6.0-1.59","LF","zgrkqwru88","1440","900","en","as04co18","null","","","","","","","","learning/Slide60.JPG","null","","","","",""
"","html-keyboard-response","186","477958","0.0-6.0-2.59","LF","zgrkqwru88","1440","900","en","as04co18","null","","","","learningBlock1","","","","<div style=""font-size:60px;""> </div>","null","LF","learning/Slide60.JPG","This is a wug:","",""
"","html-keyboard-response","187","478959","0.0-6.0-0.60","LF","zgrkqwru88","1440","900","en","as04co18","null","","","","learningBlock1","","","","This is a bim:","null","","","","",""
"","image-keyboard-response","188","479290","0.0-6.0-1.60","LF","zgrkqwru88","1440","900","en","as04co18","null","","","","","","","","learning/Slide61.JPG","null","","","","",""
"","html-keyboard-response","189","480291","0.0-6.0-2.60","LF","zgrkqwru88","1440","900","en","as04co18","null","","","","learningBlock1","","","","<div style=""font-size:60px;""> </div>","null","LF","learning/Slide61.JPG","This is a bim:","",""
"","html-keyboard-response","190","481293","0.0-6.0-0.61","LF","zgrkqwru88","1440","900","en","as04co18","null","","","","learningBlock1","","","","This is a dep:","null","","","","",""
"","image-keyboard-response","191","481625","0.0-6.0-1.61","LF","zgrkqwru88","1440","900","en","as04co18","null","","","","","","","","learning/Slide62.JPG","null","","","","",""
"","html-keyboard-response","192","482627","0.0-6.0-2.61","LF","zgrkqwru88","1440","900","en","as04co18","null","","","","learningBlock1","","","","<div style=""font-size:60px;""> </div>","null","LF","learning/Slide62.JPG","This is a dep:","",""
"","html-keyboard-response","193","483632","0.0-6.0-0.62","LF","zgrkqwru88","1440","900","en","as04co18","null","","","","learningBlock1","","","","This is a bim:","null","","","","",""
"","image-keyboard-response","194","483962","0.0-6.0-1.62","LF","zgrkqwru88","1440","900","en","as04co18","null","","","","","","","","learning/Slide63.JPG","null","","","","",""
"","html-keyboard-response","195","484967","0.0-6.0-2.62","LF","zgrkqwru88","1440","900","en","as04co18","null","","","","learningBlock1","","","","<div style=""font-size:60px;""> </div>","null","LF","learning/Slide63.JPG","This is a bim:","",""
"","html-keyboard-response","196","485971","0.0-6.0-0.63","LF","zgrkqwru88","1440","900","en","as04co18","null","","","","learningBlock1","","","","This is a tob:","null","","","","",""
"","image-keyboard-response","197","486302","0.0-6.0-1.63","LF","zgrkqwru88","1440","900","en","as04co18","null","","","","","","","","learning/Slide64.JPG","null","","","","",""
"","html-keyboard-response","198","487308","0.0-6.0-2.63","LF","zgrkqwru88","1440","900","en","as04co18","null","","","","learningBlock1","","","","<div style=""font-size:60px;""> </div>","null","LF","learning/Slide64.JPG","This is a tob:","",""
"","html-keyboard-response","199","488311","0.0-6.0-0.64","LF","zgrkqwru88","1440","900","en","as04co18","null","","","","learningBlock1","","","","This is a wug:","null","","","","",""
"","image-keyboard-response","200","488642","0.0-6.0-1.64","LF","zgrkqwru88","1440","900","en","as04co18","null","","","","","","","","learning/Slide65.JPG","null","","","","",""
"","html-keyboard-response","201","489645","0.0-6.0-2.64","LF","zgrkqwru88","1440","900","en","as04co18","null","","","","learningBlock1","","","","<div style=""font-size:60px;""> </div>","null","LF","learning/Slide65.JPG","This is a wug:","",""
"","html-keyboard-response","202","490650","0.0-6.0-0.65","LF","zgrkqwru88","1440","900","en","as04co18","null","","","","learningBlock1","","","","This is a dep:","null","","","","",""
"","image-keyboard-response","203","490981","0.0-6.0-1.65","LF","zgrkqwru88","1440","900","en","as04co18","null","","","","","","","","learning/Slide66.JPG","null","","","","",""
"","html-keyboard-response","204","491983","0.0-6.0-2.65","LF","zgrkqwru88","1440","900","en","as04co18","null","","","","learningBlock1","","","","<div style=""font-size:60px;""> </div>","null","LF","learning/Slide66.JPG","This is a dep:","",""
"","html-keyboard-response","205","492989","0.0-6.0-0.66","LF","zgrkqwru88","1440","900","en","as04co18","null","","","","learningBlock1","","","","This is a tob:","null","","","","",""
"","image-keyboard-response","206","493321","0.0-6.0-1.66","LF","zgrkqwru88","1440","900","en","as04co18","null","","","","","","","","learning/Slide67.JPG","null","","","","",""
"","html-keyboard-response","207","494325","0.0-6.0-2.66","LF","zgrkqwru88","1440","900","en","as04co18","null","","","","learningBlock1","","","","<div style=""font-size:60px;""> </div>","null","LF","learning/Slide67.JPG","This is a tob:","",""
"","html-keyboard-response","208","495329","0.0-6.0-0.67","LF","zgrkqwru88","1440","900","en","as04co18","null","","","","learningBlock1","","","","This is a wug:","null","","","","",""
"","image-keyboard-response","209","495659","0.0-6.0-1.67","LF","zgrkqwru88","1440","900","en","as04co18","null","","","","","","","","learning/Slide68.JPG","null","","","","",""
"","html-keyboard-response","210","496664","0.0-6.0-2.67","LF","zgrkqwru88","1440","900","en","as04co18","null","","","","learningBlock1","","","","<div style=""font-size:60px;""> </div>","null","LF","learning/Slide68.JPG","This is a wug:","",""
"","html-keyboard-response","211","497668","0.0-6.0-0.68","LF","zgrkqwru88","1440","900","en","as04co18","null","","","","learningBlock1","","","","This is a tob:","null","","","","",""
"","image-keyboard-response","212","497999","0.0-6.0-1.68","LF","zgrkqwru88","1440","900","en","as04co18","null","","","","","","","","learning/Slide69.JPG","null","","","","",""
"","html-keyboard-response","213","499004","0.0-6.0-2.68","LF","zgrkqwru88","1440","900","en","as04co18","null","","","","learningBlock1","","","","<div style=""font-size:60px;""> </div>","null","LF","learning/Slide69.JPG","This is a tob:","",""
"","html-keyboard-response","214","500009","0.0-6.0-0.69","LF","zgrkqwru88","1440","900","en","as04co18","null","","","","learningBlock1","","","","This is a dep:","null","","","","",""
"","image-keyboard-response","215","500343","0.0-6.0-1.69","LF","zgrkqwru88","1440","900","en","as04co18","null","","","","","","","","learning/Slide70.JPG","null","","","","",""
"","html-keyboard-response","216","501347","0.0-6.0-2.69","LF","zgrkqwru88","1440","900","en","as04co18","null","","","","learningBlock1","","","","<div style=""font-size:60px;""> </div>","null","LF","learning/Slide70.JPG","This is a dep:","",""
"","html-keyboard-response","217","502353","0.0-6.0-0.70","LF","zgrkqwru88","1440","900","en","as04co18","null","","","","learningBlock1","","","","This is a wug:","null","","","","",""
"","image-keyboard-response","218","502684","0.0-6.0-1.70","LF","zgrkqwru88","1440","900","en","as04co18","null","","","","","","","","learning/Slide71.JPG","null","","","","",""
"","html-keyboard-response","219","503687","0.0-6.0-2.70","LF","zgrkqwru88","1440","900","en","as04co18","null","","","","learningBlock1","","","","<div style=""font-size:60px;""> </div>","null","LF","learning/Slide71.JPG","This is a wug:","",""
"","html-keyboard-response","220","504693","0.0-6.0-0.71","LF","zgrkqwru88","1440","900","en","as04co18","null","","","","learningBlock1","","","","This is a bim:","null","","","","",""
"","image-keyboard-response","221","505026","0.0-6.0-1.71","LF","zgrkqwru88","1440","900","en","as04co18","null","","","","","","","","learning/Slide72.JPG","null","","","","",""
"","html-keyboard-response","222","506031","0.0-6.0-2.71","LF","zgrkqwru88","1440","900","en","as04co18","null","","","","learningBlock1","","","","<div style=""font-size:60px;""> </div>","null","LF","learning/Slide72.JPG","This is a bim:","",""
"","html-keyboard-response","223","507032","0.0-6.0-0.72","LF","zgrkqwru88","1440","900","en","as04co18","null","","","","learningBlock1","","","","This is a wug:","null","","","","",""
"","image-keyboard-response","224","507360","0.0-6.0-1.72","LF","zgrkqwru88","1440","900","en","as04co18","null","","","","","","","","learning/Slide73.JPG","null","","","","",""
"","html-keyboard-response","225","508361","0.0-6.0-2.72","LF","zgrkqwru88","1440","900","en","as04co18","null","","","","learningBlock1","","","","<div style=""font-size:60px;""> </div>","null","LF","learning/Slide73.JPG","This is a wug:","",""
"","html-keyboard-response","226","509365","0.0-6.0-0.73","LF","zgrkqwru88","1440","900","en","as04co18","null","","","","learningBlock1","","","","This is a dep:","null","","","","",""
"","image-keyboard-response","227","509693","0.0-6.0-1.73","LF","zgrkqwru88","1440","900","en","as04co18","null","","","","","","","","learning/Slide74.JPG","null","","","","",""
"","html-keyboard-response","228","510695","0.0-6.0-2.73","LF","zgrkqwru88","1440","900","en","as04co18","null","","","","learningBlock1","","","","<div style=""font-size:60px;""> </div>","null","LF","learning/Slide74.JPG","This is a dep:","",""
"","html-keyboard-response","229","511699","0.0-6.0-0.74","LF","zgrkqwru88","1440","900","en","as04co18","null","","","","learningBlock1","","","","This is a tob:","null","","","","",""
"","image-keyboard-response","230","512027","0.0-6.0-1.74","LF","zgrkqwru88","1440","900","en","as04co18","null","","","","","","","","learning/Slide75.JPG","null","","","","",""
"","html-keyboard-response","231","513028","0.0-6.0-2.74","LF","zgrkqwru88","1440","900","en","as04co18","null","","","","learningBlock1","","","","<div style=""font-size:60px;""> </div>","null","LF","learning/Slide75.JPG","This is a tob:","",""
"","html-keyboard-response","232","514030","0.0-6.0-0.75","LF","zgrkqwru88","1440","900","en","as04co18","null","","","","learningBlock1","","","","This is a bim:","null","","","","",""
"","image-keyboard-response","233","514360","0.0-6.0-1.75","LF","zgrkqwru88","1440","900","en","as04co18","null","","","","","","","","learning/Slide76.JPG","null","","","","",""
"","html-keyboard-response","234","515362","0.0-6.0-2.75","LF","zgrkqwru88","1440","900","en","as04co18","null","","","","learningBlock1","","","","<div style=""font-size:60px;""> </div>","null","LF","learning/Slide76.JPG","This is a bim:","",""
"","html-keyboard-response","235","516366","0.0-6.0-0.76","LF","zgrkqwru88","1440","900","en","as04co18","null","","","","learningBlock1","","","","This is a tob:","null","","","","",""
"","image-keyboard-response","236","516702","0.0-6.0-1.76","LF","zgrkqwru88","1440","900","en","as04co18","null","","","","","","","","learning/Slide77.JPG","null","","","","",""
"","html-keyboard-response","237","517707","0.0-6.0-2.76","LF","zgrkqwru88","1440","900","en","as04co18","null","","","","learningBlock1","","","","<div style=""font-size:60px;""> </div>","null","LF","learning/Slide77.JPG","This is a tob:","",""
"","html-keyboard-response","238","518710","0.0-6.0-0.77","LF","zgrkqwru88","1440","900","en","as04co18","null","","","","learningBlock1","","","","This is a wug:","null","","","","",""
"","image-keyboard-response","239","519042","0.0-6.0-1.77","LF","zgrkqwru88","1440","900","en","as04co18","null","","","","","","","","learning/Slide78.JPG","null","","","","",""
"","html-keyboard-response","240","520046","0.0-6.0-2.77","LF","zgrkqwru88","1440","900","en","as04co18","null","","","","learningBlock1","","","","<div style=""font-size:60px;""> </div>","null","LF","learning/Slide78.JPG","This is a wug:","",""
"","html-keyboard-response","241","521051","0.0-6.0-0.78","LF","zgrkqwru88","1440","900","en","as04co18","null","","","","learningBlock1","","","","This is a bim:","null","","","","",""
"","image-keyboard-response","242","521382","0.0-6.0-1.78","LF","zgrkqwru88","1440","900","en","as04co18","null","","","","","","","","learning/Slide79.JPG","null","","","","",""
"","html-keyboard-response","243","522386","0.0-6.0-2.78","LF","zgrkqwru88","1440","900","en","as04co18","null","","","","learningBlock1","","","","<div style=""font-size:60px;""> </div>","null","LF","learning/Slide79.JPG","This is a bim:","",""
"","html-keyboard-response","244","523390","0.0-6.0-0.79","LF","zgrkqwru88","1440","900","en","as04co18","null","","","","learningBlock1","","","","This is a tob:","null","","","","",""
"","image-keyboard-response","245","523721","0.0-6.0-1.79","LF","zgrkqwru88","1440","900","en","as04co18","null","","","","","","","","learning/Slide80.JPG","null","","","","",""
"","html-keyboard-response","246","524725","0.0-6.0-2.79","LF","zgrkqwru88","1440","900","en","as04co18","null","","","","learningBlock1","","","","<div style=""font-size:60px;""> </div>","null","LF","learning/Slide80.JPG","This is a tob:","",""
"","instructions","247","530151","0.0-7.0","LF","zgrkqwru88","1440","900","en","as04co18","NA","","","[{""page_index"":0,""viewing_time"":5424.7099999920465}]","instructions","","","","","","","","","",""
"","html-keyboard-response","248","531154","0.0-8.0-0.0","LF","zgrkqwru88","1440","900","en","as04co18","null","","","","learningBlock2","","","","This is a wug:","null","","","","",""
"","image-keyboard-response","249","531487","0.0-8.0-1.0","LF","zgrkqwru88","1440","900","en","as04co18","null","","","","","","","","learning/Slide81.JPG","null","","","","",""
"","html-keyboard-response","250","532492","0.0-8.0-2.0","LF","zgrkqwru88","1440","900","en","as04co18","null","","","","learningBlock2","","","","<div style=""font-size:60px;""> </div>","null","LF","learning/Slide81.JPG","This is a wug:","",""
"","html-keyboard-response","251","533497","0.0-8.0-0.1","LF","zgrkqwru88","1440","900","en","as04co18","null","","","","learningBlock2","","","","This is a bim:","null","","","","",""
"","image-keyboard-response","252","533828","0.0-8.0-1.1","LF","zgrkqwru88","1440","900","en","as04co18","null","","","","","","","","learning/Slide82.JPG","null","","","","",""
"","html-keyboard-response","253","534832","0.0-8.0-2.1","LF","zgrkqwru88","1440","900","en","as04co18","null","","","","learningBlock2","","","","<div style=""font-size:60px;""> </div>","null","LF","learning/Slide82.JPG","This is a bim:","",""
"","html-keyboard-response","254","535836","0.0-8.0-0.2","LF","zgrkqwru88","1440","900","en","as04co18","null","","","","learningBlock2","","","","This is a wug:","null","","","","",""
"","image-keyboard-response","255","536163","0.0-8.0-1.2","LF","zgrkqwru88","1440","900","en","as04co18","null","","","","","","","","learning/Slide83.JPG","null","","","","",""
"","html-keyboard-response","256","537168","0.0-8.0-2.2","LF","zgrkqwru88","1440","900","en","as04co18","null","","","","learningBlock2","","","","<div style=""font-size:60px;""> </div>","null","LF","learning/Slide83.JPG","This is a wug:","",""
"","html-keyboard-response","257","538170","0.0-8.0-0.3","LF","zgrkqwru88","1440","900","en","as04co18","null","","","","learningBlock2","","","","This is a dep:","null","","","","",""
"","image-keyboard-response","258","538500","0.0-8.0-1.3","LF","zgrkqwru88","1440","900","en","as04co18","null","","","","","","","","learning/Slide84.JPG","null","","","","",""
"","html-keyboard-response","259","539505","0.0-8.0-2.3","LF","zgrkqwru88","1440","900","en","as04co18","null","","","","learningBlock2","","","","<div style=""font-size:60px;""> </div>","null","LF","learning/Slide84.JPG","This is a dep:","",""
"","html-keyboard-response","260","540509","0.0-8.0-0.4","LF","zgrkqwru88","1440","900","en","as04co18","null","","","","learningBlock2","","","","This is a bim:","null","","","","",""
"","image-keyboard-response","261","540840","0.0-8.0-1.4","LF","zgrkqwru88","1440","900","en","as04co18","null","","","","","","","","learning/Slide85.JPG","null","","","","",""
"","html-keyboard-response","262","541845","0.0-8.0-2.4","LF","zgrkqwru88","1440","900","en","as04co18","null","","","","learningBlock2","","","","<div style=""font-size:60px;""> </div>","null","LF","learning/Slide85.JPG","This is a bim:","",""
"","html-keyboard-response","263","542849","0.0-8.0-0.5","LF","zgrkqwru88","1440","900","en","as04co18","null","","","","learningBlock2","","","","This is a tob:","null","","","","",""
"","image-keyboard-response","264","543179","0.0-8.0-1.5","LF","zgrkqwru88","1440","900","en","as04co18","null","","","","","","","","learning/Slide86.JPG","null","","","","",""
"","html-keyboard-response","265","544183","0.0-8.0-2.5","LF","zgrkqwru88","1440","900","en","as04co18","null","","","","learningBlock2","","","","<div style=""font-size:60px;""> </div>","null","LF","learning/Slide86.JPG","This is a tob:","",""
"","html-keyboard-response","266","545188","0.0-8.0-0.6","LF","zgrkqwru88","1440","900","en","as04co18","null","","","","learningBlock2","","","","This is a wug:","null","","","","",""
"","image-keyboard-response","267","545518","0.0-8.0-1.6","LF","zgrkqwru88","1440","900","en","as04co18","null","","","","","","","","learning/Slide87.JPG","null","","","","",""
"","html-keyboard-response","268","546523","0.0-8.0-2.6","LF","zgrkqwru88","1440","900","en","as04co18","null","","","","learningBlock2","","","","<div style=""font-size:60px;""> </div>","null","LF","learning/Slide87.JPG","This is a wug:","",""
"","html-keyboard-response","269","547529","0.0-8.0-0.7","LF","zgrkqwru88","1440","900","en","as04co18","null","","","","learningBlock2","","","","This is a tob:","null","","","","",""
"","image-keyboard-response","270","547862","0.0-8.0-1.7","LF","zgrkqwru88","1440","900","en","as04co18","null","","","","","","","","learning/Slide88.JPG","null","","","","",""
"","html-keyboard-response","271","548868","0.0-8.0-2.7","LF","zgrkqwru88","1440","900","en","as04co18","null","","","","learningBlock2","","","","<div style=""font-size:60px;""> </div>","null","LF","learning/Slide88.JPG","This is a tob:","",""
"","html-keyboard-response","272","549873","0.0-8.0-0.8","LF","zgrkqwru88","1440","900","en","as04co18","null","","","","learningBlock2","","","","This is a bim:","null","","","","",""
"","image-keyboard-response","273","550203","0.0-8.0-1.8","LF","zgrkqwru88","1440","900","en","as04co18","null","","","","","","","","learning/Slide89.JPG","null","","","","",""
"","html-keyboard-response","274","551208","0.0-8.0-2.8","LF","zgrkqwru88","1440","900","en","as04co18","null","","","","learningBlock2","","","","<div style=""font-size:60px;""> </div>","null","LF","learning/Slide89.JPG","This is a bim:","",""
"","html-keyboard-response","275","552213","0.0-8.0-0.9","LF","zgrkqwru88","1440","900","en","as04co18","null","","","","learningBlock2","","","","This is a dep:","null","","","","",""
"","image-keyboard-response","276","552546","0.0-8.0-1.9","LF","zgrkqwru88","1440","900","en","as04co18","null","","","","","","","","learning/Slide90.JPG","null","","","","",""
"","html-keyboard-response","277","553547","0.0-8.0-2.9","LF","zgrkqwru88","1440","900","en","as04co18","null","","","","learningBlock2","","","","<div style=""font-size:60px;""> </div>","null","LF","learning/Slide90.JPG","This is a dep:","",""
"","html-keyboard-response","278","554551","0.0-8.0-0.10","LF","zgrkqwru88","1440","900","en","as04co18","null","","","","learningBlock2","","","","This is a wug:","null","","","","",""
"","image-keyboard-response","279","554879","0.0-8.0-1.10","LF","zgrkqwru88","1440","900","en","as04co18","null","","","","","","","","learning/Slide91.JPG","null","","","","",""
"","html-keyboard-response","280","555881","0.0-8.0-2.10","LF","zgrkqwru88","1440","900","en","as04co18","null","","","","learningBlock2","","","","<div style=""font-size:60px;""> </div>","null","LF","learning/Slide91.JPG","This is a wug:","",""
"","html-keyboard-response","281","556885","0.0-8.0-0.11","LF","zgrkqwru88","1440","900","en","as04co18","null","","","","learningBlock2","","","","This is a tob:","null","","","","",""
"","image-keyboard-response","282","557213","0.0-8.0-1.11","LF","zgrkqwru88","1440","900","en","as04co18","null","","","","","","","","learning/Slide92.JPG","null","","","","",""
"","html-keyboard-response","283","558217","0.0-8.0-2.11","LF","zgrkqwru88","1440","900","en","as04co18","null","","","","learningBlock2","","","","<div style=""font-size:60px;""> </div>","null","LF","learning/Slide92.JPG","This is a tob:","",""
"","html-keyboard-response","284","559219","0.0-8.0-0.12","LF","zgrkqwru88","1440","900","en","as04co18","null","","","","learningBlock2","","","","This is a bim:","null","","","","",""
"","image-keyboard-response","285","559546","0.0-8.0-1.12","LF","zgrkqwru88","1440","900","en","as04co18","null","","","","","","","","learning/Slide93.JPG","null","","","","",""
"","html-keyboard-response","286","560548","0.0-8.0-2.12","LF","zgrkqwru88","1440","900","en","as04co18","null","","","","learningBlock2","","","","<div style=""font-size:60px;""> </div>","null","LF","learning/Slide93.JPG","This is a bim:","",""
"","html-keyboard-response","287","561552","0.0-8.0-0.13","LF","zgrkqwru88","1440","900","en","as04co18","null","","","","learningBlock2","","","","This is a tob:","null","","","","",""
"","image-keyboard-response","288","561882","0.0-8.0-1.13","LF","zgrkqwru88","1440","900","en","as04co18","null","","","","","","","","learning/Slide94.JPG","null","","","","",""
"","html-keyboard-response","289","562887","0.0-8.0-2.13","LF","zgrkqwru88","1440","900","en","as04co18","null","","","","learningBlock2","","","","<div style=""font-size:60px;""> </div>","null","LF","learning/Slide94.JPG","This is a tob:","",""
"","html-keyboard-response","290","563892","0.0-8.0-0.14","LF","zgrkqwru88","1440","900","en","as04co18","null","","","","learningBlock2","","","","This is a wug:","null","","","","",""
"","image-keyboard-response","291","564222","0.0-8.0-1.14","LF","zgrkqwru88","1440","900","en","as04co18","null","","","","","","","","learning/Slide95.JPG","null","","","","",""
"","html-keyboard-response","292","565227","0.0-8.0-2.14","LF","zgrkqwru88","1440","900","en","as04co18","null","","","","learningBlock2","","","","<div style=""font-size:60px;""> </div>","null","LF","learning/Slide95.JPG","This is a wug:","",""
"","html-keyboard-response","293","566230","0.0-8.0-0.15","LF","zgrkqwru88","1440","900","en","as04co18","null","","","","learningBlock2","","","","This is a tob:","null","","","","",""
"","image-keyboard-response","294","566562","0.0-8.0-1.15","LF","zgrkqwru88","1440","900","en","as04co18","null","","","","","","","","learning/Slide96.JPG","null","","","","",""
"","html-keyboard-response","295","567566","0.0-8.0-2.15","LF","zgrkqwru88","1440","900","en","as04co18","null","","","","learningBlock2","","","","<div style=""font-size:60px;""> </div>","null","LF","learning/Slide96.JPG","This is a tob:","",""
"","html-keyboard-response","296","568567","0.0-8.0-0.16","LF","zgrkqwru88","1440","900","en","as04co18","null","","","","learningBlock2","","","","This is a dep:","null","","","","",""
"","image-keyboard-response","297","568901","0.0-8.0-1.16","LF","zgrkqwru88","1440","900","en","as04co18","null","","","","","","","","learning/Slide97.JPG","null","","","","",""
"","html-keyboard-response","298","569905","0.0-8.0-2.16","LF","zgrkqwru88","1440","900","en","as04co18","null","","","","learningBlock2","","","","<div style=""font-size:60px;""> </div>","null","LF","learning/Slide97.JPG","This is a dep:","",""
"","html-keyboard-response","299","570910","0.0-8.0-0.17","LF","zgrkqwru88","1440","900","en","as04co18","null","","","","learningBlock2","","","","This is a bim:","null","","","","",""
"","image-keyboard-response","300","571241","0.0-8.0-1.17","LF","zgrkqwru88","1440","900","en","as04co18","null","","","","","","","","learning/Slide98.JPG","null","","","","",""
"","html-keyboard-response","301","572245","0.0-8.0-2.17","LF","zgrkqwru88","1440","900","en","as04co18","null","","","","learningBlock2","","","","<div style=""font-size:60px;""> </div>","null","LF","learning/Slide98.JPG","This is a bim:","",""
"","html-keyboard-response","302","573249","0.0-8.0-0.18","LF","zgrkqwru88","1440","900","en","as04co18","null","","","","learningBlock2","","","","This is a dep:","null","","","","",""
"","image-keyboard-response","303","573581","0.0-8.0-1.18","LF","zgrkqwru88","1440","900","en","as04co18","null","","","","","","","","learning/Slide99.JPG","null","","","","",""
"","html-keyboard-response","304","574584","0.0-8.0-2.18","LF","zgrkqwru88","1440","900","en","as04co18","null","","","","learningBlock2","","","","<div style=""font-size:60px;""> </div>","null","LF","learning/Slide99.JPG","This is a dep:","",""
"","html-keyboard-response","305","575589","0.0-8.0-0.19","LF","zgrkqwru88","1440","900","en","as04co18","null","","","","learningBlock2","","","","This is a bim:","null","","","","",""
"","image-keyboard-response","306","575918","0.0-8.0-1.19","LF","zgrkqwru88","1440","900","en","as04co18","null","","","","","","","","learning/Slide100.JPG","null","","","","",""
"","html-keyboard-response","307","576921","0.0-8.0-2.19","LF","zgrkqwru88","1440","900","en","as04co18","null","","","","learningBlock2","","","","<div style=""font-size:60px;""> </div>","null","LF","learning/Slide100.JPG","This is a bim:","",""
"","html-keyboard-response","308","577922","0.0-8.0-0.20","LF","zgrkqwru88","1440","900","en","as04co18","null","","","","learningBlock2","","","","This is a tob:","null","","","","",""
"","image-keyboard-response","309","578253","0.0-8.0-1.20","LF","zgrkqwru88","1440","900","en","as04co18","null","","","","","","","","learning/Slide101.JPG","null","","","","",""
"","html-keyboard-response","310","579257","0.0-8.0-2.20","LF","zgrkqwru88","1440","900","en","as04co18","null","","","","learningBlock2","","","","<div style=""font-size:60px;""> </div>","null","LF","learning/Slide101.JPG","This is a tob:","",""
"","html-keyboard-response","311","580262","0.0-8.0-0.21","LF","zgrkqwru88","1440","900","en","as04co18","null","","","","learningBlock2","","","","This is a bim:","null","","","","",""
"","image-keyboard-response","312","580592","0.0-8.0-1.21","LF","zgrkqwru88","1440","900","en","as04co18","null","","","","","","","","learning/Slide102.JPG","null","","","","",""
"","html-keyboard-response","313","581598","0.0-8.0-2.21","LF","zgrkqwru88","1440","900","en","as04co18","null","","","","learningBlock2","","","","<div style=""font-size:60px;""> </div>","null","LF","learning/Slide102.JPG","This is a bim:","",""
"","html-keyboard-response","314","582601","0.0-8.0-0.22","LF","zgrkqwru88","1440","900","en","as04co18","null","","","","learningBlock2","","","","This is a dep:","null","","","","",""
"","image-keyboard-response","315","582931","0.0-8.0-1.22","LF","zgrkqwru88","1440","900","en","as04co18","null","","","","","","","","learning/Slide103.JPG","null","","","","",""
"","html-keyboard-response","316","583936","0.0-8.0-2.22","LF","zgrkqwru88","1440","900","en","as04co18","null","","","","learningBlock2","","","","<div style=""font-size:60px;""> </div>","null","LF","learning/Slide103.JPG","This is a dep:","",""
"","html-keyboard-response","317","584940","0.0-8.0-0.23","LF","zgrkqwru88","1440","900","en","as04co18","null","","","","learningBlock2","","","","This is a tob:","null","","","","",""
"","image-keyboard-response","318","585271","0.0-8.0-1.23","LF","zgrkqwru88","1440","900","en","as04co18","null","","","","","","","","learning/Slide104.JPG","null","","","","",""
"","html-keyboard-response","319","586272","0.0-8.0-2.23","LF","zgrkqwru88","1440","900","en","as04co18","null","","","","learningBlock2","","","","<div style=""font-size:60px;""> </div>","null","LF","learning/Slide104.JPG","This is a tob:","",""
"","html-keyboard-response","320","587274","0.0-8.0-0.24","LF","zgrkqwru88","1440","900","en","as04co18","null","","","","learningBlock2","","","","This is a dep:","null","","","","",""
"","image-keyboard-response","321","587604","0.0-8.0-1.24","LF","zgrkqwru88","1440","900","en","as04co18","null","","","","","","","","learning/Slide105.JPG","null","","","","",""
"","html-keyboard-response","322","588607","0.0-8.0-2.24","LF","zgrkqwru88","1440","900","en","as04co18","null","","","","learningBlock2","","","","<div style=""font-size:60px;""> </div>","null","LF","learning/Slide105.JPG","This is a dep:","",""
"","html-keyboard-response","323","589613","0.0-8.0-0.25","LF","zgrkqwru88","1440","900","en","as04co18","null","","","","learningBlock2","","","","This is a wug:","null","","","","",""
"","image-keyboard-response","324","589944","0.0-8.0-1.25","LF","zgrkqwru88","1440","900","en","as04co18","null","","","","","","","","learning/Slide106.JPG","null","","","","",""
"","html-keyboard-response","325","590948","0.0-8.0-2.25","LF","zgrkqwru88","1440","900","en","as04co18","null","","","","learningBlock2","","","","<div style=""font-size:60px;""> </div>","null","LF","learning/Slide106.JPG","This is a wug:","",""
"","html-keyboard-response","326","591953","0.0-8.0-0.26","LF","zgrkqwru88","1440","900","en","as04co18","null","","","","learningBlock2","","","","This is a bim:","null","","","","",""
"","image-keyboard-response","327","592282","0.0-8.0-1.26","LF","zgrkqwru88","1440","900","en","as04co18","null","","","","","","","","learning/Slide107.JPG","null","","","","",""
"","html-keyboard-response","328","593287","0.0-8.0-2.26","LF","zgrkqwru88","1440","900","en","as04co18","null","","","","learningBlock2","","","","<div style=""font-size:60px;""> </div>","null","LF","learning/Slide107.JPG","This is a bim:","",""
"","html-keyboard-response","329","594292","0.0-8.0-0.27","LF","zgrkqwru88","1440","900","en","as04co18","null","","","","learningBlock2","","","","This is a dep:","null","","","","",""
"","image-keyboard-response","330","594623","0.0-8.0-1.27","LF","zgrkqwru88","1440","900","en","as04co18","null","","","","","","","","learning/Slide108.JPG","null","","","","",""
"","html-keyboard-response","331","595627","0.0-8.0-2.27","LF","zgrkqwru88","1440","900","en","as04co18","null","","","","learningBlock2","","","","<div style=""font-size:60px;""> </div>","null","LF","learning/Slide108.JPG","This is a dep:","",""
"","html-keyboard-response","332","596632","0.0-8.0-0.28","LF","zgrkqwru88","1440","900","en","as04co18","null","","","","learningBlock2","","","","This is a wug:","null","","","","",""
"","image-keyboard-response","333","596962","0.0-8.0-1.28","LF","zgrkqwru88","1440","900","en","as04co18","null","","","","","","","","learning/Slide109.JPG","null","","","","",""
"","html-keyboard-response","334","597965","0.0-8.0-2.28","LF","zgrkqwru88","1440","900","en","as04co18","null","","","","learningBlock2","","","","<div style=""font-size:60px;""> </div>","null","LF","learning/Slide109.JPG","This is a wug:","",""
"","html-keyboard-response","335","598971","0.0-8.0-0.29","LF","zgrkqwru88","1440","900","en","as04co18","null","","","","learningBlock2","","","","This is a bim:","null","","","","",""
"","image-keyboard-response","336","599299","0.0-8.0-1.29","LF","zgrkqwru88","1440","900","en","as04co18","null","","","","","","","","learning/Slide110.JPG","null","","","","",""
"","html-keyboard-response","337","600303","0.0-8.0-2.29","LF","zgrkqwru88","1440","900","en","as04co18","null","","","","learningBlock2","","","","<div style=""font-size:60px;""> </div>","null","LF","learning/Slide110.JPG","This is a bim:","",""
"","html-keyboard-response","338","601305","0.0-8.0-0.30","LF","zgrkqwru88","1440","900","en","as04co18","null","","","","learningBlock2","","","","This is a tob:","null","","","","",""
"","image-keyboard-response","339","601632","0.0-8.0-1.30","LF","zgrkqwru88","1440","900","en","as04co18","null","","","","","","","","learning/Slide111.JPG","null","","","","",""
"","html-keyboard-response","340","602634","0.0-8.0-2.30","LF","zgrkqwru88","1440","900","en","as04co18","null","","","","learningBlock2","","","","<div style=""font-size:60px;""> </div>","null","LF","learning/Slide111.JPG","This is a tob:","",""
"","html-keyboard-response","341","603638","0.0-8.0-0.31","LF","zgrkqwru88","1440","900","en","as04co18","null","","","","learningBlock2","","","","This is a wug:","null","","","","",""
"","image-keyboard-response","342","603968","0.0-8.0-1.31","LF","zgrkqwru88","1440","900","en","as04co18","null","","","","","","","","learning/Slide112.JPG","null","","","","",""
"","html-keyboard-response","343","604973","0.0-8.0-2.31","LF","zgrkqwru88","1440","900","en","as04co18","null","","","","learningBlock2","","","","<div style=""font-size:60px;""> </div>","null","LF","learning/Slide112.JPG","This is a wug:","",""
"","html-keyboard-response","344","605978","0.0-8.0-0.32","LF","zgrkqwru88","1440","900","en","as04co18","null","","","","learningBlock2","","","","This is a tob:","null","","","","",""
"","image-keyboard-response","345","606308","0.0-8.0-1.32","LF","zgrkqwru88","1440","900","en","as04co18","null","","","","","","","","learning/Slide113.JPG","null","","","","",""
"","html-keyboard-response","346","607313","0.0-8.0-2.32","LF","zgrkqwru88","1440","900","en","as04co18","null","","","","learningBlock2","","","","<div style=""font-size:60px;""> </div>","null","LF","learning/Slide113.JPG","This is a tob:","",""
"","html-keyboard-response","347","608316","0.0-8.0-0.33","LF","zgrkqwru88","1440","900","en","as04co18","null","","","","learningBlock2","","","","This is a wug:","null","","","","",""
"","image-keyboard-response","348","608648","0.0-8.0-1.33","LF","zgrkqwru88","1440","900","en","as04co18","null","","","","","","","","learning/Slide114.JPG","null","","","","",""
"","html-keyboard-response","349","609652","0.0-8.0-2.33","LF","zgrkqwru88","1440","900","en","as04co18","null","","","","learningBlock2","","","","<div style=""font-size:60px;""> </div>","null","LF","learning/Slide114.JPG","This is a wug:","",""
"","html-keyboard-response","350","610654","0.0-8.0-0.34","LF","zgrkqwru88","1440","900","en","as04co18","null","","","","learningBlock2","","","","This is a bim:","null","","","","",""
"","image-keyboard-response","351","610987","0.0-8.0-1.34","LF","zgrkqwru88","1440","900","en","as04co18","null","","","","","","","","learning/Slide115.JPG","null","","","","",""
"","html-keyboard-response","352","611991","0.0-8.0-2.34","LF","zgrkqwru88","1440","900","en","as04co18","null","","","","learningBlock2","","","","<div style=""font-size:60px;""> </div>","null","LF","learning/Slide115.JPG","This is a bim:","",""
"","html-keyboard-response","353","612996","0.0-8.0-0.35","LF","zgrkqwru88","1440","900","en","as04co18","null","","","","learningBlock2","","","","This is a dep:","null","","","","",""
"","image-keyboard-response","354","613327","0.0-8.0-1.35","LF","zgrkqwru88","1440","900","en","as04co18","null","","","","","","","","learning/Slide116.JPG","null","","","","",""
"","html-keyboard-response","355","614330","0.0-8.0-2.35","LF","zgrkqwru88","1440","900","en","as04co18","null","","","","learningBlock2","","","","<div style=""font-size:60px;""> </div>","null","LF","learning/Slide116.JPG","This is a dep:","",""
"","html-keyboard-response","356","615333","0.0-8.0-0.36","LF","zgrkqwru88","1440","900","en","as04co18","null","","","","learningBlock2","","","","This is a tob:","null","","","","",""
"","image-keyboard-response","357","615667","0.0-8.0-1.36","LF","zgrkqwru88","1440","900","en","as04co18","null","","","","","","","","learning/Slide117.JPG","null","","","","",""
"","html-keyboard-response","358","616670","0.0-8.0-2.36","LF","zgrkqwru88","1440","900","en","as04co18","null","","","","learningBlock2","","","","<div style=""font-size:60px;""> </div>","null","LF","learning/Slide117.JPG","This is a tob:","",""
"","html-keyboard-response","359","617671","0.0-8.0-0.37","LF","zgrkqwru88","1440","900","en","as04co18","null","","","","learningBlock2","","","","This is a dep:","null","","","","",""
"","image-keyboard-response","360","618002","0.0-8.0-1.37","LF","zgrkqwru88","1440","900","en","as04co18","null","","","","","","","","learning/Slide118.JPG","null","","","","",""
"","html-keyboard-response","361","619004","0.0-8.0-2.37","LF","zgrkqwru88","1440","900","en","as04co18","null","","","","learningBlock2","","","","<div style=""font-size:60px;""> </div>","null","LF","learning/Slide118.JPG","This is a dep:","",""
"","html-keyboard-response","362","620010","0.0-8.0-0.38","LF","zgrkqwru88","1440","900","en","as04co18","null","","","","learningBlock2","","","","This is a wug:","null","","","","",""
"","image-keyboard-response","363","620345","0.0-8.0-1.38","LF","zgrkqwru88","1440","900","en","as04co18","null","","","","","","","","learning/Slide119.JPG","null","","","","",""
"","html-keyboard-response","364","621350","0.0-8.0-2.38","LF","zgrkqwru88","1440","900","en","as04co18","null","","","","learningBlock2","","","","<div style=""font-size:60px;""> </div>","null","LF","learning/Slide119.JPG","This is a wug:","",""
"","html-keyboard-response","365","622353","0.0-8.0-0.39","LF","zgrkqwru88","1440","900","en","as04co18","null","","","","learningBlock2","","","","This is a dep:","null","","","","",""
"","image-keyboard-response","366","622684","0.0-8.0-1.39","LF","zgrkqwru88","1440","900","en","as04co18","null","","","","","","","","learning/Slide120.JPG","null","","","","",""
"","html-keyboard-response","367","623688","0.0-8.0-2.39","LF","zgrkqwru88","1440","900","en","as04co18","null","","","","learningBlock2","","","","<div style=""font-size:60px;""> </div>","null","LF","learning/Slide120.JPG","This is a dep:","",""
"","html-keyboard-response","368","624693","0.0-8.0-0.40","LF","zgrkqwru88","1440","900","en","as04co18","null","","","","learningBlock2","","","","This is a bim:","null","","","","",""
"","image-keyboard-response","369","625024","0.0-8.0-1.40","LF","zgrkqwru88","1440","900","en","as04co18","null","","","","","","","","learning/Slide121.JPG","null","","","","",""
"","html-keyboard-response","370","626028","0.0-8.0-2.40","LF","zgrkqwru88","1440","900","en","as04co18","null","","","","learningBlock2","","","","<div style=""font-size:60px;""> </div>","null","LF","learning/Slide121.JPG","This is a bim:","",""
"","html-keyboard-response","371","627032","0.0-8.0-0.41","LF","zgrkqwru88","1440","900","en","as04co18","null","","","","learningBlock2","","","","This is a wug:","null","","","","",""
"","image-keyboard-response","372","627363","0.0-8.0-1.41","LF","zgrkqwru88","1440","900","en","as04co18","null","","","","","","","","learning/Slide122.JPG","null","","","","",""
"","html-keyboard-response","373","628367","0.0-8.0-2.41","LF","zgrkqwru88","1440","900","en","as04co18","null","","","","learningBlock2","","","","<div style=""font-size:60px;""> </div>","null","LF","learning/Slide122.JPG","This is a wug:","",""
"","html-keyboard-response","374","629371","0.0-8.0-0.42","LF","zgrkqwru88","1440","900","en","as04co18","null","","","","learningBlock2","","","","This is a bim:","null","","","","",""
"","image-keyboard-response","375","629701","0.0-8.0-1.42","LF","zgrkqwru88","1440","900","en","as04co18","null","","","","","","","","learning/Slide123.JPG","null","","","","",""
"","html-keyboard-response","376","630707","0.0-8.0-2.42","LF","zgrkqwru88","1440","900","en","as04co18","null","","","","learningBlock2","","","","<div style=""font-size:60px;""> </div>","null","LF","learning/Slide123.JPG","This is a bim:","",""
"","html-keyboard-response","377","631711","0.0-8.0-0.43","LF","zgrkqwru88","1440","900","en","as04co18","null","","","","learningBlock2","","","","This is a tob:","null","","","","",""
"","image-keyboard-response","378","632042","0.0-8.0-1.43","LF","zgrkqwru88","1440","900","en","as04co18","null","","","","","","","","learning/Slide124.JPG","null","","","","",""
"","html-keyboard-response","379","633046","0.0-8.0-2.43","LF","zgrkqwru88","1440","900","en","as04co18","null","","","","learningBlock2","","","","<div style=""font-size:60px;""> </div>","null","LF","learning/Slide124.JPG","This is a tob:","",""
"","html-keyboard-response","380","634051","0.0-8.0-0.44","LF","zgrkqwru88","1440","900","en","as04co18","null","","","","learningBlock2","","","","This is a bim:","null","","","","",""
"","image-keyboard-response","381","634384","0.0-8.0-1.44","LF","zgrkqwru88","1440","900","en","as04co18","null","","","","","","","","learning/Slide125.JPG","null","","","","",""
"","html-keyboard-response","382","635385","0.0-8.0-2.44","LF","zgrkqwru88","1440","900","en","as04co18","null","","","","learningBlock2","","","","<div style=""font-size:60px;""> </div>","null","LF","learning/Slide125.JPG","This is a bim:","",""
"","html-keyboard-response","383","636390","0.0-8.0-0.45","LF","zgrkqwru88","1440","900","en","as04co18","null","","","","learningBlock2","","","","This is a tob:","null","","","","",""
"","image-keyboard-response","384","636722","0.0-8.0-1.45","LF","zgrkqwru88","1440","900","en","as04co18","null","","","","","","","","learning/Slide126.JPG","null","","","","",""
"","html-keyboard-response","385","637725","0.0-8.0-2.45","LF","zgrkqwru88","1440","900","en","as04co18","null","","","","learningBlock2","","","","<div style=""font-size:60px;""> </div>","null","LF","learning/Slide126.JPG","This is a tob:","",""
"","html-keyboard-response","386","638729","0.0-8.0-0.46","LF","zgrkqwru88","1440","900","en","as04co18","null","","","","learningBlock2","","","","This is a dep:","null","","","","",""
"","image-keyboard-response","387","639060","0.0-8.0-1.46","LF","zgrkqwru88","1440","900","en","as04co18","null","","","","","","","","learning/Slide127.JPG","null","","","","",""
"","html-keyboard-response","388","640064","0.0-8.0-2.46","LF","zgrkqwru88","1440","900","en","as04co18","null","","","","learningBlock2","","","","<div style=""font-size:60px;""> </div>","null","LF","learning/Slide127.JPG","This is a dep:","",""
"","html-keyboard-response","389","641068","0.0-8.0-0.47","LF","zgrkqwru88","1440","900","en","as04co18","null","","","","learningBlock2","","","","This is a wug:","null","","","","",""
"","image-keyboard-response","390","641400","0.0-8.0-1.47","LF","zgrkqwru88","1440","900","en","as04co18","null","","","","","","","","learning/Slide128.JPG","null","","","","",""
"","html-keyboard-response","391","642404","0.0-8.0-2.47","LF","zgrkqwru88","1440","900","en","as04co18","null","","","","learningBlock2","","","","<div style=""font-size:60px;""> </div>","null","LF","learning/Slide128.JPG","This is a wug:","",""
"","html-keyboard-response","392","643408","0.0-8.0-0.48","LF","zgrkqwru88","1440","900","en","as04co18","null","","","","learningBlock2","","","","This is a tob:","null","","","","",""
"","image-keyboard-response","393","643735","0.0-8.0-1.48","LF","zgrkqwru88","1440","900","en","as04co18","null","","","","","","","","learning/Slide129.JPG","null","","","","",""
"","html-keyboard-response","394","644737","0.0-8.0-2.48","LF","zgrkqwru88","1440","900","en","as04co18","null","","","","learningBlock2","","","","<div style=""font-size:60px;""> </div>","null","LF","learning/Slide129.JPG","This is a tob:","",""
"","html-keyboard-response","395","645742","0.0-8.0-0.49","LF","zgrkqwru88","1440","900","en","as04co18","null","","","","learningBlock2","","","","This is a wug:","null","","","","",""
"","image-keyboard-response","396","646072","0.0-8.0-1.49","LF","zgrkqwru88","1440","900","en","as04co18","null","","","","","","","","learning/Slide130.JPG","null","","","","",""
"","html-keyboard-response","397","647077","0.0-8.0-2.49","LF","zgrkqwru88","1440","900","en","as04co18","null","","","","learningBlock2","","","","<div style=""font-size:60px;""> </div>","null","LF","learning/Slide130.JPG","This is a wug:","",""
"","html-keyboard-response","398","648081","0.0-8.0-0.50","LF","zgrkqwru88","1440","900","en","as04co18","null","","","","learningBlock2","","","","This is a bim:","null","","","","",""
"","image-keyboard-response","399","648416","0.0-8.0-1.50","LF","zgrkqwru88","1440","900","en","as04co18","null","","","","","","","","learning/Slide131.JPG","null","","","","",""
"","html-keyboard-response","400","649419","0.0-8.0-2.50","LF","zgrkqwru88","1440","900","en","as04co18","null","","","","learningBlock2","","","","<div style=""font-size:60px;""> </div>","null","LF","learning/Slide131.JPG","This is a bim:","",""
"","html-keyboard-response","401","650420","0.0-8.0-0.51","LF","zgrkqwru88","1440","900","en","as04co18","null","","","","learningBlock2","","","","This is a dep:","null","","","","",""
"","image-keyboard-response","402","650751","0.0-8.0-1.51","LF","zgrkqwru88","1440","900","en","as04co18","null","","","","","","","","learning/Slide132.JPG","null","","","","",""
"","html-keyboard-response","403","651757","0.0-8.0-2.51","LF","zgrkqwru88","1440","900","en","as04co18","null","","","","learningBlock2","","","","<div style=""font-size:60px;""> </div>","null","LF","learning/Slide132.JPG","This is a dep:","",""
"","html-keyboard-response","404","652760","0.0-8.0-0.52","LF","zgrkqwru88","1440","900","en","as04co18","null","","","","learningBlock2","","","","This is a tob:","null","","","","",""
"","image-keyboard-response","405","653091","0.0-8.0-1.52","LF","zgrkqwru88","1440","900","en","as04co18","null","","","","","","","","learning/Slide133.JPG","null","","","","",""
"","html-keyboard-response","406","654095","0.0-8.0-2.52","LF","zgrkqwru88","1440","900","en","as04co18","null","","","","learningBlock2","","","","<div style=""font-size:60px;""> </div>","null","LF","learning/Slide133.JPG","This is a tob:","",""
"","html-keyboard-response","407","655099","0.0-8.0-0.53","LF","zgrkqwru88","1440","900","en","as04co18","null","","","","learningBlock2","","","","This is a dep:","null","","","","",""
"","image-keyboard-response","408","655430","0.0-8.0-1.53","LF","zgrkqwru88","1440","900","en","as04co18","null","","","","","","","","learning/Slide134.JPG","null","","","","",""
"","html-keyboard-response","409","656436","0.0-8.0-2.53","LF","zgrkqwru88","1440","900","en","as04co18","null","","","","learningBlock2","","","","<div style=""font-size:60px;""> </div>","null","LF","learning/Slide134.JPG","This is a dep:","",""
"","html-keyboard-response","410","657438","0.0-8.0-0.54","LF","zgrkqwru88","1440","900","en","as04co18","null","","","","learningBlock2","","","","This is a tob:","null","","","","",""
"","image-keyboard-response","411","657769","0.0-8.0-1.54","LF","zgrkqwru88","1440","900","en","as04co18","null","","","","","","","","learning/Slide135.JPG","null","","","","",""
"","html-keyboard-response","412","658774","0.0-8.0-2.54","LF","zgrkqwru88","1440","900","en","as04co18","null","","","","learningBlock2","","","","<div style=""font-size:60px;""> </div>","null","LF","learning/Slide135.JPG","This is a tob:","",""
"","html-keyboard-response","413","659778","0.0-8.0-0.55","LF","zgrkqwru88","1440","900","en","as04co18","null","","","","learningBlock2","","","","This is a wug:","null","","","","",""
"","image-keyboard-response","414","660109","0.0-8.0-1.55","LF","zgrkqwru88","1440","900","en","as04co18","null","","","","","","","","learning/Slide136.JPG","null","","","","",""
"","html-keyboard-response","415","661113","0.0-8.0-2.55","LF","zgrkqwru88","1440","900","en","as04co18","null","","","","learningBlock2","","","","<div style=""font-size:60px;""> </div>","null","LF","learning/Slide136.JPG","This is a wug:","",""
"","html-keyboard-response","416","662117","0.0-8.0-0.56","LF","zgrkqwru88","1440","900","en","as04co18","null","","","","learningBlock2","","","","This is a tob:","null","","","","",""
"","image-keyboard-response","417","662448","0.0-8.0-1.56","LF","zgrkqwru88","1440","900","en","as04co18","null","","","","","","","","learning/Slide137.JPG","null","","","","",""
"","html-keyboard-response","418","663453","0.0-8.0-2.56","LF","zgrkqwru88","1440","900","en","as04co18","null","","","","learningBlock2","","","","<div style=""font-size:60px;""> </div>","null","LF","learning/Slide137.JPG","This is a tob:","",""
"","html-keyboard-response","419","664457","0.0-8.0-0.57","LF","zgrkqwru88","1440","900","en","as04co18","null","","","","learningBlock2","","","","This is a bim:","null","","","","",""
"","image-keyboard-response","420","664786","0.0-8.0-1.57","LF","zgrkqwru88","1440","900","en","as04co18","null","","","","","","","","learning/Slide138.JPG","null","","","","",""
"","html-keyboard-response","421","665792","0.0-8.0-2.57","LF","zgrkqwru88","1440","900","en","as04co18","null","","","","learningBlock2","","","","<div style=""font-size:60px;""> </div>","null","LF","learning/Slide138.JPG","This is a bim:","",""
"","html-keyboard-response","422","666794","0.0-8.0-0.58","LF","zgrkqwru88","1440","900","en","as04co18","null","","","","learningBlock2","","","","This is a wug:","null","","","","",""
"","image-keyboard-response","423","667125","0.0-8.0-1.58","LF","zgrkqwru88","1440","900","en","as04co18","null","","","","","","","","learning/Slide139.JPG","null","","","","",""
"","html-keyboard-response","424","668126","0.0-8.0-2.58","LF","zgrkqwru88","1440","900","en","as04co18","null","","","","learningBlock2","","","","<div style=""font-size:60px;""> </div>","null","LF","learning/Slide139.JPG","This is a wug:","",""
"","html-keyboard-response","425","669128","0.0-8.0-0.59","LF","zgrkqwru88","1440","900","en","as04co18","null","","","","learningBlock2","","","","This is a dep:","null","","","","",""
"","image-keyboard-response","426","669460","0.0-8.0-1.59","LF","zgrkqwru88","1440","900","en","as04co18","null","","","","","","","","learning/Slide140.JPG","null","","","","",""
"","html-keyboard-response","427","670467","0.0-8.0-2.59","LF","zgrkqwru88","1440","900","en","as04co18","null","","","","learningBlock2","","","","<div style=""font-size:60px;""> </div>","null","LF","learning/Slide140.JPG","This is a dep:","",""
"","html-keyboard-response","428","671470","0.0-8.0-0.60","LF","zgrkqwru88","1440","900","en","as04co18","null","","","","learningBlock2","","","","This is a tob:","null","","","","",""
"","image-keyboard-response","429","671803","0.0-8.0-1.60","LF","zgrkqwru88","1440","900","en","as04co18","null","","","","","","","","learning/Slide141.JPG","null","","","","",""
"","html-keyboard-response","430","672807","0.0-8.0-2.60","LF","zgrkqwru88","1440","900","en","as04co18","null","","","","learningBlock2","","","","<div style=""font-size:60px;""> </div>","null","LF","learning/Slide141.JPG","This is a tob:","",""
"","html-keyboard-response","431","673809","0.0-8.0-0.61","LF","zgrkqwru88","1440","900","en","as04co18","null","","","","learningBlock2","","","","This is a wug:","null","","","","",""
"","image-keyboard-response","432","674139","0.0-8.0-1.61","LF","zgrkqwru88","1440","900","en","as04co18","null","","","","","","","","learning/Slide142.JPG","null","","","","",""
"","html-keyboard-response","433","675144","0.0-8.0-2.61","LF","zgrkqwru88","1440","900","en","as04co18","null","","","","learningBlock2","","","","<div style=""font-size:60px;""> </div>","null","LF","learning/Slide142.JPG","This is a wug:","",""
"","html-keyboard-response","434","676149","0.0-8.0-0.62","LF","zgrkqwru88","1440","900","en","as04co18","null","","","","learningBlock2","","","","This is a bim:","null","","","","",""
"","image-keyboard-response","435","676483","0.0-8.0-1.62","LF","zgrkqwru88","1440","900","en","as04co18","null","","","","","","","","learning/Slide143.JPG","null","","","","",""
"","html-keyboard-response","436","677487","0.0-8.0-2.62","LF","zgrkqwru88","1440","900","en","as04co18","null","","","","learningBlock2","","","","<div style=""font-size:60px;""> </div>","null","LF","learning/Slide143.JPG","This is a bim:","",""
"","html-keyboard-response","437","678493","0.0-8.0-0.63","LF","zgrkqwru88","1440","900","en","as04co18","null","","","","learningBlock2","","","","This is a dep:","null","","","","",""
"","image-keyboard-response","438","678821","0.0-8.0-1.63","LF","zgrkqwru88","1440","900","en","as04co18","null","","","","","","","","learning/Slide144.JPG","null","","","","",""
"","html-keyboard-response","439","679824","0.0-8.0-2.63","LF","zgrkqwru88","1440","900","en","as04co18","null","","","","learningBlock2","","","","<div style=""font-size:60px;""> </div>","null","LF","learning/Slide144.JPG","This is a dep:","",""
"","html-keyboard-response","440","680828","0.0-8.0-0.64","LF","zgrkqwru88","1440","900","en","as04co18","null","","","","learningBlock2","","","","This is a bim:","null","","","","",""
"","image-keyboard-response","441","681163","0.0-8.0-1.64","LF","zgrkqwru88","1440","900","en","as04co18","null","","","","","","","","learning/Slide145.JPG","null","","","","",""
"","html-keyboard-response","442","682168","0.0-8.0-2.64","LF","zgrkqwru88","1440","900","en","as04co18","null","","","","learningBlock2","","","","<div style=""font-size:60px;""> </div>","null","LF","learning/Slide145.JPG","This is a bim:","",""
"","html-keyboard-response","443","683171","0.0-8.0-0.65","LF","zgrkqwru88","1440","900","en","as04co18","null","","","","learningBlock2","","","","This is a tob:","null","","","","",""
"","image-keyboard-response","444","683503","0.0-8.0-1.65","LF","zgrkqwru88","1440","900","en","as04co18","null","","","","","","","","learning/Slide146.JPG","null","","","","",""
"","html-keyboard-response","445","684506","0.0-8.0-2.65","LF","zgrkqwru88","1440","900","en","as04co18","null","","","","learningBlock2","","","","<div style=""font-size:60px;""> </div>","null","LF","learning/Slide146.JPG","This is a tob:","",""
"","html-keyboard-response","446","685512","0.0-8.0-0.66","LF","zgrkqwru88","1440","900","en","as04co18","null","","","","learningBlock2","","","","This is a wug:","null","","","","",""
"","image-keyboard-response","447","685842","0.0-8.0-1.66","LF","zgrkqwru88","1440","900","en","as04co18","null","","","","","","","","learning/Slide147.JPG","null","","","","",""
"","html-keyboard-response","448","686846","0.0-8.0-2.66","LF","zgrkqwru88","1440","900","en","as04co18","null","","","","learningBlock2","","","","<div style=""font-size:60px;""> </div>","null","LF","learning/Slide147.JPG","This is a wug:","",""
"","html-keyboard-response","449","687851","0.0-8.0-0.67","LF","zgrkqwru88","1440","900","en","as04co18","null","","","","learningBlock2","","","","This is a bim:","null","","","","",""
"","image-keyboard-response","450","688182","0.0-8.0-1.67","LF","zgrkqwru88","1440","900","en","as04co18","null","","","","","","","","learning/Slide148.JPG","null","","","","",""
"","html-keyboard-response","451","689186","0.0-8.0-2.67","LF","zgrkqwru88","1440","900","en","as04co18","null","","","","learningBlock2","","","","<div style=""font-size:60px;""> </div>","null","LF","learning/Slide148.JPG","This is a bim:","",""
"","html-keyboard-response","452","690188","0.0-8.0-0.68","LF","zgrkqwru88","1440","900","en","as04co18","null","","","","learningBlock2","","","","This is a dep:","null","","","","",""
"","image-keyboard-response","453","690515","0.0-8.0-1.68","LF","zgrkqwru88","1440","900","en","as04co18","null","","","","","","","","learning/Slide149.JPG","null","","","","",""
"","html-keyboard-response","454","691520","0.0-8.0-2.68","LF","zgrkqwru88","1440","900","en","as04co18","null","","","","learningBlock2","","","","<div style=""font-size:60px;""> </div>","null","LF","learning/Slide149.JPG","This is a dep:","",""
"","html-keyboard-response","455","692524","0.0-8.0-0.69","LF","zgrkqwru88","1440","900","en","as04co18","null","","","","learningBlock2","","","","This is a wug:","null","","","","",""
"","image-keyboard-response","456","692855","0.0-8.0-1.69","LF","zgrkqwru88","1440","900","en","as04co18","null","","","","","","","","learning/Slide150.JPG","null","","","","",""
"","html-keyboard-response","457","693859","0.0-8.0-2.69","LF","zgrkqwru88","1440","900","en","as04co18","null","","","","learningBlock2","","","","<div style=""font-size:60px;""> </div>","null","LF","learning/Slide150.JPG","This is a wug:","",""
"","html-keyboard-response","458","694863","0.0-8.0-0.70","LF","zgrkqwru88","1440","900","en","as04co18","null","","","","learningBlock2","","","","This is a dep:","null","","","","",""
"","image-keyboard-response","459","695194","0.0-8.0-1.70","LF","zgrkqwru88","1440","900","en","as04co18","null","","","","","","","","learning/Slide151.JPG","null","","","","",""
"","html-keyboard-response","460","696198","0.0-8.0-2.70","LF","zgrkqwru88","1440","900","en","as04co18","null","","","","learningBlock2","","","","<div style=""font-size:60px;""> </div>","null","LF","learning/Slide151.JPG","This is a dep:","",""
"","html-keyboard-response","461","697203","0.0-8.0-0.71","LF","zgrkqwru88","1440","900","en","as04co18","null","","","","learningBlock2","","","","This is a wug:","null","","","","",""
"","image-keyboard-response","462","697534","0.0-8.0-1.71","LF","zgrkqwru88","1440","900","en","as04co18","null","","","","","","","","learning/Slide152.JPG","null","","","","",""
"","html-keyboard-response","463","698539","0.0-8.0-2.71","LF","zgrkqwru88","1440","900","en","as04co18","null","","","","learningBlock2","","","","<div style=""font-size:60px;""> </div>","null","LF","learning/Slide152.JPG","This is a wug:","",""
"","html-keyboard-response","464","699542","0.0-8.0-0.72","LF","zgrkqwru88","1440","900","en","as04co18","null","","","","learningBlock2","","","","This is a bim:","null","","","","",""
"","image-keyboard-response","465","699872","0.0-8.0-1.72","LF","zgrkqwru88","1440","900","en","as04co18","null","","","","","","","","learning/Slide153.JPG","null","","","","",""
"","html-keyboard-response","466","700877","0.0-8.0-2.72","LF","zgrkqwru88","1440","900","en","as04co18","null","","","","learningBlock2","","","","<div style=""font-size:60px;""> </div>","null","LF","learning/Slide153.JPG","This is a bim:","",""
"","html-keyboard-response","467","701883","0.0-8.0-0.73","LF","zgrkqwru88","1440","900","en","as04co18","null","","","","learningBlock2","","","","This is a tob:","null","","","","",""
"","image-keyboard-response","468","702218","0.0-8.0-1.73","LF","zgrkqwru88","1440","900","en","as04co18","null","","","","","","","","learning/Slide154.JPG","null","","","","",""
"","html-keyboard-response","469","703222","0.0-8.0-2.73","LF","zgrkqwru88","1440","900","en","as04co18","null","","","","learningBlock2","","","","<div style=""font-size:60px;""> </div>","null","LF","learning/Slide154.JPG","This is a tob:","",""
"","html-keyboard-response","470","704227","0.0-8.0-0.74","LF","zgrkqwru88","1440","900","en","as04co18","null","","","","learningBlock2","","","","This is a dep:","null","","","","",""
"","image-keyboard-response","471","704557","0.0-8.0-1.74","LF","zgrkqwru88","1440","900","en","as04co18","null","","","","","","","","learning/Slide155.JPG","null","","","","",""
"","html-keyboard-response","472","705561","0.0-8.0-2.74","LF","zgrkqwru88","1440","900","en","as04co18","null","","","","learningBlock2","","","","<div style=""font-size:60px;""> </div>","null","LF","learning/Slide155.JPG","This is a dep:","",""
"","html-keyboard-response","473","706565","0.0-8.0-0.75","LF","zgrkqwru88","1440","900","en","as04co18","null","","","","learningBlock2","","","","This is a bim:","null","","","","",""
"","image-keyboard-response","474","706897","0.0-8.0-1.75","LF","zgrkqwru88","1440","900","en","as04co18","null","","","","","","","","learning/Slide156.JPG","null","","","","",""
"","html-keyboard-response","475","707901","0.0-8.0-2.75","LF","zgrkqwru88","1440","900","en","as04co18","null","","","","learningBlock2","","","","<div style=""font-size:60px;""> </div>","null","LF","learning/Slide156.JPG","This is a bim:","",""
"","html-keyboard-response","476","708906","0.0-8.0-0.76","LF","zgrkqwru88","1440","900","en","as04co18","null","","","","learningBlock2","","","","This is a dep:","null","","","","",""
"","image-keyboard-response","477","709234","0.0-8.0-1.76","LF","zgrkqwru88","1440","900","en","as04co18","null","","","","","","","","learning/Slide157.JPG","null","","","","",""
"","html-keyboard-response","478","710239","0.0-8.0-2.76","LF","zgrkqwru88","1440","900","en","as04co18","null","","","","learningBlock2","","","","<div style=""font-size:60px;""> </div>","null","LF","learning/Slide157.JPG","This is a dep:","",""
"","html-keyboard-response","479","711243","0.0-8.0-0.77","LF","zgrkqwru88","1440","900","en","as04co18","null","","","","learningBlock2","","","","This is a tob:","null","","","","",""
"","image-keyboard-response","480","711573","0.0-8.0-1.77","LF","zgrkqwru88","1440","900","en","as04co18","null","","","","","","","","learning/Slide158.JPG","null","","","","",""
"","html-keyboard-response","481","712577","0.0-8.0-2.77","LF","zgrkqwru88","1440","900","en","as04co18","null","","","","learningBlock2","","","","<div style=""font-size:60px;""> </div>","null","LF","learning/Slide158.JPG","This is a tob:","",""
"","html-keyboard-response","482","713581","0.0-8.0-0.78","LF","zgrkqwru88","1440","900","en","as04co18","null","","","","learningBlock2","","","","This is a dep:","null","","","","",""
"","image-keyboard-response","483","713915","0.0-8.0-1.78","LF","zgrkqwru88","1440","900","en","as04co18","null","","","","","","","","learning/Slide159.JPG","null","","","","",""
"","html-keyboard-response","484","714919","0.0-8.0-2.78","LF","zgrkqwru88","1440","900","en","as04co18","null","","","","learningBlock2","","","","<div style=""font-size:60px;""> </div>","null","LF","learning/Slide159.JPG","This is a dep:","",""
"","html-keyboard-response","485","715923","0.0-8.0-0.79","LF","zgrkqwru88","1440","900","en","as04co18","null","","","","learningBlock2","","","","This is a wug:","null","","","","",""
"","image-keyboard-response","486","716255","0.0-8.0-1.79","LF","zgrkqwru88","1440","900","en","as04co18","null","","","","","","","","learning/Slide160.JPG","null","","","","",""
"","html-keyboard-response","487","717256","0.0-8.0-2.79","LF","zgrkqwru88","1440","900","en","as04co18","null","","","","learningBlock2","","","","<div style=""font-size:60px;""> </div>","null","LF","learning/Slide160.JPG","This is a wug:","",""
"","resize2","488","723241","0.0-9.0","LF","zgrkqwru88","1440","900","en","as04co18","","","","","","","104","1.04","","","","","","",""
"","instructions","489","733122","0.0-10.0","LF","zgrkqwru88","1440","900","en","as04co18","NA","","","[{""page_index"":0,""viewing_time"":9880.290000000969}]","instructions","","","","","","","","","",""
