"success","trial_type","trial_index","time_elapsed","internal_node_id","condition","subject","screen_width","screen_height","language","codeword","rt","responses","url","view_history","test_part","final_height_px","final_width_px","scale_factor","stimulus","key_press","learningType","presentedImage","presentedLabel","button_pressed","response"
"true","fullscreen","0","5168","0.0-0.0","FL","po0zyzo9vq","1440","900","de","we06ed23","","","","","","","","","","","","","","",""
"","survey-html-form","1","16423","0.0-1.0","FL","po0zyzo9vq","1440","900","de","we06ed23","11249.69999999999","{""language"":""de""}","","","","","","","","","","","","",""
"","external-html","2","72314","0.0-2.0-0.0","FL","po0zyzo9vq","1440","900","de","we06ed23","55767.32500000001","","text/information.html","","","","","","","","","","","",""
"","external-html","3","91959","0.0-2.0-1.0","FL","po0zyzo9vq","1440","900","de","we06ed23","19513.00999999998","","text/consent.html","","","","","","","","","","","",""
"","survey-html-form","4","151903","0.0-2.0-2.0","FL","po0zyzo9vq","1440","900","de","we06ed23","59941.67500000002","{""codeword_enter"":""we06ed23""}","","","","","","","","","","","","",""
"","instructions","5","174956","0.0-4.0","FL","po0zyzo9vq","1440","900","de","we06ed23","NA","","","[{""page_index"":0,""viewing_time"":5764.50999999998},{""page_index"":1,""viewing_time"":15780.75000000003}]","instructions","","","","","","","","","",""
"","resize","6","236839","0.0-5.0","FL","po0zyzo9vq","1440","900","de","we06ed23","","","","","","","430","2.7301587301587302","","","","","","",""
"","image-keyboard-response","7","237023","0.0-6.0-0.0","FL","po0zyzo9vq","1440","900","de","we06ed23","null","","","","","","","","learning/Slide1.JPG","null","","","","",""
"","html-keyboard-response","8","238185","0.0-6.0-1.0","FL","po0zyzo9vq","1440","900","de","we06ed23","null","","","","learningBlock1","","","","That was a tob.","null","","","","",""
"","html-keyboard-response","9","239191","0.0-6.0-2.0","FL","po0zyzo9vq","1440","900","de","we06ed23","null","","","","learningBlock1","","","","<div style=""font-size:60px;""> </div>","null","FL","learning/Slide1.JPG","That was a tob.","",""
"","image-keyboard-response","10","239373","0.0-6.0-0.1","FL","po0zyzo9vq","1440","900","de","we06ed23","null","","","","","","","","learning/Slide2.JPG","null","","","","",""
"","html-keyboard-response","11","240535","0.0-6.0-1.1","FL","po0zyzo9vq","1440","900","de","we06ed23","null","","","","learningBlock1","","","","That was a wug.","null","","","","",""
"","html-keyboard-response","12","241541","0.0-6.0-2.1","FL","po0zyzo9vq","1440","900","de","we06ed23","null","","","","learningBlock1","","","","<div style=""font-size:60px;""> </div>","null","FL","learning/Slide2.JPG","That was a wug.","",""
"","image-keyboard-response","13","241723","0.0-6.0-0.2","FL","po0zyzo9vq","1440","900","de","we06ed23","null","","","","","","","","learning/Slide3.JPG","null","","","","",""
"","html-keyboard-response","14","242882","0.0-6.0-1.2","FL","po0zyzo9vq","1440","900","de","we06ed23","null","","","","learningBlock1","","","","That was a bim.","null","","","","",""
"","html-keyboard-response","15","243888","0.0-6.0-2.2","FL","po0zyzo9vq","1440","900","de","we06ed23","null","","","","learningBlock1","","","","<div style=""font-size:60px;""> </div>","null","FL","learning/Slide3.JPG","That was a bim.","",""
"","image-keyboard-response","16","244070","0.0-6.0-0.3","FL","po0zyzo9vq","1440","900","de","we06ed23","null","","","","","","","","learning/Slide4.JPG","null","","","","",""
"","html-keyboard-response","17","245232","0.0-6.0-1.3","FL","po0zyzo9vq","1440","900","de","we06ed23","null","","","","learningBlock1","","","","That was a dep.","null","","","","",""
"","html-keyboard-response","18","246238","0.0-6.0-2.3","FL","po0zyzo9vq","1440","900","de","we06ed23","null","","","","learningBlock1","","","","<div style=""font-size:60px;""> </div>","null","FL","learning/Slide4.JPG","That was a dep.","",""
"","image-keyboard-response","19","246416","0.0-6.0-0.4","FL","po0zyzo9vq","1440","900","de","we06ed23","null","","","","","","","","learning/Slide5.JPG","null","","","","",""
"","html-keyboard-response","20","247578","0.0-6.0-1.4","FL","po0zyzo9vq","1440","900","de","we06ed23","null","","","","learningBlock1","","","","That was a wug.","null","","","","",""
"","html-keyboard-response","21","248583","0.0-6.0-2.4","FL","po0zyzo9vq","1440","900","de","we06ed23","null","","","","learningBlock1","","","","<div style=""font-size:60px;""> </div>","null","FL","learning/Slide5.JPG","That was a wug.","",""
"","image-keyboard-response","22","248760","0.0-6.0-0.5","FL","po0zyzo9vq","1440","900","de","we06ed23","null","","","","","","","","learning/Slide6.JPG","null","","","","",""
"","html-keyboard-response","23","249922","0.0-6.0-1.5","FL","po0zyzo9vq","1440","900","de","we06ed23","null","","","","learningBlock1","","","","That was a dep.","null","","","","",""
"","html-keyboard-response","24","250928","0.0-6.0-2.5","FL","po0zyzo9vq","1440","900","de","we06ed23","null","","","","learningBlock1","","","","<div style=""font-size:60px;""> </div>","null","FL","learning/Slide6.JPG","That was a dep.","",""
"","image-keyboard-response","25","251110","0.0-6.0-0.6","FL","po0zyzo9vq","1440","900","de","we06ed23","null","","","","","","","","learning/Slide7.JPG","null","","","","",""
"","html-keyboard-response","26","252271","0.0-6.0-1.6","FL","po0zyzo9vq","1440","900","de","we06ed23","null","","","","learningBlock1","","","","That was a wug.","null","","","","",""
"","html-keyboard-response","27","253277","0.0-6.0-2.6","FL","po0zyzo9vq","1440","900","de","we06ed23","null","","","","learningBlock1","","","","<div style=""font-size:60px;""> </div>","null","FL","learning/Slide7.JPG","That was a wug.","",""
"","image-keyboard-response","28","253459","0.0-6.0-0.7","FL","po0zyzo9vq","1440","900","de","we06ed23","null","","","","","","","","learning/Slide8.JPG","null","","","","",""
"","html-keyboard-response","29","254616","0.0-6.0-1.7","FL","po0zyzo9vq","1440","900","de","we06ed23","null","","","","learningBlock1","","","","That was a bim.","null","","","","",""
"","html-keyboard-response","30","255623","0.0-6.0-2.7","FL","po0zyzo9vq","1440","900","de","we06ed23","null","","","","learningBlock1","","","","<div style=""font-size:60px;""> </div>","null","FL","learning/Slide8.JPG","That was a bim.","",""
"","image-keyboard-response","31","255804","0.0-6.0-0.8","FL","po0zyzo9vq","1440","900","de","we06ed23","null","","","","","","","","learning/Slide9.JPG","null","","","","",""
"","html-keyboard-response","32","256958","0.0-6.0-1.8","FL","po0zyzo9vq","1440","900","de","we06ed23","null","","","","learningBlock1","","","","That was a wug.","null","","","","",""
"","html-keyboard-response","33","257965","0.0-6.0-2.8","FL","po0zyzo9vq","1440","900","de","we06ed23","null","","","","learningBlock1","","","","<div style=""font-size:60px;""> </div>","null","FL","learning/Slide9.JPG","That was a wug.","",""
"","image-keyboard-response","34","258152","0.0-6.0-0.9","FL","po0zyzo9vq","1440","900","de","we06ed23","null","","","","","","","","learning/Slide10.JPG","null","","","","",""
"","html-keyboard-response","35","259310","0.0-6.0-1.9","FL","po0zyzo9vq","1440","900","de","we06ed23","null","","","","learningBlock1","","","","That was a dep.","null","","","","",""
"","html-keyboard-response","36","260316","0.0-6.0-2.9","FL","po0zyzo9vq","1440","900","de","we06ed23","null","","","","learningBlock1","","","","<div style=""font-size:60px;""> </div>","null","FL","learning/Slide10.JPG","That was a dep.","",""
"","image-keyboard-response","37","260498","0.0-6.0-0.10","FL","po0zyzo9vq","1440","900","de","we06ed23","null","","","","","","","","learning/Slide11.JPG","null","","","","",""
"","html-keyboard-response","38","261659","0.0-6.0-1.10","FL","po0zyzo9vq","1440","900","de","we06ed23","null","","","","learningBlock1","","","","That was a tob.","null","","","","",""
"","html-keyboard-response","39","262665","0.0-6.0-2.10","FL","po0zyzo9vq","1440","900","de","we06ed23","null","","","","learningBlock1","","","","<div style=""font-size:60px;""> </div>","null","FL","learning/Slide11.JPG","That was a tob.","",""
"","image-keyboard-response","40","262847","0.0-6.0-0.11","FL","po0zyzo9vq","1440","900","de","we06ed23","null","","","","","","","","learning/Slide12.JPG","null","","","","",""
"","html-keyboard-response","41","264009","0.0-6.0-1.11","FL","po0zyzo9vq","1440","900","de","we06ed23","null","","","","learningBlock1","","","","That was a dep.","null","","","","",""
"","html-keyboard-response","42","265016","0.0-6.0-2.11","FL","po0zyzo9vq","1440","900","de","we06ed23","null","","","","learningBlock1","","","","<div style=""font-size:60px;""> </div>","null","FL","learning/Slide12.JPG","That was a dep.","",""
"","image-keyboard-response","43","265198","0.0-6.0-0.12","FL","po0zyzo9vq","1440","900","de","we06ed23","null","","","","","","","","learning/Slide13.JPG","null","","","","",""
"","html-keyboard-response","44","266359","0.0-6.0-1.12","FL","po0zyzo9vq","1440","900","de","we06ed23","null","","","","learningBlock1","","","","That was a bim.","null","","","","",""
"","html-keyboard-response","45","267366","0.0-6.0-2.12","FL","po0zyzo9vq","1440","900","de","we06ed23","null","","","","learningBlock1","","","","<div style=""font-size:60px;""> </div>","null","FL","learning/Slide13.JPG","That was a bim.","",""
"","image-keyboard-response","46","267544","0.0-6.0-0.13","FL","po0zyzo9vq","1440","900","de","we06ed23","null","","","","","","","","learning/Slide14.JPG","null","","","","",""
"","html-keyboard-response","47","268701","0.0-6.0-1.13","FL","po0zyzo9vq","1440","900","de","we06ed23","null","","","","learningBlock1","","","","That was a wug.","null","","","","",""
"","html-keyboard-response","48","269707","0.0-6.0-2.13","FL","po0zyzo9vq","1440","900","de","we06ed23","null","","","","learningBlock1","","","","<div style=""font-size:60px;""> </div>","null","FL","learning/Slide14.JPG","That was a wug.","",""
"","image-keyboard-response","49","269889","0.0-6.0-0.14","FL","po0zyzo9vq","1440","900","de","we06ed23","null","","","","","","","","learning/Slide15.JPG","null","","","","",""
"","html-keyboard-response","50","271046","0.0-6.0-1.14","FL","po0zyzo9vq","1440","900","de","we06ed23","null","","","","learningBlock1","","","","That was a tob.","null","","","","",""
"","html-keyboard-response","51","272052","0.0-6.0-2.14","FL","po0zyzo9vq","1440","900","de","we06ed23","null","","","","learningBlock1","","","","<div style=""font-size:60px;""> </div>","null","FL","learning/Slide15.JPG","That was a tob.","",""
"","image-keyboard-response","52","272229","0.0-6.0-0.15","FL","po0zyzo9vq","1440","900","de","we06ed23","null","","","","","","","","learning/Slide16.JPG","null","","","","",""
"","html-keyboard-response","53","273390","0.0-6.0-1.15","FL","po0zyzo9vq","1440","900","de","we06ed23","null","","","","learningBlock1","","","","That was a dep.","null","","","","",""
"","html-keyboard-response","54","274396","0.0-6.0-2.15","FL","po0zyzo9vq","1440","900","de","we06ed23","null","","","","learningBlock1","","","","<div style=""font-size:60px;""> </div>","null","FL","learning/Slide16.JPG","That was a dep.","",""
"","image-keyboard-response","55","274576","0.0-6.0-0.16","FL","po0zyzo9vq","1440","900","de","we06ed23","null","","","","","","","","learning/Slide17.JPG","null","","","","",""
"","html-keyboard-response","56","275736","0.0-6.0-1.16","FL","po0zyzo9vq","1440","900","de","we06ed23","null","","","","learningBlock1","","","","That was a bim.","null","","","","",""
"","html-keyboard-response","57","276742","0.0-6.0-2.16","FL","po0zyzo9vq","1440","900","de","we06ed23","null","","","","learningBlock1","","","","<div style=""font-size:60px;""> </div>","null","FL","learning/Slide17.JPG","That was a bim.","",""
"","image-keyboard-response","58","276924","0.0-6.0-0.17","FL","po0zyzo9vq","1440","900","de","we06ed23","null","","","","","","","","learning/Slide18.JPG","null","","","","",""
"","html-keyboard-response","59","278086","0.0-6.0-1.17","FL","po0zyzo9vq","1440","900","de","we06ed23","null","","","","learningBlock1","","","","That was a tob.","null","","","","",""
"","html-keyboard-response","60","279092","0.0-6.0-2.17","FL","po0zyzo9vq","1440","900","de","we06ed23","null","","","","learningBlock1","","","","<div style=""font-size:60px;""> </div>","null","FL","learning/Slide18.JPG","That was a tob.","",""
"","image-keyboard-response","61","279273","0.0-6.0-0.18","FL","po0zyzo9vq","1440","900","de","we06ed23","null","","","","","","","","learning/Slide19.JPG","null","","","","",""
"","html-keyboard-response","62","280435","0.0-6.0-1.18","FL","po0zyzo9vq","1440","900","de","we06ed23","null","","","","learningBlock1","","","","That was a wug.","null","","","","",""
"","html-keyboard-response","63","281441","0.0-6.0-2.18","FL","po0zyzo9vq","1440","900","de","we06ed23","null","","","","learningBlock1","","","","<div style=""font-size:60px;""> </div>","null","FL","learning/Slide19.JPG","That was a wug.","",""
"","image-keyboard-response","64","281619","0.0-6.0-0.19","FL","po0zyzo9vq","1440","900","de","we06ed23","null","","","","","","","","learning/Slide20.JPG","null","","","","",""
"","html-keyboard-response","65","282776","0.0-6.0-1.19","FL","po0zyzo9vq","1440","900","de","we06ed23","null","","","","learningBlock1","","","","That was a bim.","null","","","","",""
"","html-keyboard-response","66","283782","0.0-6.0-2.19","FL","po0zyzo9vq","1440","900","de","we06ed23","null","","","","learningBlock1","","","","<div style=""font-size:60px;""> </div>","null","FL","learning/Slide20.JPG","That was a bim.","",""
"","image-keyboard-response","67","283964","0.0-6.0-0.20","FL","po0zyzo9vq","1440","900","de","we06ed23","null","","","","","","","","learning/Slide21.JPG","null","","","","",""
"","html-keyboard-response","68","285126","0.0-6.0-1.20","FL","po0zyzo9vq","1440","900","de","we06ed23","null","","","","learningBlock1","","","","That was a dep.","null","","","","",""
"","html-keyboard-response","69","286136","0.0-6.0-2.20","FL","po0zyzo9vq","1440","900","de","we06ed23","null","","","","learningBlock1","","","","<div style=""font-size:60px;""> </div>","null","FL","learning/Slide21.JPG","That was a dep.","",""
"","image-keyboard-response","70","286317","0.0-6.0-0.21","FL","po0zyzo9vq","1440","900","de","we06ed23","null","","","","","","","","learning/Slide22.JPG","null","","","","",""
"","html-keyboard-response","71","287479","0.0-6.0-1.21","FL","po0zyzo9vq","1440","900","de","we06ed23","null","","","","learningBlock1","","","","That was a bim.","null","","","","",""
"","html-keyboard-response","72","288486","0.0-6.0-2.21","FL","po0zyzo9vq","1440","900","de","we06ed23","null","","","","learningBlock1","","","","<div style=""font-size:60px;""> </div>","null","FL","learning/Slide22.JPG","That was a bim.","",""
"","image-keyboard-response","73","288667","0.0-6.0-0.22","FL","po0zyzo9vq","1440","900","de","we06ed23","null","","","","","","","","learning/Slide23.JPG","null","","","","",""
"","html-keyboard-response","74","289829","0.0-6.0-1.22","FL","po0zyzo9vq","1440","900","de","we06ed23","null","","","","learningBlock1","","","","That was a tob.","null","","","","",""
"","html-keyboard-response","75","290835","0.0-6.0-2.22","FL","po0zyzo9vq","1440","900","de","we06ed23","null","","","","learningBlock1","","","","<div style=""font-size:60px;""> </div>","null","FL","learning/Slide23.JPG","That was a tob.","",""
"","image-keyboard-response","76","291016","0.0-6.0-0.23","FL","po0zyzo9vq","1440","900","de","we06ed23","null","","","","","","","","learning/Slide24.JPG","null","","","","",""
"","html-keyboard-response","77","292175","0.0-6.0-1.23","FL","po0zyzo9vq","1440","900","de","we06ed23","null","","","","learningBlock1","","","","That was a wug.","null","","","","",""
"","html-keyboard-response","78","293182","0.0-6.0-2.23","FL","po0zyzo9vq","1440","900","de","we06ed23","null","","","","learningBlock1","","","","<div style=""font-size:60px;""> </div>","null","FL","learning/Slide24.JPG","That was a wug.","",""
"","image-keyboard-response","79","293364","0.0-6.0-0.24","FL","po0zyzo9vq","1440","900","de","we06ed23","null","","","","","","","","learning/Slide25.JPG","null","","","","",""
"","html-keyboard-response","80","294519","0.0-6.0-1.24","FL","po0zyzo9vq","1440","900","de","we06ed23","null","","","","learningBlock1","","","","That was a dep.","null","","","","",""
"","html-keyboard-response","81","295523","0.0-6.0-2.24","FL","po0zyzo9vq","1440","900","de","we06ed23","null","","","","learningBlock1","","","","<div style=""font-size:60px;""> </div>","null","FL","learning/Slide25.JPG","That was a dep.","",""
"","image-keyboard-response","82","295700","0.0-6.0-0.25","FL","po0zyzo9vq","1440","900","de","we06ed23","null","","","","","","","","learning/Slide26.JPG","null","","","","",""
"","html-keyboard-response","83","296862","0.0-6.0-1.25","FL","po0zyzo9vq","1440","900","de","we06ed23","null","","","","learningBlock1","","","","That was a wug.","null","","","","",""
"","html-keyboard-response","84","297866","0.0-6.0-2.25","FL","po0zyzo9vq","1440","900","de","we06ed23","null","","","","learningBlock1","","","","<div style=""font-size:60px;""> </div>","null","FL","learning/Slide26.JPG","That was a wug.","",""
"","image-keyboard-response","85","298048","0.0-6.0-0.26","FL","po0zyzo9vq","1440","900","de","we06ed23","null","","","","","","","","learning/Slide27.JPG","null","","","","",""
"","html-keyboard-response","86","299209","0.0-6.0-1.26","FL","po0zyzo9vq","1440","900","de","we06ed23","null","","","","learningBlock1","","","","That was a bim.","null","","","","",""
"","html-keyboard-response","87","300215","0.0-6.0-2.26","FL","po0zyzo9vq","1440","900","de","we06ed23","null","","","","learningBlock1","","","","<div style=""font-size:60px;""> </div>","null","FL","learning/Slide27.JPG","That was a bim.","",""
"","image-keyboard-response","88","300397","0.0-6.0-0.27","FL","po0zyzo9vq","1440","900","de","we06ed23","null","","","","","","","","learning/Slide28.JPG","null","","","","",""
"","html-keyboard-response","89","301554","0.0-6.0-1.27","FL","po0zyzo9vq","1440","900","de","we06ed23","null","","","","learningBlock1","","","","That was a dep.","null","","","","",""
"","html-keyboard-response","90","302560","0.0-6.0-2.27","FL","po0zyzo9vq","1440","900","de","we06ed23","null","","","","learningBlock1","","","","<div style=""font-size:60px;""> </div>","null","FL","learning/Slide28.JPG","That was a dep.","",""
"","image-keyboard-response","91","302742","0.0-6.0-0.28","FL","po0zyzo9vq","1440","900","de","we06ed23","null","","","","","","","","learning/Slide29.JPG","null","","","","",""
"","html-keyboard-response","92","303903","0.0-6.0-1.28","FL","po0zyzo9vq","1440","900","de","we06ed23","null","","","","learningBlock1","","","","That was a tob.","null","","","","",""
"","html-keyboard-response","93","304910","0.0-6.0-2.28","FL","po0zyzo9vq","1440","900","de","we06ed23","null","","","","learningBlock1","","","","<div style=""font-size:60px;""> </div>","null","FL","learning/Slide29.JPG","That was a tob.","",""
"","image-keyboard-response","94","305091","0.0-6.0-0.29","FL","po0zyzo9vq","1440","900","de","we06ed23","null","","","","","","","","learning/Slide30.JPG","null","","","","",""
"","html-keyboard-response","95","306253","0.0-6.0-1.29","FL","po0zyzo9vq","1440","900","de","we06ed23","null","","","","learningBlock1","","","","That was a dep.","null","","","","",""
"","html-keyboard-response","96","307259","0.0-6.0-2.29","FL","po0zyzo9vq","1440","900","de","we06ed23","null","","","","learningBlock1","","","","<div style=""font-size:60px;""> </div>","null","FL","learning/Slide30.JPG","That was a dep.","",""
"","image-keyboard-response","97","307441","0.0-6.0-0.30","FL","po0zyzo9vq","1440","900","de","we06ed23","null","","","","","","","","learning/Slide31.JPG","null","","","","",""
"","html-keyboard-response","98","308597","0.0-6.0-1.30","FL","po0zyzo9vq","1440","900","de","we06ed23","null","","","","learningBlock1","","","","That was a wug.","null","","","","",""
"","html-keyboard-response","99","309598","0.0-6.0-2.30","FL","po0zyzo9vq","1440","900","de","we06ed23","null","","","","learningBlock1","","","","<div style=""font-size:60px;""> </div>","null","FL","learning/Slide31.JPG","That was a wug.","",""
"","image-keyboard-response","100","309778","0.0-6.0-0.31","FL","po0zyzo9vq","1440","900","de","we06ed23","null","","","","","","","","learning/Slide32.JPG","null","","","","",""
"","html-keyboard-response","101","310940","0.0-6.0-1.31","FL","po0zyzo9vq","1440","900","de","we06ed23","null","","","","learningBlock1","","","","That was a tob.","null","","","","",""
"","html-keyboard-response","102","311942","0.0-6.0-2.31","FL","po0zyzo9vq","1440","900","de","we06ed23","null","","","","learningBlock1","","","","<div style=""font-size:60px;""> </div>","null","FL","learning/Slide32.JPG","That was a tob.","",""
"","image-keyboard-response","103","312123","0.0-6.0-0.32","FL","po0zyzo9vq","1440","900","de","we06ed23","null","","","","","","","","learning/Slide33.JPG","null","","","","",""
"","html-keyboard-response","104","313284","0.0-6.0-1.32","FL","po0zyzo9vq","1440","900","de","we06ed23","null","","","","learningBlock1","","","","That was a bim.","null","","","","",""
"","html-keyboard-response","105","314290","0.0-6.0-2.32","FL","po0zyzo9vq","1440","900","de","we06ed23","null","","","","learningBlock1","","","","<div style=""font-size:60px;""> </div>","null","FL","learning/Slide33.JPG","That was a bim.","",""
"","image-keyboard-response","106","314472","0.0-6.0-0.33","FL","po0zyzo9vq","1440","900","de","we06ed23","null","","","","","","","","learning/Slide34.JPG","null","","","","",""
"","html-keyboard-response","107","315633","0.0-6.0-1.33","FL","po0zyzo9vq","1440","900","de","we06ed23","null","","","","learningBlock1","","","","That was a tob.","null","","","","",""
"","html-keyboard-response","108","316638","0.0-6.0-2.33","FL","po0zyzo9vq","1440","900","de","we06ed23","null","","","","learningBlock1","","","","<div style=""font-size:60px;""> </div>","null","FL","learning/Slide34.JPG","That was a tob.","",""
"","image-keyboard-response","109","316815","0.0-6.0-0.34","FL","po0zyzo9vq","1440","900","de","we06ed23","null","","","","","","","","learning/Slide35.JPG","null","","","","",""
"","html-keyboard-response","110","317977","0.0-6.0-1.34","FL","po0zyzo9vq","1440","900","de","we06ed23","null","","","","learningBlock1","","","","That was a bim.","null","","","","",""
"","html-keyboard-response","111","318984","0.0-6.0-2.34","FL","po0zyzo9vq","1440","900","de","we06ed23","null","","","","learningBlock1","","","","<div style=""font-size:60px;""> </div>","null","FL","learning/Slide35.JPG","That was a bim.","",""
"","image-keyboard-response","112","319165","0.0-6.0-0.35","FL","po0zyzo9vq","1440","900","de","we06ed23","null","","","","","","","","learning/Slide36.JPG","null","","","","",""
"","html-keyboard-response","113","320327","0.0-6.0-1.35","FL","po0zyzo9vq","1440","900","de","we06ed23","null","","","","learningBlock1","","","","That was a dep.","null","","","","",""
"","html-keyboard-response","114","321333","0.0-6.0-2.35","FL","po0zyzo9vq","1440","900","de","we06ed23","null","","","","learningBlock1","","","","<div style=""font-size:60px;""> </div>","null","FL","learning/Slide36.JPG","That was a dep.","",""
"","image-keyboard-response","115","321515","0.0-6.0-0.36","FL","po0zyzo9vq","1440","900","de","we06ed23","null","","","","","","","","learning/Slide37.JPG","null","","","","",""
"","html-keyboard-response","116","322677","0.0-6.0-1.36","FL","po0zyzo9vq","1440","900","de","we06ed23","null","","","","learningBlock1","","","","That was a tob.","null","","","","",""
"","html-keyboard-response","117","323683","0.0-6.0-2.36","FL","po0zyzo9vq","1440","900","de","we06ed23","null","","","","learningBlock1","","","","<div style=""font-size:60px;""> </div>","null","FL","learning/Slide37.JPG","That was a tob.","",""
"","image-keyboard-response","118","323865","0.0-6.0-0.37","FL","po0zyzo9vq","1440","900","de","we06ed23","null","","","","","","","","learning/Slide38.JPG","null","","","","",""
"","html-keyboard-response","119","325026","0.0-6.0-1.37","FL","po0zyzo9vq","1440","900","de","we06ed23","null","","","","learningBlock1","","","","That was a wug.","null","","","","",""
"","html-keyboard-response","120","326032","0.0-6.0-2.37","FL","po0zyzo9vq","1440","900","de","we06ed23","null","","","","learningBlock1","","","","<div style=""font-size:60px;""> </div>","null","FL","learning/Slide38.JPG","That was a wug.","",""
"","image-keyboard-response","121","326214","0.0-6.0-0.38","FL","po0zyzo9vq","1440","900","de","we06ed23","null","","","","","","","","learning/Slide39.JPG","null","","","","",""
"","html-keyboard-response","122","327376","0.0-6.0-1.38","FL","po0zyzo9vq","1440","900","de","we06ed23","null","","","","learningBlock1","","","","That was a bim.","null","","","","",""
"","html-keyboard-response","123","328379","0.0-6.0-2.38","FL","po0zyzo9vq","1440","900","de","we06ed23","null","","","","learningBlock1","","","","<div style=""font-size:60px;""> </div>","null","FL","learning/Slide39.JPG","That was a bim.","",""
"","image-keyboard-response","124","328561","0.0-6.0-0.39","FL","po0zyzo9vq","1440","900","de","we06ed23","null","","","","","","","","learning/Slide40.JPG","null","","","","",""
"","html-keyboard-response","125","329723","0.0-6.0-1.39","FL","po0zyzo9vq","1440","900","de","we06ed23","null","","","","learningBlock1","","","","That was a tob.","null","","","","",""
"","html-keyboard-response","126","330729","0.0-6.0-2.39","FL","po0zyzo9vq","1440","900","de","we06ed23","null","","","","learningBlock1","","","","<div style=""font-size:60px;""> </div>","null","FL","learning/Slide40.JPG","That was a tob.","",""
"","image-keyboard-response","127","330906","0.0-6.0-0.40","FL","po0zyzo9vq","1440","900","de","we06ed23","null","","","","","","","","learning/Slide41.JPG","null","","","","",""
"","html-keyboard-response","128","332065","0.0-6.0-1.40","FL","po0zyzo9vq","1440","900","de","we06ed23","null","","","","learningBlock1","","","","That was a bim.","null","","","","",""
"","html-keyboard-response","129","333069","0.0-6.0-2.40","FL","po0zyzo9vq","1440","900","de","we06ed23","null","","","","learningBlock1","","","","<div style=""font-size:60px;""> </div>","null","FL","learning/Slide41.JPG","That was a bim.","",""
"","image-keyboard-response","130","333248","0.0-6.0-0.41","FL","po0zyzo9vq","1440","900","de","we06ed23","null","","","","","","","","learning/Slide42.JPG","null","","","","",""
"","html-keyboard-response","131","334410","0.0-6.0-1.41","FL","po0zyzo9vq","1440","900","de","we06ed23","null","","","","learningBlock1","","","","That was a dep.","null","","","","",""
"","html-keyboard-response","132","335416","0.0-6.0-2.41","FL","po0zyzo9vq","1440","900","de","we06ed23","null","","","","learningBlock1","","","","<div style=""font-size:60px;""> </div>","null","FL","learning/Slide42.JPG","That was a dep.","",""
"","image-keyboard-response","133","335598","0.0-6.0-0.42","FL","po0zyzo9vq","1440","900","de","we06ed23","null","","","","","","","","learning/Slide43.JPG","null","","","","",""
"","html-keyboard-response","134","336755","0.0-6.0-1.42","FL","po0zyzo9vq","1440","900","de","we06ed23","null","","","","learningBlock1","","","","That was a wug.","null","","","","",""
"","html-keyboard-response","135","337759","0.0-6.0-2.42","FL","po0zyzo9vq","1440","900","de","we06ed23","null","","","","learningBlock1","","","","<div style=""font-size:60px;""> </div>","null","FL","learning/Slide43.JPG","That was a wug.","",""
"","image-keyboard-response","136","337941","0.0-6.0-0.43","FL","po0zyzo9vq","1440","900","de","we06ed23","null","","","","","","","","learning/Slide44.JPG","null","","","","",""
"","html-keyboard-response","137","339097","0.0-6.0-1.43","FL","po0zyzo9vq","1440","900","de","we06ed23","null","","","","learningBlock1","","","","That was a bim.","null","","","","",""
"","html-keyboard-response","138","340103","0.0-6.0-2.43","FL","po0zyzo9vq","1440","900","de","we06ed23","null","","","","learningBlock1","","","","<div style=""font-size:60px;""> </div>","null","FL","learning/Slide44.JPG","That was a bim.","",""
"","image-keyboard-response","139","340285","0.0-6.0-0.44","FL","po0zyzo9vq","1440","900","de","we06ed23","null","","","","","","","","learning/Slide45.JPG","null","","","","",""
"","html-keyboard-response","140","341445","0.0-6.0-1.44","FL","po0zyzo9vq","1440","900","de","we06ed23","null","","","","learningBlock1","","","","That was a wug.","null","","","","",""
"","html-keyboard-response","141","342451","0.0-6.0-2.44","FL","po0zyzo9vq","1440","900","de","we06ed23","null","","","","learningBlock1","","","","<div style=""font-size:60px;""> </div>","null","FL","learning/Slide45.JPG","That was a wug.","",""
"","image-keyboard-response","142","342633","0.0-6.0-0.45","FL","po0zyzo9vq","1440","900","de","we06ed23","null","","","","","","","","learning/Slide46.JPG","null","","","","",""
"","html-keyboard-response","143","343794","0.0-6.0-1.45","FL","po0zyzo9vq","1440","900","de","we06ed23","null","","","","learningBlock1","","","","That was a dep.","null","","","","",""
"","html-keyboard-response","144","344800","0.0-6.0-2.45","FL","po0zyzo9vq","1440","900","de","we06ed23","null","","","","learningBlock1","","","","<div style=""font-size:60px;""> </div>","null","FL","learning/Slide46.JPG","That was a dep.","",""
"","image-keyboard-response","145","344982","0.0-6.0-0.46","FL","po0zyzo9vq","1440","900","de","we06ed23","null","","","","","","","","learning/Slide47.JPG","null","","","","",""
"","html-keyboard-response","146","346138","0.0-6.0-1.46","FL","po0zyzo9vq","1440","900","de","we06ed23","null","","","","learningBlock1","","","","That was a tob.","null","","","","",""
"","html-keyboard-response","147","347144","0.0-6.0-2.46","FL","po0zyzo9vq","1440","900","de","we06ed23","null","","","","learningBlock1","","","","<div style=""font-size:60px;""> </div>","null","FL","learning/Slide47.JPG","That was a tob.","",""
"","image-keyboard-response","148","347326","0.0-6.0-0.47","FL","po0zyzo9vq","1440","900","de","we06ed23","null","","","","","","","","learning/Slide48.JPG","null","","","","",""
"","html-keyboard-response","149","348488","0.0-6.0-1.47","FL","po0zyzo9vq","1440","900","de","we06ed23","null","","","","learningBlock1","","","","That was a bim.","null","","","","",""
"","html-keyboard-response","150","349494","0.0-6.0-2.47","FL","po0zyzo9vq","1440","900","de","we06ed23","null","","","","learningBlock1","","","","<div style=""font-size:60px;""> </div>","null","FL","learning/Slide48.JPG","That was a bim.","",""
"","image-keyboard-response","151","349673","0.0-6.0-0.48","FL","po0zyzo9vq","1440","900","de","we06ed23","null","","","","","","","","learning/Slide49.JPG","null","","","","",""
"","html-keyboard-response","152","350835","0.0-6.0-1.48","FL","po0zyzo9vq","1440","900","de","we06ed23","null","","","","learningBlock1","","","","That was a dep.","null","","","","",""
"","html-keyboard-response","153","351841","0.0-6.0-2.48","FL","po0zyzo9vq","1440","900","de","we06ed23","null","","","","learningBlock1","","","","<div style=""font-size:60px;""> </div>","null","FL","learning/Slide49.JPG","That was a dep.","",""
"","image-keyboard-response","154","352023","0.0-6.0-0.49","FL","po0zyzo9vq","1440","900","de","we06ed23","null","","","","","","","","learning/Slide50.JPG","null","","","","",""
"","html-keyboard-response","155","353182","0.0-6.0-1.49","FL","po0zyzo9vq","1440","900","de","we06ed23","null","","","","learningBlock1","","","","That was a tob.","null","","","","",""
"","html-keyboard-response","156","354189","0.0-6.0-2.49","FL","po0zyzo9vq","1440","900","de","we06ed23","null","","","","learningBlock1","","","","<div style=""font-size:60px;""> </div>","null","FL","learning/Slide50.JPG","That was a tob.","",""
"","image-keyboard-response","157","354370","0.0-6.0-0.50","FL","po0zyzo9vq","1440","900","de","we06ed23","null","","","","","","","","learning/Slide51.JPG","null","","","","",""
"","html-keyboard-response","158","355532","0.0-6.0-1.50","FL","po0zyzo9vq","1440","900","de","we06ed23","null","","","","learningBlock1","","","","That was a bim.","null","","","","",""
"","html-keyboard-response","159","356539","0.0-6.0-2.50","FL","po0zyzo9vq","1440","900","de","we06ed23","null","","","","learningBlock1","","","","<div style=""font-size:60px;""> </div>","null","FL","learning/Slide51.JPG","That was a bim.","",""
"","image-keyboard-response","160","356720","0.0-6.0-0.51","FL","po0zyzo9vq","1440","900","de","we06ed23","null","","","","","","","","learning/Slide52.JPG","null","","","","",""
"","html-keyboard-response","161","357882","0.0-6.0-1.51","FL","po0zyzo9vq","1440","900","de","we06ed23","null","","","","learningBlock1","","","","That was a wug.","null","","","","",""
"","html-keyboard-response","162","358888","0.0-6.0-2.51","FL","po0zyzo9vq","1440","900","de","we06ed23","null","","","","learningBlock1","","","","<div style=""font-size:60px;""> </div>","null","FL","learning/Slide52.JPG","That was a wug.","",""
"","image-keyboard-response","163","359070","0.0-6.0-0.52","FL","po0zyzo9vq","1440","900","de","we06ed23","null","","","","","","","","learning/Slide53.JPG","null","","","","",""
"","html-keyboard-response","164","360232","0.0-6.0-1.52","FL","po0zyzo9vq","1440","900","de","we06ed23","null","","","","learningBlock1","","","","That was a tob.","null","","","","",""
"","html-keyboard-response","165","361238","0.0-6.0-2.52","FL","po0zyzo9vq","1440","900","de","we06ed23","null","","","","learningBlock1","","","","<div style=""font-size:60px;""> </div>","null","FL","learning/Slide53.JPG","That was a tob.","",""
"","image-keyboard-response","166","361421","0.0-6.0-0.53","FL","po0zyzo9vq","1440","900","de","we06ed23","null","","","","","","","","learning/Slide54.JPG","null","","","","",""
"","html-keyboard-response","167","362583","0.0-6.0-1.53","FL","po0zyzo9vq","1440","900","de","we06ed23","null","","","","learningBlock1","","","","That was a dep.","null","","","","",""
"","html-keyboard-response","168","363589","0.0-6.0-2.53","FL","po0zyzo9vq","1440","900","de","we06ed23","null","","","","learningBlock1","","","","<div style=""font-size:60px;""> </div>","null","FL","learning/Slide54.JPG","That was a dep.","",""
"","image-keyboard-response","169","363771","0.0-6.0-0.54","FL","po0zyzo9vq","1440","900","de","we06ed23","null","","","","","","","","learning/Slide55.JPG","null","","","","",""
"","html-keyboard-response","170","364933","0.0-6.0-1.54","FL","po0zyzo9vq","1440","900","de","we06ed23","null","","","","learningBlock1","","","","That was a bim.","null","","","","",""
"","html-keyboard-response","171","365939","0.0-6.0-2.54","FL","po0zyzo9vq","1440","900","de","we06ed23","null","","","","learningBlock1","","","","<div style=""font-size:60px;""> </div>","null","FL","learning/Slide55.JPG","That was a bim.","",""
"","image-keyboard-response","172","366121","0.0-6.0-0.55","FL","po0zyzo9vq","1440","900","de","we06ed23","null","","","","","","","","learning/Slide56.JPG","null","","","","",""
"","html-keyboard-response","173","367283","0.0-6.0-1.55","FL","po0zyzo9vq","1440","900","de","we06ed23","null","","","","learningBlock1","","","","That was a tob.","null","","","","",""
"","html-keyboard-response","174","368285","0.0-6.0-2.55","FL","po0zyzo9vq","1440","900","de","we06ed23","null","","","","learningBlock1","","","","<div style=""font-size:60px;""> </div>","null","FL","learning/Slide56.JPG","That was a tob.","",""
"","image-keyboard-response","175","368467","0.0-6.0-0.56","FL","po0zyzo9vq","1440","900","de","we06ed23","null","","","","","","","","learning/Slide57.JPG","null","","","","",""
"","html-keyboard-response","176","369629","0.0-6.0-1.56","FL","po0zyzo9vq","1440","900","de","we06ed23","null","","","","learningBlock1","","","","That was a dep.","null","","","","",""
"","html-keyboard-response","177","370635","0.0-6.0-2.56","FL","po0zyzo9vq","1440","900","de","we06ed23","null","","","","learningBlock1","","","","<div style=""font-size:60px;""> </div>","null","FL","learning/Slide57.JPG","That was a dep.","",""
"","image-keyboard-response","178","370814","0.0-6.0-0.57","FL","po0zyzo9vq","1440","900","de","we06ed23","null","","","","","","","","learning/Slide58.JPG","null","","","","",""
"","html-keyboard-response","179","371976","0.0-6.0-1.57","FL","po0zyzo9vq","1440","900","de","we06ed23","null","","","","learningBlock1","","","","That was a wug.","null","","","","",""
"","html-keyboard-response","180","372983","0.0-6.0-2.57","FL","po0zyzo9vq","1440","900","de","we06ed23","null","","","","learningBlock1","","","","<div style=""font-size:60px;""> </div>","null","FL","learning/Slide58.JPG","That was a wug.","",""
"","image-keyboard-response","181","373161","0.0-6.0-0.58","FL","po0zyzo9vq","1440","900","de","we06ed23","null","","","","","","","","learning/Slide59.JPG","null","","","","",""
"","html-keyboard-response","182","374322","0.0-6.0-1.58","FL","po0zyzo9vq","1440","900","de","we06ed23","null","","","","learningBlock1","","","","That was a dep.","null","","","","",""
"","html-keyboard-response","183","375328","0.0-6.0-2.58","FL","po0zyzo9vq","1440","900","de","we06ed23","null","","","","learningBlock1","","","","<div style=""font-size:60px;""> </div>","null","FL","learning/Slide59.JPG","That was a dep.","",""
"","image-keyboard-response","184","375509","0.0-6.0-0.59","FL","po0zyzo9vq","1440","900","de","we06ed23","null","","","","","","","","learning/Slide60.JPG","null","","","","",""
"","html-keyboard-response","185","376669","0.0-6.0-1.59","FL","po0zyzo9vq","1440","900","de","we06ed23","null","","","","learningBlock1","","","","That was a wug.","null","","","","",""
"","html-keyboard-response","186","377676","0.0-6.0-2.59","FL","po0zyzo9vq","1440","900","de","we06ed23","null","","","","learningBlock1","","","","<div style=""font-size:60px;""> </div>","null","FL","learning/Slide60.JPG","That was a wug.","",""
"","image-keyboard-response","187","377855","0.0-6.0-0.60","FL","po0zyzo9vq","1440","900","de","we06ed23","null","","","","","","","","learning/Slide61.JPG","null","","","","",""
"","html-keyboard-response","188","379016","0.0-6.0-1.60","FL","po0zyzo9vq","1440","900","de","we06ed23","null","","","","learningBlock1","","","","That was a bim.","null","","","","",""
"","html-keyboard-response","189","380023","0.0-6.0-2.60","FL","po0zyzo9vq","1440","900","de","we06ed23","null","","","","learningBlock1","","","","<div style=""font-size:60px;""> </div>","null","FL","learning/Slide61.JPG","That was a bim.","",""
"","image-keyboard-response","190","380204","0.0-6.0-0.61","FL","po0zyzo9vq","1440","900","de","we06ed23","null","","","","","","","","learning/Slide62.JPG","null","","","","",""
"","html-keyboard-response","191","381362","0.0-6.0-1.61","FL","po0zyzo9vq","1440","900","de","we06ed23","null","","","","learningBlock1","","","","That was a dep.","null","","","","",""
"","html-keyboard-response","192","382368","0.0-6.0-2.61","FL","po0zyzo9vq","1440","900","de","we06ed23","null","","","","learningBlock1","","","","<div style=""font-size:60px;""> </div>","null","FL","learning/Slide62.JPG","That was a dep.","",""
"","image-keyboard-response","193","382550","0.0-6.0-0.62","FL","po0zyzo9vq","1440","900","de","we06ed23","null","","","","","","","","learning/Slide63.JPG","null","","","","",""
"","html-keyboard-response","194","383712","0.0-6.0-1.62","FL","po0zyzo9vq","1440","900","de","we06ed23","null","","","","learningBlock1","","","","That was a bim.","null","","","","",""
"","html-keyboard-response","195","384718","0.0-6.0-2.62","FL","po0zyzo9vq","1440","900","de","we06ed23","null","","","","learningBlock1","","","","<div style=""font-size:60px;""> </div>","null","FL","learning/Slide63.JPG","That was a bim.","",""
"","image-keyboard-response","196","384900","0.0-6.0-0.63","FL","po0zyzo9vq","1440","900","de","we06ed23","null","","","","","","","","learning/Slide64.JPG","null","","","","",""
"","html-keyboard-response","197","386062","0.0-6.0-1.63","FL","po0zyzo9vq","1440","900","de","we06ed23","null","","","","learningBlock1","","","","That was a tob.","null","","","","",""
"","html-keyboard-response","198","387068","0.0-6.0-2.63","FL","po0zyzo9vq","1440","900","de","we06ed23","null","","","","learningBlock1","","","","<div style=""font-size:60px;""> </div>","null","FL","learning/Slide64.JPG","That was a tob.","",""
"","image-keyboard-response","199","387250","0.0-6.0-0.64","FL","po0zyzo9vq","1440","900","de","we06ed23","null","","","","","","","","learning/Slide65.JPG","null","","","","",""
"","html-keyboard-response","200","388412","0.0-6.0-1.64","FL","po0zyzo9vq","1440","900","de","we06ed23","null","","","","learningBlock1","","","","That was a wug.","null","","","","",""
"","html-keyboard-response","201","389418","0.0-6.0-2.64","FL","po0zyzo9vq","1440","900","de","we06ed23","null","","","","learningBlock1","","","","<div style=""font-size:60px;""> </div>","null","FL","learning/Slide65.JPG","That was a wug.","",""
"","image-keyboard-response","202","389601","0.0-6.0-0.65","FL","po0zyzo9vq","1440","900","de","we06ed23","null","","","","","","","","learning/Slide66.JPG","null","","","","",""
"","html-keyboard-response","203","390765","0.0-6.0-1.65","FL","po0zyzo9vq","1440","900","de","we06ed23","null","","","","learningBlock1","","","","That was a dep.","null","","","","",""
"","html-keyboard-response","204","391771","0.0-6.0-2.65","FL","po0zyzo9vq","1440","900","de","we06ed23","null","","","","learningBlock1","","","","<div style=""font-size:60px;""> </div>","null","FL","learning/Slide66.JPG","That was a dep.","",""
"","image-keyboard-response","205","391952","0.0-6.0-0.66","FL","po0zyzo9vq","1440","900","de","we06ed23","null","","","","","","","","learning/Slide67.JPG","null","","","","",""
"","html-keyboard-response","206","393114","0.0-6.0-1.66","FL","po0zyzo9vq","1440","900","de","we06ed23","null","","","","learningBlock1","","","","That was a tob.","null","","","","",""
"","html-keyboard-response","207","394121","0.0-6.0-2.66","FL","po0zyzo9vq","1440","900","de","we06ed23","null","","","","learningBlock1","","","","<div style=""font-size:60px;""> </div>","null","FL","learning/Slide67.JPG","That was a tob.","",""
"","image-keyboard-response","208","394302","0.0-6.0-0.67","FL","po0zyzo9vq","1440","900","de","we06ed23","null","","","","","","","","learning/Slide68.JPG","null","","","","",""
"","html-keyboard-response","209","395464","0.0-6.0-1.67","FL","po0zyzo9vq","1440","900","de","we06ed23","null","","","","learningBlock1","","","","That was a wug.","null","","","","",""
"","html-keyboard-response","210","396470","0.0-6.0-2.67","FL","po0zyzo9vq","1440","900","de","we06ed23","null","","","","learningBlock1","","","","<div style=""font-size:60px;""> </div>","null","FL","learning/Slide68.JPG","That was a wug.","",""
"","image-keyboard-response","211","396647","0.0-6.0-0.68","FL","po0zyzo9vq","1440","900","de","we06ed23","null","","","","","","","","learning/Slide69.JPG","null","","","","",""
"","html-keyboard-response","212","397809","0.0-6.0-1.68","FL","po0zyzo9vq","1440","900","de","we06ed23","null","","","","learningBlock1","","","","That was a tob.","null","","","","",""
"","html-keyboard-response","213","398815","0.0-6.0-2.68","FL","po0zyzo9vq","1440","900","de","we06ed23","null","","","","learningBlock1","","","","<div style=""font-size:60px;""> </div>","null","FL","learning/Slide69.JPG","That was a tob.","",""
"","image-keyboard-response","214","398997","0.0-6.0-0.69","FL","po0zyzo9vq","1440","900","de","we06ed23","null","","","","","","","","learning/Slide70.JPG","null","","","","",""
"","html-keyboard-response","215","400159","0.0-6.0-1.69","FL","po0zyzo9vq","1440","900","de","we06ed23","null","","","","learningBlock1","","","","That was a dep.","null","","","","",""
"","html-keyboard-response","216","401165","0.0-6.0-2.69","FL","po0zyzo9vq","1440","900","de","we06ed23","null","","","","learningBlock1","","","","<div style=""font-size:60px;""> </div>","null","FL","learning/Slide70.JPG","That was a dep.","",""
"","image-keyboard-response","217","401347","0.0-6.0-0.70","FL","po0zyzo9vq","1440","900","de","we06ed23","null","","","","","","","","learning/Slide71.JPG","null","","","","",""
"","html-keyboard-response","218","402509","0.0-6.0-1.70","FL","po0zyzo9vq","1440","900","de","we06ed23","null","","","","learningBlock1","","","","That was a wug.","null","","","","",""
"","html-keyboard-response","219","403515","0.0-6.0-2.70","FL","po0zyzo9vq","1440","900","de","we06ed23","null","","","","learningBlock1","","","","<div style=""font-size:60px;""> </div>","null","FL","learning/Slide71.JPG","That was a wug.","",""
"","image-keyboard-response","220","403696","0.0-6.0-0.71","FL","po0zyzo9vq","1440","900","de","we06ed23","null","","","","","","","","learning/Slide72.JPG","null","","","","",""
"","html-keyboard-response","221","404858","0.0-6.0-1.71","FL","po0zyzo9vq","1440","900","de","we06ed23","null","","","","learningBlock1","","","","That was a bim.","null","","","","",""
"","html-keyboard-response","222","405861","0.0-6.0-2.71","FL","po0zyzo9vq","1440","900","de","we06ed23","null","","","","learningBlock1","","","","<div style=""font-size:60px;""> </div>","null","FL","learning/Slide72.JPG","That was a bim.","",""
"","image-keyboard-response","223","406043","0.0-6.0-0.72","FL","po0zyzo9vq","1440","900","de","we06ed23","null","","","","","","","","learning/Slide73.JPG","null","","","","",""
"","html-keyboard-response","224","407205","0.0-6.0-1.72","FL","po0zyzo9vq","1440","900","de","we06ed23","null","","","","learningBlock1","","","","That was a wug.","null","","","","",""
"","html-keyboard-response","225","408211","0.0-6.0-2.72","FL","po0zyzo9vq","1440","900","de","we06ed23","null","","","","learningBlock1","","","","<div style=""font-size:60px;""> </div>","null","FL","learning/Slide73.JPG","That was a wug.","",""
"","image-keyboard-response","226","408389","0.0-6.0-0.73","FL","po0zyzo9vq","1440","900","de","we06ed23","null","","","","","","","","learning/Slide74.JPG","null","","","","",""
"","html-keyboard-response","227","409550","0.0-6.0-1.73","FL","po0zyzo9vq","1440","900","de","we06ed23","null","","","","learningBlock1","","","","That was a dep.","null","","","","",""
"","html-keyboard-response","228","410557","0.0-6.0-2.73","FL","po0zyzo9vq","1440","900","de","we06ed23","null","","","","learningBlock1","","","","<div style=""font-size:60px;""> </div>","null","FL","learning/Slide74.JPG","That was a dep.","",""
"","image-keyboard-response","229","410738","0.0-6.0-0.74","FL","po0zyzo9vq","1440","900","de","we06ed23","null","","","","","","","","learning/Slide75.JPG","null","","","","",""
"","html-keyboard-response","230","411899","0.0-6.0-1.74","FL","po0zyzo9vq","1440","900","de","we06ed23","null","","","","learningBlock1","","","","That was a tob.","null","","","","",""
"","html-keyboard-response","231","412901","0.0-6.0-2.74","FL","po0zyzo9vq","1440","900","de","we06ed23","null","","","","learningBlock1","","","","<div style=""font-size:60px;""> </div>","null","FL","learning/Slide75.JPG","That was a tob.","",""
"","image-keyboard-response","232","413083","0.0-6.0-0.75","FL","po0zyzo9vq","1440","900","de","we06ed23","null","","","","","","","","learning/Slide76.JPG","null","","","","",""
"","html-keyboard-response","233","414244","0.0-6.0-1.75","FL","po0zyzo9vq","1440","900","de","we06ed23","null","","","","learningBlock1","","","","That was a bim.","null","","","","",""
"","html-keyboard-response","234","415251","0.0-6.0-2.75","FL","po0zyzo9vq","1440","900","de","we06ed23","null","","","","learningBlock1","","","","<div style=""font-size:60px;""> </div>","null","FL","learning/Slide76.JPG","That was a bim.","",""
"","image-keyboard-response","235","415432","0.0-6.0-0.76","FL","po0zyzo9vq","1440","900","de","we06ed23","null","","","","","","","","learning/Slide77.JPG","null","","","","",""
"","html-keyboard-response","236","416594","0.0-6.0-1.76","FL","po0zyzo9vq","1440","900","de","we06ed23","null","","","","learningBlock1","","","","That was a tob.","null","","","","",""
"","html-keyboard-response","237","417600","0.0-6.0-2.76","FL","po0zyzo9vq","1440","900","de","we06ed23","null","","","","learningBlock1","","","","<div style=""font-size:60px;""> </div>","null","FL","learning/Slide77.JPG","That was a tob.","",""
"","image-keyboard-response","238","417782","0.0-6.0-0.77","FL","po0zyzo9vq","1440","900","de","we06ed23","null","","","","","","","","learning/Slide78.JPG","null","","","","",""
"","html-keyboard-response","239","418944","0.0-6.0-1.77","FL","po0zyzo9vq","1440","900","de","we06ed23","null","","","","learningBlock1","","","","That was a wug.","null","","","","",""
"","html-keyboard-response","240","419950","0.0-6.0-2.77","FL","po0zyzo9vq","1440","900","de","we06ed23","null","","","","learningBlock1","","","","<div style=""font-size:60px;""> </div>","null","FL","learning/Slide78.JPG","That was a wug.","",""
"","image-keyboard-response","241","420132","0.0-6.0-0.78","FL","po0zyzo9vq","1440","900","de","we06ed23","null","","","","","","","","learning/Slide79.JPG","null","","","","",""
"","html-keyboard-response","242","421293","0.0-6.0-1.78","FL","po0zyzo9vq","1440","900","de","we06ed23","null","","","","learningBlock1","","","","That was a bim.","null","","","","",""
"","html-keyboard-response","243","422299","0.0-6.0-2.78","FL","po0zyzo9vq","1440","900","de","we06ed23","null","","","","learningBlock1","","","","<div style=""font-size:60px;""> </div>","null","FL","learning/Slide79.JPG","That was a bim.","",""
"","image-keyboard-response","244","422481","0.0-6.0-0.79","FL","po0zyzo9vq","1440","900","de","we06ed23","null","","","","","","","","learning/Slide80.JPG","null","","","","",""
"","html-keyboard-response","245","423643","0.0-6.0-1.79","FL","po0zyzo9vq","1440","900","de","we06ed23","null","","","","learningBlock1","","","","That was a tob.","null","","","","",""
"","html-keyboard-response","246","424649","0.0-6.0-2.79","FL","po0zyzo9vq","1440","900","de","we06ed23","null","","","","learningBlock1","","","","<div style=""font-size:60px;""> </div>","null","FL","learning/Slide80.JPG","That was a tob.","",""
"","instructions","247","429774","0.0-7.0","FL","po0zyzo9vq","1440","900","de","we06ed23","NA","","","[{""page_index"":0,""viewing_time"":5124.219999999914}]","instructions","","","","","","","","","",""
"","image-keyboard-response","248","429957","0.0-8.0-0.0","FL","po0zyzo9vq","1440","900","de","we06ed23","null","","","","","","","","learning/Slide81.JPG","null","","","","",""
"","html-keyboard-response","249","431115","0.0-8.0-1.0","FL","po0zyzo9vq","1440","900","de","we06ed23","null","","","","learningBlock2","","","","That was a wug.","null","","","","",""
"","html-keyboard-response","250","432121","0.0-8.0-2.0","FL","po0zyzo9vq","1440","900","de","we06ed23","null","","","","learningBlock2","","","","<div style=""font-size:60px;""> </div>","null","FL","learning/Slide81.JPG","That was a wug.","",""
"","image-keyboard-response","251","432303","0.0-8.0-0.1","FL","po0zyzo9vq","1440","900","de","we06ed23","null","","","","","","","","learning/Slide82.JPG","null","","","","",""
"","html-keyboard-response","252","433464","0.0-8.0-1.1","FL","po0zyzo9vq","1440","900","de","we06ed23","null","","","","learningBlock2","","","","That was a bim.","null","","","","",""
"","html-keyboard-response","253","434471","0.0-8.0-2.1","FL","po0zyzo9vq","1440","900","de","we06ed23","null","","","","learningBlock2","","","","<div style=""font-size:60px;""> </div>","null","FL","learning/Slide82.JPG","That was a bim.","",""
"","image-keyboard-response","254","434652","0.0-8.0-0.2","FL","po0zyzo9vq","1440","900","de","we06ed23","null","","","","","","","","learning/Slide83.JPG","null","","","","",""
"","html-keyboard-response","255","435813","0.0-8.0-1.2","FL","po0zyzo9vq","1440","900","de","we06ed23","null","","","","learningBlock2","","","","That was a wug.","null","","","","",""
"","html-keyboard-response","256","436820","0.0-8.0-2.2","FL","po0zyzo9vq","1440","900","de","we06ed23","null","","","","learningBlock2","","","","<div style=""font-size:60px;""> </div>","null","FL","learning/Slide83.JPG","That was a wug.","",""
"","image-keyboard-response","257","437002","0.0-8.0-0.3","FL","po0zyzo9vq","1440","900","de","we06ed23","null","","","","","","","","learning/Slide84.JPG","null","","","","",""
"","html-keyboard-response","258","438163","0.0-8.0-1.3","FL","po0zyzo9vq","1440","900","de","we06ed23","null","","","","learningBlock2","","","","That was a dep.","null","","","","",""
"","html-keyboard-response","259","439170","0.0-8.0-2.3","FL","po0zyzo9vq","1440","900","de","we06ed23","null","","","","learningBlock2","","","","<div style=""font-size:60px;""> </div>","null","FL","learning/Slide84.JPG","That was a dep.","",""
"","image-keyboard-response","260","439348","0.0-8.0-0.4","FL","po0zyzo9vq","1440","900","de","we06ed23","null","","","","","","","","learning/Slide85.JPG","null","","","","",""
"","html-keyboard-response","261","440505","0.0-8.0-1.4","FL","po0zyzo9vq","1440","900","de","we06ed23","null","","","","learningBlock2","","","","That was a bim.","null","","","","",""
"","html-keyboard-response","262","441511","0.0-8.0-2.4","FL","po0zyzo9vq","1440","900","de","we06ed23","null","","","","learningBlock2","","","","<div style=""font-size:60px;""> </div>","null","FL","learning/Slide85.JPG","That was a bim.","",""
"","image-keyboard-response","263","441693","0.0-8.0-0.5","FL","po0zyzo9vq","1440","900","de","we06ed23","null","","","","","","","","learning/Slide86.JPG","null","","","","",""
"","html-keyboard-response","264","442854","0.0-8.0-1.5","FL","po0zyzo9vq","1440","900","de","we06ed23","null","","","","learningBlock2","","","","That was a tob.","null","","","","",""
"","html-keyboard-response","265","443861","0.0-8.0-2.5","FL","po0zyzo9vq","1440","900","de","we06ed23","null","","","","learningBlock2","","","","<div style=""font-size:60px;""> </div>","null","FL","learning/Slide86.JPG","That was a tob.","",""
"","image-keyboard-response","266","444042","0.0-8.0-0.6","FL","po0zyzo9vq","1440","900","de","we06ed23","null","","","","","","","","learning/Slide87.JPG","null","","","","",""
"","html-keyboard-response","267","445204","0.0-8.0-1.6","FL","po0zyzo9vq","1440","900","de","we06ed23","null","","","","learningBlock2","","","","That was a wug.","null","","","","",""
"","html-keyboard-response","268","446210","0.0-8.0-2.6","FL","po0zyzo9vq","1440","900","de","we06ed23","null","","","","learningBlock2","","","","<div style=""font-size:60px;""> </div>","null","FL","learning/Slide87.JPG","That was a wug.","",""
"","image-keyboard-response","269","446392","0.0-8.0-0.7","FL","po0zyzo9vq","1440","900","de","we06ed23","null","","","","","","","","learning/Slide88.JPG","null","","","","",""
"","html-keyboard-response","270","447554","0.0-8.0-1.7","FL","po0zyzo9vq","1440","900","de","we06ed23","null","","","","learningBlock2","","","","That was a tob.","null","","","","",""
"","html-keyboard-response","271","448560","0.0-8.0-2.7","FL","po0zyzo9vq","1440","900","de","we06ed23","null","","","","learningBlock2","","","","<div style=""font-size:60px;""> </div>","null","FL","learning/Slide88.JPG","That was a tob.","",""
"","image-keyboard-response","272","448742","0.0-8.0-0.8","FL","po0zyzo9vq","1440","900","de","we06ed23","null","","","","","","","","learning/Slide89.JPG","null","","","","",""
"","html-keyboard-response","273","449904","0.0-8.0-1.8","FL","po0zyzo9vq","1440","900","de","we06ed23","null","","","","learningBlock2","","","","That was a bim.","null","","","","",""
"","html-keyboard-response","274","450910","0.0-8.0-2.8","FL","po0zyzo9vq","1440","900","de","we06ed23","null","","","","learningBlock2","","","","<div style=""font-size:60px;""> </div>","null","FL","learning/Slide89.JPG","That was a bim.","",""
"","image-keyboard-response","275","451092","0.0-8.0-0.9","FL","po0zyzo9vq","1440","900","de","we06ed23","null","","","","","","","","learning/Slide90.JPG","null","","","","",""
"","html-keyboard-response","276","452254","0.0-8.0-1.9","FL","po0zyzo9vq","1440","900","de","we06ed23","null","","","","learningBlock2","","","","That was a dep.","null","","","","",""
"","html-keyboard-response","277","453259","0.0-8.0-2.9","FL","po0zyzo9vq","1440","900","de","we06ed23","null","","","","learningBlock2","","","","<div style=""font-size:60px;""> </div>","null","FL","learning/Slide90.JPG","That was a dep.","",""
"","image-keyboard-response","278","453441","0.0-8.0-0.10","FL","po0zyzo9vq","1440","900","de","we06ed23","null","","","","","","","","learning/Slide91.JPG","null","","","","",""
"","html-keyboard-response","279","454598","0.0-8.0-1.10","FL","po0zyzo9vq","1440","900","de","we06ed23","null","","","","learningBlock2","","","","That was a wug.","null","","","","",""
"","html-keyboard-response","280","455604","0.0-8.0-2.10","FL","po0zyzo9vq","1440","900","de","we06ed23","null","","","","learningBlock2","","","","<div style=""font-size:60px;""> </div>","null","FL","learning/Slide91.JPG","That was a wug.","",""
"","image-keyboard-response","281","455786","0.0-8.0-0.11","FL","po0zyzo9vq","1440","900","de","we06ed23","null","","","","","","","","learning/Slide92.JPG","null","","","","",""
"","html-keyboard-response","282","456947","0.0-8.0-1.11","FL","po0zyzo9vq","1440","900","de","we06ed23","null","","","","learningBlock2","","","","That was a tob.","null","","","","",""
"","html-keyboard-response","283","457953","0.0-8.0-2.11","FL","po0zyzo9vq","1440","900","de","we06ed23","null","","","","learningBlock2","","","","<div style=""font-size:60px;""> </div>","null","FL","learning/Slide92.JPG","That was a tob.","",""
"","image-keyboard-response","284","458130","0.0-8.0-0.12","FL","po0zyzo9vq","1440","900","de","we06ed23","null","","","","","","","","learning/Slide93.JPG","null","","","","",""
"","html-keyboard-response","285","459292","0.0-8.0-1.12","FL","po0zyzo9vq","1440","900","de","we06ed23","null","","","","learningBlock2","","","","That was a bim.","null","","","","",""
"","html-keyboard-response","286","460298","0.0-8.0-2.12","FL","po0zyzo9vq","1440","900","de","we06ed23","null","","","","learningBlock2","","","","<div style=""font-size:60px;""> </div>","null","FL","learning/Slide93.JPG","That was a bim.","",""
"","image-keyboard-response","287","460480","0.0-8.0-0.13","FL","po0zyzo9vq","1440","900","de","we06ed23","null","","","","","","","","learning/Slide94.JPG","null","","","","",""
"","html-keyboard-response","288","461641","0.0-8.0-1.13","FL","po0zyzo9vq","1440","900","de","we06ed23","null","","","","learningBlock2","","","","That was a tob.","null","","","","",""
"","html-keyboard-response","289","462648","0.0-8.0-2.13","FL","po0zyzo9vq","1440","900","de","we06ed23","null","","","","learningBlock2","","","","<div style=""font-size:60px;""> </div>","null","FL","learning/Slide94.JPG","That was a tob.","",""
"","image-keyboard-response","290","462829","0.0-8.0-0.14","FL","po0zyzo9vq","1440","900","de","we06ed23","null","","","","","","","","learning/Slide95.JPG","null","","","","",""
"","html-keyboard-response","291","463992","0.0-8.0-1.14","FL","po0zyzo9vq","1440","900","de","we06ed23","null","","","","learningBlock2","","","","That was a wug.","null","","","","",""
"","html-keyboard-response","292","464998","0.0-8.0-2.14","FL","po0zyzo9vq","1440","900","de","we06ed23","null","","","","learningBlock2","","","","<div style=""font-size:60px;""> </div>","null","FL","learning/Slide95.JPG","That was a wug.","",""
"","image-keyboard-response","293","465179","0.0-8.0-0.15","FL","po0zyzo9vq","1440","900","de","we06ed23","null","","","","","","","","learning/Slide96.JPG","null","","","","",""
"","html-keyboard-response","294","466341","0.0-8.0-1.15","FL","po0zyzo9vq","1440","900","de","we06ed23","null","","","","learningBlock2","","","","That was a tob.","null","","","","",""
"","html-keyboard-response","295","467347","0.0-8.0-2.15","FL","po0zyzo9vq","1440","900","de","we06ed23","null","","","","learningBlock2","","","","<div style=""font-size:60px;""> </div>","null","FL","learning/Slide96.JPG","That was a tob.","",""
"","image-keyboard-response","296","467528","0.0-8.0-0.16","FL","po0zyzo9vq","1440","900","de","we06ed23","null","","","","","","","","learning/Slide97.JPG","null","","","","",""
"","html-keyboard-response","297","468690","0.0-8.0-1.16","FL","po0zyzo9vq","1440","900","de","we06ed23","null","","","","learningBlock2","","","","That was a dep.","null","","","","",""
"","html-keyboard-response","298","469693","0.0-8.0-2.16","FL","po0zyzo9vq","1440","900","de","we06ed23","null","","","","learningBlock2","","","","<div style=""font-size:60px;""> </div>","null","FL","learning/Slide97.JPG","That was a dep.","",""
"","image-keyboard-response","299","469874","0.0-8.0-0.17","FL","po0zyzo9vq","1440","900","de","we06ed23","null","","","","","","","","learning/Slide98.JPG","null","","","","",""
"","html-keyboard-response","300","471035","0.0-8.0-1.17","FL","po0zyzo9vq","1440","900","de","we06ed23","null","","","","learningBlock2","","","","That was a bim.","null","","","","",""
"","html-keyboard-response","301","472042","0.0-8.0-2.17","FL","po0zyzo9vq","1440","900","de","we06ed23","null","","","","learningBlock2","","","","<div style=""font-size:60px;""> </div>","null","FL","learning/Slide98.JPG","That was a bim.","",""
"","image-keyboard-response","302","472223","0.0-8.0-0.18","FL","po0zyzo9vq","1440","900","de","we06ed23","null","","","","","","","","learning/Slide99.JPG","null","","","","",""
"","html-keyboard-response","303","473384","0.0-8.0-1.18","FL","po0zyzo9vq","1440","900","de","we06ed23","null","","","","learningBlock2","","","","That was a dep.","null","","","","",""
"","html-keyboard-response","304","474390","0.0-8.0-2.18","FL","po0zyzo9vq","1440","900","de","we06ed23","null","","","","learningBlock2","","","","<div style=""font-size:60px;""> </div>","null","FL","learning/Slide99.JPG","That was a dep.","",""
"","image-keyboard-response","305","474572","0.0-8.0-0.19","FL","po0zyzo9vq","1440","900","de","we06ed23","null","","","","","","","","learning/Slide100.JPG","null","","","","",""
"","html-keyboard-response","306","475734","0.0-8.0-1.19","FL","po0zyzo9vq","1440","900","de","we06ed23","null","","","","learningBlock2","","","","That was a bim.","null","","","","",""
"","html-keyboard-response","307","476740","0.0-8.0-2.19","FL","po0zyzo9vq","1440","900","de","we06ed23","null","","","","learningBlock2","","","","<div style=""font-size:60px;""> </div>","null","FL","learning/Slide100.JPG","That was a bim.","",""
"","image-keyboard-response","308","476922","0.0-8.0-0.20","FL","po0zyzo9vq","1440","900","de","we06ed23","null","","","","","","","","learning/Slide101.JPG","null","","","","",""
"","html-keyboard-response","309","478083","0.0-8.0-1.20","FL","po0zyzo9vq","1440","900","de","we06ed23","null","","","","learningBlock2","","","","That was a tob.","null","","","","",""
"","html-keyboard-response","310","479090","0.0-8.0-2.20","FL","po0zyzo9vq","1440","900","de","we06ed23","null","","","","learningBlock2","","","","<div style=""font-size:60px;""> </div>","null","FL","learning/Slide101.JPG","That was a tob.","",""
"","image-keyboard-response","311","479267","0.0-8.0-0.21","FL","po0zyzo9vq","1440","900","de","we06ed23","null","","","","","","","","learning/Slide102.JPG","null","","","","",""
"","html-keyboard-response","312","480428","0.0-8.0-1.21","FL","po0zyzo9vq","1440","900","de","we06ed23","null","","","","learningBlock2","","","","That was a bim.","null","","","","",""
"","html-keyboard-response","313","481435","0.0-8.0-2.21","FL","po0zyzo9vq","1440","900","de","we06ed23","null","","","","learningBlock2","","","","<div style=""font-size:60px;""> </div>","null","FL","learning/Slide102.JPG","That was a bim.","",""
"","image-keyboard-response","314","481617","0.0-8.0-0.22","FL","po0zyzo9vq","1440","900","de","we06ed23","null","","","","","","","","learning/Slide103.JPG","null","","","","",""
"","html-keyboard-response","315","482778","0.0-8.0-1.22","FL","po0zyzo9vq","1440","900","de","we06ed23","null","","","","learningBlock2","","","","That was a dep.","null","","","","",""
"","html-keyboard-response","316","483781","0.0-8.0-2.22","FL","po0zyzo9vq","1440","900","de","we06ed23","null","","","","learningBlock2","","","","<div style=""font-size:60px;""> </div>","null","FL","learning/Slide103.JPG","That was a dep.","",""
"","image-keyboard-response","317","483963","0.0-8.0-0.23","FL","po0zyzo9vq","1440","900","de","we06ed23","null","","","","","","","","learning/Slide104.JPG","null","","","","",""
"","html-keyboard-response","318","485125","0.0-8.0-1.23","FL","po0zyzo9vq","1440","900","de","we06ed23","null","","","","learningBlock2","","","","That was a tob.","null","","","","",""
"","html-keyboard-response","319","486131","0.0-8.0-2.23","FL","po0zyzo9vq","1440","900","de","we06ed23","null","","","","learningBlock2","","","","<div style=""font-size:60px;""> </div>","null","FL","learning/Slide104.JPG","That was a tob.","",""
"","image-keyboard-response","320","486313","0.0-8.0-0.24","FL","po0zyzo9vq","1440","900","de","we06ed23","null","","","","","","","","learning/Slide105.JPG","null","","","","",""
"","html-keyboard-response","321","487470","0.0-8.0-1.24","FL","po0zyzo9vq","1440","900","de","we06ed23","null","","","","learningBlock2","","","","That was a dep.","null","","","","",""
"","html-keyboard-response","322","488476","0.0-8.0-2.24","FL","po0zyzo9vq","1440","900","de","we06ed23","null","","","","learningBlock2","","","","<div style=""font-size:60px;""> </div>","null","FL","learning/Slide105.JPG","That was a dep.","",""
"","image-keyboard-response","323","488657","0.0-8.0-0.25","FL","po0zyzo9vq","1440","900","de","we06ed23","null","","","","","","","","learning/Slide106.JPG","null","","","","",""
"","html-keyboard-response","324","489819","0.0-8.0-1.25","FL","po0zyzo9vq","1440","900","de","we06ed23","null","","","","learningBlock2","","","","That was a wug.","null","","","","",""
"","html-keyboard-response","325","490825","0.0-8.0-2.25","FL","po0zyzo9vq","1440","900","de","we06ed23","null","","","","learningBlock2","","","","<div style=""font-size:60px;""> </div>","null","FL","learning/Slide106.JPG","That was a wug.","",""
"","image-keyboard-response","326","491002","0.0-8.0-0.26","FL","po0zyzo9vq","1440","900","de","we06ed23","null","","","","","","","","learning/Slide107.JPG","null","","","","",""
"","html-keyboard-response","327","492163","0.0-8.0-1.26","FL","po0zyzo9vq","1440","900","de","we06ed23","null","","","","learningBlock2","","","","That was a bim.","null","","","","",""
"","html-keyboard-response","328","493170","0.0-8.0-2.26","FL","po0zyzo9vq","1440","900","de","we06ed23","null","","","","learningBlock2","","","","<div style=""font-size:60px;""> </div>","null","FL","learning/Slide107.JPG","That was a bim.","",""
"","image-keyboard-response","329","493351","0.0-8.0-0.27","FL","po0zyzo9vq","1440","900","de","we06ed23","null","","","","","","","","learning/Slide108.JPG","null","","","","",""
"","html-keyboard-response","330","494509","0.0-8.0-1.27","FL","po0zyzo9vq","1440","900","de","we06ed23","null","","","","learningBlock2","","","","That was a dep.","null","","","","",""
"","html-keyboard-response","331","495515","0.0-8.0-2.27","FL","po0zyzo9vq","1440","900","de","we06ed23","null","","","","learningBlock2","","","","<div style=""font-size:60px;""> </div>","null","FL","learning/Slide108.JPG","That was a dep.","",""
"","image-keyboard-response","332","495694","0.0-8.0-0.28","FL","po0zyzo9vq","1440","900","de","we06ed23","null","","","","","","","","learning/Slide109.JPG","null","","","","",""
"","html-keyboard-response","333","496851","0.0-8.0-1.28","FL","po0zyzo9vq","1440","900","de","we06ed23","null","","","","learningBlock2","","","","That was a wug.","null","","","","",""
"","html-keyboard-response","334","497853","0.0-8.0-2.28","FL","po0zyzo9vq","1440","900","de","we06ed23","null","","","","learningBlock2","","","","<div style=""font-size:60px;""> </div>","null","FL","learning/Slide109.JPG","That was a wug.","",""
"","image-keyboard-response","335","498030","0.0-8.0-0.29","FL","po0zyzo9vq","1440","900","de","we06ed23","null","","","","","","","","learning/Slide110.JPG","null","","","","",""
"","html-keyboard-response","336","499191","0.0-8.0-1.29","FL","po0zyzo9vq","1440","900","de","we06ed23","null","","","","learningBlock2","","","","That was a bim.","null","","","","",""
"","html-keyboard-response","337","500192","0.0-8.0-2.29","FL","po0zyzo9vq","1440","900","de","we06ed23","null","","","","learningBlock2","","","","<div style=""font-size:60px;""> </div>","null","FL","learning/Slide110.JPG","That was a bim.","",""
"","image-keyboard-response","338","500374","0.0-8.0-0.30","FL","po0zyzo9vq","1440","900","de","we06ed23","null","","","","","","","","learning/Slide111.JPG","null","","","","",""
"","html-keyboard-response","339","501536","0.0-8.0-1.30","FL","po0zyzo9vq","1440","900","de","we06ed23","null","","","","learningBlock2","","","","That was a tob.","null","","","","",""
"","html-keyboard-response","340","502542","0.0-8.0-2.30","FL","po0zyzo9vq","1440","900","de","we06ed23","null","","","","learningBlock2","","","","<div style=""font-size:60px;""> </div>","null","FL","learning/Slide111.JPG","That was a tob.","",""
"","image-keyboard-response","341","502724","0.0-8.0-0.31","FL","po0zyzo9vq","1440","900","de","we06ed23","null","","","","","","","","learning/Slide112.JPG","null","","","","",""
"","html-keyboard-response","342","503882","0.0-8.0-1.31","FL","po0zyzo9vq","1440","900","de","we06ed23","null","","","","learningBlock2","","","","That was a wug.","null","","","","",""
"","html-keyboard-response","343","504889","0.0-8.0-2.31","FL","po0zyzo9vq","1440","900","de","we06ed23","null","","","","learningBlock2","","","","<div style=""font-size:60px;""> </div>","null","FL","learning/Slide112.JPG","That was a wug.","",""
"","image-keyboard-response","344","505070","0.0-8.0-0.32","FL","po0zyzo9vq","1440","900","de","we06ed23","null","","","","","","","","learning/Slide113.JPG","null","","","","",""
"","html-keyboard-response","345","506232","0.0-8.0-1.32","FL","po0zyzo9vq","1440","900","de","we06ed23","null","","","","learningBlock2","","","","That was a tob.","null","","","","",""
"","html-keyboard-response","346","507238","0.0-8.0-2.32","FL","po0zyzo9vq","1440","900","de","we06ed23","null","","","","learningBlock2","","","","<div style=""font-size:60px;""> </div>","null","FL","learning/Slide113.JPG","That was a tob.","",""
"","image-keyboard-response","347","507420","0.0-8.0-0.33","FL","po0zyzo9vq","1440","900","de","we06ed23","null","","","","","","","","learning/Slide114.JPG","null","","","","",""
"","html-keyboard-response","348","508581","0.0-8.0-1.33","FL","po0zyzo9vq","1440","900","de","we06ed23","null","","","","learningBlock2","","","","That was a wug.","null","","","","",""
"","html-keyboard-response","349","509588","0.0-8.0-2.33","FL","po0zyzo9vq","1440","900","de","we06ed23","null","","","","learningBlock2","","","","<div style=""font-size:60px;""> </div>","null","FL","learning/Slide114.JPG","That was a wug.","",""
"","image-keyboard-response","350","509769","0.0-8.0-0.34","FL","po0zyzo9vq","1440","900","de","we06ed23","null","","","","","","","","learning/Slide115.JPG","null","","","","",""
"","html-keyboard-response","351","510928","0.0-8.0-1.34","FL","po0zyzo9vq","1440","900","de","we06ed23","null","","","","learningBlock2","","","","That was a bim.","null","","","","",""
"","html-keyboard-response","352","511934","0.0-8.0-2.34","FL","po0zyzo9vq","1440","900","de","we06ed23","null","","","","learningBlock2","","","","<div style=""font-size:60px;""> </div>","null","FL","learning/Slide115.JPG","That was a bim.","",""
"","image-keyboard-response","353","512112","0.0-8.0-0.35","FL","po0zyzo9vq","1440","900","de","we06ed23","null","","","","","","","","learning/Slide116.JPG","null","","","","",""
"","html-keyboard-response","354","513274","0.0-8.0-1.35","FL","po0zyzo9vq","1440","900","de","we06ed23","null","","","","learningBlock2","","","","That was a dep.","null","","","","",""
"","html-keyboard-response","355","514280","0.0-8.0-2.35","FL","po0zyzo9vq","1440","900","de","we06ed23","null","","","","learningBlock2","","","","<div style=""font-size:60px;""> </div>","null","FL","learning/Slide116.JPG","That was a dep.","",""
"","image-keyboard-response","356","514461","0.0-8.0-0.36","FL","po0zyzo9vq","1440","900","de","we06ed23","null","","","","","","","","learning/Slide117.JPG","null","","","","",""
"","html-keyboard-response","357","515623","0.0-8.0-1.36","FL","po0zyzo9vq","1440","900","de","we06ed23","null","","","","learningBlock2","","","","That was a tob.","null","","","","",""
"","html-keyboard-response","358","516629","0.0-8.0-2.36","FL","po0zyzo9vq","1440","900","de","we06ed23","null","","","","learningBlock2","","","","<div style=""font-size:60px;""> </div>","null","FL","learning/Slide117.JPG","That was a tob.","",""
"","image-keyboard-response","359","516811","0.0-8.0-0.37","FL","po0zyzo9vq","1440","900","de","we06ed23","null","","","","","","","","learning/Slide118.JPG","null","","","","",""
"","html-keyboard-response","360","517973","0.0-8.0-1.37","FL","po0zyzo9vq","1440","900","de","we06ed23","null","","","","learningBlock2","","","","That was a dep.","null","","","","",""
"","html-keyboard-response","361","518980","0.0-8.0-2.37","FL","po0zyzo9vq","1440","900","de","we06ed23","null","","","","learningBlock2","","","","<div style=""font-size:60px;""> </div>","null","FL","learning/Slide118.JPG","That was a dep.","",""
"","image-keyboard-response","362","519161","0.0-8.0-0.38","FL","po0zyzo9vq","1440","900","de","we06ed23","null","","","","","","","","learning/Slide119.JPG","null","","","","",""
"","html-keyboard-response","363","520323","0.0-8.0-1.38","FL","po0zyzo9vq","1440","900","de","we06ed23","null","","","","learningBlock2","","","","That was a wug.","null","","","","",""
"","html-keyboard-response","364","521329","0.0-8.0-2.38","FL","po0zyzo9vq","1440","900","de","we06ed23","null","","","","learningBlock2","","","","<div style=""font-size:60px;""> </div>","null","FL","learning/Slide119.JPG","That was a wug.","",""
"","image-keyboard-response","365","521511","0.0-8.0-0.39","FL","po0zyzo9vq","1440","900","de","we06ed23","null","","","","","","","","learning/Slide120.JPG","null","","","","",""
"","html-keyboard-response","366","522673","0.0-8.0-1.39","FL","po0zyzo9vq","1440","900","de","we06ed23","null","","","","learningBlock2","","","","That was a dep.","null","","","","",""
"","html-keyboard-response","367","523679","0.0-8.0-2.39","FL","po0zyzo9vq","1440","900","de","we06ed23","null","","","","learningBlock2","","","","<div style=""font-size:60px;""> </div>","null","FL","learning/Slide120.JPG","That was a dep.","",""
"","image-keyboard-response","368","523860","0.0-8.0-0.40","FL","po0zyzo9vq","1440","900","de","we06ed23","null","","","","","","","","learning/Slide121.JPG","null","","","","",""
"","html-keyboard-response","369","525017","0.0-8.0-1.40","FL","po0zyzo9vq","1440","900","de","we06ed23","null","","","","learningBlock2","","","","That was a bim.","null","","","","",""
"","html-keyboard-response","370","526024","0.0-8.0-2.40","FL","po0zyzo9vq","1440","900","de","we06ed23","null","","","","learningBlock2","","","","<div style=""font-size:60px;""> </div>","null","FL","learning/Slide121.JPG","That was a bim.","",""
"","image-keyboard-response","371","526205","0.0-8.0-0.41","FL","po0zyzo9vq","1440","900","de","we06ed23","null","","","","","","","","learning/Slide122.JPG","null","","","","",""
"","html-keyboard-response","372","527367","0.0-8.0-1.41","FL","po0zyzo9vq","1440","900","de","we06ed23","null","","","","learningBlock2","","","","That was a wug.","null","","","","",""
"","html-keyboard-response","373","528373","0.0-8.0-2.41","FL","po0zyzo9vq","1440","900","de","we06ed23","null","","","","learningBlock2","","","","<div style=""font-size:60px;""> </div>","null","FL","learning/Slide122.JPG","That was a wug.","",""
"","image-keyboard-response","374","528555","0.0-8.0-0.42","FL","po0zyzo9vq","1440","900","de","we06ed23","null","","","","","","","","learning/Slide123.JPG","null","","","","",""
"","html-keyboard-response","375","529717","0.0-8.0-1.42","FL","po0zyzo9vq","1440","900","de","we06ed23","null","","","","learningBlock2","","","","That was a bim.","null","","","","",""
"","html-keyboard-response","376","530723","0.0-8.0-2.42","FL","po0zyzo9vq","1440","900","de","we06ed23","null","","","","learningBlock2","","","","<div style=""font-size:60px;""> </div>","null","FL","learning/Slide123.JPG","That was a bim.","",""
"","image-keyboard-response","377","530905","0.0-8.0-0.43","FL","po0zyzo9vq","1440","900","de","we06ed23","null","","","","","","","","learning/Slide124.JPG","null","","","","",""
"","html-keyboard-response","378","532067","0.0-8.0-1.43","FL","po0zyzo9vq","1440","900","de","we06ed23","null","","","","learningBlock2","","","","That was a tob.","null","","","","",""
"","html-keyboard-response","379","533073","0.0-8.0-2.43","FL","po0zyzo9vq","1440","900","de","we06ed23","null","","","","learningBlock2","","","","<div style=""font-size:60px;""> </div>","null","FL","learning/Slide124.JPG","That was a tob.","",""
"","image-keyboard-response","380","533255","0.0-8.0-0.44","FL","po0zyzo9vq","1440","900","de","we06ed23","null","","","","","","","","learning/Slide125.JPG","null","","","","",""
"","html-keyboard-response","381","534417","0.0-8.0-1.44","FL","po0zyzo9vq","1440","900","de","we06ed23","null","","","","learningBlock2","","","","That was a bim.","null","","","","",""
"","html-keyboard-response","382","535423","0.0-8.0-2.44","FL","po0zyzo9vq","1440","900","de","we06ed23","null","","","","learningBlock2","","","","<div style=""font-size:60px;""> </div>","null","FL","learning/Slide125.JPG","That was a bim.","",""
"","image-keyboard-response","383","535605","0.0-8.0-0.45","FL","po0zyzo9vq","1440","900","de","we06ed23","null","","","","","","","","learning/Slide126.JPG","null","","","","",""
"","html-keyboard-response","384","536766","0.0-8.0-1.45","FL","po0zyzo9vq","1440","900","de","we06ed23","null","","","","learningBlock2","","","","That was a tob.","null","","","","",""
"","html-keyboard-response","385","537772","0.0-8.0-2.45","FL","po0zyzo9vq","1440","900","de","we06ed23","null","","","","learningBlock2","","","","<div style=""font-size:60px;""> </div>","null","FL","learning/Slide126.JPG","That was a tob.","",""
"","image-keyboard-response","386","537954","0.0-8.0-0.46","FL","po0zyzo9vq","1440","900","de","we06ed23","null","","","","","","","","learning/Slide127.JPG","null","","","","",""
"","html-keyboard-response","387","539116","0.0-8.0-1.46","FL","po0zyzo9vq","1440","900","de","we06ed23","null","","","","learningBlock2","","","","That was a dep.","null","","","","",""
"","html-keyboard-response","388","540120","0.0-8.0-2.46","FL","po0zyzo9vq","1440","900","de","we06ed23","null","","","","learningBlock2","","","","<div style=""font-size:60px;""> </div>","null","FL","learning/Slide127.JPG","That was a dep.","",""
"","image-keyboard-response","389","540301","0.0-8.0-0.47","FL","po0zyzo9vq","1440","900","de","we06ed23","null","","","","","","","","learning/Slide128.JPG","null","","","","",""
"","html-keyboard-response","390","541463","0.0-8.0-1.47","FL","po0zyzo9vq","1440","900","de","we06ed23","null","","","","learningBlock2","","","","That was a wug.","null","","","","",""
"","html-keyboard-response","391","542469","0.0-8.0-2.47","FL","po0zyzo9vq","1440","900","de","we06ed23","null","","","","learningBlock2","","","","<div style=""font-size:60px;""> </div>","null","FL","learning/Slide128.JPG","That was a wug.","",""
"","image-keyboard-response","392","542651","0.0-8.0-0.48","FL","po0zyzo9vq","1440","900","de","we06ed23","null","","","","","","","","learning/Slide129.JPG","null","","","","",""
"","html-keyboard-response","393","543813","0.0-8.0-1.48","FL","po0zyzo9vq","1440","900","de","we06ed23","null","","","","learningBlock2","","","","That was a tob.","null","","","","",""
"","html-keyboard-response","394","544819","0.0-8.0-2.48","FL","po0zyzo9vq","1440","900","de","we06ed23","null","","","","learningBlock2","","","","<div style=""font-size:60px;""> </div>","null","FL","learning/Slide129.JPG","That was a tob.","",""
"","image-keyboard-response","395","545001","0.0-8.0-0.49","FL","po0zyzo9vq","1440","900","de","we06ed23","null","","","","","","","","learning/Slide130.JPG","null","","","","",""
"","html-keyboard-response","396","546157","0.0-8.0-1.49","FL","po0zyzo9vq","1440","900","de","we06ed23","null","","","","learningBlock2","","","","That was a wug.","null","","","","",""
"","html-keyboard-response","397","547163","0.0-8.0-2.49","FL","po0zyzo9vq","1440","900","de","we06ed23","null","","","","learningBlock2","","","","<div style=""font-size:60px;""> </div>","null","FL","learning/Slide130.JPG","That was a wug.","",""
"","image-keyboard-response","398","547343","0.0-8.0-0.50","FL","po0zyzo9vq","1440","900","de","we06ed23","null","","","","","","","","learning/Slide131.JPG","null","","","","",""
"","html-keyboard-response","399","548505","0.0-8.0-1.50","FL","po0zyzo9vq","1440","900","de","we06ed23","null","","","","learningBlock2","","","","That was a bim.","null","","","","",""
"","html-keyboard-response","400","549510","0.0-8.0-2.50","FL","po0zyzo9vq","1440","900","de","we06ed23","null","","","","learningBlock2","","","","<div style=""font-size:60px;""> </div>","null","FL","learning/Slide131.JPG","That was a bim.","",""
"","image-keyboard-response","401","549692","0.0-8.0-0.51","FL","po0zyzo9vq","1440","900","de","we06ed23","null","","","","","","","","learning/Slide132.JPG","null","","","","",""
"","html-keyboard-response","402","550853","0.0-8.0-1.51","FL","po0zyzo9vq","1440","900","de","we06ed23","null","","","","learningBlock2","","","","That was a dep.","null","","","","",""
"","html-keyboard-response","403","551860","0.0-8.0-2.51","FL","po0zyzo9vq","1440","900","de","we06ed23","null","","","","learningBlock2","","","","<div style=""font-size:60px;""> </div>","null","FL","learning/Slide132.JPG","That was a dep.","",""
"","image-keyboard-response","404","552044","0.0-8.0-0.52","FL","po0zyzo9vq","1440","900","de","we06ed23","null","","","","","","","","learning/Slide133.JPG","null","","","","",""
"","html-keyboard-response","405","553206","0.0-8.0-1.52","FL","po0zyzo9vq","1440","900","de","we06ed23","null","","","","learningBlock2","","","","That was a tob.","null","","","","",""
"","html-keyboard-response","406","554209","0.0-8.0-2.52","FL","po0zyzo9vq","1440","900","de","we06ed23","null","","","","learningBlock2","","","","<div style=""font-size:60px;""> </div>","null","FL","learning/Slide133.JPG","That was a tob.","",""
"","image-keyboard-response","407","554390","0.0-8.0-0.53","FL","po0zyzo9vq","1440","900","de","we06ed23","null","","","","","","","","learning/Slide134.JPG","null","","","","",""
"","html-keyboard-response","408","555552","0.0-8.0-1.53","FL","po0zyzo9vq","1440","900","de","we06ed23","null","","","","learningBlock2","","","","That was a dep.","null","","","","",""
"","html-keyboard-response","409","556558","0.0-8.0-2.53","FL","po0zyzo9vq","1440","900","de","we06ed23","null","","","","learningBlock2","","","","<div style=""font-size:60px;""> </div>","null","FL","learning/Slide134.JPG","That was a dep.","",""
"","image-keyboard-response","410","556740","0.0-8.0-0.54","FL","po0zyzo9vq","1440","900","de","we06ed23","null","","","","","","","","learning/Slide135.JPG","null","","","","",""
"","html-keyboard-response","411","557901","0.0-8.0-1.54","FL","po0zyzo9vq","1440","900","de","we06ed23","null","","","","learningBlock2","","","","That was a tob.","null","","","","",""
"","html-keyboard-response","412","558907","0.0-8.0-2.54","FL","po0zyzo9vq","1440","900","de","we06ed23","null","","","","learningBlock2","","","","<div style=""font-size:60px;""> </div>","null","FL","learning/Slide135.JPG","That was a tob.","",""
"","image-keyboard-response","413","559089","0.0-8.0-0.55","FL","po0zyzo9vq","1440","900","de","we06ed23","null","","","","","","","","learning/Slide136.JPG","null","","","","",""
"","html-keyboard-response","414","560250","0.0-8.0-1.55","FL","po0zyzo9vq","1440","900","de","we06ed23","null","","","","learningBlock2","","","","That was a wug.","null","","","","",""
"","html-keyboard-response","415","561257","0.0-8.0-2.55","FL","po0zyzo9vq","1440","900","de","we06ed23","null","","","","learningBlock2","","","","<div style=""font-size:60px;""> </div>","null","FL","learning/Slide136.JPG","That was a wug.","",""
"","image-keyboard-response","416","561438","0.0-8.0-0.56","FL","po0zyzo9vq","1440","900","de","we06ed23","null","","","","","","","","learning/Slide137.JPG","null","","","","",""
"","html-keyboard-response","417","562598","0.0-8.0-1.56","FL","po0zyzo9vq","1440","900","de","we06ed23","null","","","","learningBlock2","","","","That was a tob.","null","","","","",""
"","html-keyboard-response","418","563604","0.0-8.0-2.56","FL","po0zyzo9vq","1440","900","de","we06ed23","null","","","","learningBlock2","","","","<div style=""font-size:60px;""> </div>","null","FL","learning/Slide137.JPG","That was a tob.","",""
"","image-keyboard-response","419","563786","0.0-8.0-0.57","FL","po0zyzo9vq","1440","900","de","we06ed23","null","","","","","","","","learning/Slide138.JPG","null","","","","",""
"","html-keyboard-response","420","564948","0.0-8.0-1.57","FL","po0zyzo9vq","1440","900","de","we06ed23","null","","","","learningBlock2","","","","That was a bim.","null","","","","",""
"","html-keyboard-response","421","565954","0.0-8.0-2.57","FL","po0zyzo9vq","1440","900","de","we06ed23","null","","","","learningBlock2","","","","<div style=""font-size:60px;""> </div>","null","FL","learning/Slide138.JPG","That was a bim.","",""
"","image-keyboard-response","422","566136","0.0-8.0-0.58","FL","po0zyzo9vq","1440","900","de","we06ed23","null","","","","","","","","learning/Slide139.JPG","null","","","","",""
"","html-keyboard-response","423","567298","0.0-8.0-1.58","FL","po0zyzo9vq","1440","900","de","we06ed23","null","","","","learningBlock2","","","","That was a wug.","null","","","","",""
"","html-keyboard-response","424","568304","0.0-8.0-2.58","FL","po0zyzo9vq","1440","900","de","we06ed23","null","","","","learningBlock2","","","","<div style=""font-size:60px;""> </div>","null","FL","learning/Slide139.JPG","That was a wug.","",""
"","image-keyboard-response","425","568486","0.0-8.0-0.59","FL","po0zyzo9vq","1440","900","de","we06ed23","null","","","","","","","","learning/Slide140.JPG","null","","","","",""
"","html-keyboard-response","426","569644","0.0-8.0-1.59","FL","po0zyzo9vq","1440","900","de","we06ed23","null","","","","learningBlock2","","","","That was a dep.","null","","","","",""
"","html-keyboard-response","427","570650","0.0-8.0-2.59","FL","po0zyzo9vq","1440","900","de","we06ed23","null","","","","learningBlock2","","","","<div style=""font-size:60px;""> </div>","null","FL","learning/Slide140.JPG","That was a dep.","",""
"","image-keyboard-response","428","570827","0.0-8.0-0.60","FL","po0zyzo9vq","1440","900","de","we06ed23","null","","","","","","","","learning/Slide141.JPG","null","","","","",""
"","html-keyboard-response","429","571988","0.0-8.0-1.60","FL","po0zyzo9vq","1440","900","de","we06ed23","null","","","","learningBlock2","","","","That was a tob.","null","","","","",""
"","html-keyboard-response","430","572995","0.0-8.0-2.60","FL","po0zyzo9vq","1440","900","de","we06ed23","null","","","","learningBlock2","","","","<div style=""font-size:60px;""> </div>","null","FL","learning/Slide141.JPG","That was a tob.","",""
"","image-keyboard-response","431","573176","0.0-8.0-0.61","FL","po0zyzo9vq","1440","900","de","we06ed23","null","","","","","","","","learning/Slide142.JPG","null","","","","",""
"","html-keyboard-response","432","574338","0.0-8.0-1.61","FL","po0zyzo9vq","1440","900","de","we06ed23","null","","","","learningBlock2","","","","That was a wug.","null","","","","",""
"","html-keyboard-response","433","575344","0.0-8.0-2.61","FL","po0zyzo9vq","1440","900","de","we06ed23","null","","","","learningBlock2","","","","<div style=""font-size:60px;""> </div>","null","FL","learning/Slide142.JPG","That was a wug.","",""
"","image-keyboard-response","434","575526","0.0-8.0-0.62","FL","po0zyzo9vq","1440","900","de","we06ed23","null","","","","","","","","learning/Slide143.JPG","null","","","","",""
"","html-keyboard-response","435","576688","0.0-8.0-1.62","FL","po0zyzo9vq","1440","900","de","we06ed23","null","","","","learningBlock2","","","","That was a bim.","null","","","","",""
"","html-keyboard-response","436","577694","0.0-8.0-2.62","FL","po0zyzo9vq","1440","900","de","we06ed23","null","","","","learningBlock2","","","","<div style=""font-size:60px;""> </div>","null","FL","learning/Slide143.JPG","That was a bim.","",""
"","image-keyboard-response","437","577876","0.0-8.0-0.63","FL","po0zyzo9vq","1440","900","de","we06ed23","null","","","","","","","","learning/Slide144.JPG","null","","","","",""
"","html-keyboard-response","438","579038","0.0-8.0-1.63","FL","po0zyzo9vq","1440","900","de","we06ed23","null","","","","learningBlock2","","","","That was a dep.","null","","","","",""
"","html-keyboard-response","439","580045","0.0-8.0-2.63","FL","po0zyzo9vq","1440","900","de","we06ed23","null","","","","learningBlock2","","","","<div style=""font-size:60px;""> </div>","null","FL","learning/Slide144.JPG","That was a dep.","",""
"","image-keyboard-response","440","580226","0.0-8.0-0.64","FL","po0zyzo9vq","1440","900","de","we06ed23","null","","","","","","","","learning/Slide145.JPG","null","","","","",""
"","html-keyboard-response","441","581388","0.0-8.0-1.64","FL","po0zyzo9vq","1440","900","de","we06ed23","null","","","","learningBlock2","","","","That was a bim.","null","","","","",""
"","html-keyboard-response","442","582395","0.0-8.0-2.64","FL","po0zyzo9vq","1440","900","de","we06ed23","null","","","","learningBlock2","","","","<div style=""font-size:60px;""> </div>","null","FL","learning/Slide145.JPG","That was a bim.","",""
"","image-keyboard-response","443","582576","0.0-8.0-0.65","FL","po0zyzo9vq","1440","900","de","we06ed23","null","","","","","","","","learning/Slide146.JPG","null","","","","",""
"","html-keyboard-response","444","583733","0.0-8.0-1.65","FL","po0zyzo9vq","1440","900","de","we06ed23","null","","","","learningBlock2","","","","That was a tob.","null","","","","",""
"","html-keyboard-response","445","584734","0.0-8.0-2.65","FL","po0zyzo9vq","1440","900","de","we06ed23","null","","","","learningBlock2","","","","<div style=""font-size:60px;""> </div>","null","FL","learning/Slide146.JPG","That was a tob.","",""
"","image-keyboard-response","446","584916","0.0-8.0-0.66","FL","po0zyzo9vq","1440","900","de","we06ed23","null","","","","","","","","learning/Slide147.JPG","null","","","","",""
"","html-keyboard-response","447","586075","0.0-8.0-1.66","FL","po0zyzo9vq","1440","900","de","we06ed23","null","","","","learningBlock2","","","","That was a wug.","null","","","","",""
"","html-keyboard-response","448","587081","0.0-8.0-2.66","FL","po0zyzo9vq","1440","900","de","we06ed23","null","","","","learningBlock2","","","","<div style=""font-size:60px;""> </div>","null","FL","learning/Slide147.JPG","That was a wug.","",""
"","image-keyboard-response","449","587262","0.0-8.0-0.67","FL","po0zyzo9vq","1440","900","de","we06ed23","null","","","","","","","","learning/Slide148.JPG","null","","","","",""
"","html-keyboard-response","450","588420","0.0-8.0-1.67","FL","po0zyzo9vq","1440","900","de","we06ed23","null","","","","learningBlock2","","","","That was a bim.","null","","","","",""
"","html-keyboard-response","451","589427","0.0-8.0-2.67","FL","po0zyzo9vq","1440","900","de","we06ed23","null","","","","learningBlock2","","","","<div style=""font-size:60px;""> </div>","null","FL","learning/Slide148.JPG","That was a bim.","",""
"","image-keyboard-response","452","589608","0.0-8.0-0.68","FL","po0zyzo9vq","1440","900","de","we06ed23","null","","","","","","","","learning/Slide149.JPG","null","","","","",""
"","html-keyboard-response","453","590770","0.0-8.0-1.68","FL","po0zyzo9vq","1440","900","de","we06ed23","null","","","","learningBlock2","","","","That was a dep.","null","","","","",""
"","html-keyboard-response","454","591776","0.0-8.0-2.68","FL","po0zyzo9vq","1440","900","de","we06ed23","null","","","","learningBlock2","","","","<div style=""font-size:60px;""> </div>","null","FL","learning/Slide149.JPG","That was a dep.","",""
"","image-keyboard-response","455","591957","0.0-8.0-0.69","FL","po0zyzo9vq","1440","900","de","we06ed23","null","","","","","","","","learning/Slide150.JPG","null","","","","",""
"","html-keyboard-response","456","593119","0.0-8.0-1.69","FL","po0zyzo9vq","1440","900","de","we06ed23","null","","","","learningBlock2","","","","That was a wug.","null","","","","",""
"","html-keyboard-response","457","594125","0.0-8.0-2.69","FL","po0zyzo9vq","1440","900","de","we06ed23","null","","","","learningBlock2","","","","<div style=""font-size:60px;""> </div>","null","FL","learning/Slide150.JPG","That was a wug.","",""
"","image-keyboard-response","458","594304","0.0-8.0-0.70","FL","po0zyzo9vq","1440","900","de","we06ed23","null","","","","","","","","learning/Slide151.JPG","null","","","","",""
"","html-keyboard-response","459","595465","0.0-8.0-1.70","FL","po0zyzo9vq","1440","900","de","we06ed23","null","","","","learningBlock2","","","","That was a dep.","null","","","","",""
"","html-keyboard-response","460","596472","0.0-8.0-2.70","FL","po0zyzo9vq","1440","900","de","we06ed23","null","","","","learningBlock2","","","","<div style=""font-size:60px;""> </div>","null","FL","learning/Slide151.JPG","That was a dep.","",""
"","image-keyboard-response","461","596653","0.0-8.0-0.71","FL","po0zyzo9vq","1440","900","de","we06ed23","null","","","","","","","","learning/Slide152.JPG","null","","","","",""
"","html-keyboard-response","462","597814","0.0-8.0-1.71","FL","po0zyzo9vq","1440","900","de","we06ed23","null","","","","learningBlock2","","","","That was a wug.","null","","","","",""
"","html-keyboard-response","463","598820","0.0-8.0-2.71","FL","po0zyzo9vq","1440","900","de","we06ed23","null","","","","learningBlock2","","","","<div style=""font-size:60px;""> </div>","null","FL","learning/Slide152.JPG","That was a wug.","",""
"","image-keyboard-response","464","599002","0.0-8.0-0.72","FL","po0zyzo9vq","1440","900","de","we06ed23","null","","","","","","","","learning/Slide153.JPG","null","","","","",""
"","html-keyboard-response","465","600160","0.0-8.0-1.72","FL","po0zyzo9vq","1440","900","de","we06ed23","null","","","","learningBlock2","","","","That was a bim.","null","","","","",""
"","html-keyboard-response","466","601166","0.0-8.0-2.72","FL","po0zyzo9vq","1440","900","de","we06ed23","null","","","","learningBlock2","","","","<div style=""font-size:60px;""> </div>","null","FL","learning/Slide153.JPG","That was a bim.","",""
"","image-keyboard-response","467","601348","0.0-8.0-0.73","FL","po0zyzo9vq","1440","900","de","we06ed23","null","","","","","","","","learning/Slide154.JPG","null","","","","",""
"","html-keyboard-response","468","602509","0.0-8.0-1.73","FL","po0zyzo9vq","1440","900","de","we06ed23","null","","","","learningBlock2","","","","That was a tob.","null","","","","",""
"","html-keyboard-response","469","603516","0.0-8.0-2.73","FL","po0zyzo9vq","1440","900","de","we06ed23","null","","","","learningBlock2","","","","<div style=""font-size:60px;""> </div>","null","FL","learning/Slide154.JPG","That was a tob.","",""
"","image-keyboard-response","470","603697","0.0-8.0-0.74","FL","po0zyzo9vq","1440","900","de","we06ed23","null","","","","","","","","learning/Slide155.JPG","null","","","","",""
"","html-keyboard-response","471","604854","0.0-8.0-1.74","FL","po0zyzo9vq","1440","900","de","we06ed23","null","","","","learningBlock2","","","","That was a dep.","null","","","","",""
"","html-keyboard-response","472","605860","0.0-8.0-2.74","FL","po0zyzo9vq","1440","900","de","we06ed23","null","","","","learningBlock2","","","","<div style=""font-size:60px;""> </div>","null","FL","learning/Slide155.JPG","That was a dep.","",""
"","image-keyboard-response","473","606042","0.0-8.0-0.75","FL","po0zyzo9vq","1440","900","de","we06ed23","null","","","","","","","","learning/Slide156.JPG","null","","","","",""
"","html-keyboard-response","474","607204","0.0-8.0-1.75","FL","po0zyzo9vq","1440","900","de","we06ed23","null","","","","learningBlock2","","","","That was a bim.","null","","","","",""
"","html-keyboard-response","475","608210","0.0-8.0-2.75","FL","po0zyzo9vq","1440","900","de","we06ed23","null","","","","learningBlock2","","","","<div style=""font-size:60px;""> </div>","null","FL","learning/Slide156.JPG","That was a bim.","",""
"","image-keyboard-response","476","608392","0.0-8.0-0.76","FL","po0zyzo9vq","1440","900","de","we06ed23","null","","","","","","","","learning/Slide157.JPG","null","","","","",""
"","html-keyboard-response","477","609554","0.0-8.0-1.76","FL","po0zyzo9vq","1440","900","de","we06ed23","null","","","","learningBlock2","","","","That was a dep.","null","","","","",""
"","html-keyboard-response","478","610560","0.0-8.0-2.76","FL","po0zyzo9vq","1440","900","de","we06ed23","null","","","","learningBlock2","","","","<div style=""font-size:60px;""> </div>","null","FL","learning/Slide157.JPG","That was a dep.","",""
"","image-keyboard-response","479","610742","0.0-8.0-0.77","FL","po0zyzo9vq","1440","900","de","we06ed23","null","","","","","","","","learning/Slide158.JPG","null","","","","",""
"","html-keyboard-response","480","611904","0.0-8.0-1.77","FL","po0zyzo9vq","1440","900","de","we06ed23","null","","","","learningBlock2","","","","That was a tob.","null","","","","",""
"","html-keyboard-response","481","612910","0.0-8.0-2.77","FL","po0zyzo9vq","1440","900","de","we06ed23","null","","","","learningBlock2","","","","<div style=""font-size:60px;""> </div>","null","FL","learning/Slide158.JPG","That was a tob.","",""
"","image-keyboard-response","482","613092","0.0-8.0-0.78","FL","po0zyzo9vq","1440","900","de","we06ed23","null","","","","","","","","learning/Slide159.JPG","null","","","","",""
"","html-keyboard-response","483","614254","0.0-8.0-1.78","FL","po0zyzo9vq","1440","900","de","we06ed23","null","","","","learningBlock2","","","","That was a dep.","null","","","","",""
"","html-keyboard-response","484","615260","0.0-8.0-2.78","FL","po0zyzo9vq","1440","900","de","we06ed23","null","","","","learningBlock2","","","","<div style=""font-size:60px;""> </div>","null","FL","learning/Slide159.JPG","That was a dep.","",""
"","image-keyboard-response","485","615442","0.0-8.0-0.79","FL","po0zyzo9vq","1440","900","de","we06ed23","null","","","","","","","","learning/Slide160.JPG","null","","","","",""
"","html-keyboard-response","486","616604","0.0-8.0-1.79","FL","po0zyzo9vq","1440","900","de","we06ed23","null","","","","learningBlock2","","","","That was a wug.","null","","","","",""
"","html-keyboard-response","487","617610","0.0-8.0-2.79","FL","po0zyzo9vq","1440","900","de","we06ed23","null","","","","learningBlock2","","","","<div style=""font-size:60px;""> </div>","null","FL","learning/Slide160.JPG","That was a wug.","",""
"","resize2","488","623341","0.0-9.0","FL","po0zyzo9vq","1440","900","de","we06ed23","","","","","","","104","1.04","","","","","","",""
